"rt","url","trial_type","trial_index","time_elapsed","internal_node_id","participant_id","stimulus","button_pressed","Name","responses","response","key_press","variableName","fixationTime","condition","trial","photo","subjectRating","subjectResponse","agentsNames","agent_1_Response","agent_2_Response","agent_3_Response","agent_4_Response","agent_5_Response","agent_6_Response","kept_1_name","kept_1_response","kept_2_name","kept_2_response","kept_3_name","kept_3_response","errorCounter"
"11902","external_page_harvard.html","external-html","0","11955","0.0-0.0","A10LC8N32VVVV","","","","","","","","","","","","","","","","","","","","","","","","","","",""
"2227","","image-button-response","1","14224","0.0-1.0","A10LC8N32VVVV","","0","","","","","","","","","","","","","","","","","","","","","","","","",""
"5823","","image-button-response","2","20204","0.0-2.0-0.0","A10LC8N32VVVV","","1","phone","","","","","","","","","","","","","","","","","","","","","","","",""
"77315","","survey-text","3","97545","0.0-3.0-0.0","A10LC8N32VVVV","","","","{""Q0"":""A10LC8N32VVVV""}","","","","","","","","","","","","","","","","","","","","","","",""
"7050","","image-button-response_instructions","4","104623","0.0-4.0","A10LC8N32VVVV","","0","instructions","","","","","","","","","","","","","","","","","","","","","","","",""
"29428","","image-button-response_instructions","5","134061","0.0-5.0","A10LC8N32VVVV","img_art/ins/popularity/ins1.png","0","instructions","","","","","","","","","","","","","","","","","","","","","","","",""
"7187","","image-button-response_instructions","6","141255","0.0-6.0","A10LC8N32VVVV","img_art/ins/popularity/ins2.png","0","instructions","","","","","","","","","","","","","","","","","","","","","","","",""
"6763","","image-button-response_instructions","7","148031","0.0-7.0","A10LC8N32VVVV","img_art/ins/popularity/ins2Extreme.png","0","instructions","","","","","","","","","","","","","","","","","","","","","","","",""
"14795","","image-button-response_instructions","8","162834","0.0-8.0","A10LC8N32VVVV","img_art/ins/popularity/ins3KEEPpop.PNG","0","instructions","","","","","","","","","","","","","","","","","","","","","","","",""
"2989","","image-button-response_instructions","9","165830","0.0-9.0","A10LC8N32VVVV","img_art/ins/popularity/ins3ANamepop.PNG","0","instructions","","","","","","","","","","","","","","","","","","","","","","","",""
"4150","","image-button-response_instructions","10","169985","0.0-10.0","A10LC8N32VVVV","img_art/ins/popularity/ins3ARatingpop.png","0","instructions","","","","","","","","","","","","","","","","","","","","","","","",""
"3395","","image-button-response_instructions","11","173385","0.0-11.0","A10LC8N32VVVV","img_art/ins/popularity/ins3ATextpop.png","0","instructions","","","","","","","","","","","","","","","","","","","","","","","",""
"7445","","image-button-response_instructions","12","180834","0.0-12.0","A10LC8N32VVVV","img_art/ins/popularity/ins3ALikespop.png","0","instructions","","","","","","","","","","","","","","","","","","","","","","","",""
"12134","","image-button-response_instructions","13","192973","0.0-13.0","A10LC8N32VVVV","img_art/ins/popularity/ins3KEEPpop.PNG","0","instructions","","","","","","","","","","","","","","","","","","","","","","","",""
"9809","","image-button-response_instructions","14","202787","0.0-14.0","A10LC8N32VVVV","img_art/ins/popularity/ins3_5RED.png","0","instructions","","","","","","","","","","","","","","","","","","","","","","","",""
"6080","","image-button-response_instructions","15","208871","0.0-15.0","A10LC8N32VVVV","img_art/ins/popularity/ins3KEEPpop.PNG","0","instructions","","","","","","","","","","","","","","","","","","","","","","","",""
"13972","","image-button-response_instructions","16","222847","0.0-16.0","A10LC8N32VVVV","img_art/ins/popularity/ins4KEEPpop.PNG","0","instructions","","","","","","","","","","","","","","","","","","","","","","","",""
"4263","","image-button-response_instructions","17","227117","0.0-17.0","A10LC8N32VVVV","img_art/ins/popularity/ins5KEEPpop.PNG","0","instructions","","","","","","","","","","","","","","","","","","","","","","","",""
"1629","","image-button-response_instructions","18","228754","0.0-18.0","A10LC8N32VVVV","","0","instructions","","","","","","","","","","","","","","","","","","","","","","","",""
"11413","","survey-text","19","240368","0.0-19.0-0.0","A10LC8N32VVVV","","","","{""Q0"":""but""}","","","","","","","","","","","","","","","","","","","","","","",""
"25046","","survey-text","20","265425","0.0-20.0-0.0","A10LC8N32VVVV","","","","{""Q0"":""Colourful like a bright summer day""}","","","","","","","","","","","","","","","","","","","","","","",""
"8303.70000000298","","image-slider-response","21","273750","0.0-21.0","A10LC8N32VVVV","","","","","23","","","","","","","","","","","","","","","","","","","","","",""
"null","","image-button-response","22","278775","0.0-22.0","A10LC8N32VVVV","img_art/ins/1.jpg","null","","","","","","","","","","","","","","","","","","","","","","","","",""
"4953","","image-button-response","23","283751","0.0-23.0","A10LC8N32VVVV","img_art/ins/1.jpg","3","","","","","","","","","","","","","","","","","","","","","","","","",""
"1478","","image-button-response","24","285250","0.0-24.0-0.0","A10LC8N32VVVV","img_art/ins/1.jpg","4","","","","","","","","","","","","","","","","","","","","","","","","",""
"3573","","image-button-response","25","288848","0.0-25.0-0.0","A10LC8N32VVVV","img_art/ins/1.jpg","5","","","","","","","","","","","","","","","","","","","","","","","","",""
"null","","html-keyboard-response","26","289865","0.0-26.0","A10LC8N32VVVV","<p style=""font-size: 48px;"">+</p>","","","","","null","allTrialResponses","1000","1","-2","img_art/ins/1.jpg","23","Colourful like a bright summer day","Adam,Alex,Ben,Carl,Daniel,Jack","Seems like doodles,-20,20,20","very creative work.,36,40,20","This color reminds me of poo,-46,60,20","very calming artwork,42,80,20","It looks like a murder scene.,-48,100,20","I like the sophisticated brushwork,40,120,20","Carl","very calming artwork,42,80,20","Daniel","It looks like a murder scene.,-48,100,20","Jack","I like the sophisticated brushwork,40,120,20","0"
"42156","","survey-text","27","332055","0.0-27.0-0.0","A10LC8N32VVVV","","","","{""Q0"":""Dark and eerie and very moody.""}","","","","","","","","","","","","","","","","","","","","","","",""
"4907.70000000298","","image-slider-response","28","336975","0.0-28.0","A10LC8N32VVVV","","","","","34","","","","","","","","","","","","","","","","","","","","","",""
"null","","image-button-response","29","341994","0.0-29.0","A10LC8N32VVVV","img_art/ins/2.jpg","null","","","","","","","","","","","","","","","","","","","","","","","","",""
"1208","","image-button-response","30","343216","0.0-30.0","A10LC8N32VVVV","img_art/ins/2.jpg","0","","","","","","","","","","","","","","","","","","","","","","","","",""
"2340","","image-button-response","31","345576","0.0-31.0-0.0","A10LC8N32VVVV","img_art/ins/2.jpg","3","","","","","","","","","","","","","","","","","","","","","","","","",""
"4149","","image-button-response","32","349741","0.0-32.0-0.0","A10LC8N32VVVV","img_art/ins/2.jpg","5","","","","","","","","","","","","","","","","","","","","","","","","",""
"null","","html-keyboard-response","33","351250","0.0-33.0","A10LC8N32VVVV","<p style=""font-size: 48px;"">+</p>","","","","","null","allTrialResponses","1500","1","-1","img_art/ins/2.jpg","34","Dark and eerie and very moody.","James,John,Kyle,Carl,Daniel,Jack","looks too angry,-50,140,20","love the texture of paint,48,160,20","Idk, it is just annoying,-32,180,20","I can feel the artist's passion in it,45,80,20","One of my pet peevs,-48,100,20","I would never be able to compose a sophisticated pallete like this,48,120,20","James","looks too angry,-50,140,20","Carl","I can feel the artist's passion in it,45,80,20","Jack","I would never be able to compose a sophisticated pallete like this,48,120,20","0"
"18095","","survey-text","34","369374","0.0-34.0-0.0","A10LC8N32VVVV","","","","{""Q0"":""Like a frozen still tundra""}","","","","","","","","","","","","","","","","","","","","","","",""
"3454.5","","image-slider-response","35","372840","0.0-35.0","A10LC8N32VVVV","","","","","18","","","","","","","","","","","","","","","","","","","","","",""
"3807","","image-button-response","36","377857","0.0-36.0","A10LC8N32VVVV","img_art/ins/3.jpg","5","","","","","","","","","","","","","","","","","","","","","","","","",""
"351","","image-button-response","37","378224","0.0-37.0","A10LC8N32VVVV","img_art/ins/3.jpg","2","","","","","","","","","","","","","","","","","","","","","","","","",""
"2567","","image-button-response","38","380805","0.0-38.0-0.0","A10LC8N32VVVV","img_art/ins/3.jpg","0","","","","","","","","","","","","","","","","","","","","","","","","",""
"1516","","image-button-response","39","382343","0.0-39.0-0.0","A10LC8N32VVVV","img_art/ins/3.jpg","5","","","","","","","","","","","","","","","","","","","","","","","","",""
"null","","html-keyboard-response","40","383851","0.0-40.0","A10LC8N32VVVV","<p style=""font-size: 48px;"">+</p>","","","","","null","allTrialResponses","1500","1","0","img_art/ins/3.jpg","18","Like a frozen still tundra","James,Sam,Mike,Carl,Ron,Jack","My worst nightmare,-42,140,20","I can feel a rainy day from this painting,18,240,20","enjoy the different shades of blue,22,200,20","It's an alright work,15,80,20","It looks depressing,-26,220,20","I feel connected to the artist,40,120,20","Mike","enjoy the different shades of blue,22,200,20","James","My worst nightmare,-42,140,20","Jack","I feel connected to the artist,40,120,20","0"
"5562","","image-button-response_instructions","41","389447","0.0-41.0","A10LC8N32VVVV","","0","instructions","","","","","","","","","","","","","","","","","","","","","","","",""
"9862","","survey-likert","42","399321","0.0-42.0-0.0","A10LC8N32VVVV","","","","{""Q0"":"""",""Q1"":0,""Q2"":1}","","","","","","","","","","","","","","","","","","","","","","",""
"8116","","survey-text","43","407483","0.0-43.0-0.0","A10LC8N32VVVV","","","","{""Q0"":""rock""}","","","","","","","","","","","","","","","","","","","","","","",""
"39945","","survey-text","44","447441","0.0-44.0-0.0","A10LC8N32VVVV","","","","{""Q0"":""Like a red fire after a pizza caught fire""}","","","","","","","","","","","","","","","","","","","","","","",""
"3653.3999999910593","","image-slider-response","45","451107","0.0-45.0","A10LC8N32VVVV","","","","","18","","","","","","","","","","","","","","","","","","","","","",""
"4309","","image-button-response","46","456290","0.0-46.0","A10LC8N32VVVV","img_art/3.jpg","1","","","","","","","","","","","","","","","","","","","","","","","","",""
"3237","","image-button-response","47","459547","0.0-47.0","A10LC8N32VVVV","img_art/3.jpg","4","","","","","","","","","","","","","","","","","","","","","","","","",""
"1828","","image-button-response","48","461394","0.0-48.0-0.0","A10LC8N32VVVV","img_art/3.jpg","1","","","","","","","","","","","","","","","","","","","","","","","","",""
"905","","image-button-response","49","462318","0.0-49.0-0.0","A10LC8N32VVVV","img_art/3.jpg","3","","","","","","","","","","","","","","","","","","","","","","","","",""
"null","","html-keyboard-response","50","463828","0.0-50.0","A10LC8N32VVVV","<p style=""font-size: 48px;"">+</p>","","","","","null","allTrialResponses","1500","1","1","img_art/3.jpg","18","Like a red fire after a pizza caught fire","Scott,Isaiah,Corey,Vincent,Juan,Nathan","I like that it's messy,14,20,20","I feel uncomfortable, like I am looking at a crime scene.,-17,300,20","seems distressing. a blood scene,-3,260,20","Iike this one it's a piece that I need to spend more time with to understand how i feel about it,20,360,20","It makes me think of just an angry scribble. There's no beauty to it for me.,-50,260,20","Looks like it was painted with blood, which I'm aware is an art style, but it just looks messy.,-20,200,20","Juan","It makes me think of just an angry scribble. There's no beauty to it for me.,-50,260,20","Isaiah","I feel uncomfortable, like I am looking at a crime scene.,-17,300,20","Vincent","Iike this one it's a piece that I need to spend more time with to understand how i feel about it,20,360,20","0"
"37663","","survey-text","51","501544","0.0-51.0-0.0","A10LC8N32VVVV","","","","{""Q0"":""It looks like a waterfall in the garden of eden""}","","","","","","","","","","","","","","","","","","","","","","",""
"3108.300000011921","","image-slider-response","52","504710","0.0-52.0","A10LC8N32VVVV","","","","","30","","","","","","","","","","","","","","","","","","","","","",""
"null","","image-button-response","53","509751","0.0-53.0","A10LC8N32VVVV","img_art/24.jpg","null","","","","","","","","","","","","","","","","","","","","","","","","",""
"5063","","image-button-response","54","514834","0.0-54.0","A10LC8N32VVVV","img_art/24.jpg","1","","","","","","","","","","","","","","","","","","","","","","","","",""
"7544","","image-button-response","55","522402","0.0-55.0-0.0","A10LC8N32VVVV","img_art/24.jpg","4","","","","","","","","","","","","","","","","","","","","","","","","",""
"1712","","image-button-response","56","524142","0.0-56.0-0.0","A10LC8N32VVVV","img_art/24.jpg","3","","","","","","","","","","","","","","","","","","","","","","","","",""
"null","","html-keyboard-response","57","525155","0.0-57.0","A10LC8N32VVVV","<p style=""font-size: 48px;"">+</p>","","","","","null","allTrialResponses","1000","1","2","img_art/24.jpg","30","It looks like a waterfall in the garden of eden","Gregory,Isaiah,Spencer,Vincent,Juan,Eric","Beautiful waterfall with nice colors,40,220,20","I feel relaxed and happy, looking at the stream, but it feels hollow, like something is fake.,5,300,20","Happy, the forest as I would love to see it,50,120,20","Spending a day in nature,21,360,20","I love the colors, but I wish the water was less abstract.,17,260,20","I'm reminded of a waterfall, but I feel like it could've been better portrayed.,5,100,20","Isaiah","I feel relaxed and happy, looking at the stream, but it feels hollow, like something is fake.,5,300,20","Juan","I love the colors, but I wish the water was less abstract.,17,260,20","Vincent","Spending a day in nature,21,360,20","0"
"22754","","survey-text","58","547969","0.0-58.0-0.0","A10LC8N32VVVV","","","","{""Q0"":""Like a western town at the end of the universe""}","","","","","","","","","","","","","","","","","","","","","","",""
"3815.7000000029802","","image-slider-response","59","551797","0.0-59.0","A10LC8N32VVVV","","","","","33","","","","","","","","","","","","","","","","","","","","","",""
"null","","image-button-response","60","556815","0.0-60.0","A10LC8N32VVVV","img_art/20.jpg","null","","","","","","","","","","","","","","","","","","","","","","","","",""
"8200","","image-button-response","61","565029","0.0-61.0","A10LC8N32VVVV","img_art/20.jpg","1","","","","","","","","","","","","","","","","","","","","","","","","",""
"3324","","image-button-response","62","568369","0.0-62.0-0.0","A10LC8N32VVVV","img_art/20.jpg","5","","","","","","","","","","","","","","","","","","","","","","","","",""
"4969","","image-button-response","63","573350","0.0-63.0-0.0","A10LC8N32VVVV","img_art/20.jpg","3","","","","","","","","","","","","","","","","","","","","","","","","",""
"null","","html-keyboard-response","64","574356","0.0-64.0","A10LC8N32VVVV","<p style=""font-size: 48px;"">+</p>","","","","","null","allTrialResponses","1000","1","3","img_art/20.jpg","33","Like a western town at the end of the universe","Jorge,Isaiah,Richard,Vincent,Juan,Shawn","Curious about what lies here,10,180,20","I feel powerful, like I am looking out a window at this machine, that I am in charge.,17,300,20","The white blob on the left seems out of place,-34,340,20","I love the colors and coukd spend alot of time with the picture,33,360,20","I like the deep blues, but I don't like the way this picture makes me feel.,-13,260,20","Mood setting if a little dreary,20,100,20","Isaiah","I feel powerful, like I am looking out a window at this machine, that I am in charge.,17,300,20","Shawn","Mood setting if a little dreary,20,100,20","Vincent","I love the colors and coukd spend alot of time with the picture,33,360,20","0"
"41830","","survey-text","65","616218","0.0-65.0-0.0","A10LC8N32VVVV","","","","{""Q0"":""A rug of little textiles that merged and melted together""}","","","","","","","","","","","","","","","","","","","","","","",""
"3204.7000000029802","","image-slider-response","66","619438","0.0-66.0","A10LC8N32VVVV","","","","","16","","","","","","","","","","","","","","","","","","","","","",""
"null","","image-button-response","67","624457","0.0-67.0","A10LC8N32VVVV","img_art/12.jpg","null","","","","","","","","","","","","","","","","","","","","","","","","",""
"2671","","image-button-response","68","627141","0.0-68.0","A10LC8N32VVVV","img_art/12.jpg","0","","","","","","","","","","","","","","","","","","","","","","","","",""
"2375","","image-button-response","69","629552","0.0-69.0-0.0","A10LC8N32VVVV","img_art/12.jpg","2","","","","","","","","","","","","","","","","","","","","","","","","",""
"3555","","image-button-response","70","633120","0.0-70.0-0.0","A10LC8N32VVVV","img_art/12.jpg","3","","","","","","","","","","","","","","","","","","","","","","","","",""
"null","","html-keyboard-response","71","634630","0.0-71.0","A10LC8N32VVVV","<p style=""font-size: 48px;"">+</p>","","","","","null","allTrialResponses","1500","1","4","img_art/12.jpg","16","A rug of little textiles that merged and melted together","Colton,Isaiah,Sean,Vincent,Aaron,Shawn","i like the repetition,30,220,20","The painting makes me uncomfortable. The smears in the boxes feel like a giant mess.,-16,300,20","my reaction is that the picture is wierd,-11,40,20","I have seen some like this before very popular and full of life,42,360,20","Therapist wall art.,10,20,20","Nice hallway art for a hotel.,21,100,20","Colton","i like the repetition,30,220,20","Sean","my reaction is that the picture is wierd,-11,40,20","Vincent","I have seen some like this before very popular and full of life,42,360,20","0"
"49317","","survey-text","72","683980","0.0-72.0-0.0","A10LC8N32VVVV","","","","{""Q0"":""A town in the mind of John Steinbeck as he wrote his words""}","","","","","","","","","","","","","","","","","","","","","","",""
"3279","","image-slider-response","73","687271","0.0-73.0","A10LC8N32VVVV","","","","","28","","","","","","","","","","","","","","","","","","","","","",""
"null","","image-button-response","74","692289","0.0-74.0","A10LC8N32VVVV","img_art/11.jpg","null","","","","","","","","","","","","","","","","","","","","","","","","",""
"2447","","image-button-response","75","694751","0.0-75.0","A10LC8N32VVVV","img_art/11.jpg","0","","","","","","","","","","","","","","","","","","","","","","","","",""
"2856","","image-button-response","76","697623","0.0-76.0-0.0","A10LC8N32VVVV","img_art/11.jpg","1","","","","","","","","","","","","","","","","","","","","","","","","",""
"1326","","image-button-response","77","698965","0.0-77.0-0.0","A10LC8N32VVVV","img_art/11.jpg","0","","","","","","","","","","","","","","","","","","","","","","","","",""
"1130","","image-button-response","78","703525","0.0-77.1-0.1","A10LC8N32VVVV","img_art/11.jpg","2","","","","","","","","","","","","","","","","","","","","","","","","",""
"null","","html-keyboard-response","79","705034","0.0-78.0","A10LC8N32VVVV","<p style=""font-size: 48px;"">+</p>","","","","","null","allTrialResponses","1500","1","5","img_art/11.jpg","28","A town in the mind of John Steinbeck as he wrote his words","Colton,Jacob,Sean,Vincent,Jesus,Edward","the wavy lines are nice and pleasing,13,220,20","This looks cool, and definitely comes to life in a way,36,340,20","pic looks alright,8,40,20","Looks like a familiar area,31,360,20","The different textures and colors make this pleasing to look at.,30,100,20","Reminds me of a city and how chaotic it can be,22,60,20","Colton","the wavy lines are nice and pleasing,13,220,20","Jacob","This looks cool, and definitely comes to life in a way,36,340,20","Sean","pic looks alright,8,40,20","2"
"6199","","survey-text","80","711304","0.0-79.0-0.0","A10LC8N32VVVV","","","","{""Q0"":""sky""}","","","","","","","","","","","","","","","","","","","","","","",""
"34917","","survey-text","81","746289","0.0-80.0-0.0","A10LC8N32VVVV","","","","{""Q0"":""A childhood friend come to live in a dream of nightmares""}","","","","","","","","","","","","","","","","","","","","","","",""
"7053.20000000298","","image-slider-response","82","753371","0.0-81.0","A10LC8N32VVVV","","","","","29","","","","","","","","","","","","","","","","","","","","","",""
"null","","image-button-response","83","758402","0.0-82.0","A10LC8N32VVVV","img_art/16.jpg","null","","","","","","","","","","","","","","","","","","","","","","","","",""
"1667","","image-button-response","84","760089","0.0-83.0","A10LC8N32VVVV","img_art/16.jpg","5","","","","","","","","","","","","","","","","","","","","","","","","",""
"4625","","image-button-response","85","764731","0.0-84.0-0.0","A10LC8N32VVVV","img_art/16.jpg","4","","","","","","","","","","","","","","","","","","","","","","","","",""
"2685","","image-button-response","86","767435","0.0-85.0-0.0","A10LC8N32VVVV","img_art/16.jpg","0","","","","","","","","","","","","","","","","","","","","","","","","",""
"null","","html-keyboard-response","87","767947","0.0-86.0","A10LC8N32VVVV","<p style=""font-size: 48px;"">+</p>","","","","","null","allTrialResponses","500","1","6","img_art/16.jpg","29","A childhood friend come to live in a dream of nightmares","Colton,Jacob,Sean,Dalton,Zachary,Isaac","the materials used are interesting,30,220,20","Cool but the bear creeps me out?,8,340,20","my reaction is that the picture is creepy,-19,40,20","lol i dont know how i feel about this.,1,300,20","Not pleasing to the eyes. I do like that the gun is broken though.,-28,400,20","I wouldn't hang it up on my wall but I like the colors of the bear.,25,280,20","Isaac","I wouldn't hang it up on my wall but I like the colors of the bear.,25,280,20","Zachary","Not pleasing to the eyes. I do like that the gun is broken though.,-28,400,20","Colton","the materials used are interesting,30,220,20","2"
"26243","","survey-text","88","794249","0.0-87.0-0.0","A10LC8N32VVVV","","","","{""Q0"":""A chaotic mix of dancing art on the sun""}","","","","","","","","","","","","","","","","","","","","","","",""
"5713","","image-slider-response","89","799979","0.0-88.0","A10LC8N32VVVV","","","","","10","","","","","","","","","","","","","","","","","","","","","",""
"2960","","image-button-response","90","804997","0.0-89.0","A10LC8N32VVVV","img_art/1.jpg","1","","","","","","","","","","","","","","","","","","","","","","","","",""
"1600","","image-button-response","91","806616","0.0-90.0","A10LC8N32VVVV","img_art/1.jpg","3","","","","","","","","","","","","","","","","","","","","","","","","",""
"2145","","image-button-response","92","808801","0.0-91.0-0.0","A10LC8N32VVVV","img_art/1.jpg","5","","","","","","","","","","","","","","","","","","","","","","","","",""
"2276","","image-button-response","93","811096","0.0-92.0-0.0","A10LC8N32VVVV","img_art/1.jpg","1","","","","","","","","","","","","","","","","","","","","","","","","",""
"null","","html-keyboard-response","94","812605","0.0-93.0","A10LC8N32VVVV","<p style=""font-size: 48px;"">+</p>","","","","","null","allTrialResponses","1500","1","7","img_art/1.jpg","10","A chaotic mix of dancing art on the sun","Colton,Evan,Jesse,Noah,Zachary,Isaac","the colors are nice,8,220,20","It is beautiful, I really enjoy the colors,32,140,20","Im not a fan of the bluriness,-18,80,20","the bright colours evoke the 90s, and not their best part,-10,260,20","While I like the colors, I find nothing interesting or thought provoking about it.,10,400,20","The colors are a little too intense.,1,280,20","Noah","the bright colours evoke the 90s, and not their best part,-10,260,20","Isaac","The colors are a little too intense.,1,280,20","Evan","It is beautiful, I really enjoy the colors,32,140,20","2"
"38428","","survey-text","95","851073","0.0-94.0-0.0","A10LC8N32VVVV","","","","{""Q0"":""It looks like mars if it was made out of nougat and caramel""}","","","","","","","","","","","","","","","","","","","","","","",""
"3124.7000000029802","","image-slider-response","96","854216","0.0-95.0","A10LC8N32VVVV","","","","","29","","","","","","","","","","","","","","","","","","","","","",""
"null","","image-button-response","97","859235","0.0-96.0","A10LC8N32VVVV","img_art/7.jpg","null","","","","","","","","","","","","","","","","","","","","","","","","",""
"6008","","image-button-response","98","865255","0.0-97.0","A10LC8N32VVVV","img_art/7.jpg","5","","","","","","","","","","","","","","","","","","","","","","","","",""
"1056","","image-button-response","99","866327","0.0-98.0-0.0","A10LC8N32VVVV","img_art/7.jpg","4","","","","","","","","","","","","","","","","","","","","","","","","",""
"1052","","image-button-response","100","867388","0.0-99.0-0.0","A10LC8N32VVVV","img_art/7.jpg","2","","","","","","","","","","","","","","","","","","","","","","","","",""
"null","","html-keyboard-response","101","868395","0.0-100.0","A10LC8N32VVVV","<p style=""font-size: 48px;"">+</p>","","","","","null","allTrialResponses","1000","1","8","img_art/7.jpg","29","It looks like mars if it was made out of nougat and caramel","Dakota,Evan,Tristan,Noah,Connor,Isaac","I feel thirsty - reminds me of desert sand,11,280,20","I feel confused, am I looking at a painting or a close up picture of some sort of fly stone?,-19,140,20","Limited emotional reaction for me. No focus and highly abstract,-20,300,20","elicits no real response,0,260,20","Color is bland and looks damaged,-37,240,20","It looks more like wallpaper rather than a painting.,-27,280,20","Isaac","It looks more like wallpaper rather than a painting.,-27,280,20","Connor","Color is bland and looks damaged,-37,240,20","Tristan","Limited emotional reaction for me. No focus and highly abstract,-20,300,20","2"
"46963","","survey-text","102","915389","0.0-101.0-0.0","A10LC8N32VVVV","","","","{""Q0"":""An emperor in a field as his soldiers put down a rebellion""}","","","","","","","","","","","","","","","","","","","","","","",""
"4410.4000000059605","","image-slider-response","103","919812","0.0-102.0","A10LC8N32VVVV","","","","","15","","","","","","","","","","","","","","","","","","","","","",""
"3368","","image-button-response","104","924829","0.0-103.0","A10LC8N32VVVV","img_art/25.jpg","5","","","","","","","","","","","","","","","","","","","","","","","","",""
"132","","image-button-response","105","924978","0.0-104.0","A10LC8N32VVVV","img_art/25.jpg","4","","","","","","","","","","","","","","","","","","","","","","","","",""
"3139","","image-button-response","106","928132","0.0-105.0-0.0","A10LC8N32VVVV","img_art/25.jpg","1","","","","","","","","","","","","","","","","","","","","","","","","",""
"3612","","image-button-response","107","931766","0.0-106.0-0.0","A10LC8N32VVVV","img_art/25.jpg","2","","","","","","","","","","","","","","","","","","","","","","","","",""
"null","","html-keyboard-response","108","932275","0.0-107.0","A10LC8N32VVVV","<p style=""font-size: 48px;"">+</p>","","","","","null","allTrialResponses","500","1","9","img_art/25.jpg","15","An emperor in a field as his soldiers put down a rebellion","William,Bradley,Tristan,Anthony,Connor,Isaac","makes me think of a scary movie,-20,380,20","This one just has a dark feeling to me.,-50,300,20","The limited palette make this figure mysterious and interpret-able.,20,300,20","Spooky, but in a good way. I like the green and black color palette.,42,200,20","Looks like glow in the dark halloween decoration,-38,240,20","The color and image are unsettling.,-29,280,20","Connor","Looks like glow in the dark halloween decoration,-38,240,20","Bradley","This one just has a dark feeling to me.,-50,300,20","Tristan","The limited palette make this figure mysterious and interpret-able.,20,300,20","2"
"38429","","survey-text","109","970738","0.0-108.0-0.0","A10LC8N32VVVV","","","","{""Q0"":""A swirling dust that lifts the emotions like a tidal wave""}","","","","","","","","","","","","","","","","","","","","","","",""
"2917.2000000029802","","image-slider-response","110","973666","0.0-109.0","A10LC8N32VVVV","","","","","18","","","","","","","","","","","","","","","","","","","","","",""
"null","","image-button-response","111","978682","0.0-110.0","A10LC8N32VVVV","img_art/10.jpg","null","","","","","","","","","","","","","","","","","","","","","","","","",""
"3344","","image-button-response","112","982041","0.0-111.0","A10LC8N32VVVV","img_art/10.jpg","0","","","","","","","","","","","","","","","","","","","","","","","","",""
"1539","","image-button-response","113","983597","0.0-112.0-0.0","A10LC8N32VVVV","img_art/10.jpg","3","","","","","","","","","","","","","","","","","","","","","","","","",""
"1889","","image-button-response","114","985502","0.0-113.0-0.0","A10LC8N32VVVV","img_art/10.jpg","1","","","","","","","","","","","","","","","","","","","","","","","","",""
"null","","html-keyboard-response","115","986509","0.0-114.0","A10LC8N32VVVV","<p style=""font-size: 48px;"">+</p>","","","","","null","allTrialResponses","1000","1","10","img_art/10.jpg","18","A swirling dust that lifts the emotions like a tidal wave","Carlos,Bradley,Tristan,Matthew,Connor,Brandon","The colors and shapes are soothing but also disconcerting.,21,80,20","This piece is very intriguing to me.,3,300,20","Highly abstract and yet the shapes and colors provide an emotional accessibility for me.,20,300,20","AWESOME VIOLIN!`,26,120,20","Cello music instrument,11,240,20","Too abstract and it doesn't really remind me of anything,-40,320,20","Carlos","The colors and shapes are soothing but also disconcerting.,21,80,20","Matthew","AWESOME VIOLIN!`,26,120,20","Bradley","This piece is very intriguing to me.,3,300,20","2"
"7268","","survey-text","116","993843","0.0-115.0-0.0","A10LC8N32VVVV","","","","{""Q0"":""our""}","","","","","","","","","","","","","","","","","","","","","","",""
"56429","","survey-text","117","1050282","0.0-116.0-0.0","A10LC8N32VVVV","","","","{""Q0"":""A face faces the city and the tortured souls who live there. Darkly pretty""}","","","","","","","","","","","","","","","","","","","","","","",""
"7249.9000000059605","","image-slider-response","118","1057545","0.0-117.0","A10LC8N32VVVV","","","","","28","","","","","","","","","","","","","","","","","","","","","",""
"null","","image-button-response","119","1062562","0.0-118.0","A10LC8N32VVVV","img_art/8.jpg","null","","","","","","","","","","","","","","","","","","","","","","","","",""
"2495","","image-button-response","120","1065073","0.0-119.0","A10LC8N32VVVV","img_art/8.jpg","1","","","","","","","","","","","","","","","","","","","","","","","","",""
"1794","","image-button-response","121","1066883","0.0-120.0-0.0","A10LC8N32VVVV","img_art/8.jpg","3","","","","","","","","","","","","","","","","","","","","","","","","",""
"3035","","image-button-response","122","1069933","0.0-121.0-0.0","A10LC8N32VVVV","img_art/8.jpg","4","","","","","","","","","","","","","","","","","","","","","","","","",""
"null","","html-keyboard-response","123","1070939","0.0-122.0","A10LC8N32VVVV","<p style=""font-size: 48px;"">+</p>","","","","","null","allTrialResponses","1000","1","11","img_art/8.jpg","28","A face faces the city and the tortured souls who live there. Darkly pretty","Carlos,Bradley,Logan,Matthew,Christian,Caleb","Clean and stark. The colors are pleasant.,15,80,20","Interesting but it has a bit of a dark feel to it.,6,300,20","a cute little cute with some protectors,25,360,20","Escher? Dali? Could be their lovechild?,50,120,20","gives off inception vibes <3,50,140,20","Despite the detail, this picture is very abstract!,31,40,20","Bradley","Interesting but it has a bit of a dark feel to it.,6,300,20","Matthew","Escher? Dali? Could be their lovechild?,50,120,20","Christian","gives off inception vibes <3,50,140,20","2"
"121567","","survey-text","124","1192541","0.0-123.0-0.0","A10LC8N32VVVV","","","","{""Q0"":""Very abstract and yet sharply defined, you felt lost and at the same time peace""}","","","","","","","","","","","","","","","","","","","","","","",""
"3447.9000000059605","","image-slider-response","125","1196000","0.0-124.0","A10LC8N32VVVV","","","","","32","","","","","","","","","","","","","","","","","","","","","",""
"null","","image-button-response","126","1201018","0.0-125.0","A10LC8N32VVVV","img_art/4.jpg","null","","","","","","","","","","","","","","","","","","","","","","","","",""
"950","","image-button-response","127","1201983","0.0-126.0","A10LC8N32VVVV","img_art/4.jpg","0","","","","","","","","","","","","","","","","","","","","","","","","",""
"4168","","image-button-response","128","1206172","0.0-127.0-0.0","A10LC8N32VVVV","img_art/4.jpg","5","","","","","","","","","","","","","","","","","","","","","","","","",""
"2997","","image-button-response","129","1209189","0.0-128.0-0.0","A10LC8N32VVVV","img_art/4.jpg","2","","","","","","","","","","","","","","","","","","","","","","","","",""
"null","","html-keyboard-response","130","1210698","0.0-129.0","A10LC8N32VVVV","<p style=""font-size: 48px;"">+</p>","","","","","null","allTrialResponses","1500","1","12","img_art/4.jpg","32","Very abstract and yet sharply defined, you felt lost and at the same time peace","Jeffrey,Bradley,Michael,Matthew,Christian,Devon","Easy and relaxing,23,40,20","This looks like what happens when someone steps on a mustard packet.,-7,300,20","Looks like a child did it.,-42,140,20","It looks like a hand.,25,120,20","no sorry i can't really understand,-18,140,20","heart symbol - this tells a story of hidden love,30,400,20","Jeffrey","Easy and relaxing,23,40,20","Devon","heart symbol - this tells a story of hidden love,30,400,20","Michael","Looks like a child did it.,-42,140,20","2"
"23439","","survey-text","131","1234175","0.0-130.0-0.0","A10LC8N32VVVV","","","","{""Q0"":""The colors are engaging and wonderful""}","","","","","","","","","","","","","","","","","","","","","","",""
"4654","","image-slider-response","132","1238838","0.0-131.0","A10LC8N32VVVV","","","","","45","","","","","","","","","","","","","","","","","","","","","",""
"null","","image-button-response","133","1243859","0.0-132.0","A10LC8N32VVVV","img_art/21.jpg","null","","","","","","","","","","","","","","","","","","","","","","","","",""
"2546","","image-button-response","134","1246414","0.0-133.0","A10LC8N32VVVV","img_art/21.jpg","4","","","","","","","","","","","","","","","","","","","","","","","","",""
"965","","image-button-response","135","1247390","0.0-134.0-0.0","A10LC8N32VVVV","img_art/21.jpg","5","","","","","","","","","","","","","","","","","","","","","","","","",""
"5175","","image-button-response","136","1252578","0.0-135.0-0.0","A10LC8N32VVVV","img_art/21.jpg","2","","","","","","","","","","","","","","","","","","","","","","","","",""
"null","","html-keyboard-response","137","1253113","0.0-136.0","A10LC8N32VVVV","<p style=""font-size: 48px;"">+</p>","","","","","null","allTrialResponses","500","1","13","img_art/21.jpg","45","The colors are engaging and wonderful","Jeffrey,Jared,Michael,Steven,Benjamin,Devon","Relaxing and easy to look at,27,40,20","i like the way the colors divide the canvas.,16,400,20","What's the point?,-30,140,20","Okay, I love the color schemes, I can't quite figure it out though,14,160,20","sunset after the rain,49,260,20","waterpaint is attractive,13,400,20","Benjamin","sunset after the rain,49,260,20","Devon","waterpaint is attractive,13,400,20","Michael","What's the point?,-30,140,20","2"
"47809","","survey-text","138","1300960","0.0-137.0-0.0","A10LC8N32VVVV","","","","{""Q0"":""This looks as if  jazz was able to be put on a canvas""}","","","","","","","","","","","","","","","","","","","","","","",""
"2682","","image-slider-response","139","1303655","0.0-138.0","A10LC8N32VVVV","","","","","18","","","","","","","","","","","","","","","","","","","","","",""
"null","","image-button-response","140","1308672","0.0-139.0","A10LC8N32VVVV","img_art/30.jpg","null","","","","","","","","","","","","","","","","","","","","","","","","",""
"1568","","image-button-response","141","1310260","0.0-140.0","A10LC8N32VVVV","img_art/30.jpg","4","","","","","","","","","","","","","","","","","","","","","","","","",""
"3514","","image-button-response","142","1313792","0.0-141.0-0.0","A10LC8N32VVVV","img_art/30.jpg","1","","","","","","","","","","","","","","","","","","","","","","","","",""
"3967","","image-button-response","143","1317778","0.0-142.0-0.0","A10LC8N32VVVV","img_art/30.jpg","0","","","","","","","","","","","","","","","","","","","","","","","","",""
"null","","html-keyboard-response","144","1318289","0.0-143.0","A10LC8N32VVVV","<p style=""font-size: 48px;"">+</p>","","","","","null","allTrialResponses","500","1","14","img_art/30.jpg","18","This looks as if  jazz was able to be put on a canvas","Lucas,Chase,Michael,Trevor,Benjamin,Devon","I like the way the artist has painted his work.,40,380,20","Too dark and ugly with all the black smears,-20,120,20","It looks like a child did it. There is nothing talented or special about it.,-16,140,20","it looks like some thing I could make it my garage,-18,280,20","fresh and bold. outgoing.,15,260,20","the different roads to take in life,10,400,20","Benjamin","fresh and bold. outgoing.,15,260,20","Chase","Too dark and ugly with all the black smears,-20,120,20","Lucas","I like the way the artist has painted his work.,40,380,20","2"
"41220","","survey-text","145","1359554","0.0-144.0-0.0","A10LC8N32VVVV","","","","{""Q0"":""A crow who stepped on a giant peach. Contemplating. Inviting""}","","","","","","","","","","","","","","","","","","","","","","",""
"3246","","image-slider-response","146","1362812","0.0-145.0","A10LC8N32VVVV","","","","","20","","","","","","","","","","","","","","","","","","","","","",""
"3940","","image-button-response","147","1367829","0.0-146.0","A10LC8N32VVVV","img_art/6.jpg","5","","","","","","","","","","","","","","","","","","","","","","","","",""
"4080","","image-button-response","148","1371926","0.0-147.0","A10LC8N32VVVV","img_art/6.jpg","0","","","","","","","","","","","","","","","","","","","","","","","","",""
"3432","","image-button-response","149","1375375","0.0-148.0-0.0","A10LC8N32VVVV","img_art/6.jpg","2","","","","","","","","","","","","","","","","","","","","","","","","",""
"2743","","image-button-response","150","1378139","0.0-149.0-0.0","A10LC8N32VVVV","img_art/6.jpg","4","","","","","","","","","","","","","","","","","","","","","","","","",""
"null","","html-keyboard-response","151","1379148","0.0-150.0","A10LC8N32VVVV","<p style=""font-size: 48px;"">+</p>","","","","","null","allTrialResponses","1000","1","15","img_art/6.jpg","20","A crow who stepped on a giant peach. Contemplating. Inviting","Lucas,Chase,Nicholas,Jose,Benjamin,Marcus","Nothing special.,-20,380,20","It's a bit bland, but looks like a bird standing.,11,120,20","It isnt bad but sort of too bland,0,240,20","This could be so many different things. I saw a bird first but then it looks like a needle going into skin,34,200,20","Something very simplistic about it. The colors mesh well.,10,260,20","I like the orange color, and I don't know why but I like this piece.,22,60,20","Lucas","Nothing special.,-20,380,20","Nicholas","It isnt bad but sort of too bland,0,240,20","Benjamin","Something very simplistic about it. The colors mesh well.,10,260,20","2"
"13393","","survey-text","152","1392617","0.0-151.0-0.0","A10LC8N32VVVV","","","","{""Q0"":""course""}","","","","","","","","","","","","","","","","","","","","","","",""
"48201","","survey-text","153","1440831","0.0-152.0-0.0","A10LC8N32VVVV","","","","{""Q0"":""It has the feel of a birthday cake that melted in the rain""}","","","","","","","","","","","","","","","","","","","","","","",""
"2722.5","","image-slider-response","154","1443568","0.0-153.0","A10LC8N32VVVV","","","","","23","","","","","","","","","","","","","","","","","","","","","",""
"null","","image-button-response","155","1448587","0.0-154.0","A10LC8N32VVVV","img_art/29.jpg","null","","","","","","","","","","","","","","","","","","","","","","","","",""
"2709","","image-button-response","156","1451312","0.0-155.0","A10LC8N32VVVV","img_art/29.jpg","3","","","","","","","","","","","","","","","","","","","","","","","","",""
"2195","","image-button-response","157","1453523","0.0-156.0-0.0","A10LC8N32VVVV","img_art/29.jpg","0","","","","","","","","","","","","","","","","","","","","","","","","",""
"911","","image-button-response","158","1454450","0.0-157.0-0.0","A10LC8N32VVVV","img_art/29.jpg","1","","","","","","","","","","","","","","","","","","","","","","","","",""
"null","","html-keyboard-response","159","1455959","0.0-158.0","A10LC8N32VVVV","<p style=""font-size: 48px;"">+</p>","","","","","null","allTrialResponses","1500","1","16","img_art/29.jpg","23","It has the feel of a birthday cake that melted in the rain","Lucas,Derek,Nicholas,Joseph,Benjamin,Cody","Looks kinda scary.,25,380,20","Very wild and I like it,20,360,20","I love this things almost hidden in it like paint brush and other details,50,240,20","It looks like graffiti in a subway tunnel- destruction.,-20,220,20","Don't like the red X across the painting.,-15,260,20","Feels messy, stressful,-22,180,20","Joseph","It looks like graffiti in a subway tunnel- destruction.,-20,220,20","Lucas","Looks kinda scary.,25,380,20","Derek","Very wild and I like it,20,360,20","2"
"20371","","survey-text","160","1476377","0.0-159.0-0.0","A10LC8N32VVVV","","","","{""Q0"":""It looks like scary scribbles""}","","","","","","","","","","","","","","","","","","","","","","",""
"2776.3999999910593","","image-slider-response","161","1479166","0.0-160.0","A10LC8N32VVVV","","","","","-18","","","","","","","","","","","","","","","","","","","","","",""
"null","","image-button-response","162","1484182","0.0-161.0","A10LC8N32VVVV","img_art/9.jpg","null","","","","","","","","","","","","","","","","","","","","","","","","",""
"4634","","image-button-response","163","1488828","0.0-162.0","A10LC8N32VVVV","img_art/9.jpg","4","","","","","","","","","","","","","","","","","","","","","","","","",""
"1188","","image-button-response","164","1490029","0.0-163.0-0.0","A10LC8N32VVVV","img_art/9.jpg","5","","","","","","","","","","","","","","","","","","","","","","","","",""
"1341","","image-button-response","165","1491385","0.0-164.0-0.0","A10LC8N32VVVV","img_art/9.jpg","3","","","","","","","","","","","","","","","","","","","","","","","","",""
"null","","html-keyboard-response","166","1492390","0.0-165.0","A10LC8N32VVVV","<p style=""font-size: 48px;"">+</p>","","","","","null","allTrialResponses","1000","1","17","img_art/9.jpg","-18","It looks like scary scribbles","Lucas,Derek,Blake,Joseph,Mark,Mason","I like the way the artist has painted his painting.,20,380,20","It's wild and chaotic but also beautiful and has some kind of calming factor about it,20,360,20","looks like a woman in bed and its ok,8,280,20","It's nice. Peaceful. Calming.,11,220,20","Sleeping woman in a cave. Makes me feel safe.,20,80,20","Abstract titanic scene. It's nice though. I like how it makes me feel.,28,100,20","Mark","Sleeping woman in a cave. Makes me feel safe.,20,80,20","Mason","Abstract titanic scene. It's nice though. I like how it makes me feel.,28,100,20","Joseph","It's nice. Peaceful. Calming.,11,220,20","2"
"64108","","survey-text","167","1556540","0.0-166.0-0.0","A10LC8N32VVVV","","","","{""Q0"":""I like the vibrancy of the scene. It's chaos perspective""}","","","","","","","","","","","","","","","","","","","","","","",""
"2685.7000000029802","","image-slider-response","168","1559238","0.0-167.0","A10LC8N32VVVV","","","","","24","","","","","","","","","","","","","","","","","","","","","",""
"2126","","image-button-response","169","1564252","0.0-168.0","A10LC8N32VVVV","img_art/19.jpg","5","","","","","","","","","","","","","","","","","","","","","","","","",""
"243","","image-button-response","170","1564507","0.0-169.0","A10LC8N32VVVV","img_art/19.jpg","4","","","","","","","","","","","","","","","","","","","","","","","","",""
"885","","image-button-response","171","1565407","0.0-170.0-0.0","A10LC8N32VVVV","img_art/19.jpg","5","","","","","","","","","","","","","","","","","","","","","","","","",""
"1572","","image-button-response","172","1566992","0.0-171.0-0.0","A10LC8N32VVVV","img_art/19.jpg","1","","","","","","","","","","","","","","","","","","","","","","","","",""
"null","","html-keyboard-response","173","1568501","0.0-172.0","A10LC8N32VVVV","<p style=""font-size: 48px;"">+</p>","","","","","null","allTrialResponses","1500","1","18","img_art/19.jpg","24","I like the vibrancy of the scene. It's chaos perspective","Brendan,Angel,Paul,Joseph,Mark,Mason","beautiful old town,37,340,20","This one feels pretty neutral. Like a window into someone's life, one person in a bustling metropolis.,0,180,20","The shapes make me recall a city scene but it looks dirty,-22,300,20","Too messy and busy. Too much going on there for me.,-12,220,20","Feels like a cafe in Paris.,35,80,20","calming, like the drips,25,100,20","Mark","Feels like a cafe in Paris.,35,80,20","Mason","calming, like the drips,25,100,20","Angel","This one feels pretty neutral. Like a window into someone's life, one person in a bustling metropolis.,0,180,20","2"
"43978","","survey-text","174","1612526","0.0-173.0-0.0","A10LC8N32VVVV","","","","{""Q0"":""It looks like a duck's beak from a Disney cartoon""}","","","","","","","","","","","","","","","","","","","","","","",""
"2877.2000000029802","","image-slider-response","175","1615419","0.0-174.0","A10LC8N32VVVV","","","","","-12","","","","","","","","","","","","","","","","","","","","","",""
"2272","","image-button-response","176","1620435","0.0-175.0","A10LC8N32VVVV","img_art/5.jpg","5","","","","","","","","","","","","","","","","","","","","","","","","",""
"5494","","image-button-response","177","1625948","0.0-176.0","A10LC8N32VVVV","img_art/5.jpg","4","","","","","","","","","","","","","","","","","","","","","","","","",""
"1286","","image-button-response","178","1627252","0.0-177.0-0.0","A10LC8N32VVVV","img_art/5.jpg","0","","","","","","","","","","","","","","","","","","","","","","","","",""
"2723","","image-button-response","179","1629992","0.0-178.0-0.0","A10LC8N32VVVV","img_art/5.jpg","1","","","","","","","","","","","","","","","","","","","","","","","","",""
"null","","html-keyboard-response","180","1631001","0.0-179.0","A10LC8N32VVVV","<p style=""font-size: 48px;"">+</p>","","","","","null","allTrialResponses","1000","1","19","img_art/5.jpg","-12","It looks like a duck's beak from a Disney cartoon","Austin,Angel,Ethan,Jake,Mark,Mason","Perfect for art exhibition,39,240,20","I see a sign advising me to be cautious.,-20,180,20","This piece has a good flow. I like the yellow with black combo.,11,120,20","This is interesting and nice.,16,360,20","Perfume bottle, reminds of fancy nights out.,11,80,20","pointless, ugly, not creative.,-50,100,20","Mark","Perfume bottle, reminds of fancy nights out.,11,80,20","Austin","Perfect for art exhibition,39,240,20","Angel","I see a sign advising me to be cautious.,-20,180,20","2"
"37931","","survey-text","181","1668977","0.0-180.0-0.0","A10LC8N32VVVV","","","","{""Q0"":""Like the an abstract boba tea made out of black pearls""}","","","","","","","","","","","","","","","","","","","","","","",""
"2617.5999999940395","","image-slider-response","182","1671607","0.0-181.0","A10LC8N32VVVV","","","","","27","","","","","","","","","","","","","","","","","","","","","",""
"4596","","image-button-response","183","1676625","0.0-182.0","A10LC8N32VVVV","img_art/15.jpg","1","","","","","","","","","","","","","","","","","","","","","","","","",""
"1859","","image-button-response","184","1678501","0.0-183.0","A10LC8N32VVVV","img_art/15.jpg","3","","","","","","","","","","","","","","","","","","","","","","","","",""
"2253","","image-button-response","185","1680772","0.0-184.0-0.0","A10LC8N32VVVV","img_art/15.jpg","4","","","","","","","","","","","","","","","","","","","","","","","","",""
"1584","","image-button-response","186","1682375","0.0-185.0-0.0","A10LC8N32VVVV","img_art/15.jpg","1","","","","","","","","","","","","","","","","","","","","","","","","",""
"null","","html-keyboard-response","187","1682891","0.0-186.0","A10LC8N32VVVV","<p style=""font-size: 48px;"">+</p>","","","","","null","allTrialResponses","500","1","20","img_art/15.jpg","27","Like the an abstract boba tea made out of black pearls","Austin,Angel,Jack,Elijah,Mark,Alexander","Perfect Abstract painting,50,240,20","This is looking at a forest from above. I can see water and some pathways throughout. Nature.,20,180,20","interesting technique. the blue is very pretty,18,320,20","Makes me feel weird,-16,80,20","Chameleons on reeds. Nice but doesn't really make me feel anything.,11,80,20","Leafs spread on the ground.,27,120,20","Elijah","Makes me feel weird,-16,80,20","Mark","Chameleons on reeds. Nice but doesn't really make me feel anything.,11,80,20","Angel","This is looking at a forest from above. I can see water and some pathways throughout. Nature.,20,180,20","2"
"9111","","survey-text","188","1692084","0.0-187.0-0.0","A10LC8N32VVVV","","","","{""Q0"":""we""}","","","","","","","","","","","","","","","","","","","","","","",""
"35862","","survey-text","189","1727958","0.0-188.0-0.0","A10LC8N32VVVV","","","","{""Q0"":""This one looks very distressing and calming all at once""}","","","","","","","","","","","","","","","","","","","","","","",""
"3548.7000000029802","","image-slider-response","190","1731519","0.0-189.0","A10LC8N32VVVV","","","","","50","","","","","","","","","","","","","","","","","","","","","",""
"4252","","image-button-response","191","1736535","0.0-190.0","A10LC8N32VVVV","img_art/18.jpg","5","","","","","","","","","","","","","","","","","","","","","","","","",""
"1566","","image-button-response","192","1738115","0.0-191.0","A10LC8N32VVVV","img_art/18.jpg","1","","","","","","","","","","","","","","","","","","","","","","","","",""
"5103","","image-button-response","193","1743227","0.0-192.0-0.0","A10LC8N32VVVV","img_art/18.jpg","4","","","","","","","","","","","","","","","","","","","","","","","","",""
"922","","image-button-response","194","1744165","0.0-193.0-0.0","A10LC8N32VVVV","img_art/18.jpg","5","","","","","","","","","","","","","","","","","","","","","","","","",""
"null","","html-keyboard-response","195","1745671","0.0-194.0","A10LC8N32VVVV","<p style=""font-size: 48px;"">+</p>","","","","","null","allTrialResponses","1500","1","21","img_art/18.jpg","50","This one looks very distressing and calming all at once","Ryan,Angel,Bryce,Elijah,Mark,Grant","Too political, not my cup of tea,-50,380,20","Like riding into battle. A sense of confidence, but also trepidation for what's coming. Could be a personification of death.,-10,180,20","Kinda boring. Not my favorite,-34,20,20","Makes me feel confused,16,80,20","I see an artistic representation of the riding of last of the four horseman. Its stunning.,45,80,20","This is a very energetic painting, and brings to mind scenes of battle.,50,200,20","Angel","Like riding into battle. A sense of confidence, but also trepidation for what's coming. Could be a personification of death.,-10,180,20","Mark","I see an artistic representation of the riding of last of the four horseman. Its stunning.,45,80,20","Grant","This is a very energetic painting, and brings to mind scenes of battle.,50,200,20","2"
"25405","","survey-text","196","1771125","0.0-195.0-0.0","A10LC8N32VVVV","","","","{""Q0"":""It looks like clouds after a scattered rainfall""}","","","","","","","","","","","","","","","","","","","","","","",""
"2331.9000000059605","","image-slider-response","197","1773462","0.0-196.0","A10LC8N32VVVV","","","","","22","","","","","","","","","","","","","","","","","","","","","",""
"3793","","image-button-response","198","1778473","0.0-197.0","A10LC8N32VVVV","img_art/27.jpg","4","","","","","","","","","","","","","","","","","","","","","","","","",""
"626","","image-button-response","199","1779115","0.0-198.0","A10LC8N32VVVV","img_art/27.jpg","1","","","","","","","","","","","","","","","","","","","","","","","","",""
"1458","","image-button-response","200","1780590","0.0-199.0-0.0","A10LC8N32VVVV","img_art/27.jpg","3","","","","","","","","","","","","","","","","","","","","","","","","",""
"1815","","image-button-response","201","1782425","0.0-200.0-0.0","A10LC8N32VVVV","img_art/27.jpg","4","","","","","","","","","","","","","","","","","","","","","","","","",""
"null","","html-keyboard-response","202","1783932","0.0-201.0","A10LC8N32VVVV","<p style=""font-size: 48px;"">+</p>","","","","","null","allTrialResponses","1500","1","22","img_art/27.jpg","22","It looks like clouds after a scattered rainfall","James,Angel,Taylor,Patrick,Mark,Grant","This painting is very unique,21,380,20","Makes me think of Japanese food. I perceive it as comfortable and healthy.,20,180,20","Looks like a child added his own interpretation with a black marker.,-5,200,20","Not cohesive design,-31,280,20","I see a cathedral through the woods.,12,80,20","This feels like I'm looking at a child's scribbles.,-27,200,20","Angel","Makes me think of Japanese food. I perceive it as comfortable and healthy.,20,180,20","Patrick","Not cohesive design,-31,280,20","Mark","I see a cathedral through the woods.,12,80,20","2"
"32982","","survey-text","203","1816937","0.0-202.0-0.0","A10LC8N32VVVV","","","","{""Q0"":""A blue tree hangs in the garden looking forlorn""}","","","","","","","","","","","","","","","","","","","","","","",""
"2813.0999999940395","","image-slider-response","204","1819762","0.0-203.0","A10LC8N32VVVV","","","","","25","","","","","","","","","","","","","","","","","","","","","",""
"3168","","image-button-response","205","1824779","0.0-204.0","A10LC8N32VVVV","img_art/26.jpg","1","","","","","","","","","","","","","","","","","","","","","","","","",""
"28","","image-button-response","206","1824822","0.0-205.0","A10LC8N32VVVV","img_art/26.jpg","1","","","","","","","","","","","","","","","","","","","","","","","","",""
"1927","","image-button-response","207","1826766","0.0-206.0-0.0","A10LC8N32VVVV","img_art/26.jpg","0","","","","","","","","","","","","","","","","","","","","","","","","",""
"2471","","image-button-response","208","1829256","0.0-207.0-0.0","A10LC8N32VVVV","img_art/26.jpg","3","","","","","","","","","","","","","","","","","","","","","","","","",""
"null","","html-keyboard-response","209","1829767","0.0-208.0","A10LC8N32VVVV","<p style=""font-size: 48px;"">+</p>","","","","","null","allTrialResponses","500","1","23","img_art/26.jpg","25","A blue tree hangs in the garden looking forlorn","Samuel,Angel,Luis,Patrick,Mark,Devin","reminds me of a hometown,7,400,20","This piece feels pretty chill like it's just a normal day in the city.,10,180,20","I dont see any expression,-29,400,20","I can somewhat city a city in this drawing,11,280,20","I get the feeling of a small old world street.,24,80,20","I like the shapes but needs more detail i think,3,380,20","Angel","This piece feels pretty chill like it's just a normal day in the city.,10,180,20","Samuel","reminds me of a hometown,7,400,20","Patrick","I can somewhat city a city in this drawing,11,280,20","2"
"31487","","survey-text","210","1861305","0.0-209.0-0.0","A10LC8N32VVVV","","","","{""Q0"":""It looks like a cartoon face that stares back at you""}","","","","","","","","","","","","","","","","","","","","","","",""
"11813.5","","image-slider-response","211","1873131","0.0-210.0","A10LC8N32VVVV","","","","","24","","","","","","","","","","","","","","","","","","","","","",""
"4362","","image-button-response","212","1878149","0.0-211.0","A10LC8N32VVVV","img_art/2.jpg","1","","","","","","","","","","","","","","","","","","","","","","","","",""
"3642","","image-button-response","213","1881807","0.0-212.0","A10LC8N32VVVV","img_art/2.jpg","1","","","","","","","","","","","","","","","","","","","","","","","","",""
"1573","","image-button-response","214","1883397","0.0-213.0-0.0","A10LC8N32VVVV","img_art/2.jpg","3","","","","","","","","","","","","","","","","","","","","","","","","",""
"2468","","image-button-response","215","1885886","0.0-214.0-0.0","A10LC8N32VVVV","img_art/2.jpg","5","","","","","","","","","","","","","","","","","","","","","","","","",""
"null","","html-keyboard-response","216","1886894","0.0-215.0","A10LC8N32VVVV","<p style=""font-size: 48px;"">+</p>","","","","","null","allTrialResponses","1000","1","24","img_art/2.jpg","24","It looks like a cartoon face that stares back at you","Samuel,Angel,Kyle,Patrick,Brett,Tanner","i liked the bright colors,13,400,20","I think I'm put off by the clashing colors here. It feels discombobulated and sick.,-10,180,20","Color picks are a bad mesh with each other,-17,340,20","Dark tone feels sad,-30,280,20","Not very appealing,-5,360,20","smilely face, soulful,11,180,20","Angel","I think I'm put off by the clashing colors here. It feels discombobulated and sick.,-10,180,20","Patrick","Dark tone feels sad,-30,280,20","Tanner","smilely face, soulful,11,180,20","2"
"27536","","survey-text","217","1914486","0.0-216.0-0.0","A10LC8N32VVVV","","","","{""Q0"":""It looks like a Christmas tree with gifts for everyone""}","","","","","","","","","","","","","","","","","","","","","","",""
"2563.4000000059605","","image-slider-response","218","1917064","0.0-217.0","A10LC8N32VVVV","","","","","33","","","","","","","","","","","","","","","","","","","","","",""
"3081","","image-button-response","219","1922084","0.0-218.0","A10LC8N32VVVV","img_art/14.jpg","4","","","","","","","","","","","","","","","","","","","","","","","","",""
"998","","image-button-response","220","1923098","0.0-219.0","A10LC8N32VVVV","img_art/14.jpg","1","","","","","","","","","","","","","","","","","","","","","","","","",""
"6067","","image-button-response","221","1929184","0.0-220.0-0.0","A10LC8N32VVVV","img_art/14.jpg","3","","","","","","","","","","","","","","","","","","","","","","","","",""
"2402","","image-button-response","222","1931607","0.0-221.0-0.0","A10LC8N32VVVV","img_art/14.jpg","5","","","","","","","","","","","","","","","","","","","","","","","","",""
"null","","html-keyboard-response","223","1932115","0.0-222.0","A10LC8N32VVVV","<p style=""font-size: 48px;"">+</p>","","","","","null","allTrialResponses","500","1","25","img_art/14.jpg","33","It looks like a Christmas tree with gifts for everyone","Jordan,Angel,Daniel,Patrick,Hunter,Tanner","Reminds me of art class,22,160,20","This reminds me of a tree but the tree is sickly, and poorly cared for.,-10,180,20","Baby's room palette with tree confusion in a more confused substrate.,-15,320,20","It uplifts my mood due to the color scheme,32,280,20","makes me feel sad,-2,240,20","somewhat stressful, crazy,-3,180,20","Angel","This reminds me of a tree but the tree is sickly, and poorly cared for.,-10,180,20","Patrick","It uplifts my mood due to the color scheme,32,280,20","Tanner","somewhat stressful, crazy,-3,180,20","2"
"9793","","survey-text","224","1942001","0.0-223.0-0.0","A10LC8N32VVVV","","","","{""Q0"":""table""}","","","","","","","","","","","","","","","","","","","","","","",""
"41753","","survey-text","225","1983767","0.0-224.0-0.0","A10LC8N32VVVV","","","","{""Q0"":""I see window panes and the a planet. Great use of colors""}","","","","","","","","","","","","","","","","","","","","","","",""
"5783.100000008941","","image-slider-response","226","1989562","0.0-225.0","A10LC8N32VVVV","","","","","35","","","","","","","","","","","","","","","","","","","","","",""
"null","","image-button-response","227","1994580","0.0-226.0","A10LC8N32VVVV","img_art/22.jpg","null","","","","","","","","","","","","","","","","","","","","","","","","",""
"454","","image-button-response","228","1995045","0.0-227.0","A10LC8N32VVVV","img_art/22.jpg","1","","","","","","","","","","","","","","","","","","","","","","","","",""
"1855","","image-button-response","229","1996910","0.0-228.0-0.0","A10LC8N32VVVV","img_art/22.jpg","0","","","","","","","","","","","","","","","","","","","","","","","","",""
"2624","","image-button-response","230","1999554","0.0-229.0-0.0","A10LC8N32VVVV","img_art/22.jpg","3","","","","","","","","","","","","","","","","","","","","","","","","",""
"null","","html-keyboard-response","231","2000061","0.0-230.0","A10LC8N32VVVV","<p style=""font-size: 48px;"">+</p>","","","","","null","allTrialResponses","500","1","26","img_art/22.jpg","35","I see window panes and the a planet. Great use of colors","Shane,Angel,Dustin,Patrick,Victor,Tanner","Sunsets at the beach,42,80,20","This piece gives off a cool vibe. Reminds me of being out in the city at night.,20,180,20","Too much red. The red/yellow/orange make me think of heat/fire, which makes me anxious.,-10,20,20","Looks like a warm sunset to me i like it,42,280,20","I don't really know why, I just like looking at it,10,340,20","fire, danger, resentful,-17,180,20","Angel","This piece gives off a cool vibe. Reminds me of being out in the city at night.,20,180,20","Shane","Sunsets at the beach,42,80,20","Patrick","Looks like a warm sunset to me i like it,42,280,20","2"
"37559","","survey-text","232","2037677","0.0-231.0-0.0","A10LC8N32VVVV","","","","{""Q0"":""It looks like a chorus line of dancers at a new years Eve celebration""}","","","","","","","","","","","","","","","","","","","","","","",""
"2931.9000000059605","","image-slider-response","233","2040619","0.0-232.0","A10LC8N32VVVV","","","","","14","","","","","","","","","","","","","","","","","","","","","",""
"3018","","image-button-response","234","2045635","0.0-233.0","A10LC8N32VVVV","img_art/23.jpg","5","","","","","","","","","","","","","","","","","","","","","","","","",""
"566","","image-button-response","235","2046219","0.0-234.0","A10LC8N32VVVV","img_art/23.jpg","4","","","","","","","","","","","","","","","","","","","","","","","","",""
"2219","","image-button-response","236","2048454","0.0-235.0-0.0","A10LC8N32VVVV","img_art/23.jpg","1","","","","","","","","","","","","","","","","","","","","","","","","",""
"5817","","image-button-response","237","2054288","0.0-236.0-0.0","A10LC8N32VVVV","img_art/23.jpg","2","","","","","","","","","","","","","","","","","","","","","","","","",""
"null","","html-keyboard-response","238","2055796","0.0-237.0","A10LC8N32VVVV","<p style=""font-size: 48px;"">+</p>","","","","","null","allTrialResponses","1500","1","27","img_art/23.jpg","14","It looks like a chorus line of dancers at a new years Eve celebration","Shane,Angel,Alexis,Patrick,Alex,Charles","Love the line in the middle separating the two dark sides,50,80,20","I feel positive community and comfort. Singing along at a concert, united with a bunch of strangers through shared joy.,20,180,20","It looks like a parade of musicians full of excitement. Makes me feel upbeat,33,140,20","Beautiful color scheme,21,280,20","This is nice, the colorful background is fun and the white looks like dancing figures,5,100,20","Look at all the dancers,26,100,20","Alex","This is nice, the colorful background is fun and the white looks like dancing figures,5,100,20","Angel","I feel positive community and comfort. Singing along at a concert, united with a bunch of strangers through shared joy.,20,180,20","Alexis","It looks like a parade of musicians full of excitement. Makes me feel upbeat,33,140,20","2"
"40696","","survey-text","239","2096545","0.0-238.0-0.0","A10LC8N32VVVV","","","","{""Q0"":""It looks like when you're diving in the ocean with no equipment to help you breathe underwater""}","","","","","","","","","","","","","","","","","","","","","","",""
"3002.7999999970198","","image-slider-response","240","2099559","0.0-239.0","A10LC8N32VVVV","","","","","40","","","","","","","","","","","","","","","","","","","","","",""
"null","","image-button-response","241","2104575","0.0-240.0","A10LC8N32VVVV","img_art/13.jpg","null","","","","","","","","","","","","","","","","","","","","","","","","",""
"1607","","image-button-response","242","2106195","0.0-241.0","A10LC8N32VVVV","img_art/13.jpg","1","","","","","","","","","","","","","","","","","","","","","","","","",""
"4726","","image-button-response","243","2110937","0.0-242.0-0.0","A10LC8N32VVVV","img_art/13.jpg","3","","","","","","","","","","","","","","","","","","","","","","","","",""
"3960","","image-button-response","244","2114916","0.0-243.0-0.0","A10LC8N32VVVV","img_art/13.jpg","2","","","","","","","","","","","","","","","","","","","","","","","","",""
"null","","html-keyboard-response","245","2115424","0.0-244.0","A10LC8N32VVVV","<p style=""font-size: 48px;"">+</p>","","","","","null","allTrialResponses","500","1","28","img_art/13.jpg","40","It looks like when you're diving in the ocean with no equipment to help you breathe underwater","Justin,Angel,Alexis,Stephen,Alex,Ian","Not really a fan of ""splash"" art.,-20,280,20","Reminds me of depression anxiety, but negativity is dampened by motion. It's trying to release itself through expression.,-10,180,20","It looks too common, is a bit boring,-41,140,20","Like how realistic it looks.,33,140,20","I like the blue colors and the symmetry and paint splatters but I would not hang it in my house,8,100,20","This looks like something that could be made off of windows paint, not a huge fan.,-30,260,20","Angel","Reminds me of depression anxiety, but negativity is dampened by motion. It's trying to release itself through expression.,-10,180,20","Stephen","Like how realistic it looks.,33,140,20","Alexis","It looks too common, is a bit boring,-41,140,20","2"
"33576","","survey-text","246","2149059","0.0-245.0-0.0","A10LC8N32VVVV","","","","{""Q0"":""I see a cityscape and vibrant poets talking about great upheavals""}","","","","","","","","","","","","","","","","","","","","","","",""
"2691.2999999970198","","image-slider-response","247","2151762","0.0-246.0","A10LC8N32VVVV","","","","","26","","","","","","","","","","","","","","","","","","","","","",""
"4832","","image-button-response","248","2156778","0.0-247.0","A10LC8N32VVVV","img_art/28.jpg","1","","","","","","","","","","","","","","","","","","","","","","","","",""
"1984","","image-button-response","249","2158773","0.0-248.0","A10LC8N32VVVV","img_art/28.jpg","1","","","","","","","","","","","","","","","","","","","","","","","","",""
"3383","","image-button-response","250","2162173","0.0-249.0-0.0","A10LC8N32VVVV","img_art/28.jpg","3","","","","","","","","","","","","","","","","","","","","","","","","",""
"1799","","image-button-response","251","2163992","0.0-250.0-0.0","A10LC8N32VVVV","img_art/28.jpg","3","","","","","","","","","","","","","","","","","","","","","","","","",""
"882","","image-button-response","252","2167188","0.0-250.1-0.1","A10LC8N32VVVV","img_art/28.jpg","5","","","","","","","","","","","","","","","","","","","","","","","","",""
"null","","html-keyboard-response","253","2167697","0.0-251.0","A10LC8N32VVVV","<p style=""font-size: 48px;"">+</p>","","","","","null","allTrialResponses","500","1","29","img_art/28.jpg","26","I see a cityscape and vibrant poets talking about great upheavals","Luke,Angel,Alexis,Stephen,Gabriel,Kevin","no clear colors or meaning to evoke emotions,-15,20,20","My immediate reaction was to think of smog. It recalls choking on dirty air.,-20,180,20","The brown and green colors used look dull and unappealing,-30,140,20","Good use of shapes.,7,140,20","this one is rather disturbing,-22,160,20","Looks like some guys in s band playing at a busy park.,18,320,20","Angel","My immediate reaction was to think of smog. It recalls choking on dirty air.,-20,180,20","Stephen","Good use of shapes.,7,140,20","Kevin","Looks like some guys in s band playing at a busy park.,18,320,20","4"
"38975","","survey-text","254","2206728","0.0-252.0-0.0","A10LC8N32VVVV","","","","{""Q0"":""it feels like a winter stroll in the park right after it snows. Cold and frigid""}","","","","","","","","","","","","","","","","","","","","","","",""
"3149.2000000029802","","image-slider-response","255","2209888","0.0-253.0","A10LC8N32VVVV","","","","","40","","","","","","","","","","","","","","","","","","","","","",""
"4014","","image-button-response","256","2214904","0.0-254.0","A10LC8N32VVVV","img_art/17.jpg","4","","","","","","","","","","","","","","","","","","","","","","","","",""
"5258","","image-button-response","257","2220178","0.0-255.0","A10LC8N32VVVV","img_art/17.jpg","1","","","","","","","","","","","","","","","","","","","","","","","","",""
"1865","","image-button-response","258","2222061","0.0-256.0-0.0","A10LC8N32VVVV","img_art/17.jpg","2","","","","","","","","","","","","","","","","","","","","","","","","",""
"1800","","image-button-response","259","2223877","0.0-257.0-0.0","A10LC8N32VVVV","img_art/17.jpg","0","","","","","","","","","","","","","","","","","","","","","","","","",""
"null","","html-keyboard-response","260","2225386","0.0-258.0","A10LC8N32VVVV","<p style=""font-size: 48px;"">+</p>","","","","","null","allTrialResponses","1500","1","30","img_art/17.jpg","40","it feels like a winter stroll in the park right after it snows. Cold and frigid","Alejandro,Angel,Adrian,Stephen,Kenneth,Kevin","Embodies beauty and complexity and in simplicity as well,50,80,20","Reminds me of the modern art museum in Rome. I didn't ""get"" many pieces, but had a positive cultural experience overall.,20,180,20","Pretty composition and I like the colors.,20,60,20","I like the colorfulness.,17,140,20","I really like this, especially the tree.,23,300,20","Some new perm we got there.,12,320,20","Angel","Reminds me of the modern art museum in Rome. I didn't ""get"" many pieces, but had a positive cultural experience overall.,20,180,20","Adrian","Pretty composition and I like the colors.,20,60,20","Alejandro","Embodies beauty and complexity and in simplicity as well,50,80,20","4"
"4017","","image-button-response_instructions","261","2229464","0.0-259.0","A10LC8N32VVVV","","0","instructions","","","","","","","","","","","","","","","","","","","","","","","",""
"2095","","image-button-response","262","2231614","0.0-260.0","A10LC8N32VVVV","","0","","","","","","","","","","","","","","","","","","","","","","","","",""
