"rt","url","trial_type","trial_index","time_elapsed","internal_node_id","participant_id","stimulus","button_pressed","Name","responses","response","key_press","variableName","fixationTime","condition","trial","photo","subjectRating","subjectResponse","agentsNames","agent_1_Response","agent_2_Response","agent_3_Response","agent_4_Response","agent_5_Response","agent_6_Response","kept_1_name","kept_1_response","kept_2_name","kept_2_response","kept_3_name","kept_3_response","errorCounter"
"17786","external_page_harvard.html","external-html","0","17920","0.0-0.0","A1119SJKNGQ0J4","","","","","","","","","","","","","","","","","","","","","","","","","","",""
"1321","","image-button-response","1","19244","0.0-1.0","A1119SJKNGQ0J4","","1","","","","","","","","","","","","","","","","","","","","","","","","",""
"1622","","image-button-response","2","20872","0.0-2.0-0.0","A1119SJKNGQ0J4","","1","phone","","","","","","","","","","","","","","","","","","","","","","","",""
"18699","","survey-text","3","39573","0.0-3.0-0.0","A1119SJKNGQ0J4","","","","{""Q0"":""A1119SJKNGQ0J4""}","","","","","","","","","","","","","","","","","","","","","","",""
"4114","","image-button-response_instructions","4","43691","0.0-4.0","A1119SJKNGQ0J4","","0","instructions","","","","","","","","","","","","","","","","","","","","","","","",""
"11562","","image-button-response_instructions","5","55255","0.0-5.0","A1119SJKNGQ0J4","img_art/ins/popularity/ins1.png","0","instructions","","","","","","","","","","","","","","","","","","","","","","","",""
"9110","","image-button-response_instructions","6","64367","0.0-6.0","A1119SJKNGQ0J4","img_art/ins/popularity/ins2.png","0","instructions","","","","","","","","","","","","","","","","","","","","","","","",""
"7793","","image-button-response_instructions","7","72161","0.0-7.0","A1119SJKNGQ0J4","img_art/ins/popularity/ins2Extreme.png","0","instructions","","","","","","","","","","","","","","","","","","","","","","","",""
"7221","","image-button-response_instructions","8","79383","0.0-8.0","A1119SJKNGQ0J4","img_art/ins/popularity/ins3KEEPpop.PNG","0","instructions","","","","","","","","","","","","","","","","","","","","","","","",""
"3370","","image-button-response_instructions","9","82755","0.0-9.0","A1119SJKNGQ0J4","img_art/ins/popularity/ins3ANamepop.PNG","0","instructions","","","","","","","","","","","","","","","","","","","","","","","",""
"3608","","image-button-response_instructions","10","86363","0.0-10.0","A1119SJKNGQ0J4","img_art/ins/popularity/ins3ARatingpop.png","0","instructions","","","","","","","","","","","","","","","","","","","","","","","",""
"2902","","image-button-response_instructions","11","89266","0.0-11.0","A1119SJKNGQ0J4","img_art/ins/popularity/ins3ATextpop.png","0","instructions","","","","","","","","","","","","","","","","","","","","","","","",""
"3131","","image-button-response_instructions","12","92398","0.0-12.0","A1119SJKNGQ0J4","img_art/ins/popularity/ins3ALikespop.png","0","instructions","","","","","","","","","","","","","","","","","","","","","","","",""
"7964","","image-button-response_instructions","13","100364","0.0-13.0","A1119SJKNGQ0J4","img_art/ins/popularity/ins3KEEPpop.PNG","0","instructions","","","","","","","","","","","","","","","","","","","","","","","",""
"4217","","image-button-response_instructions","14","104582","0.0-14.0","A1119SJKNGQ0J4","img_art/ins/popularity/ins3_5RED.png","0","instructions","","","","","","","","","","","","","","","","","","","","","","","",""
"3497","","image-button-response_instructions","15","108080","0.0-15.0","A1119SJKNGQ0J4","img_art/ins/popularity/ins3KEEPpop.PNG","0","instructions","","","","","","","","","","","","","","","","","","","","","","","",""
"5403","","image-button-response_instructions","16","113484","0.0-16.0","A1119SJKNGQ0J4","img_art/ins/popularity/ins4KEEPpop.PNG","0","instructions","","","","","","","","","","","","","","","","","","","","","","","",""
"4551","","image-button-response_instructions","17","118036","0.0-17.0","A1119SJKNGQ0J4","img_art/ins/popularity/ins5KEEPpop.PNG","0","instructions","","","","","","","","","","","","","","","","","","","","","","","",""
"1721","","image-button-response_instructions","18","119759","0.0-18.0","A1119SJKNGQ0J4","","0","instructions","","","","","","","","","","","","","","","","","","","","","","","",""
"6182","","survey-text","19","125970","0.0-19.0-0.0","A1119SJKNGQ0J4","","","","{""Q0"":""but""}","","","","","","","","","","","","","","","","","","","","","","",""
"18060","","survey-text","20","144032","0.0-20.0-0.0","A1119SJKNGQ0J4","","","","{""Q0"":""reminds me of a child's version of Monet""}","","","","","","","","","","","","","","","","","","","","","","",""
"5751.300000000047","","image-slider-response","21","149791","0.0-21.0","A1119SJKNGQ0J4","","","","","15","","","","","","","","","","","","","","","","","","","","","",""
"null","","image-button-response","22","154798","0.0-22.0","A1119SJKNGQ0J4","img_art/ins/1.jpg","null","","","","","","","","","","","","","","","","","","","","","","","","",""
"8454","","image-button-response","23","163256","0.0-23.0","A1119SJKNGQ0J4","img_art/ins/1.jpg","4","","","","","","","","","","","","","","","","","","","","","","","","",""
"1565","","image-button-response","24","164824","0.0-24.0-0.0","A1119SJKNGQ0J4","img_art/ins/1.jpg","4","","","","","","","","","","","","","","","","","","","","","","","","",""
"888","","image-button-response","25","170290","0.0-24.1-0.1","A1119SJKNGQ0J4","img_art/ins/1.jpg","5","","","","","","","","","","","","","","","","","","","","","","","","",""
"5295","","image-button-response","26","175588","0.0-25.0-0.0","A1119SJKNGQ0J4","img_art/ins/1.jpg","0","","","","","","","","","","","","","","","","","","","","","","","","",""
"null","","html-keyboard-response","27","176097","0.0-26.0","A1119SJKNGQ0J4","<p style=""font-size: 48px;"">+</p>","","","","","null","allTrialResponses","500","1","-2","img_art/ins/1.jpg","15","reminds me of a child's version of Monet","Allison,Ashley,Beth,Dora,Erika,Jen","looks like a lot of things going on in the mist,20,20,20","I just don't get why these type of art would be popular,-32,40,20","This color reminds me of poo,-46,60,20","looks like what my niece in 3rd grade did this afternoon,-50,80,20","I like the sophisticated brushwork,40,100,20","It reminds me of a candy land dream I had,36,120,20","Erika","I like the sophisticated brushwork,40,100,20","Jen","It reminds me of a candy land dream I had,36,120,20","Allison","looks like a lot of things going on in the mist,20,20,20","2"
"14156","","survey-text","28","190265","0.0-27.0-0.0","A1119SJKNGQ0J4","","","","{""Q0"":""This seems angry and dark.""}","","","","","","","","","","","","","","","","","","","","","","",""
"3736.9000000001397","","image-slider-response","29","194004","0.0-28.0","A1119SJKNGQ0J4","","","","","-38","","","","","","","","","","","","","","","","","","","","","",""
"null","","image-button-response","30","199019","0.0-29.0","A1119SJKNGQ0J4","img_art/ins/2.jpg","null","","","","","","","","","","","","","","","","","","","","","","","","",""
"4310","","image-button-response","31","203334","0.0-30.0","A1119SJKNGQ0J4","img_art/ins/2.jpg","3","","","","","","","","","","","","","","","","","","","","","","","","",""
"1400","","image-button-response","32","204738","0.0-31.0-0.0","A1119SJKNGQ0J4","img_art/ins/2.jpg","5","","","","","","","","","","","","","","","","","","","","","","","","",""
"2968","","image-button-response","33","207708","0.0-32.0-0.0","A1119SJKNGQ0J4","img_art/ins/2.jpg","2","","","","","","","","","","","","","","","","","","","","","","","","",""
"null","","html-keyboard-response","34","208711","0.0-33.0","A1119SJKNGQ0J4","<p style=""font-size: 48px;"">+</p>","","","","","null","allTrialResponses","1000","1","-1","img_art/ins/2.jpg","-38","This seems angry and dark.","Allison,Kara,Katie,Jenna,Erika,Jen","I don't have strong feelings about this,10,20,20","I like the blocks of color arrangements,30,160,20","too much color!,-28,180,20","One of my pet peevs,-48,140,20","I would never be able to compose a sophisticated pallete like this,48,100,20","It reminds me of a fireplace,36,120,20","Jenna","One of my pet peevs,-48,140,20","Jen","It reminds me of a fireplace,36,120,20","Katie","too much color!,-28,180,20","2"
"12713","","survey-text","35","221436","0.0-34.0-0.0","A1119SJKNGQ0J4","","","","{""Q0"":""This has a calm sense like sea glass.""}","","","","","","","","","","","","","","","","","","","","","","",""
"4177.59999999986","","image-slider-response","36","225616","0.0-35.0","A1119SJKNGQ0J4","","","","","50","","","","","","","","","","","","","","","","","","","","","",""
"4426","","image-button-response","37","230618","0.0-36.0","A1119SJKNGQ0J4","img_art/ins/3.jpg","4","","","","","","","","","","","","","","","","","","","","","","","","",""
"438","","image-button-response","38","231060","0.0-37.0","A1119SJKNGQ0J4","img_art/ins/3.jpg","5","","","","","","","","","","","","","","","","","","","","","","","","",""
"2308","","image-button-response","39","233370","0.0-38.0-0.0","A1119SJKNGQ0J4","img_art/ins/3.jpg","4","","","","","","","","","","","","","","","","","","","","","","","","",""
"2037","","image-button-response","40","235410","0.0-39.0-0.0","A1119SJKNGQ0J4","img_art/ins/3.jpg","1","","","","","","","","","","","","","","","","","","","","","","","","",""
"null","","html-keyboard-response","41","235917","0.0-40.0","A1119SJKNGQ0J4","<p style=""font-size: 48px;"">+</p>","","","","","null","allTrialResponses","500","1","0","img_art/ins/3.jpg","50","This has a calm sense like sea glass.","Rose,Leslie,Katie,Jenna,Mary,Jen","My daily routine, it's depressing,-20,240,20","It's an alright work,15,200,20","It looks depressing,-26,180,20","looks like a murder room,-35,140,20","I like the overlapping of brushes,41,220,20","I can feel a rainy day from this painting,18,120,20","Jen","I can feel a rainy day from this painting,18,120,20","Mary","I like the overlapping of brushes,41,220,20","Leslie","It's an alright work,15,200,20","2"
"4498","","image-button-response_instructions","42","240426","0.0-41.0","A1119SJKNGQ0J4","","0","instructions","","","","","","","","","","","","","","","","","","","","","","","",""
"9491","","survey-likert","43","249918","0.0-42.0-0.0","A1119SJKNGQ0J4","","","","{""Q0"":"""",""Q1"":0,""Q2"":1}","","","","","","","","","","","","","","","","","","","","","","",""
"4313","","survey-text","44","254238","0.0-43.0-0.0","A1119SJKNGQ0J4","","","","{""Q0"":""rock""}","","","","","","","","","","","","","","","","","","","","","","",""
"15938","","survey-text","45","270177","0.0-44.0-0.0","A1119SJKNGQ0J4","","","","{""Q0"":""Seems to have layers that would tell a story.""}","","","","","","","","","","","","","","","","","","","","","","",""
"4030.1999999999534","","image-slider-response","46","274210","0.0-45.0","A1119SJKNGQ0J4","","","","","25","","","","","","","","","","","","","","","","","","","","","",""
"4118","","image-button-response","47","279243","0.0-46.0","A1119SJKNGQ0J4","img_art/1.jpg","4","","","","","","","","","","","","","","","","","","","","","","","","",""
"694","","image-button-response","48","279942","0.0-47.0","A1119SJKNGQ0J4","img_art/1.jpg","4","","","","","","","","","","","","","","","","","","","","","","","","",""
"1006","","image-button-response","49","280950","0.0-48.0-0.0","A1119SJKNGQ0J4","img_art/1.jpg","5","","","","","","","","","","","","","","","","","","","","","","","","",""
"1720","","image-button-response","50","282672","0.0-49.0-0.0","A1119SJKNGQ0J4","img_art/1.jpg","2","","","","","","","","","","","","","","","","","","","","","","","","",""
"null","","html-keyboard-response","51","283175","0.0-50.0","A1119SJKNGQ0J4","<p style=""font-size: 48px;"">+</p>","","","","","null","allTrialResponses","500","1","1","img_art/1.jpg","25","Seems to have layers that would tell a story.","Catherine,Alexa,Shannon,Madeline,Chloe,Ashley","confused,animal like brain fog,0,160,20","The blend of colors are gorgeous and reminds me of fall,32,40,20","I think that this picture has nice colors and its pleasing to the eyes.,20,220,20","Quite messy looking,-22,40,20","Powerful colors.,31,220,20","More passable, colorful, abstract.,13,320,20","Chloe","Powerful colors.,31,220,20","Ashley","More passable, colorful, abstract.,13,320,20","Shannon","I think that this picture has nice colors and its pleasing to the eyes.,20,220,20","2"
"16355","","survey-text","52","299544","0.0-51.0-0.0","A1119SJKNGQ0J4","","","","{""Q0"":""This is an angry murder scene scribble.""}","","","","","","","","","","","","","","","","","","","","","","",""
"3331.9000000001397","","image-slider-response","53","302878","0.0-52.0","A1119SJKNGQ0J4","","","","","-44","","","","","","","","","","","","","","","","","","","","","",""
"3108","","image-button-response","54","307880","0.0-53.0","A1119SJKNGQ0J4","img_art/3.jpg","3","","","","","","","","","","","","","","","","","","","","","","","","",""
"313","","image-button-response","55","308198","0.0-54.0","A1119SJKNGQ0J4","img_art/3.jpg","1","","","","","","","","","","","","","","","","","","","","","","","","",""
"2450","","image-button-response","56","310650","0.0-55.0-0.0","A1119SJKNGQ0J4","img_art/3.jpg","2","","","","","","","","","","","","","","","","","","","","","","","","",""
"2159","","image-button-response","57","312812","0.0-56.0-0.0","A1119SJKNGQ0J4","img_art/3.jpg","3","","","","","","","","","","","","","","","","","","","","","","","","",""
"null","","html-keyboard-response","58","313815","0.0-57.0","A1119SJKNGQ0J4","<p style=""font-size: 48px;"">+</p>","","","","","null","allTrialResponses","1000","1","2","img_art/3.jpg","-44","This is an angry murder scene scribble.","Kaitlyn,Erica,Shannon,Claire,Chloe,Ashley","Too much red; very bland,-26,80,20","Associates with blood and crime scene,-12,80,20","I can't tell what this image is supposed to be it looks extremely ugly and color variety is boring.,-50,220,20","looks like a kid scribbled with crayon,-35,260,20","Powerful lines but seems incomplete,-10,220,20","Reminds of John Lenonn's art a bit.,27,320,20","Erica","Associates with blood and crime scene,-12,80,20","Shannon","I can't tell what this image is supposed to be it looks extremely ugly and color variety is boring.,-50,220,20","Claire","looks like a kid scribbled with crayon,-35,260,20","2"
"27890","","survey-text","59","341718","0.0-58.0-0.0","A1119SJKNGQ0J4","","","","{""Q0"":""Scary ominous vibe. ""}","","","","","","","","","","","","","","","","","","","","","","",""
"6186.100000000093","","image-slider-response","60","347906","0.0-59.0","A1119SJKNGQ0J4","","","","","3","","","","","","","","","","","","","","","","","","","","","",""
"4154","","image-button-response","61","352908","0.0-60.0","A1119SJKNGQ0J4","img_art/25.jpg","4","","","","","","","","","","","","","","","","","","","","","","","","",""
"731","","image-button-response","62","353644","0.0-61.0","A1119SJKNGQ0J4","img_art/25.jpg","4","","","","","","","","","","","","","","","","","","","","","","","","",""
"981","","image-button-response","63","354628","0.0-62.0-0.0","A1119SJKNGQ0J4","img_art/25.jpg","1","","","","","","","","","","","","","","","","","","","","","","","","",""
"4015","","image-button-response","64","358646","0.0-63.0-0.0","A1119SJKNGQ0J4","img_art/25.jpg","5","","","","","","","","","","","","","","","","","","","","","","","","",""
"null","","html-keyboard-response","65","360149","0.0-64.0","A1119SJKNGQ0J4","<p style=""font-size: 48px;"">+</p>","","","","","null","allTrialResponses","1500","1","3","img_art/25.jpg","3","Scary ominous vibe. ","Savannah,Erica,Shannon,Claire,Amy,Alexandria","Very cool color, very clear message!,50,200,20","reminds me of a demon,-25,80,20","I like the way the persons clothes look, there could be more color though.,10,220,20","the colors are pretty,11,260,20","The limited palette make this figure mysterious and interpret-able.,20,220,20","the contrasting colors are very interesting,24,80,20","Amy","The limited palette make this figure mysterious and interpret-able.,20,220,20","Erica","reminds me of a demon,-25,80,20","Alexandria","the contrasting colors are very interesting,24,80,20","2"
"20825","","survey-text","66","380986","0.0-65.0-0.0","A1119SJKNGQ0J4","","","","{""Q0"":""Abstract depiction of a city that is doomed.""}","","","","","","","","","","","","","","","","","","","","","","",""
"3672.4000000001397","","image-slider-response","67","384660","0.0-66.0","A1119SJKNGQ0J4","","","","","2","","","","","","","","","","","","","","","","","","","","","",""
"null","","image-button-response","68","389678","0.0-67.0","A1119SJKNGQ0J4","img_art/8.jpg","null","","","","","","","","","","","","","","","","","","","","","","","","",""
"1950","","image-button-response","69","391632","0.0-68.0","A1119SJKNGQ0J4","img_art/8.jpg","5","","","","","","","","","","","","","","","","","","","","","","","","",""
"914","","image-button-response","70","392548","0.0-69.0-0.0","A1119SJKNGQ0J4","img_art/8.jpg","0","","","","","","","","","","","","","","","","","","","","","","","","",""
"3998","","image-button-response","71","396549","0.0-70.0-0.0","A1119SJKNGQ0J4","img_art/8.jpg","0","","","","","","","","","","","","","","","","","","","","","","","","",""
"796","","image-button-response","72","401589","0.0-70.1-0.1","A1119SJKNGQ0J4","img_art/8.jpg","4","","","","","","","","","","","","","","","","","","","","","","","","",""
"null","","html-keyboard-response","73","403091","0.0-71.0","A1119SJKNGQ0J4","<p style=""font-size: 48px;"">+</p>","","","","","null","allTrialResponses","1500","1","4","img_art/8.jpg","2","Abstract depiction of a city that is doomed.","Courtney,Erica,Tiffany,Morgan,Amy,Alexandria","Now that one is wild. Looks like maybe mother nature isnt happy.,28,280,20","Very busy, I want to look at it and investigate,23,80,20","It makes me feel nervous. I can't tell ifI'm looking at an apartment, or a hellscape.,-18,360,20","Falling into a city's heart.,10,380,20","The definition and the colors give make this painting accessible and thought provoking.,30,220,20","It is very colorful with a deeper meaning,25,80,20","Alexandria","It is very colorful with a deeper meaning,25,80,20","Courtney","Now that one is wild. Looks like maybe mother nature isnt happy.,28,280,20","Amy","The definition and the colors give make this painting accessible and thought provoking.,30,220,20","4"
"15135","","survey-text","74","418232","0.0-72.0-0.0","A1119SJKNGQ0J4","","","","{""Q0"":""beachy feel""}","","","","","","","","","","","","","","","","","","","","","","",""
"7728.800000000047","","image-slider-response","75","425963","0.0-73.0","A1119SJKNGQ0J4","","","","","0","","","","","","","","","","","","","","","","","","","","","",""
"null","","image-button-response","76","430967","0.0-74.0","A1119SJKNGQ0J4","img_art/14.jpg","null","","","","","","","","","","","","","","","","","","","","","","","","",""
"4157","","image-button-response","77","435127","0.0-75.0","A1119SJKNGQ0J4","img_art/14.jpg","5","","","","","","","","","","","","","","","","","","","","","","","","",""
"1496","","image-button-response","78","436625","0.0-76.0-0.0","A1119SJKNGQ0J4","img_art/14.jpg","4","","","","","","","","","","","","","","","","","","","","","","","","",""
"749","","image-button-response","79","437377","0.0-77.0-0.0","A1119SJKNGQ0J4","img_art/14.jpg","3","","","","","","","","","","","","","","","","","","","","","","","","",""
"null","","html-keyboard-response","80","437879","0.0-78.0","A1119SJKNGQ0J4","<p style=""font-size: 48px;"">+</p>","","","","","null","allTrialResponses","500","1","5","img_art/14.jpg","0","beachy feel","Courtney,Emily,Kelly,Mackenzie,Amy,Alexandria","The pirates ship is sinking.,27,280,20","Looks like there is some skill but also at the same time parts look unskilled.,-16,40,20","Its cute, but not my favorite.,8,220,20","I like the combination of colors and textures.,35,20,20","In others I might say the colors are garish. Here it works perfectly. The balance is wondrous and unlimiting.,25,220,20","looks like it's symbolizing rebirth which is hopeful,22,80,20","Alexandria","looks like it's symbolizing rebirth which is hopeful,22,80,20","Amy","In others I might say the colors are garish. Here it works perfectly. The balance is wondrous and unlimiting.,25,220,20","Mackenzie","I like the combination of colors and textures.,35,20,20","4"
"3293","","survey-text","81","441182","0.0-79.0-0.0","A1119SJKNGQ0J4","","","","{""Q0"":""sky""}","","","","","","","","","","","","","","","","","","","","","","",""
"13517","","survey-text","82","454700","0.0-80.0-0.0","A1119SJKNGQ0J4","","","","{""Q0"":""Demons are among us during a storm.""}","","","","","","","","","","","","","","","","","","","","","","",""
"3512.1999999999534","","image-slider-response","83","458215","0.0-81.0","A1119SJKNGQ0J4","","","","","-16","","","","","","","","","","","","","","","","","","","","","",""
"3874","","image-button-response","84","463217","0.0-82.0","A1119SJKNGQ0J4","img_art/18.jpg","2","","","","","","","","","","","","","","","","","","","","","","","","",""
"1452","","image-button-response","85","464673","0.0-83.0","A1119SJKNGQ0J4","img_art/18.jpg","4","","","","","","","","","","","","","","","","","","","","","","","","",""
"2758","","image-button-response","86","467433","0.0-84.0-0.0","A1119SJKNGQ0J4","img_art/18.jpg","5","","","","","","","","","","","","","","","","","","","","","","","","",""
"1053","","image-button-response","87","468489","0.0-85.0-0.0","A1119SJKNGQ0J4","img_art/18.jpg","2","","","","","","","","","","","","","","","","","","","","","","","","",""
"null","","html-keyboard-response","88","468991","0.0-86.0","A1119SJKNGQ0J4","<p style=""font-size: 48px;"">+</p>","","","","","null","allTrialResponses","500","1","6","img_art/18.jpg","-16","Demons are among us during a storm.","Brooke,Katie,Emma,Mackenzie,Amy,Alexandria","Don't like the color scheme. Or the theme.,-5,60,20","Looks messy. Reminds me of a battle or war. I have an unpleasant feeling the more I look.,-20,160,20","Vaguely creepy ........,-20,60,20","The shapes are very fun to interpret,30,20,20","So much going on. Frightening and tumultous, brave and inspiring. I'd like to spend the rest of my life interpreting it.,30,220,20","the harsh lines with the smooth lines makes me think of wild animals,20,80,20","Amy","So much going on. Frightening and tumultous, brave and inspiring. I'd like to spend the rest of my life interpreting it.,30,220,20","Alexandria","the harsh lines with the smooth lines makes me think of wild animals,20,80,20","Emma","Vaguely creepy ........,-20,60,20","4"
"15884","","survey-text","89","484885","0.0-87.0-0.0","A1119SJKNGQ0J4","","","","{""Q0"":""beautiful sketch of nature and indoors""}","","","","","","","","","","","","","","","","","","","","","","",""
"3385.100000000093","","image-slider-response","90","488273","0.0-88.0","A1119SJKNGQ0J4","","","","","31","","","","","","","","","","","","","","","","","","","","","",""
"4814","","image-button-response","91","493284","0.0-89.0","A1119SJKNGQ0J4","img_art/17.jpg","4","","","","","","","","","","","","","","","","","","","","","","","","",""
"644","","image-button-response","92","493933","0.0-90.0","A1119SJKNGQ0J4","img_art/17.jpg","5","","","","","","","","","","","","","","","","","","","","","","","","",""
"2256","","image-button-response","93","496191","0.0-91.0-0.0","A1119SJKNGQ0J4","img_art/17.jpg","2","","","","","","","","","","","","","","","","","","","","","","","","",""
"2028","","image-button-response","94","498221","0.0-92.0-0.0","A1119SJKNGQ0J4","img_art/17.jpg","4","","","","","","","","","","","","","","","","","","","","","","","","",""
"null","","html-keyboard-response","95","499232","0.0-93.0","A1119SJKNGQ0J4","<p style=""font-size: 48px;"">+</p>","","","","","null","allTrialResponses","1000","1","7","img_art/17.jpg","31","beautiful sketch of nature and indoors","Kathryn,Christina,Emma,Mikayla,Amy,Alexandria","Reminds me of the modern art museum in Rome. I didn't ""get"" many pieces, but had a positive cultural experience overall.,20,140,20","I like how it looks like a tree. The colors are too muted though,12,240,20","Love the colors and the movement,46,60,20","Doesnt really do anythingb for me.,4,300,20","peaceful. contemplative. balanced. old,10,220,20","it looks very intricate and colorful,50,80,20","Alexandria","it looks very intricate and colorful,50,80,20","Emma","Love the colors and the movement,46,60,20","Amy","peaceful. contemplative. balanced. old,10,220,20","4"
"13926","","survey-text","96","513170","0.0-94.0-0.0","A1119SJKNGQ0J4","","","","{""Q0"":""Looks like a child's painting.""}","","","","","","","","","","","","","","","","","","","","","","",""
"3330.899999999907","","image-slider-response","97","516503","0.0-95.0","A1119SJKNGQ0J4","","","","","-50","","","","","","","","","","","","","","","","","","","","","",""
"4728","","image-button-response","98","521516","0.0-96.0","A1119SJKNGQ0J4","img_art/30.jpg","0","","","","","","","","","","","","","","","","","","","","","","","","",""
"933","","image-button-response","99","522452","0.0-97.0","A1119SJKNGQ0J4","img_art/30.jpg","4","","","","","","","","","","","","","","","","","","","","","","","","",""
"3935","","image-button-response","100","526390","0.0-98.0-0.0","A1119SJKNGQ0J4","img_art/30.jpg","0","","","","","","","","","","","","","","","","","","","","","","","","",""
"5465","","image-button-response","101","531858","0.0-99.0-0.0","A1119SJKNGQ0J4","img_art/30.jpg","2","","","","","","","","","","","","","","","","","","","","","","","","",""
"null","","html-keyboard-response","102","532861","0.0-100.0","A1119SJKNGQ0J4","<p style=""font-size: 48px;"">+</p>","","","","","null","allTrialResponses","1000","1","8","img_art/30.jpg","-50","Looks like a child's painting.","Sarah,Sydney,Emma,Jenna,Amy,Alexandria","looks simple, I can't see a lot of care going into this,-33,180,20","I love the colors, the style, and the uniqueness in this piece. I love everything.,50,320,20","Like the design, not a big fan of the colors,20,60,20","love the movement of the brush strokes. very interesting piece.,38,360,20","Too much abstraction for me, leaving my focus mainly on color. I like the texture.,-20,220,20","the lines and colors look purposeful,18,80,20","Amy","Too much abstraction for me, leaving my focus mainly on color. I like the texture.,-20,220,20","Sarah","looks simple, I can't see a lot of care going into this,-33,180,20","Emma","Like the design, not a big fan of the colors,20,60,20","4"
"12057","","survey-text","103","544923","0.0-101.0-0.0","A1119SJKNGQ0J4","","","","{""Q0"":""Similar to Picasso""}","","","","","","","","","","","","","","","","","","","","","","",""
"3122.5","","image-slider-response","104","548048","0.0-102.0","A1119SJKNGQ0J4","","","","","11","","","","","","","","","","","","","","","","","","","","","",""
"null","","image-button-response","105","553050","0.0-103.0","A1119SJKNGQ0J4","img_art/2.jpg","null","","","","","","","","","","","","","","","","","","","","","","","","",""
"2733","","image-button-response","106","555786","0.0-104.0","A1119SJKNGQ0J4","img_art/2.jpg","3","","","","","","","","","","","","","","","","","","","","","","","","",""
"634","","image-button-response","107","556422","0.0-105.0-0.0","A1119SJKNGQ0J4","img_art/2.jpg","4","","","","","","","","","","","","","","","","","","","","","","","","",""
"1353","","image-button-response","108","557778","0.0-106.0-0.0","A1119SJKNGQ0J4","img_art/2.jpg","5","","","","","","","","","","","","","","","","","","","","","","","","",""
"null","","html-keyboard-response","109","558280","0.0-107.0","A1119SJKNGQ0J4","<p style=""font-size: 48px;"">+</p>","","","","","null","allTrialResponses","500","1","9","img_art/2.jpg","11","Similar to Picasso","Sarah,Michelle,Emma,Jamie,Amy,Erika","nope. just looks like a mess,-28,180,20","Don't like the puke green color and also too abstact,-14,280,20","Don't love the colors,-30,60,20","Awful color coordination and design,-35,320,20","The color palette of this painting is for me displeasing and immature.,-30,220,20","Indistinct and too bright,-21,100,20","Jamie","Awful color coordination and design,-35,320,20","Amy","The color palette of this painting is for me displeasing and immature.,-30,220,20","Erika","Indistinct and too bright,-21,100,20","4"
"10334","","survey-text","110","568625","0.0-108.0-0.0","A1119SJKNGQ0J4","","","","{""Q0"":""Love this use of black spots.""}","","","","","","","","","","","","","","","","","","","","","","",""
"2820","","image-slider-response","111","571448","0.0-109.0","A1119SJKNGQ0J4","","","","","50","","","","","","","","","","","","","","","","","","","","","",""
"4100","","image-button-response","112","576455","0.0-110.0","A1119SJKNGQ0J4","img_art/15.jpg","5","","","","","","","","","","","","","","","","","","","","","","","","",""
"1331","","image-button-response","113","577790","0.0-111.0","A1119SJKNGQ0J4","img_art/15.jpg","2","","","","","","","","","","","","","","","","","","","","","","","","",""
"1138","","image-button-response","114","578930","0.0-112.0-0.0","A1119SJKNGQ0J4","img_art/15.jpg","4","","","","","","","","","","","","","","","","","","","","","","","","",""
"709","","image-button-response","115","579642","0.0-113.0-0.0","A1119SJKNGQ0J4","img_art/15.jpg","5","","","","","","","","","","","","","","","","","","","","","","","","",""
"null","","html-keyboard-response","116","580144","0.0-114.0","A1119SJKNGQ0J4","<p style=""font-size: 48px;"">+</p>","","","","","null","allTrialResponses","500","1","10","img_art/15.jpg","50","Love this use of black spots.","Jordan,Mary,Anna,Jamie,Amy,Erika","I'm just not into it,-5,20,20","This piece gave me no emotion. It's ugly to me.,-38,180,20","I like how it's simple but beautiful.,40,300,20","Black and blue is my favorite color combination,35,320,20","basic colors and pleasing shapes providing a calming effect,15,220,20","I like the dense patterns and the splashes  of blue,38,100,20","Anna","I like how it's simple but beautiful.,40,300,20","Amy","basic colors and pleasing shapes providing a calming effect,15,220,20","Erika","I like the dense patterns and the splashes  of blue,38,100,20","4"
"3119","","survey-text","117","583286","0.0-115.0-0.0","A1119SJKNGQ0J4","","","","{""Q0"":""our""}","","","","","","","","","","","","","","","","","","","","","","",""
"12552","","survey-text","118","595840","0.0-116.0-0.0","A1119SJKNGQ0J4","","","","{""Q0"":""slumber mess""}","","","","","","","","","","","","","","","","","","","","","","",""
"3315.600000000093","","image-slider-response","119","599158","0.0-117.0","A1119SJKNGQ0J4","","","","","12","","","","","","","","","","","","","","","","","","","","","",""
"null","","image-button-response","120","604160","0.0-118.0","A1119SJKNGQ0J4","img_art/9.jpg","null","","","","","","","","","","","","","","","","","","","","","","","","",""
"1320","","image-button-response","121","605484","0.0-119.0","A1119SJKNGQ0J4","img_art/9.jpg","5","","","","","","","","","","","","","","","","","","","","","","","","",""
"1782","","image-button-response","122","607268","0.0-120.0-0.0","A1119SJKNGQ0J4","img_art/9.jpg","1","","","","","","","","","","","","","","","","","","","","","","","","",""
"810","","image-button-response","123","608082","0.0-121.0-0.0","A1119SJKNGQ0J4","img_art/9.jpg","0","","","","","","","","","","","","","","","","","","","","","","","","",""
"null","","html-keyboard-response","124","608584","0.0-122.0","A1119SJKNGQ0J4","<p style=""font-size: 48px;"">+</p>","","","","","null","allTrialResponses","500","1","11","img_art/9.jpg","12","slumber mess","Molly,Crystal,Anna,Paige,Amy,Erika","I like the way the artist has painted his painting.,20,340,20","Evokes triumph of a mountain over powering a drowning sea,24,300,20","It looks like a child's crayon drawing.,-10,300,20","I feel this incites anger,-16,60,20","The busyness and harsh nature of the lines in this painting  mute my emotional response.,-10,220,20","Colorful and expressive,15,100,20","Erika","Colorful and expressive,15,100,20","Crystal","Evokes triumph of a mountain over powering a drowning sea,24,300,20","Molly","I like the way the artist has painted his painting.,20,340,20","4"
"13432","","survey-text","125","622028","0.0-123.0-0.0","A1119SJKNGQ0J4","","","","{""Q0"":""Simple yet powerful""}","","","","","","","","","","","","","","","","","","","","","","",""
"2898.100000000093","","image-slider-response","126","624928","0.0-124.0","A1119SJKNGQ0J4","","","","","22","","","","","","","","","","","","","","","","","","","","","",""
"null","","image-button-response","127","629932","0.0-125.0","A1119SJKNGQ0J4","img_art/26.jpg","null","","","","","","","","","","","","","","","","","","","","","","","","",""
"740","","image-button-response","128","630674","0.0-126.0","A1119SJKNGQ0J4","img_art/26.jpg","3","","","","","","","","","","","","","","","","","","","","","","","","",""
"2238","","image-button-response","129","632914","0.0-127.0-0.0","A1119SJKNGQ0J4","img_art/26.jpg","5","","","","","","","","","","","","","","","","","","","","","","","","",""
"4316","","image-button-response","130","637232","0.0-128.0-0.0","A1119SJKNGQ0J4","img_art/26.jpg","0","","","","","","","","","","","","","","","","","","","","","","","","",""
"null","","html-keyboard-response","131","638239","0.0-129.0","A1119SJKNGQ0J4","<p style=""font-size: 48px;"">+</p>","","","","","null","allTrialResponses","1000","1","12","img_art/26.jpg","22","Simple yet powerful","Molly,Crystal,Hannah,Erin,Lauren,Erika","Nothing to say.,0,340,20","Do not like water colors at all,-50,300,20","This is boring.,-15,240,20","City scene in a park,23,120,20","The piece doesn't really invoke anything for me.,0,340,20","Feels like still life,-13,100,20","Erin","City scene in a park,23,120,20","Erika","Feels like still life,-13,100,20","Molly","Nothing to say.,0,340,20","4"
"7209","","survey-text","132","645460","0.0-130.0-0.0","A1119SJKNGQ0J4","","","","{""Q0"":""Jazz fest""}","","","","","","","","","","","","","","","","","","","","","","",""
"3534.1999999997206","","image-slider-response","133","648996","0.0-131.0","A1119SJKNGQ0J4","","","","","6","","","","","","","","","","","","","","","","","","","","","",""
"4130","","image-button-response","134","654000","0.0-132.0","A1119SJKNGQ0J4","img_art/23.jpg","5","","","","","","","","","","","","","","","","","","","","","","","","",""
"234","","image-button-response","135","654237","0.0-133.0","A1119SJKNGQ0J4","img_art/23.jpg","4","","","","","","","","","","","","","","","","","","","","","","","","",""
"1232","","image-button-response","136","655471","0.0-134.0-0.0","A1119SJKNGQ0J4","img_art/23.jpg","5","","","","","","","","","","","","","","","","","","","","","","","","",""
"1090","","image-button-response","137","656563","0.0-135.0-0.0","A1119SJKNGQ0J4","img_art/23.jpg","2","","","","","","","","","","","","","","","","","","","","","","","","",""
"null","","html-keyboard-response","138","658065","0.0-136.0","A1119SJKNGQ0J4","<p style=""font-size: 48px;"">+</p>","","","","","null","allTrialResponses","1500","1","13","img_art/23.jpg","6","Jazz fest","Molly,Alicia,Victoria,Erin,Destiny,Erika","Shocked, beautiful.,20,340,20","No reactions, childish.,-19,120,20","enjoy the colors,23,400,20","Confetti dancer,-7,120,20","This looks like the cover art for a scene band,-29,360,20","Very intense and unique,3,100,20","Destiny","This looks like the cover art for a scene band,-29,360,20","Erika","Very intense and unique,3,100,20","Victoria","enjoy the colors,23,400,20","4"
"9192","","survey-text","139","667268","0.0-137.0-0.0","A1119SJKNGQ0J4","","","","{""Q0"":""I like the message""}","","","","","","","","","","","","","","","","","","","","","","",""
"2728.2000000001863","","image-slider-response","140","669998","0.0-138.0","A1119SJKNGQ0J4","","","","","13","","","","","","","","","","","","","","","","","","","","","",""
"4858","","image-button-response","141","675002","0.0-139.0","A1119SJKNGQ0J4","img_art/16.jpg","5","","","","","","","","","","","","","","","","","","","","","","","","",""
"3376","","image-button-response","142","678381","0.0-140.0","A1119SJKNGQ0J4","img_art/16.jpg","0","","","","","","","","","","","","","","","","","","","","","","","","",""
"1502","","image-button-response","143","679885","0.0-141.0-0.0","A1119SJKNGQ0J4","img_art/16.jpg","5","","","","","","","","","","","","","","","","","","","","","","","","",""
"842","","image-button-response","144","680729","0.0-142.0-0.0","A1119SJKNGQ0J4","img_art/16.jpg","4","","","","","","","","","","","","","","","","","","","","","","","","",""
"null","","html-keyboard-response","145","682230","0.0-143.0","A1119SJKNGQ0J4","<p style=""font-size: 48px;"">+</p>","","","","","null","allTrialResponses","1500","1","14","img_art/16.jpg","13","I like the message","Jennifer,Caitlin,Victoria,Olivia,Destiny,Erika","Very creepy, it makes me feel uneasy,-31,380,20","It is sick to put a teddy bear and a gun on the same piece of canvas.,-40,80,20","liked the bear, nothing else made sense,10,400,20","childhood horror,3,40,20","what is this doing for anyone. If you connect with this you're literally lying to yourself. pretentious,-50,360,20","Very emotional,23,100,20","Jennifer","Very creepy, it makes me feel uneasy,-31,380,20","Erika","Very emotional,23,100,20","Destiny","what is this doing for anyone. If you connect with this you're literally lying to yourself. pretentious,-50,360,20","4"
"5294","","survey-text","146","687536","0.0-144.0-0.0","A1119SJKNGQ0J4","","","","{""Q0"":""dull""}","","","","","","","","","","","","","","","","","","","","","","",""
"6038","","survey-text","147","695646","0.0-144.1-0.1","A1119SJKNGQ0J4","","","","{""Q0"":""dull and bland""}","","","","","","","","","","","","","","","","","","","","","","",""
"3324.2999999998137","","image-slider-response","148","698972","0.0-145.0","A1119SJKNGQ0J4","","","","","-42","","","","","","","","","","","","","","","","","","","","","",""
"3014","","image-button-response","149","703981","0.0-146.0","A1119SJKNGQ0J4","img_art/28.jpg","1","","","","","","","","","","","","","","","","","","","","","","","","",""
"788","","image-button-response","150","704772","0.0-147.0","A1119SJKNGQ0J4","img_art/28.jpg","1","","","","","","","","","","","","","","","","","","","","","","","","",""
"462","","image-button-response","151","705236","0.0-148.0-0.0","A1119SJKNGQ0J4","img_art/28.jpg","0","","","","","","","","","","","","","","","","","","","","","","","","",""
"728","","image-button-response","152","705967","0.0-149.0-0.0","A1119SJKNGQ0J4","img_art/28.jpg","2","","","","","","","","","","","","","","","","","","","","","","","","",""
"null","","html-keyboard-response","153","706971","0.0-150.0","A1119SJKNGQ0J4","<p style=""font-size: 48px;"">+</p>","","","","","null","allTrialResponses","1000","1","15","img_art/28.jpg","-42","dull and bland","Jennifer,Amanda,Monica,Lindsey,Destiny,Erika","This picture doesn't really stand out to me,1,380,20","Colors look too muddy for my liking,-33,180,20","The dark colors make it look dirty and the shapes make me uncomfortable,-50,360,20","Not a fan of the drab colors but it looks a little bit interesting.,-7,400,20","I wish I knew why I liked it, maybes its the pinky tones,36,360,20","Invokes curiosity, I want to know it's story.,15,100,20","Amanda","Colors look too muddy for my liking,-33,180,20","Jennifer","This picture doesn't really stand out to me,1,380,20","Monica","The dark colors make it look dirty and the shapes make me uncomfortable,-50,360,20","4"
"5129","","survey-text","154","712114","0.0-151.0-0.0","A1119SJKNGQ0J4","","","","{""Q0"":""course""}","","","","","","","","","","","","","","","","","","","","","","",""
"12374","","survey-text","155","724490","0.0-152.0-0.0","A1119SJKNGQ0J4","","","","{""Q0"":""Beautiful but also meh""}","","","","","","","","","","","","","","","","","","","","","","",""
"3278.100000000093","","image-slider-response","156","727770","0.0-153.0","A1119SJKNGQ0J4","","","","","-6","","","","","","","","","","","","","","","","","","","","","",""
"3030","","image-button-response","157","732773","0.0-154.0","A1119SJKNGQ0J4","img_art/24.jpg","3","","","","","","","","","","","","","","","","","","","","","","","","",""
"4694","","image-button-response","158","737471","0.0-155.0","A1119SJKNGQ0J4","img_art/24.jpg","1","","","","","","","","","","","","","","","","","","","","","","","","",""
"1129","","image-button-response","159","738603","0.0-156.0-0.0","A1119SJKNGQ0J4","img_art/24.jpg","3","","","","","","","","","","","","","","","","","","","","","","","","",""
"485","","image-button-response","160","739091","0.0-157.0-0.0","A1119SJKNGQ0J4","img_art/24.jpg","4","","","","","","","","","","","","","","","","","","","","","","","","",""
"null","","html-keyboard-response","161","740605","0.0-158.0","A1119SJKNGQ0J4","<p style=""font-size: 48px;"">+</p>","","","","","null","allTrialResponses","1500","1","16","img_art/24.jpg","-6","Beautiful but also meh","Jennifer,Amanda,Monica,Gabriela,Marissa,Angela","This piece resembles a waterfall surrounded by trees.,21,380,20","Beautiful,  peaceful,50,180,20","It looks alive, like I can hear the water flowing,41,360,20","I love how bold and vibrant the colors are,40,140,20","It feels very serene,19,160,20","Love the colors in this work, and the sense of motion in the water,36,260,20","Amanda","Beautiful,  peaceful,50,180,20","Gabriela","I love how bold and vibrant the colors are,40,140,20","Marissa","It feels very serene,19,160,20","4"
"9064","","survey-text","162","749682","0.0-159.0-0.0","A1119SJKNGQ0J4","","","","{""Q0"":""art in a nutshell""}","","","","","","","","","","","","","","","","","","","","","","",""
"4208.5","","image-slider-response","163","753894","0.0-160.0","A1119SJKNGQ0J4","","","","","3","","","","","","","","","","","","","","","","","","","","","",""
"3121","","image-button-response","164","758897","0.0-161.0","A1119SJKNGQ0J4","img_art/29.jpg","3","","","","","","","","","","","","","","","","","","","","","","","","",""
"1109","","image-button-response","165","760010","0.0-162.0","A1119SJKNGQ0J4","img_art/29.jpg","4","","","","","","","","","","","","","","","","","","","","","","","","",""
"1316","","image-button-response","166","761328","0.0-163.0-0.0","A1119SJKNGQ0J4","img_art/29.jpg","5","","","","","","","","","","","","","","","","","","","","","","","","",""
"1199","","image-button-response","167","762530","0.0-164.0-0.0","A1119SJKNGQ0J4","img_art/29.jpg","3","","","","","","","","","","","","","","","","","","","","","","","","",""
"null","","html-keyboard-response","168","764040","0.0-165.0","A1119SJKNGQ0J4","<p style=""font-size: 48px;"">+</p>","","","","","null","allTrialResponses","1500","1","17","img_art/29.jpg","3","art in a nutshell","Sierra,Amanda,Taylor,Gabriela,Marissa,Samantha","not digging the paintbrush,1,260,20","Once again, very modern, activists will love,27,180,20","It seems like there's anger in the painting.,-20,340,20","I like that it looks like a scene from perhaps a failed painted project,10,140,20","It makes me feel as though the artist put in a lot of time and effort and then gave up,10,160,20","I love this things almost hidden in it like paint brush and other details,50,140,20","Marissa","It makes me feel as though the artist put in a lot of time and effort and then gave up,10,160,20","Samantha","I love this things almost hidden in it like paint brush and other details,50,140,20","Gabriela","I like that it looks like a scene from perhaps a failed painted project,10,140,20","4"
"11551","","survey-text","169","775604","0.0-166.0-0.0","A1119SJKNGQ0J4","","","","{""Q0"":""stone washed picture""}","","","","","","","","","","","","","","","","","","","","","","",""
"4612.199999999721","","image-slider-response","170","780217","0.0-167.0","A1119SJKNGQ0J4","","","","","-34","","","","","","","","","","","","","","","","","","","","","",""
"2758","","image-button-response","171","785221","0.0-168.0","A1119SJKNGQ0J4","img_art/7.jpg","0","","","","","","","","","","","","","","","","","","","","","","","","",""
"474","","image-button-response","172","785700","0.0-169.0","A1119SJKNGQ0J4","img_art/7.jpg","2","","","","","","","","","","","","","","","","","","","","","","","","",""
"1540","","image-button-response","173","787242","0.0-170.0-0.0","A1119SJKNGQ0J4","img_art/7.jpg","4","","","","","","","","","","","","","","","","","","","","","","","","",""
"1130","","image-button-response","174","788374","0.0-171.0-0.0","A1119SJKNGQ0J4","img_art/7.jpg","0","","","","","","","","","","","","","","","","","","","","","","","","",""
"null","","html-keyboard-response","175","788877","0.0-172.0","A1119SJKNGQ0J4","<p style=""font-size: 48px;"">+</p>","","","","","null","allTrialResponses","500","1","18","img_art/7.jpg","-34","stone washed picture","Stephanie,Katelyn,Caroline,Gabriela,Marissa,Samantha","This looks muddy and stomped on. I think of destruction.,-50,300,20","Makes me think of the beach which makes me happy,14,100,20","Looks like dirt on the ground. Makes me feel unclean,-37,100,20","it looks like an ant farm,12,140,20","I feel confused, am I looking at a painting or a close up picture of some sort of fly stone?,-19,160,20","Makes me want to feel it,19,140,20","Caroline","Looks like dirt on the ground. Makes me feel unclean,-37,100,20","Marissa","I feel confused, am I looking at a painting or a close up picture of some sort of fly stone?,-19,160,20","Stephanie","This looks muddy and stomped on. I think of destruction.,-50,300,20","4"
"13705","","survey-text","176","802596","0.0-173.0-0.0","A1119SJKNGQ0J4","","","","{""Q0"":""classical music but not""}","","","","","","","","","","","","","","","","","","","","","","",""
"2936","","image-slider-response","177","805533","0.0-174.0","A1119SJKNGQ0J4","","","","","-49","","","","","","","","","","","","","","","","","","","","","",""
"2084","","image-button-response","178","810536","0.0-175.0","A1119SJKNGQ0J4","img_art/10.jpg","0","","","","","","","","","","","","","","","","","","","","","","","","",""
"721","","image-button-response","179","811262","0.0-176.0","A1119SJKNGQ0J4","img_art/10.jpg","4","","","","","","","","","","","","","","","","","","","","","","","","",""
"1054","","image-button-response","180","812317","0.0-177.0-0.0","A1119SJKNGQ0J4","img_art/10.jpg","0","","","","","","","","","","","","","","","","","","","","","","","","",""
"632","","image-button-response","181","812951","0.0-178.0-0.0","A1119SJKNGQ0J4","img_art/10.jpg","2","","","","","","","","","","","","","","","","","","","","","","","","",""
"null","","html-keyboard-response","182","813453","0.0-179.0","A1119SJKNGQ0J4","<p style=""font-size: 48px;"">+</p>","","","","","null","allTrialResponses","500","1","19","img_art/10.jpg","-49","classical music but not","Stephanie,Maria,Caroline,Diana,Marissa,Sabrina","The black color is depressing.,-50,300,20","not sure what to make of this one,0,120,20","This painting made me think of a guitar which made me think of music which envoked happy feelings.,28,100,20","It reminds me of the ocean. Almost like a battlefield, but on the water.,19,380,20","My immediate thought is WTF is this,-20,160,20","I love the dark and edgy nature of this,50,120,20","Marissa","My immediate thought is WTF is this,-20,160,20","Stephanie","The black color is depressing.,-50,300,20","Caroline","This painting made me think of a guitar which made me think of music which envoked happy feelings.,28,100,20","4"
"7038","","survey-text","183","820503","0.0-180.0-0.0","A1119SJKNGQ0J4","","","","{""Q0"":""city illusion""}","","","","","","","","","","","","","","","","","","","","","","",""
"2812.3000000002794","","image-slider-response","184","823317","0.0-181.0","A1119SJKNGQ0J4","","","","","-13","","","","","","","","","","","","","","","","","","","","","",""
"2906","","image-button-response","185","828320","0.0-182.0","A1119SJKNGQ0J4","img_art/11.jpg","3","","","","","","","","","","","","","","","","","","","","","","","","",""
"857","","image-button-response","186","829179","0.0-183.0","A1119SJKNGQ0J4","img_art/11.jpg","1","","","","","","","","","","","","","","","","","","","","","","","","",""
"689","","image-button-response","187","829869","0.0-184.0-0.0","A1119SJKNGQ0J4","img_art/11.jpg","0","","","","","","","","","","","","","","","","","","","","","","","","",""
"594","","image-button-response","188","830465","0.0-185.0-0.0","A1119SJKNGQ0J4","img_art/11.jpg","3","","","","","","","","","","","","","","","","","","","","","","","","",""
"null","","html-keyboard-response","189","831476","0.0-186.0","A1119SJKNGQ0J4","<p style=""font-size: 48px;"">+</p>","","","","","null","allTrialResponses","1000","1","20","img_art/11.jpg","-13","city illusion","Stephanie,Madison,Caroline,Jacqueline,Marissa,Nicole","Rainy dreary day in a town.,7,300,20","Rainy day at an urban sea port. Portugal?,30,60,20","Makes me think of far away places and traveling. Makes me feel like wandering,20,100,20","It's too dark and dingy.,-30,300,20","I dislike how dark this is,-21,160,20","Those vertical strokes are to die for and I love these colors !!!,50,20,20","Madison","Rainy day at an urban sea port. Portugal?,30,60,20","Stephanie","Rainy dreary day in a town.,7,300,20","Jacqueline","It's too dark and dingy.,-30,300,20","4"
"2575","","survey-text","190","834071","0.0-187.0-0.0","A1119SJKNGQ0J4","","","","{""Q0"":""we""}","","","","","","","","","","","","","","","","","","","","","","",""
"6743","","survey-text","191","840815","0.0-188.0-0.0","A1119SJKNGQ0J4","","","","{""Q0"":""looks like poo""}","","","","","","","","","","","","","","","","","","","","","","",""
"3324.2000000001863","","image-slider-response","192","844141","0.0-189.0","A1119SJKNGQ0J4","","","","","-50","","","","","","","","","","","","","","","","","","","","","",""
"3828","","image-button-response","193","849171","0.0-190.0","A1119SJKNGQ0J4","img_art/4.jpg","1","","","","","","","","","","","","","","","","","","","","","","","","",""
"928","","image-button-response","194","850104","0.0-191.0","A1119SJKNGQ0J4","img_art/4.jpg","1","","","","","","","","","","","","","","","","","","","","","","","","",""
"1030","","image-button-response","195","851136","0.0-192.0-0.0","A1119SJKNGQ0J4","img_art/4.jpg","3","","","","","","","","","","","","","","","","","","","","","","","","",""
"1316","","image-button-response","196","852454","0.0-193.0-0.0","A1119SJKNGQ0J4","img_art/4.jpg","4","","","","","","","","","","","","","","","","","","","","","","","","",""
"null","","html-keyboard-response","197","853457","0.0-194.0","A1119SJKNGQ0J4","<p style=""font-size: 48px;"">+</p>","","","","","null","allTrialResponses","1000","1","21","img_art/4.jpg","-50","looks like poo","Stephanie,Madison,Allison,Jacqueline,Haley,Alexis","It looks like a hand someone scribbled over,-30,300,20","This is what makes suburban dads say, ""my 4-year-old can do that."",-49,60,20","McDonald's French Fries.,-10,140,20","It looks like smeared poop.,-27,300,20","This image doesn't invoke anything in me,-9,220,20","Really don't like this. Kindergarten art, sorry.,-50,100,20","Madison","This is what makes suburban dads say, ""my 4-year-old can do that."",-49,60,20","Jacqueline","It looks like smeared poop.,-27,300,20","Haley","This image doesn't invoke anything in me,-9,220,20","4"
"6370","","survey-text","198","859841","0.0-195.0-0.0","A1119SJKNGQ0J4","","","","{""Q0"":""nice texture""}","","","","","","","","","","","","","","","","","","","","","","",""
"4471.600000000093","","image-slider-response","199","864315","0.0-196.0","A1119SJKNGQ0J4","","","","","-14","","","","","","","","","","","","","","","","","","","","","",""
"2726","","image-button-response","200","869319","0.0-197.0","A1119SJKNGQ0J4","img_art/12.jpg","1","","","","","","","","","","","","","","","","","","","","","","","","",""
"2248","","image-button-response","201","871572","0.0-198.0","A1119SJKNGQ0J4","img_art/12.jpg","5","","","","","","","","","","","","","","","","","","","","","","","","",""
"658","","image-button-response","202","872231","0.0-199.0-0.0","A1119SJKNGQ0J4","img_art/12.jpg","4","","","","","","","","","","","","","","","","","","","","","","","","",""
"742","","image-button-response","203","872976","0.0-200.0-0.0","A1119SJKNGQ0J4","img_art/12.jpg","0","","","","","","","","","","","","","","","","","","","","","","","","",""
"null","","html-keyboard-response","204","873478","0.0-201.0","A1119SJKNGQ0J4","<p style=""font-size: 48px;"">+</p>","","","","","null","allTrialResponses","500","1","22","img_art/12.jpg","-14","nice texture","Cassidy,Madison,Kaylee,Jacqueline,Haley,Kimberly","I like the colors and pattern,21,140,20","Different enough to be memorable. The gradient of hues is appealing and appeasing.,32,60,20","wtf is that i dont get it,-50,200,20","It's not particularly interesting or ugly.,-7,300,20","Very interesting. Makes me want to look at it for a long time.,16,220,20","Just not a fan, I can't figure out why,-17,260,20","Kimberly","Just not a fan, I can't figure out why,-17,260,20","Haley","Very interesting. Makes me want to look at it for a long time.,16,220,20","Cassidy","I like the colors and pattern,21,140,20","4"
"6297","","survey-text","205","879789","0.0-202.0-0.0","A1119SJKNGQ0J4","","","","{""Q0"":""love the colors""}","","","","","","","","","","","","","","","","","","","","","","",""
"3418.2000000001863","","image-slider-response","206","883209","0.0-203.0","A1119SJKNGQ0J4","","","","","22","","","","","","","","","","","","","","","","","","","","","",""
"2502","","image-button-response","207","888216","0.0-204.0","A1119SJKNGQ0J4","img_art/13.jpg","0","","","","","","","","","","","","","","","","","","","","","","","","",""
"1742","","image-button-response","208","889962","0.0-205.0","A1119SJKNGQ0J4","img_art/13.jpg","1","","","","","","","","","","","","","","","","","","","","","","","","",""
"704","","image-button-response","209","890668","0.0-206.0-0.0","A1119SJKNGQ0J4","img_art/13.jpg","0","","","","","","","","","","","","","","","","","","","","","","","","",""
"726","","image-button-response","210","891396","0.0-207.0-0.0","A1119SJKNGQ0J4","img_art/13.jpg","3","","","","","","","","","","","","","","","","","","","","","","","","",""
"null","","html-keyboard-response","211","891901","0.0-208.0","A1119SJKNGQ0J4","<p style=""font-size: 48px;"">+</p>","","","","","null","allTrialResponses","500","1","23","img_art/13.jpg","22","love the colors","Cassidy,Rebecca,Mariah,Kristen,Haley,Kimberly","Great color balance. I like the splatter, and how the vertical lines go from sharper to more blended.,31,140,20","love the style but not very novel,9,100,20","Rain on a cold window.,22,140,20","happy, serenity,30,280,20","Nothing about this stands out to me,-10,220,20","It's like a pattern on a bus seat,10,260,20","Rebecca","love the style but not very novel,9,100,20","Cassidy","Great color balance. I like the splatter, and how the vertical lines go from sharper to more blended.,31,140,20","Kristen","happy, serenity,30,280,20","4"
"8030","","survey-text","212","899947","0.0-209.0-0.0","A1119SJKNGQ0J4","","","","{""Q0"":""like a marble""}","","","","","","","","","","","","","","","","","","","","","","",""
"2556.7000000001863","","image-slider-response","213","902506","0.0-210.0","A1119SJKNGQ0J4","","","","","-36","","","","","","","","","","","","","","","","","","","","","",""
"4852","","image-button-response","214","907509","0.0-211.0","A1119SJKNGQ0J4","img_art/21.jpg","5","","","","","","","","","","","","","","","","","","","","","","","","",""
"1173","","image-button-response","215","908686","0.0-212.0","A1119SJKNGQ0J4","img_art/21.jpg","3","","","","","","","","","","","","","","","","","","","","","","","","",""
"2090","","image-button-response","216","910778","0.0-213.0-0.0","A1119SJKNGQ0J4","img_art/21.jpg","4","","","","","","","","","","","","","","","","","","","","","","","","",""
"928","","image-button-response","217","911708","0.0-214.0-0.0","A1119SJKNGQ0J4","img_art/21.jpg","5","","","","","","","","","","","","","","","","","","","","","","","","",""
"null","","html-keyboard-response","218","912724","0.0-215.0","A1119SJKNGQ0J4","<p style=""font-size: 48px;"">+</p>","","","","","null","allTrialResponses","1000","1","24","img_art/21.jpg","-36","like a marble","Cassidy,Rebecca,Bailey,Kristen,Laura,Sophia","I really like these colors together and their placement. The dabs of white are a nice contrast to the soft blending,10,140,20","stormy with gold lining,0,100,20","Looks like two ships on fire. Cool image.,12,360,20","calm, ship at sea, sunset,16,280,20","a serene, calm and eloquent storm,9,320,20","Indifferent toward this one.,6,280,20","Kristen","calm, ship at sea, sunset,16,280,20","Laura","a serene, calm and eloquent storm,9,320,20","Sophia","Indifferent toward this one.,6,280,20","4"
"5288","","survey-text","219","918028","0.0-216.0-0.0","A1119SJKNGQ0J4","","","","{""Q0"":""moody ""}","","","","","","","","","","","","","","","","","","","","","","",""
"2997.899999999907","","image-slider-response","220","921028","0.0-217.0","A1119SJKNGQ0J4","","","","","-10","","","","","","","","","","","","","","","","","","","","","",""
"4604","","image-button-response","221","926031","0.0-218.0","A1119SJKNGQ0J4","img_art/20.jpg","3","","","","","","","","","","","","","","","","","","","","","","","","",""
"1368","","image-button-response","222","927402","0.0-219.0","A1119SJKNGQ0J4","img_art/20.jpg","5","","","","","","","","","","","","","","","","","","","","","","","","",""
"672","","image-button-response","223","928076","0.0-220.0-0.0","A1119SJKNGQ0J4","img_art/20.jpg","3","","","","","","","","","","","","","","","","","","","","","","","","",""
"711","","image-button-response","224","928790","0.0-221.0-0.0","A1119SJKNGQ0J4","img_art/20.jpg","2","","","","","","","","","","","","","","","","","","","","","","","","",""
"null","","html-keyboard-response","225","930292","0.0-222.0","A1119SJKNGQ0J4","<p style=""font-size: 48px;"">+</p>","","","","","null","allTrialResponses","1500","1","25","img_art/20.jpg","-10","moody ","Breanna,Elizabeth,Hailey,Kristen,Laura,Sophia","Makes me feel impressed,9,380,20","This painting would make a great display art,50,20,20","reminds me of a dead animal in the west. ugly,-25,200,20","danger, car crash, stressful,-12,280,20","very fluid and mysterious,37,320,20","A truck rolled over?  I do like the pictures and the technique though.,25,280,20","Sophia","A truck rolled over?  I do like the pictures and the technique though.,25,280,20","Kristen","danger, car crash, stressful,-12,280,20","Hailey","reminds me of a dead animal in the west. ugly,-25,200,20","4"
"3457","","survey-text","226","933774","0.0-223.0-0.0","A1119SJKNGQ0J4","","","","{""Q0"":""table""}","","","","","","","","","","","","","","","","","","","","","","",""
"6651","","survey-text","227","940426","0.0-224.0-0.0","A1119SJKNGQ0J4","","","","{""Q0"":""too busy""}","","","","","","","","","","","","","","","","","","","","","","",""
"2906","","image-slider-response","228","943334","0.0-225.0","A1119SJKNGQ0J4","","","","","-43","","","","","","","","","","","","","","","","","","","","","",""
"3751","","image-button-response","229","948342","0.0-226.0","A1119SJKNGQ0J4","img_art/19.jpg","3","","","","","","","","","","","","","","","","","","","","","","","","",""
"502","","image-button-response","230","948846","0.0-227.0","A1119SJKNGQ0J4","img_art/19.jpg","3","","","","","","","","","","","","","","","","","","","","","","","","",""
"446","","image-button-response","231","949294","0.0-228.0-0.0","A1119SJKNGQ0J4","img_art/19.jpg","4","","","","","","","","","","","","","","","","","","","","","","","","",""
"534","","image-button-response","232","949830","0.0-229.0-0.0","A1119SJKNGQ0J4","img_art/19.jpg","5","","","","","","","","","","","","","","","","","","","","","","","","",""
"null","","html-keyboard-response","233","950333","0.0-230.0","A1119SJKNGQ0J4","<p style=""font-size: 48px;"">+</p>","","","","","null","allTrialResponses","500","1","26","img_art/19.jpg","-43","too busy","Makayla,Amber,Hailey,Kristen,Isabella,Sophia","Looks like hustle and bustle ,,3,80,20","Reminds me of a busy village.,16,200,20","an old cityfrom many years ago. its ok,6,200,20","city, stress of urbanism, slightly panicked,2,280,20","A day in a small city,45,280,20","This looks like a child's piece. I appreciate the artistic value, but not for me.,-20,280,20","Kristen","city, stress of urbanism, slightly panicked,2,280,20","Isabella","A day in a small city,45,280,20","Sophia","This looks like a child's piece. I appreciate the artistic value, but not for me.,-20,280,20","4"
"7854","","survey-text","234","958202","0.0-231.0-0.0","A1119SJKNGQ0J4","","","","{""Q0"":""crow ""}","","","","","","","","","","","","","","","","","","","","","","",""
"5425","","survey-text","235","964832","0.0-231.1-0.1","A1119SJKNGQ0J4","","","","{""Q0"":""black crow""}","","","","","","","","","","","","","","","","","","","","","","",""
"3990.2000000001863","","image-slider-response","236","968824","0.0-232.0","A1119SJKNGQ0J4","","","","","-50","","","","","","","","","","","","","","","","","","","","","",""
"4618","","image-button-response","237","973827","0.0-233.0","A1119SJKNGQ0J4","img_art/6.jpg","0","","","","","","","","","","","","","","","","","","","","","","","","",""
"258","","image-button-response","238","974089","0.0-234.0","A1119SJKNGQ0J4","img_art/6.jpg","4","","","","","","","","","","","","","","","","","","","","","","","","",""
"456","","image-button-response","239","974547","0.0-235.0-0.0","A1119SJKNGQ0J4","img_art/6.jpg","5","","","","","","","","","","","","","","","","","","","","","","","","",""
"634","","image-button-response","240","975182","0.0-236.0-0.0","A1119SJKNGQ0J4","img_art/6.jpg","1","","","","","","","","","","","","","","","","","","","","","","","","",""
"null","","html-keyboard-response","241","976185","0.0-237.0","A1119SJKNGQ0J4","<p style=""font-size: 48px;"">+</p>","","","","","null","allTrialResponses","1000","1","27","img_art/6.jpg","-50","black crow","Kaitlin,Gabrielle,Cheyenne,Kristen,Isabella,Sophia","This one also confuses me a bit.,-19,60,20","simplistic but reminds me of a crow in a field,-10,160,20","Good painting but too simple to care about it for very long.,-15,200,20","loneliness, fragile, forever alone, a girl who's been there for eternity, only think tracking time is the length of her hair,9,280,20","A bird standing in the sun,37,280,20","It's okay. It kind of looks like a bird with his head buried in his feathers.,2,280,20","Isabella","A bird standing in the sun,37,280,20","Sophia","It's okay. It kind of looks like a bird with his head buried in his feathers.,2,280,20","Gabrielle","simplistic but reminds me of a crow in a field,-10,160,20","4"
"8779","","survey-text","242","984980","0.0-238.0-0.0","A1119SJKNGQ0J4","","","","{""Q0"":""popcorn""}","","","","","","","","","","","","","","","","","","","","","","",""
"2952.2999999998137","","image-slider-response","243","987934","0.0-239.0","A1119SJKNGQ0J4","","","","","-50","","","","","","","","","","","","","","","","","","","","","",""
"4162","","image-button-response","244","992938","0.0-240.0","A1119SJKNGQ0J4","img_art/27.jpg","5","","","","","","","","","","","","","","","","","","","","","","","","",""
"234","","image-button-response","245","993175","0.0-241.0","A1119SJKNGQ0J4","img_art/27.jpg","1","","","","","","","","","","","","","","","","","","","","","","","","",""
"642","","image-button-response","246","993819","0.0-242.0-0.0","A1119SJKNGQ0J4","img_art/27.jpg","2","","","","","","","","","","","","","","","","","","","","","","","","",""
"750","","image-button-response","247","994572","0.0-243.0-0.0","A1119SJKNGQ0J4","img_art/27.jpg","5","","","","","","","","","","","","","","","","","","","","","","","","",""
"null","","html-keyboard-response","248","995088","0.0-244.0","A1119SJKNGQ0J4","<p style=""font-size: 48px;"">+</p>","","","","","null","allTrialResponses","500","1","28","img_art/27.jpg","-50","popcorn","Katherine,Gabrielle,Autumn,Megan,Isabella,Sophia","it's like a weird version of heaven,16,120,20","like the patterns and colors all but the orange blob on the right,32,160,20","Adult contemporary painting with child.,-33,340,20","Nice back ground with childish scribble on top,-30,200,20","Makes me feel warm inside,21,280,20","Yikes. I think I made this in kindergarten.,-20,280,20","Gabrielle","like the patterns and colors all but the orange blob on the right,32,160,20","Autumn","Adult contemporary painting with child.,-33,340,20","Sophia","Yikes. I think I made this in kindergarten.,-20,280,20","4"
"8012","","survey-text","249","1003123","0.0-245.0-0.0","A1119SJKNGQ0J4","","","","{""Q0"":""hershey kiss""}","","","","","","","","","","","","","","","","","","","","","","",""
"2694","","image-slider-response","250","1005819","0.0-246.0","A1119SJKNGQ0J4","","","","","15","","","","","","","","","","","","","","","","","","","","","",""
"4401","","image-button-response","251","1010833","0.0-247.0","A1119SJKNGQ0J4","img_art/5.jpg","1","","","","","","","","","","","","","","","","","","","","","","","","",""
"1456","","image-button-response","252","1012293","0.0-248.0","A1119SJKNGQ0J4","img_art/5.jpg","2","","","","","","","","","","","","","","","","","","","","","","","","",""
"927","","image-button-response","253","1013223","0.0-249.0-0.0","A1119SJKNGQ0J4","img_art/5.jpg","4","","","","","","","","","","","","","","","","","","","","","","","","",""
"1829","","image-button-response","254","1015053","0.0-250.0-0.0","A1119SJKNGQ0J4","img_art/5.jpg","5","","","","","","","","","","","","","","","","","","","","","","","","",""
"null","","html-keyboard-response","255","1016563","0.0-251.0","A1119SJKNGQ0J4","<p style=""font-size: 48px;"">+</p>","","","","","null","allTrialResponses","1500","1","29","img_art/5.jpg","15","hershey kiss","Sara,Gabrielle,Autumn,Danielle,Andrea,Sophia","It looks random,-10,160,20","looks like a 2nd grader did it,-50,160,20","Appealing but shapeless,24,340,20","Not a fan of the themes,-30,340,20","Perfume bottle, reminds of fancy nights out.,11,240,20","Looks like a tied up trash bag.,-10,280,20","Autumn","Appealing but shapeless,24,340,20","Andrea","Perfume bottle, reminds of fancy nights out.,11,240,20","Sophia","Looks like a tied up trash bag.,-10,280,20","4"
"11848","","survey-text","256","1028427","0.0-252.0-0.0","A1119SJKNGQ0J4","","","","{""Q0"":""moody presence""}","","","","","","","","","","","","","","","","","","","","","","",""
"2486.100000000093","","image-slider-response","257","1030915","0.0-253.0","A1119SJKNGQ0J4","","","","","-40","","","","","","","","","","","","","","","","","","","","","",""
"4952","","image-button-response","258","1035922","0.0-254.0","A1119SJKNGQ0J4","img_art/22.jpg","3","","","","","","","","","","","","","","","","","","","","","","","","",""
"649","","image-button-response","259","1036573","0.0-255.0","A1119SJKNGQ0J4","img_art/22.jpg","3","","","","","","","","","","","","","","","","","","","","","","","","",""
"464","","image-button-response","260","1037039","0.0-256.0-0.0","A1119SJKNGQ0J4","img_art/22.jpg","4","","","","","","","","","","","","","","","","","","","","","","","","",""
"580","","image-button-response","261","1037621","0.0-257.0-0.0","A1119SJKNGQ0J4","img_art/22.jpg","0","","","","","","","","","","","","","","","","","","","","","","","","",""
"null","","html-keyboard-response","262","1039129","0.0-258.0","A1119SJKNGQ0J4","<p style=""font-size: 48px;"">+</p>","","","","","null","allTrialResponses","1500","1","30","img_art/22.jpg","-40","moody presence","Kylie,Rachel,Autumn,Brittany,Andrea,Sophia","Climate change in a big city,35,300,20","I like the vivid colors.,11,80,20","Same az the last one?,-49,340,20","It reminds me of sunsets and dusks.,22,40,20","I don't feel much of anything.,0,240,20","I like this one. There is a lot to see if you keep looking for it.,27,280,20","Brittany","It reminds me of sunsets and dusks.,22,40,20","Andrea","I don't feel much of anything.,0,240,20","Kylie","Climate change in a big city,35,300,20","4"
"2018","","image-button-response_instructions","263","1041163","0.0-259.0","A1119SJKNGQ0J4","","0","instructions","","","","","","","","","","","","","","","","","","","","","","","",""
"1125","","image-button-response","264","1042295","0.0-260.0","A1119SJKNGQ0J4","","0","","","","","","","","","","","","","","","","","","","","","","","","",""
