"rt","url","trial_type","trial_index","time_elapsed","internal_node_id","participant_id","stimulus","button_pressed","Name","responses","response","key_press","variableName","fixationTime","condition","trial","photo","subjectRating","subjectResponse","agentsNames","agent_1_Response","agent_2_Response","agent_3_Response","agent_4_Response","agent_5_Response","agent_6_Response","kept_1_name","kept_1_response","kept_2_name","kept_2_response","kept_3_name","kept_3_response","errorCounter"
"10329","external_page_harvard.html","external-html","0","10443","0.0-0.0","A11FRLH5KWRLBV","","","","","","","","","","","","","","","","","","","","","","","","","","",""
"1685","","image-button-response","1","12130","0.0-1.0","A11FRLH5KWRLBV","","0","","","","","","","","","","","","","","","","","","","","","","","","",""
"1548","","image-button-response","2","13680","0.0-2.0-0.0","A11FRLH5KWRLBV","","1","phone","","","","","","","","","","","","","","","","","","","","","","","",""
"2998","","survey-text","3","16681","0.0-3.0-0.0","A11FRLH5KWRLBV","","","","{""Q0"":""A11FRLH5KWRLBV""}","","","","","","","","","","","","","","","","","","","","","","",""
"22894","","image-button-response_instructions","4","39577","0.0-4.0","A11FRLH5KWRLBV","","0","instructions","","","","","","","","","","","","","","","","","","","","","","","",""
"15086","","image-button-response_instructions","5","54663","0.0-5.0","A11FRLH5KWRLBV","img_art/ins/popularity/ins1.png","0","instructions","","","","","","","","","","","","","","","","","","","","","","","",""
"3400","","image-button-response_instructions","6","58063","0.0-6.0","A11FRLH5KWRLBV","img_art/ins/popularity/ins2.png","0","instructions","","","","","","","","","","","","","","","","","","","","","","","",""
"2807","","image-button-response_instructions","7","60871","0.0-7.0","A11FRLH5KWRLBV","img_art/ins/popularity/ins2Extreme.png","0","instructions","","","","","","","","","","","","","","","","","","","","","","","",""
"5447","","image-button-response_instructions","8","66319","0.0-8.0","A11FRLH5KWRLBV","img_art/ins/popularity/ins3KEEPpop.PNG","0","instructions","","","","","","","","","","","","","","","","","","","","","","","",""
"5159","","image-button-response_instructions","9","71479","0.0-9.0","A11FRLH5KWRLBV","img_art/ins/popularity/ins3ANamepop.PNG","0","instructions","","","","","","","","","","","","","","","","","","","","","","","",""
"3607","","image-button-response_instructions","10","75087","0.0-10.0","A11FRLH5KWRLBV","img_art/ins/popularity/ins3ARatingpop.png","0","instructions","","","","","","","","","","","","","","","","","","","","","","","",""
"3007","","image-button-response_instructions","11","78095","0.0-11.0","A11FRLH5KWRLBV","img_art/ins/popularity/ins3ATextpop.png","0","instructions","","","","","","","","","","","","","","","","","","","","","","","",""
"6023","","image-button-response_instructions","12","84119","0.0-12.0","A11FRLH5KWRLBV","img_art/ins/popularity/ins3ALikespop.png","0","instructions","","","","","","","","","","","","","","","","","","","","","","","",""
"12383","","image-button-response_instructions","13","96502","0.0-13.0","A11FRLH5KWRLBV","img_art/ins/popularity/ins3KEEPpop.PNG","0","instructions","","","","","","","","","","","","","","","","","","","","","","","",""
"12079","","image-button-response_instructions","14","108582","0.0-14.0","A11FRLH5KWRLBV","img_art/ins/popularity/ins3_5RED.png","0","instructions","","","","","","","","","","","","","","","","","","","","","","","",""
"2983","","image-button-response_instructions","15","111566","0.0-15.0","A11FRLH5KWRLBV","img_art/ins/popularity/ins3KEEPpop.PNG","0","instructions","","","","","","","","","","","","","","","","","","","","","","","",""
"8039","","image-button-response_instructions","16","119605","0.0-16.0","A11FRLH5KWRLBV","img_art/ins/popularity/ins4KEEPpop.PNG","0","instructions","","","","","","","","","","","","","","","","","","","","","","","",""
"5246","","image-button-response_instructions","17","124851","0.0-17.0","A11FRLH5KWRLBV","img_art/ins/popularity/ins5KEEPpop.PNG","0","instructions","","","","","","","","","","","","","","","","","","","","","","","",""
"5423","","image-button-response_instructions","18","130275","0.0-18.0","A11FRLH5KWRLBV","","0","instructions","","","","","","","","","","","","","","","","","","","","","","","",""
"9614","","survey-text","19","139907","0.0-19.0-0.0","A11FRLH5KWRLBV","","","","{""Q0"":""but""}","","","","","","","","","","","","","","","","","","","","","","",""
"34541","","survey-text","20","174449","0.0-20.0-0.0","A11FRLH5KWRLBV","","","","{""Q0"":""Looks like it was done by a 2nd grader in art class Chaotic and random strokes with no meaning""}","","","","","","","","","","","","","","","","","","","","","","",""
"2799","","image-slider-response","21","177249","0.0-21.0","A11FRLH5KWRLBV","","","","","-50","","","","","","","","","","","","","","","","","","","","","",""
"null","","image-button-response","22","182251","0.0-22.0","A11FRLH5KWRLBV","img_art/ins/1.jpg","null","","","","","","","","","","","","","","","","","","","","","","","","",""
"2485","","image-button-response","23","184738","0.0-23.0","A11FRLH5KWRLBV","img_art/ins/1.jpg","2","","","","","","","","","","","","","","","","","","","","","","","","",""
"76283","","image-button-response","24","261022","0.0-24.0-0.0","A11FRLH5KWRLBV","img_art/ins/1.jpg","4","","","","","","","","","","","","","","","","","","","","","","","","",""
"2222","","image-button-response","25","263246","0.0-25.0-0.0","A11FRLH5KWRLBV","img_art/ins/1.jpg","0","","","","","","","","","","","","","","","","","","","","","","","","",""
"null","","html-keyboard-response","26","263747","0.0-26.0","A11FRLH5KWRLBV","<p style=""font-size: 48px;"">+</p>","","","","","null","allTrialResponses","500","1","-2","img_art/ins/1.jpg","-50","Looks like it was done by a 2nd grader in art class Chaotic and random strokes with no meaning","Adam,Alex,Ben,Carl,Daniel,Jack","Seems like doodles,-20,20,20","very creative work.,36,40,20","This color reminds me of poo,-46,60,20","very calming artwork,42,80,20","It looks like a murder scene.,-48,100,20","I like the sophisticated brushwork,40,120,20","Ben","This color reminds me of poo,-46,60,20","Daniel","It looks like a murder scene.,-48,100,20","Adam","Seems like doodles,-20,20,20","0"
"39158","","survey-text","27","302907","0.0-27.0-0.0","A11FRLH5KWRLBV","","","","{""Q0"":""Looks like someone is trying paint landscapes blind folded""}","","","","","","","","","","","","","","","","","","","","","","",""
"2087","","image-slider-response","28","304995","0.0-28.0","A11FRLH5KWRLBV","","","","","-50","","","","","","","","","","","","","","","","","","","","","",""
"1775","","image-button-response","29","309996","0.0-29.0","A11FRLH5KWRLBV","img_art/ins/2.jpg","2","","","","","","","","","","","","","","","","","","","","","","","","",""
"2407","","image-button-response","30","312404","0.0-30.0","A11FRLH5KWRLBV","img_art/ins/2.jpg","2","","","","","","","","","","","","","","","","","","","","","","","","",""
"3423","","image-button-response","31","315827","0.0-31.0-0.0","A11FRLH5KWRLBV","img_art/ins/2.jpg","3","","","","","","","","","","","","","","","","","","","","","","","","",""
"5342","","image-button-response","32","321171","0.0-32.0-0.0","A11FRLH5KWRLBV","img_art/ins/2.jpg","5","","","","","","","","","","","","","","","","","","","","","","","","",""
"null","","html-keyboard-response","33","321672","0.0-33.0","A11FRLH5KWRLBV","<p style=""font-size: 48px;"">+</p>","","","","","null","allTrialResponses","500","1","-1","img_art/ins/2.jpg","-50","Looks like someone is trying paint landscapes blind folded","Adam,John,Ben,James,Daniel,Kyle","too much color,-18,20,20","love the texture of paint,48,160,20","meaningless painting,-45,60,20","looks too angry,-50,140,20","One of my pet peevs,-48,100,20","Idk, it is just annoying,-32,180,20","Ben","meaningless painting,-45,60,20","James","looks too angry,-50,140,20","Kyle","Idk, it is just annoying,-32,180,20","0"
"21327","","survey-text","34","343002","0.0-34.0-0.0","A11FRLH5KWRLBV","","","","{""Q0"":""Just random brush strokes in different colors, terrible.""}","","","","","","","","","","","","","","","","","","","","","","",""
"2222.9950000000536","","image-slider-response","35","345225","0.0-35.0","A11FRLH5KWRLBV","","","","","-50","","","","","","","","","","","","","","","","","","","","","",""
"2671","","image-button-response","36","350226","0.0-36.0","A11FRLH5KWRLBV","img_art/ins/3.jpg","2","","","","","","","","","","","","","","","","","","","","","","","","",""
"2359","","image-button-response","37","352585","0.0-37.0","A11FRLH5KWRLBV","img_art/ins/3.jpg","2","","","","","","","","","","","","","","","","","","","","","","","","",""
"1415","","image-button-response","38","354002","0.0-38.0-0.0","A11FRLH5KWRLBV","img_art/ins/3.jpg","5","","","","","","","","","","","","","","","","","","","","","","","","",""
"2623","","image-button-response","39","356625","0.0-39.0-0.0","A11FRLH5KWRLBV","img_art/ins/3.jpg","3","","","","","","","","","","","","","","","","","","","","","","","","",""
"null","","html-keyboard-response","40","358126","0.0-40.0","A11FRLH5KWRLBV","<p style=""font-size: 48px;"">+</p>","","","","","null","allTrialResponses","1500","1","0","img_art/ins/3.jpg","-50","Just random brush strokes in different colors, terrible.","Sam,Mike,Ben,James,Ron,Kyle","I can feel a rainy day from this painting,18,240,20","enjoy the different shades of blue,22,200,20","This thing gives me anxiety,-41,60,20","My worst nightmare,-42,140,20","It looks depressing,-26,220,20","It looks like a playground for bats,-36,180,20","Ben","This thing gives me anxiety,-41,60,20","Kyle","It looks like a playground for bats,-36,180,20","James","My worst nightmare,-42,140,20","0"
"156313","","image-button-response_instructions","41","514441","0.0-41.0","A11FRLH5KWRLBV","","0","instructions","","","","","","","","","","","","","","","","","","","","","","","",""
"17111","","survey-likert","42","531553","0.0-42.0-0.0","A11FRLH5KWRLBV","","","","{""Q0"":"""",""Q1"":0,""Q2"":1}","","","","","","","","","","","","","","","","","","","","","","",""
"6787","","survey-text","43","538344","0.0-43.0-0.0","A11FRLH5KWRLBV","","","","{""Q0"":""rock""}","","","","","","","","","","","","","","","","","","","","","","",""
"30590","","survey-text","44","568935","0.0-44.0-0.0","A11FRLH5KWRLBV","","","","{""Q0"":""Looks ok, looks like a rainbow tree, not bad like the colors ""}","","","","","","","","","","","","","","","","","","","","","","",""
"4175.000000000116","","image-slider-response","45","573110","0.0-45.0","A11FRLH5KWRLBV","","","","","28","","","","","","","","","","","","","","","","","","","","","",""
"4214","","image-button-response","46","578160","0.0-46.0","A11FRLH5KWRLBV","img_art/17.jpg","1","","","","","","","","","","","","","","","","","","","","","","","","",""
"1221","","image-button-response","47","579382","0.0-47.0","A11FRLH5KWRLBV","img_art/17.jpg","1","","","","","","","","","","","","","","","","","","","","","","","","",""
"13750","","image-button-response","48","593134","0.0-48.0-0.0","A11FRLH5KWRLBV","img_art/17.jpg","3","","","","","","","","","","","","","","","","","","","","","","","","",""
"5175","","image-button-response","49","598310","0.0-49.0-0.0","A11FRLH5KWRLBV","img_art/17.jpg","4","","","","","","","","","","","","","","","","","","","","","","","","",""
"null","","html-keyboard-response","50","599811","0.0-50.0","A11FRLH5KWRLBV","<p style=""font-size: 48px;"">+</p>","","","","","null","allTrialResponses","1500","1","1","img_art/17.jpg","28","Looks ok, looks like a rainbow tree, not bad like the colors ","Noah,Jason,Travis,Kenneth,Hunter,Thomas","feel close to nature,30,260,20","Very beautiful,19,20,20","Very pretty...the colors and good and flow well.,33,260,20","I really like this, especially the tree.,23,300,20","impressive attention to subtleties,15,240,20","Colors and composition are beautiful. I would hang this in my home.,50,220,20","Jason","Very beautiful,19,20,20","Kenneth","I really like this, especially the tree.,23,300,20","Hunter","impressive attention to subtleties,15,240,20","0"
"34055","","survey-text","51","633867","0.0-51.0-0.0","A11FRLH5KWRLBV","","","","{""Q0"":""Looks like Nicado Avacado's toilet after a mexican Mukbang ""}","","","","","","","","","","","","","","","","","","","","","","",""
"1951","","image-slider-response","52","635819","0.0-52.0","A11FRLH5KWRLBV","","","","","-50","","","","","","","","","","","","","","","","","","","","","",""
"null","","image-button-response","53","640821","0.0-53.0","A11FRLH5KWRLBV","img_art/9.jpg","null","","","","","","","","","","","","","","","","","","","","","","","","",""
"5870","","image-button-response","54","646692","0.0-54.0","A11FRLH5KWRLBV","img_art/9.jpg","5","","","","","","","","","","","","","","","","","","","","","","","","",""
"5038","","image-button-response","55","651731","0.0-55.0-0.0","A11FRLH5KWRLBV","img_art/9.jpg","2","","","","","","","","","","","","","","","","","","","","","","","","",""
"1822","","image-button-response","56","653555","0.0-56.0-0.0","A11FRLH5KWRLBV","img_art/9.jpg","3","","","","","","","","","","","","","","","","","","","","","","","","",""
"null","","html-keyboard-response","57","655056","0.0-57.0","A11FRLH5KWRLBV","<p style=""font-size: 48px;"">+</p>","","","","","null","allTrialResponses","1500","1","2","img_art/9.jpg","-50","Looks like Nicado Avacado's toilet after a mexican Mukbang ","Kevin,Jason,Sean,Kenneth,Hunter,Michael","This is a picture of a scary mans head sideways.,-24,320,20","Focal point is interesting,2,20,20","Gives me anxiety,-23,40,20","It looks like a child drew it.,-28,300,20","strong focal point, appealing use of selective line,11,240,20","Looks like a young child drew it.,-45,140,20","Michael","Looks like a young child drew it.,-45,140,20","Sean","Gives me anxiety,-23,40,20","Kenneth","It looks like a child drew it.,-28,300,20","0"
"15288","","survey-text","58","670346","0.0-58.0-0.0","A11FRLH5KWRLBV","","","","{""Q0"":""Just random brush strokes, nonsense.""}","","","","","","","","","","","","","","","","","","","","","","",""
"2655.0049999998882","","image-slider-response","59","673002","0.0-59.0","A11FRLH5KWRLBV","","","","","-50","","","","","","","","","","","","","","","","","","","","","",""
"4119","","image-button-response","60","678003","0.0-60.0","A11FRLH5KWRLBV","img_art/2.jpg","5","","","","","","","","","","","","","","","","","","","","","","","","",""
"814","","image-button-response","61","678818","0.0-61.0","A11FRLH5KWRLBV","img_art/2.jpg","5","","","","","","","","","","","","","","","","","","","","","","","","",""
"2278","","image-button-response","62","681098","0.0-62.0-0.0","A11FRLH5KWRLBV","img_art/2.jpg","2","","","","","","","","","","","","","","","","","","","","","","","","",""
"2111","","image-button-response","63","683210","0.0-63.0-0.0","A11FRLH5KWRLBV","img_art/2.jpg","0","","","","","","","","","","","","","","","","","","","","","","","","",""
"null","","html-keyboard-response","64","684210","0.0-64.0","A11FRLH5KWRLBV","<p style=""font-size: 48px;"">+</p>","","","","","null","allTrialResponses","1000","1","3","img_art/2.jpg","-50","Just random brush strokes, nonsense.","Antonio,Robert,Sean,Kenneth,Stephen,Michael","Colors are drab and cause a sense of blandness,-28,220,20","The colors are what I like. It looks like a smiling face too.,32,360,20","looks like a bunch of gibberish,-39,40,20","I cant tell whats happening here and that shade of green is just not my thing.,-17,300,20","Colors mix nicely.,5,140,20","Random colors and shapes mashed together. Nothing artistic, but better than some of the other ones.,-37,140,20","Michael","Random colors and shapes mashed together. Nothing artistic, but better than some of the other ones.,-37,140,20","Sean","looks like a bunch of gibberish,-39,40,20","Antonio","Colors are drab and cause a sense of blandness,-28,220,20","0"
"22180","","survey-text","65","706393","0.0-65.0-0.0","A11FRLH5KWRLBV","","","","{""Q0"":""good details, looks like a mounted horse battle""}","","","","","","","","","","","","","","","","","","","","","","",""
"2790.9999999998836","","image-slider-response","66","709184","0.0-66.0","A11FRLH5KWRLBV","","","","","28","","","","","","","","","","","","","","","","","","","","","",""
"null","","image-button-response","67","714185","0.0-67.0","A11FRLH5KWRLBV","img_art/18.jpg","null","","","","","","","","","","","","","","","","","","","","","","","","",""
"1958","","image-button-response","68","716145","0.0-68.0","A11FRLH5KWRLBV","img_art/18.jpg","0","","","","","","","","","","","","","","","","","","","","","","","","",""
"5599","","image-button-response","69","721745","0.0-69.0-0.0","A11FRLH5KWRLBV","img_art/18.jpg","0","","","","","","","","","","","","","","","","","","","","","","","","",""
"1728","","image-button-response","70","727672","0.0-69.1-0.1","A11FRLH5KWRLBV","img_art/18.jpg","5","","","","","","","","","","","","","","","","","","","","","","","","",""
"1375","","image-button-response","71","729048","0.0-70.0-0.0","A11FRLH5KWRLBV","img_art/18.jpg","2","","","","","","","","","","","","","","","","","","","","","","","","",""
"null","","html-keyboard-response","72","729548","0.0-71.0","A11FRLH5KWRLBV","<p style=""font-size: 48px;"">+</p>","","","","","null","allTrialResponses","500","1","4","img_art/18.jpg","28","good details, looks like a mounted horse battle","Antonio,Connor,Sean,Tyler,Isaiah,Michael","I think of the ocean and a boat tossed about on the waves. In the upper left is a figure. It is pleasant,30,220,20","See a weird horse,-22,240,20","my response to the picture is a little bit of anxiety but I like the detail,16,40,20","Pleasant design and composition, unpleasant theme and focus.,-19,320,20","I'm mildly disgusted by the colors, and can't piece together the story the figures are trying to tell.,-10,300,20","Not my style but I can see some serious skill went int it.,21,140,20","Antonio","I think of the ocean and a boat tossed about on the waves. In the upper left is a figure. It is pleasant,30,220,20","Michael","Not my style but I can see some serious skill went int it.,21,140,20","Sean","my response to the picture is a little bit of anxiety but I like the detail,16,40,20","2"
"19176","","survey-text","73","748726","0.0-72.0-0.0","A11FRLH5KWRLBV","","","","{""Q0"":""looks like my 2 year old smeared their diaper on the wall""}","","","","","","","","","","","","","","","","","","","","","","",""
"1999","","image-slider-response","74","750726","0.0-73.0","A11FRLH5KWRLBV","","","","","-50","","","","","","","","","","","","","","","","","","","","","",""
"4047","","image-button-response","75","755727","0.0-74.0","A11FRLH5KWRLBV","img_art/4.jpg","5","","","","","","","","","","","","","","","","","","","","","","","","",""
"1174","","image-button-response","76","756902","0.0-75.0","A11FRLH5KWRLBV","img_art/4.jpg","5","","","","","","","","","","","","","","","","","","","","","","","","",""
"927","","image-button-response","77","757831","0.0-76.0-0.0","A11FRLH5KWRLBV","img_art/4.jpg","4","","","","","","","","","","","","","","","","","","","","","","","","",""
"814","","image-button-response","78","758646","0.0-77.0-0.0","A11FRLH5KWRLBV","img_art/4.jpg","3","","","","","","","","","","","","","","","","","","","","","","","","",""
"null","","html-keyboard-response","79","759647","0.0-78.0","A11FRLH5KWRLBV","<p style=""font-size: 48px;"">+</p>","","","","","null","allTrialResponses","1000","1","5","img_art/4.jpg","-50","looks like my 2 year old smeared their diaper on the wall","Antonio,Dakota,Sean,John,Taylor,Michael","Blah feeling, nothing,-8,220,20","spontaneous, without hesitation,22,280,20","dont know what im looking at,1,40,20","Extremely simple and like not alot of time was put into it,-20,120,20","They give out trophies now for fighting with brass knuckles?,-20,200,20","Looks like a child did it.,-42,140,20","Michael","Looks like a child did it.,-42,140,20","Taylor","They give out trophies now for fighting with brass knuckles?,-20,200,20","John","Extremely simple and like not alot of time was put into it,-20,120,20","2"
"6298","","survey-text","80","765950","0.0-79.0-0.0","A11FRLH5KWRLBV","","","","{""Q0"":""sky""}","","","","","","","","","","","","","","","","","","","","","","",""
"20270","","survey-text","81","786221","0.0-80.0-0.0","A11FRLH5KWRLBV","","","","{""Q0"":""Child's first day of art school, not that bad""}","","","","","","","","","","","","","","","","","","","","","","",""
"4663","","image-slider-response","82","790884","0.0-81.0","A11FRLH5KWRLBV","","","","","17","","","","","","","","","","","","","","","","","","","","","",""
"null","","image-button-response","83","795885","0.0-82.0","A11FRLH5KWRLBV","img_art/26.jpg","null","","","","","","","","","","","","","","","","","","","","","","","","",""
"894","","image-button-response","84","796781","0.0-83.0","A11FRLH5KWRLBV","img_art/26.jpg","3","","","","","","","","","","","","","","","","","","","","","","","","",""
"1358","","image-button-response","85","798141","0.0-84.0-0.0","A11FRLH5KWRLBV","img_art/26.jpg","4","","","","","","","","","","","","","","","","","","","","","","","","",""
"5087","","image-button-response","86","803229","0.0-85.0-0.0","A11FRLH5KWRLBV","img_art/26.jpg","1","","","","","","","","","","","","","","","","","","","","","","","","",""
"null","","html-keyboard-response","87","804729","0.0-86.0","A11FRLH5KWRLBV","<p style=""font-size: 48px;"">+</p>","","","","","null","allTrialResponses","1500","1","6","img_art/26.jpg","17","Child's first day of art school, not that bad","Paul,Caleb,Shawn,John,Taylor,Michael","It looks empty and unfinished,-28,300,20","Appears childish and unfinished.,-20,40,20","Not great use of space and brush strokes seem indistinct/accidental,-30,100,20","Its pretty.And a nice use of water colors.,25,120,20","At least it is a bit of scenery.,10,200,20","Not much skil went into this one either.,-41,140,20","John","Its pretty.And a nice use of water colors.,25,120,20","Taylor","At least it is a bit of scenery.,10,200,20","Caleb","Appears childish and unfinished.,-20,40,20","2"
"32071","","survey-text","88","836802","0.0-87.0-0.0","A11FRLH5KWRLBV","","","","{""Q0"":""Just random stuff clipped from magazines glued to a paper""}","","","","","","","","","","","","","","","","","","","","","","",""
"2246.994999999879","","image-slider-response","89","839050","0.0-88.0","A11FRLH5KWRLBV","","","","","-25","","","","","","","","","","","","","","","","","","","","","",""
"4895","","image-button-response","90","844051","0.0-89.0","A11FRLH5KWRLBV","img_art/16.jpg","1","","","","","","","","","","","","","","","","","","","","","","","","",""
"750","","image-button-response","91","844802","0.0-90.0","A11FRLH5KWRLBV","img_art/16.jpg","1","","","","","","","","","","","","","","","","","","","","","","","","",""
"1711","","image-button-response","92","846516","0.0-91.0-0.0","A11FRLH5KWRLBV","img_art/16.jpg","4","","","","","","","","","","","","","","","","","","","","","","","","",""
"1701","","image-button-response","93","848219","0.0-92.0-0.0","A11FRLH5KWRLBV","img_art/16.jpg","3","","","","","","","","","","","","","","","","","","","","","","","","",""
"null","","html-keyboard-response","94","848719","0.0-93.0","A11FRLH5KWRLBV","<p style=""font-size: 48px;"">+</p>","","","","","null","allTrialResponses","500","1","7","img_art/16.jpg","-25","Just random stuff clipped from magazines glued to a paper","Derek,Caleb,Jacob,John,Taylor,Lucas","I can't figure out the meaning of this painting but it is pleasant to look at,40,360,20","A strange collage made by a child. Do not like the colored face of the bear.,-29,40,20","Cool but the bear creeps me out?,8,340,20","It creeps me out.,-50,120,20","It is sick to put a teddy bear and a gun on the same piece of canvas.,-40,200,20","It's frightening.,30,380,20","Caleb","A strange collage made by a child. Do not like the colored face of the bear.,-29,40,20","Taylor","It is sick to put a teddy bear and a gun on the same piece of canvas.,-40,200,20","John","It creeps me out.,-50,120,20","2"
"15361","","survey-text","95","864082","0.0-94.0-0.0","A11FRLH5KWRLBV","","","","{""Q0"":""Looks meticulous like the detail""}","","","","","","","","","","","","","","","","","","","","","","",""
"2671","","image-slider-response","96","866754","0.0-95.0","A11FRLH5KWRLBV","","","","","30","","","","","","","","","","","","","","","","","","","","","",""
"4335","","image-button-response","97","871755","0.0-96.0","A11FRLH5KWRLBV","img_art/15.jpg","5","","","","","","","","","","","","","","","","","","","","","","","","",""
"725","","image-button-response","98","872482","0.0-97.0","A11FRLH5KWRLBV","img_art/15.jpg","5","","","","","","","","","","","","","","","","","","","","","","","","",""
"2063","","image-button-response","99","874546","0.0-98.0-0.0","A11FRLH5KWRLBV","img_art/15.jpg","1","","","","","","","","","","","","","","","","","","","","","","","","",""
"719","","image-button-response","100","875266","0.0-99.0-0.0","A11FRLH5KWRLBV","img_art/15.jpg","4","","","","","","","","","","","","","","","","","","","","","","","","",""
"null","","html-keyboard-response","101","876766","0.0-100.0","A11FRLH5KWRLBV","<p style=""font-size: 48px;"">+</p>","","","","","null","allTrialResponses","1500","1","8","img_art/15.jpg","30","Looks meticulous like the detail","Jeremy,Caleb,Ethan,John,Taylor,Jorge","I feel nothing when looking at this,1,60,20","Love the accent colors in this piece!,20,40,20","This piece gave me no emotion. It's ugly to me.,-38,120,20","Uninteresting and too much black,-30,120,20","Getting better.,10,200,20","interested in this transformation,20,180,20","Jorge","interested in this transformation,20,180,20","Caleb","Love the accent colors in this piece!,20,40,20","Taylor","Getting better.,10,200,20","2"
"16960","","survey-text","102","893728","0.0-101.0-0.0","A11FRLH5KWRLBV","","","","{""Q0"":""Good depths of color, looks not finished though""}","","","","","","","","","","","","","","","","","","","","","","",""
"4119.000000000116","","image-slider-response","103","897848","0.0-102.0","A11FRLH5KWRLBV","","","","","40","","","","","","","","","","","","","","","","","","","","","",""
"4679","","image-button-response","104","902849","0.0-103.0","A11FRLH5KWRLBV","img_art/20.jpg","0","","","","","","","","","","","","","","","","","","","","","","","","",""
"1038","","image-button-response","105","903889","0.0-104.0","A11FRLH5KWRLBV","img_art/20.jpg","0","","","","","","","","","","","","","","","","","","","","","","","","",""
"943","","image-button-response","106","904833","0.0-105.0-0.0","A11FRLH5KWRLBV","img_art/20.jpg","1","","","","","","","","","","","","","","","","","","","","","","","","",""
"815","","image-button-response","107","905649","0.0-106.0-0.0","A11FRLH5KWRLBV","img_art/20.jpg","3","","","","","","","","","","","","","","","","","","","","","","","","",""
"null","","html-keyboard-response","108","906149","0.0-107.0","A11FRLH5KWRLBV","<p style=""font-size: 48px;"">+</p>","","","","","null","allTrialResponses","500","1","9","img_art/20.jpg","40","Good depths of color, looks not finished though","Matthew,Caleb,Samuel,Mason,Taylor,Jorge","Painting within a painting, abstract.,32,120,20","Lovely composition, colors, and message.,35,40,20","crash after traffic causing grief,-11,400,20","Very cool, and calming (again) Love it.,47,100,20","Not bad for all the southwestern people.,15,200,20","Curious about what lies here,10,180,20","Matthew","Painting within a painting, abstract.,32,120,20","Caleb","Lovely composition, colors, and message.,35,40,20","Mason","Very cool, and calming (again) Love it.,47,100,20","2"
"24006","","survey-text","109","930158","0.0-108.0-0.0","A11FRLH5KWRLBV","","","","{""Q0"":""I don't even know what this is random shapes and lines ""}","","","","","","","","","","","","","","","","","","","","","","",""
"2391","","image-slider-response","110","932550","0.0-109.0","A11FRLH5KWRLBV","","","","","-50","","","","","","","","","","","","","","","","","","","","","",""
"3520","","image-button-response","111","937550","0.0-110.0","A11FRLH5KWRLBV","img_art/28.jpg","0","","","","","","","","","","","","","","","","","","","","","","","","",""
"2494","","image-button-response","112","940046","0.0-111.0","A11FRLH5KWRLBV","img_art/28.jpg","3","","","","","","","","","","","","","","","","","","","","","","","","",""
"2095","","image-button-response","113","942142","0.0-112.0-0.0","A11FRLH5KWRLBV","img_art/28.jpg","1","","","","","","","","","","","","","","","","","","","","","","","","",""
"919","","image-button-response","114","943061","0.0-113.0-0.0","A11FRLH5KWRLBV","img_art/28.jpg","2","","","","","","","","","","","","","","","","","","","","","","","","",""
"null","","html-keyboard-response","115","944562","0.0-114.0","A11FRLH5KWRLBV","<p style=""font-size: 48px;"">+</p>","","","","","null","allTrialResponses","1500","1","10","img_art/28.jpg","-50","I don't even know what this is random shapes and lines ","Matthew,Caleb,Joshua,Mason,Cole,William","Normally don't react well to abstract art, but it looks almost like something's there.,28,120,20","White and dark balance is way off- Seems dull.,-33,40,20","The colors are drab and a little depressing.,-20,240,20","bland busy ugly,-31,100,20","Is this anything?,-20,200,20","drab and dreary,-21,380,20","Mason","bland busy ugly,-31,100,20","Caleb","White and dark balance is way off- Seems dull.,-33,40,20","Joshua","The colors are drab and a little depressing.,-20,240,20","2"
"4502","","survey-text","116","949069","0.0-115.0-0.0","A11FRLH5KWRLBV","","","","{""Q0"":""our""}","","","","","","","","","","","","","","","","","","","","","","",""
"16590","","survey-text","117","965660","0.0-116.0-0.0","A11FRLH5KWRLBV","","","","{""Q0"":""looks like an old pictograph of an alien. i like it""}","","","","","","","","","","","","","","","","","","","","","","",""
"3231","","image-slider-response","118","968892","0.0-117.0","A11FRLH5KWRLBV","","","","","37","","","","","","","","","","","","","","","","","","","","","",""
"null","","image-button-response","119","973893","0.0-118.0","A11FRLH5KWRLBV","img_art/25.jpg","null","","","","","","","","","","","","","","","","","","","","","","","","",""
"965","","image-button-response","120","974860","0.0-119.0","A11FRLH5KWRLBV","img_art/25.jpg","2","","","","","","","","","","","","","","","","","","","","","","","","",""
"3574","","image-button-response","121","978435","0.0-120.0-0.0","A11FRLH5KWRLBV","img_art/25.jpg","5","","","","","","","","","","","","","","","","","","","","","","","","",""
"1567","","image-button-response","122","980003","0.0-121.0-0.0","A11FRLH5KWRLBV","img_art/25.jpg","0","","","","","","","","","","","","","","","","","","","","","","","","",""
"null","","html-keyboard-response","123","980504","0.0-122.0","A11FRLH5KWRLBV","<p style=""font-size: 48px;"">+</p>","","","","","null","allTrialResponses","500","1","11","img_art/25.jpg","37","looks like an old pictograph of an alien. i like it","Anthony,Caleb,Joshua,Mason,Peter,James","Spooky, but in a good way. I like the green and black color palette.,42,200,20","Very cool color, very clear message!,50,40,20","Looks like a voodoo figure in a New Orleans cemetery at night.,-5,240,20","death. childish nightmare.,-29,100,20","It's very mystical.,5,320,20","This would definitely be hanging in my bedroom in my house,50,380,20","Joshua","Looks like a voodoo figure in a New Orleans cemetery at night.,-5,240,20","James","This would definitely be hanging in my bedroom in my house,50,380,20","Anthony","Spooky, but in a good way. I like the green and black color palette.,42,200,20","2"
"15961","","survey-text","124","996467","0.0-123.0-0.0","A11FRLH5KWRLBV","","","","{""Q0"":""great detail, many colors. skillful ""}","","","","","","","","","","","","","","","","","","","","","","",""
"1966","","image-slider-response","125","998434","0.0-124.0","A11FRLH5KWRLBV","","","","","50","","","","","","","","","","","","","","","","","","","","","",""
"null","","image-button-response","126","1003436","0.0-125.0","A11FRLH5KWRLBV","img_art/24.jpg","null","","","","","","","","","","","","","","","","","","","","","","","","",""
"1661","","image-button-response","127","1005099","0.0-126.0","A11FRLH5KWRLBV","img_art/24.jpg","4","","","","","","","","","","","","","","","","","","","","","","","","",""
"2638","","image-button-response","128","1007739","0.0-127.0-0.0","A11FRLH5KWRLBV","img_art/24.jpg","0","","","","","","","","","","","","","","","","","","","","","","","","",""
"942","","image-button-response","129","1008683","0.0-128.0-0.0","A11FRLH5KWRLBV","img_art/24.jpg","5","","","","","","","","","","","","","","","","","","","","","","","","",""
"null","","html-keyboard-response","130","1009183","0.0-129.0","A11FRLH5KWRLBV","<p style=""font-size: 48px;"">+</p>","","","","","null","allTrialResponses","500","1","12","img_art/24.jpg","50","great detail, many colors. skillful ","Anthony,Joseph,Joshua,Alejandro,Victor,James","This piece resembles a waterfall surrounded by trees.,21,200,20","It looks like a poor dead bunny in a field of flowers. I don't want the bunny to be dead.,-37,220,20","It's okay but don't love it.,7,240,20","I don't like this painting because of its blottedness. It lacks conviction, direction and purpose.,-31,80,20","I don't even know. It's just kind of meh,1,340,20","The waterfall looks peaceful,11,380,20","Victor","I don't even know. It's just kind of meh,1,340,20","Anthony","This piece resembles a waterfall surrounded by trees.,21,200,20","James","The waterfall looks peaceful,11,380,20","2"
"23871","","survey-text","131","1033057","0.0-130.0-0.0","A11FRLH5KWRLBV","","","","{""Q0"":""the light looks hard to do. i like the light""}","","","","","","","","","","","","","","","","","","","","","","",""
"2967","","image-slider-response","132","1036025","0.0-131.0","A11FRLH5KWRLBV","","","","","40","","","","","","","","","","","","","","","","","","","","","",""
"null","","image-button-response","133","1041026","0.0-132.0","A11FRLH5KWRLBV","img_art/6.jpg","null","","","","","","","","","","","","","","","","","","","","","","","","",""
"3789","","image-button-response","134","1044817","0.0-133.0","A11FRLH5KWRLBV","img_art/6.jpg","5","","","","","","","","","","","","","","","","","","","","","","","","",""
"1167","","image-button-response","135","1045985","0.0-134.0-0.0","A11FRLH5KWRLBV","img_art/6.jpg","1","","","","","","","","","","","","","","","","","","","","","","","","",""
"606","","image-button-response","136","1046593","0.0-135.0-0.0","A11FRLH5KWRLBV","img_art/6.jpg","2","","","","","","","","","","","","","","","","","","","","","","","","",""
"null","","html-keyboard-response","137","1047593","0.0-136.0","A11FRLH5KWRLBV","<p style=""font-size: 48px;"">+</p>","","","","","null","allTrialResponses","1000","1","13","img_art/6.jpg","40","the light looks hard to do. i like the light","Anthony,Malik,Bradley,Garrett,Victor,James","I am neutral towards this piece.,0,200,20","Lonesome in nature,13,40,20","It's okay. It kind of looks like a bird with his head buried in his feathers.,2,300,20","I can't tell what this image is, but it's boring because of lack of color variety and nothing in it,-41,180,20","The background on the upper half is nice. I also like the contrast of the top and bottom halves,5,340,20","Nice desert scene,10,380,20","James","Nice desert scene,10,380,20","Malik","Lonesome in nature,13,40,20","Bradley","It's okay. It kind of looks like a bird with his head buried in his feathers.,2,300,20","2"
"16699","","survey-text","138","1064296","0.0-137.0-0.0","A11FRLH5KWRLBV","","","","{""Q0"":""weird water snake? just looks like randomness ""}","","","","","","","","","","","","","","","","","","","","","","",""
"2367.005000000121","","image-slider-response","139","1066663","0.0-138.0","A11FRLH5KWRLBV","","","","","-26","","","","","","","","","","","","","","","","","","","","","",""
"null","","image-button-response","140","1071664","0.0-139.0","A11FRLH5KWRLBV","img_art/10.jpg","null","","","","","","","","","","","","","","","","","","","","","","","","",""
"517","","image-button-response","141","1072183","0.0-140.0","A11FRLH5KWRLBV","img_art/10.jpg","3","","","","","","","","","","","","","","","","","","","","","","","","",""
"895","","image-button-response","142","1073080","0.0-141.0-0.0","A11FRLH5KWRLBV","img_art/10.jpg","0","","","","","","","","","","","","","","","","","","","","","","","","",""
"1023","","image-button-response","143","1074103","0.0-142.0-0.0","A11FRLH5KWRLBV","img_art/10.jpg","2","","","","","","","","","","","","","","","","","","","","","","","","",""
"null","","html-keyboard-response","144","1074604","0.0-143.0","A11FRLH5KWRLBV","<p style=""font-size: 48px;"">+</p>","","","","","null","allTrialResponses","500","1","14","img_art/10.jpg","-26","weird water snake? just looks like randomness ","David,Malik,Bradley,Eric,Elijah,James","I can't really tell what this is suppose to represent, but overall I don't like the design.,-20,340,20","Good texture, expressive,18,40,20","This piece is very intriguing to me.,3,300,20","This piece is unusual in a way that makes me uncomfortable.,-5,100,20","Makes me feel amazed,23,80,20","I have no opinions on this one,0,380,20","Eric","This piece is unusual in a way that makes me uncomfortable.,-5,100,20","David","I can't really tell what this is suppose to represent, but overall I don't like the design.,-20,340,20","Bradley","This piece is very intriguing to me.,3,300,20","2"
"27718","","survey-text","145","1102326","0.0-144.0-0.0","A11FRLH5KWRLBV","","","","{""Q0"":""looks like a man kind of but could just be random colors either way bad""}","","","","","","","","","","","","","","","","","","","","","","",""
"2439","","image-slider-response","146","1104766","0.0-145.0","A11FRLH5KWRLBV","","","","","-33","","","","","","","","","","","","","","","","","","","","","",""
"null","","image-button-response","147","1109767","0.0-146.0","A11FRLH5KWRLBV","img_art/1.jpg","null","","","","","","","","","","","","","","","","","","","","","","","","",""
"1101","","image-button-response","148","1110870","0.0-147.0","A11FRLH5KWRLBV","img_art/1.jpg","1","","","","","","","","","","","","","","","","","","","","","","","","",""
"759","","image-button-response","149","1111630","0.0-148.0-0.0","A11FRLH5KWRLBV","img_art/1.jpg","0","","","","","","","","","","","","","","","","","","","","","","","","",""
"1334","","image-button-response","150","1112965","0.0-149.0-0.0","A11FRLH5KWRLBV","img_art/1.jpg","5","","","","","","","","","","","","","","","","","","","","","","","","",""
"null","","html-keyboard-response","151","1113966","0.0-150.0","A11FRLH5KWRLBV","<p style=""font-size: 48px;"">+</p>","","","","","null","allTrialResponses","1000","1","15","img_art/1.jpg","-33","looks like a man kind of but could just be random colors either way bad","David,Jake,Bradley,Eric,Alexander,Brandon","This image doesn't invoke much in me.,0,340,20","This is ugly with bad colors.,-6,360,20","This is a great piece that has a lot more going on the longer you look at it. I like it!,30,300,20","I like the way that the colors blend.,35,100,20","Flat colors with no flavor.,5,120,20","Taco Bell wallpaper. Doesn't really make me feel anything,3,320,20","Jake","This is ugly with bad colors.,-6,360,20","David","This image doesn't invoke much in me.,0,340,20","Brandon","Taco Bell wallpaper. Doesn't really make me feel anything,3,320,20","2"
"7465","","survey-text","152","1121437","0.0-151.0-0.0","A11FRLH5KWRLBV","","","","{""Q0"":""course""}","","","","","","","","","","","","","","","","","","","","","","",""
"20582","","survey-text","153","1142020","0.0-152.0-0.0","A11FRLH5KWRLBV","","","","{""Q0"":""great detail, amazing use of depth and color. looks lifelike""}","","","","","","","","","","","","","","","","","","","","","","",""
"2478","","image-slider-response","154","1144499","0.0-153.0","A11FRLH5KWRLBV","","","","","50","","","","","","","","","","","","","","","","","","","","","",""
"null","","image-button-response","155","1149500","0.0-154.0","A11FRLH5KWRLBV","img_art/7.jpg","null","","","","","","","","","","","","","","","","","","","","","","","","",""
"1854","","image-button-response","156","1151356","0.0-155.0","A11FRLH5KWRLBV","img_art/7.jpg","0","","","","","","","","","","","","","","","","","","","","","","","","",""
"1960","","image-button-response","157","1153316","0.0-156.0-0.0","A11FRLH5KWRLBV","img_art/7.jpg","1","","","","","","","","","","","","","","","","","","","","","","","","",""
"1166","","image-button-response","158","1154484","0.0-157.0-0.0","A11FRLH5KWRLBV","img_art/7.jpg","4","","","","","","","","","","","","","","","","","","","","","","","","",""
"null","","html-keyboard-response","159","1154984","0.0-158.0","A11FRLH5KWRLBV","<p style=""font-size: 48px;"">+</p>","","","","","null","allTrialResponses","500","1","16","img_art/7.jpg","50","great detail, amazing use of depth and color. looks lifelike","David,Jake,Colton,Justin,Jose,Brandon","I like how the image has a sense of history, since the style looks like it came from stone.,20,340,20","This is vague and ugly.,-3,360,20","reminds me of a cave wall,-21,220,20","It looks like a wall, not really something I'd enjoy looking at.,-12,280,20","Reminds me of bugs, I hate bugs,-7,200,20","Looks like bad wallpaper,-29,320,20","David","I like how the image has a sense of history, since the style looks like it came from stone.,20,340,20","Jake","This is vague and ugly.,-3,360,20","Jose","Reminds me of bugs, I hate bugs,-7,200,20","2"
"8079","","survey-text","160","1163067","0.0-159.0-0.0","A11FRLH5KWRLBV","","","","{""Q0"":""random garbage""}","","","","","","","","","","","","","","","","","","","","","","",""
"1768","","image-slider-response","161","1164835","0.0-160.0","A11FRLH5KWRLBV","","","","","-50","","","","","","","","","","","","","","","","","","","","","",""
"null","","image-button-response","162","1169837","0.0-161.0","A11FRLH5KWRLBV","img_art/30.jpg","null","","","","","","","","","","","","","","","","","","","","","","","","",""
"701","","image-button-response","163","1170539","0.0-162.0","A11FRLH5KWRLBV","img_art/30.jpg","3","","","","","","","","","","","","","","","","","","","","","","","","",""
"798","","image-button-response","164","1171338","0.0-163.0-0.0","A11FRLH5KWRLBV","img_art/30.jpg","1","","","","","","","","","","","","","","","","","","","","","","","","",""
"623","","image-button-response","165","1171963","0.0-164.0-0.0","A11FRLH5KWRLBV","img_art/30.jpg","2","","","","","","","","","","","","","","","","","","","","","","","","",""
"null","","html-keyboard-response","166","1172464","0.0-165.0","A11FRLH5KWRLBV","<p style=""font-size: 48px;"">+</p>","","","","","null","allTrialResponses","500","1","17","img_art/30.jpg","-50","random garbage","David,Jake,Jonathan,Jared,Jose,Bryce","I like how the strokes invokes a sense of fluidity.,20,340,20","This is just simple and ugly.,-2,360,20","I like the softness of this but it doesn't make me feel that nice,5,140,20","i dont like how the colors are mixed,-6,400,20","For some reason I like the red in this one. Maybe it's the style of lines/blurs,46,200,20","Very colorful! Wow!,22,20,20","Jared","i dont like how the colors are mixed,-6,400,20","Jake","This is just simple and ugly.,-2,360,20","Jonathan","I like the softness of this but it doesn't make me feel that nice,5,140,20","2"
"13407","","survey-text","167","1185874","0.0-166.0-0.0","A11FRLH5KWRLBV","","","","{""Q0"":""random shapes, colors are ok""}","","","","","","","","","","","","","","","","","","","","","","",""
"2885.994999999879","","image-slider-response","168","1188761","0.0-167.0","A11FRLH5KWRLBV","","","","","-40","","","","","","","","","","","","","","","","","","","","","",""
"null","","image-button-response","169","1193762","0.0-168.0","A11FRLH5KWRLBV","img_art/22.jpg","null","","","","","","","","","","","","","","","","","","","","","","","","",""
"614","","image-button-response","170","1194377","0.0-169.0","A11FRLH5KWRLBV","img_art/22.jpg","1","","","","","","","","","","","","","","","","","","","","","","","","",""
"1815","","image-button-response","171","1196194","0.0-170.0-0.0","A11FRLH5KWRLBV","img_art/22.jpg","3","","","","","","","","","","","","","","","","","","","","","","","","",""
"575","","image-button-response","172","1196770","0.0-171.0-0.0","A11FRLH5KWRLBV","img_art/22.jpg","4","","","","","","","","","","","","","","","","","","","","","","","","",""
"null","","html-keyboard-response","173","1197271","0.0-172.0","A11FRLH5KWRLBV","<p style=""font-size: 48px;"">+</p>","","","","","null","allTrialResponses","500","1","18","img_art/22.jpg","-40","random shapes, colors are ok","Ian,Jake,Jonathan,Jared,Alex,Brett","Its very warm, it reminds of someone not liking their painting so they destoryed it,26,260,20","It's bland and ugly.,-21,360,20","The warm and color colors together in this way feels exciting,39,140,20","colorful. but not much happening,1,400,20","Not a huge fan of the blocks, also very abstract, I have no idea what it is,8,100,20","Climate change in a big city,35,360,20","Jake","It's bland and ugly.,-21,360,20","Jared","colorful. but not much happening,1,400,20","Alex","Not a huge fan of the blocks, also very abstract, I have no idea what it is,8,100,20","2"
"32230","","survey-text","174","1229504","0.0-173.0-0.0","A11FRLH5KWRLBV","","","","{""Q0"":""I like the colors, the top looks like a moonlit cloud""}","","","","","","","","","","","","","","","","","","","","","","",""
"4230","","image-slider-response","175","1233735","0.0-174.0","A11FRLH5KWRLBV","","","","","21","","","","","","","","","","","","","","","","","","","","","",""
"null","","image-button-response","176","1238737","0.0-175.0","A11FRLH5KWRLBV","img_art/21.jpg","null","","","","","","","","","","","","","","","","","","","","","","","","",""
"661","","image-button-response","177","1239399","0.0-176.0","A11FRLH5KWRLBV","img_art/21.jpg","0","","","","","","","","","","","","","","","","","","","","","","","","",""
"1223","","image-button-response","178","1240624","0.0-177.0-0.0","A11FRLH5KWRLBV","img_art/21.jpg","1","","","","","","","","","","","","","","","","","","","","","","","","",""
"2254","","image-button-response","179","1242880","0.0-178.0-0.0","A11FRLH5KWRLBV","img_art/21.jpg","5","","","","","","","","","","","","","","","","","","","","","","","","",""
"null","","html-keyboard-response","180","1243880","0.0-179.0","A11FRLH5KWRLBV","<p style=""font-size: 48px;"">+</p>","","","","","null","allTrialResponses","1000","1","19","img_art/21.jpg","21","I like the colors, the top looks like a moonlit cloud","Gregory,Jake,Jack,Jared,Alex,Nathaniel","Contrast of fire and water looks cool,20,220,20","It looks epic and is nice to look at in terms of colors/style.,23,360,20","beautiful. reminds me of a storm brewing over sea. i love the white dots.,45,320,20","i like the way the colors divide the canvas.,16,400,20","The colors are very nice. I like the dots because they remind me of pearls,5,100,20","Looks like two ships on fire. Cool image.,12,220,20","Gregory","Contrast of fire and water looks cool,20,220,20","Jake","It looks epic and is nice to look at in terms of colors/style.,23,360,20","Nathaniel","Looks like two ships on fire. Cool image.,12,220,20","2"
"27523","","survey-text","181","1271406","0.0-180.0-0.0","A11FRLH5KWRLBV","","","","{""Q0"":""A picture of some random paint on the floor? terrible""}","","","","","","","","","","","","","","","","","","","","","","",""
"2135","","image-slider-response","182","1273542","0.0-181.0","A11FRLH5KWRLBV","","","","","-50","","","","","","","","","","","","","","","","","","","","","",""
"null","","image-button-response","183","1278543","0.0-182.0","A11FRLH5KWRLBV","img_art/29.jpg","null","","","","","","","","","","","","","","","","","","","","","","","","",""
"1861","","image-button-response","184","1280405","0.0-183.0","A11FRLH5KWRLBV","img_art/29.jpg","5","","","","","","","","","","","","","","","","","","","","","","","","",""
"824","","image-button-response","185","1281231","0.0-184.0-0.0","A11FRLH5KWRLBV","img_art/29.jpg","4","","","","","","","","","","","","","","","","","","","","","","","","",""
"1541","","image-button-response","186","1282774","0.0-185.0-0.0","A11FRLH5KWRLBV","img_art/29.jpg","1","","","","","","","","","","","","","","","","","","","","","","","","",""
"null","","html-keyboard-response","187","1283775","0.0-186.0","A11FRLH5KWRLBV","<p style=""font-size: 48px;"">+</p>","","","","","null","allTrialResponses","1000","1","20","img_art/29.jpg","-50","A picture of some random paint on the floor? terrible","Gregory,Jake,Brian,Steven,Mitchell,Nathaniel","3D looks is really cool,30,220,20","This is very gross and odd looking.,-8,360,20","it looks like a top-down battle arena,26,380,20","Yeah, I don't know. It's clearly a situation where art is the reject of something more,-27,160,20","death, darkness, negative picture,-31,180,20","Giant messy blob. Looks like it tries to be edgy, but fails.,-40,220,20","Nathaniel","Giant messy blob. Looks like it tries to be edgy, but fails.,-40,220,20","Mitchell","death, darkness, negative picture,-31,180,20","Jake","This is very gross and odd looking.,-8,360,20","2"
"3631","","survey-text","188","1287413","0.0-187.0-0.0","A11FRLH5KWRLBV","","","","{""Q0"":""we""}","","","","","","","","","","","","","","","","","","","","","","",""
"17638","","survey-text","189","1305053","0.0-188.0-0.0","A11FRLH5KWRLBV","","","","{""Q0"":""Nice colors, looks like a tree or nature.""}","","","","","","","","","","","","","","","","","","","","","","",""
"2422.9950000001118","","image-slider-response","190","1307476","0.0-189.0","A11FRLH5KWRLBV","","","","","35","","","","","","","","","","","","","","","","","","","","","",""
"null","","image-button-response","191","1312477","0.0-190.0","A11FRLH5KWRLBV","img_art/14.jpg","null","","","","","","","","","","","","","","","","","","","","","","","","",""
"4045","","image-button-response","192","1316524","0.0-191.0","A11FRLH5KWRLBV","img_art/14.jpg","0","","","","","","","","","","","","","","","","","","","","","","","","",""
"823","","image-button-response","193","1317348","0.0-192.0-0.0","A11FRLH5KWRLBV","img_art/14.jpg","5","","","","","","","","","","","","","","","","","","","","","","","","",""
"1134","","image-button-response","194","1318484","0.0-193.0-0.0","A11FRLH5KWRLBV","img_art/14.jpg","3","","","","","","","","","","","","","","","","","","","","","","","","",""
"null","","html-keyboard-response","195","1318984","0.0-194.0","A11FRLH5KWRLBV","<p style=""font-size: 48px;"">+</p>","","","","","null","allTrialResponses","500","1","21","img_art/14.jpg","35","Nice colors, looks like a tree or nature.","Vincent,Jake,Nathan,Blake,Mitchell,Nathaniel","Reminds me of the old days with my family and my grandma,41,360,20","This is poorly done and not aesthetically appealing.,-2,360,20","Too much yellow in this image, i'm not a fan of art that is overly-saturated with yellow,-30,200,20","fuzzy and confused. ok then well,16,280,20","Tornado, nature. trees falling and displaced creatures. Love the colors though.,1,180,20","Not quite the style I'd like, but it does have a certain air of emptiness.,12,220,20","Vincent","Reminds me of the old days with my family and my grandma,41,360,20","Nathaniel","Not quite the style I'd like, but it does have a certain air of emptiness.,12,220,20","Blake","fuzzy and confused. ok then well,16,280,20","2"
"16287","","survey-text","196","1335275","0.0-195.0-0.0","A11FRLH5KWRLBV","","","","{""Q0"":""Just random paint splatters, lot of nothingness ""}","","","","","","","","","","","","","","","","","","","","","","",""
"2183","","image-slider-response","197","1337458","0.0-196.0","A11FRLH5KWRLBV","","","","","-50","","","","","","","","","","","","","","","","","","","","","",""
"null","","image-button-response","198","1342459","0.0-197.0","A11FRLH5KWRLBV","img_art/13.jpg","null","","","","","","","","","","","","","","","","","","","","","","","","",""
"1950","","image-button-response","199","1344411","0.0-198.0","A11FRLH5KWRLBV","img_art/13.jpg","5","","","","","","","","","","","","","","","","","","","","","","","","",""
"583","","image-button-response","200","1344995","0.0-199.0-0.0","A11FRLH5KWRLBV","img_art/13.jpg","4","","","","","","","","","","","","","","","","","","","","","","","","",""
"1358","","image-button-response","201","1346355","0.0-200.0-0.0","A11FRLH5KWRLBV","img_art/13.jpg","2","","","","","","","","","","","","","","","","","","","","","","","","",""
"null","","html-keyboard-response","202","1347855","0.0-201.0","A11FRLH5KWRLBV","<p style=""font-size: 48px;"">+</p>","","","","","null","allTrialResponses","1500","1","22","img_art/13.jpg","-50","Just random paint splatters, lot of nothingness ","Vincent,Adam,Dalton,Blake,Logan,Nathaniel","I love the colors reminds me of a rainy day..it's calm and relaxing,32,360,20","Generic mix of colors. Cool and messy.,10,40,20","rain in blue black and white,1,300,20","warm splash of salt water from ocean,16,280,20","so simple and stupid this looks like what I did to my cousins wall when we repainted it for her 13th bday,0,360,20","Looks like an upclose dried set of water droplets. Boring.,-25,220,20","Nathaniel","Looks like an upclose dried set of water droplets. Boring.,-25,220,20","Logan","so simple and stupid this looks like what I did to my cousins wall when we repainted it for her 13th bday,0,360,20","Dalton","rain in blue black and white,1,300,20","2"
"13454","","survey-text","203","1361313","0.0-202.0-0.0","A11FRLH5KWRLBV","","","","{""Q0"":""i like the colors, but no depth no picture. ""}","","","","","","","","","","","","","","","","","","","","","","",""
"2855","","image-slider-response","204","1364169","0.0-203.0","A11FRLH5KWRLBV","","","","","-31","","","","","","","","","","","","","","","","","","","","","",""
"null","","image-button-response","205","1369170","0.0-204.0","A11FRLH5KWRLBV","img_art/27.jpg","null","","","","","","","","","","","","","","","","","","","","","","","","",""
"718","","image-button-response","206","1369889","0.0-205.0","A11FRLH5KWRLBV","img_art/27.jpg","5","","","","","","","","","","","","","","","","","","","","","","","","",""
"967","","image-button-response","207","1370857","0.0-206.0-0.0","A11FRLH5KWRLBV","img_art/27.jpg","4","","","","","","","","","","","","","","","","","","","","","","","","",""
"879","","image-button-response","208","1371738","0.0-207.0-0.0","A11FRLH5KWRLBV","img_art/27.jpg","1","","","","","","","","","","","","","","","","","","","","","","","","",""
"null","","html-keyboard-response","209","1372738","0.0-208.0","A11FRLH5KWRLBV","<p style=""font-size: 48px;"">+</p>","","","","","null","allTrialResponses","1000","1","23","img_art/27.jpg","-31","i like the colors, but no depth no picture. ","Tristan,Andrew,Dalton,Luis,Logan,Nathaniel","The colors provide a complexity to the nearly child-like sketches.,5,300,20","Reminds me of a town on fire,-15,160,20","looks like a garden in between two storms.,33,300,20","Love the representation of home,22,400,20","demon vs angel brawl over lemon lime sprite,-10,360,20","Looks like a splash of different colors and designs without purpose,-44,220,20","Nathaniel","Looks like a splash of different colors and designs without purpose,-44,220,20","Logan","demon vs angel brawl over lemon lime sprite,-10,360,20","Andrew","Reminds me of a town on fire,-15,160,20","2"
"16442","","survey-text","210","1389185","0.0-209.0-0.0","A11FRLH5KWRLBV","","","","{""Q0"":""Like the colors, looks like power poles at night in a city""}","","","","","","","","","","","","","","","","","","","","","","",""
"3631","","image-slider-response","211","1392816","0.0-210.0","A11FRLH5KWRLBV","","","","","34","","","","","","","","","","","","","","","","","","","","","",""
"null","","image-button-response","212","1397817","0.0-211.0","A11FRLH5KWRLBV","img_art/11.jpg","null","","","","","","","","","","","","","","","","","","","","","","","","",""
"4925","","image-button-response","213","1402744","0.0-212.0","A11FRLH5KWRLBV","img_art/11.jpg","5","","","","","","","","","","","","","","","","","","","","","","","","",""
"471","","image-button-response","214","1403216","0.0-213.0-0.0","A11FRLH5KWRLBV","img_art/11.jpg","4","","","","","","","","","","","","","","","","","","","","","","","","",""
"494","","image-button-response","215","1403712","0.0-214.0-0.0","A11FRLH5KWRLBV","img_art/11.jpg","3","","","","","","","","","","","","","","","","","","","","","","","","",""
"null","","html-keyboard-response","216","1404212","0.0-215.0","A11FRLH5KWRLBV","<p style=""font-size: 48px;"">+</p>","","","","","null","allTrialResponses","500","1","24","img_art/11.jpg","34","Like the colors, looks like power poles at night in a city","Corey,Andrew,Alexis,Jordan,Logan,Nathaniel","dont like the colors. Its a gloomy day in london and this is the transit system,-26,260,20","It's a really cool painting, but it reminds me of bad traffic,-20,160,20","This photo makes me feel bleak,-16,140,20","Rainy highways in RI,20,160,20","life is a highway,12,360,20","Kind of bizzare in that I can imagine ships or something from it.,11,220,20","Nathaniel","Kind of bizzare in that I can imagine ships or something from it.,11,220,20","Logan","life is a highway,12,360,20","Jordan","Rainy highways in RI,20,160,20","2"
"17750","","survey-text","217","1421966","0.0-216.0-0.0","A11FRLH5KWRLBV","","","","{""Q0"":""looks odd and chaotic, don't like the neonish colors""}","","","","","","","","","","","","","","","","","","","","","","",""
"2263","","image-slider-response","218","1424230","0.0-217.0","A11FRLH5KWRLBV","","","","","-31","","","","","","","","","","","","","","","","","","","","","",""
"null","","image-button-response","219","1429232","0.0-218.0","A11FRLH5KWRLBV","img_art/12.jpg","null","","","","","","","","","","","","","","","","","","","","","","","","",""
"1573","","image-button-response","220","1430806","0.0-219.0","A11FRLH5KWRLBV","img_art/12.jpg","5","","","","","","","","","","","","","","","","","","","","","","","","",""
"2319","","image-button-response","221","1433126","0.0-220.0-0.0","A11FRLH5KWRLBV","img_art/12.jpg","3","","","","","","","","","","","","","","","","","","","","","","","","",""
"1583","","image-button-response","222","1434710","0.0-221.0-0.0","A11FRLH5KWRLBV","img_art/12.jpg","2","","","","","","","","","","","","","","","","","","","","","","","","",""
"null","","html-keyboard-response","223","1435212","0.0-222.0","A11FRLH5KWRLBV","<p style=""font-size: 48px;"">+</p>","","","","","null","allTrialResponses","500","1","25","img_art/12.jpg","-31","looks odd and chaotic, don't like the neonish colors","Devin,Miguel,Marcus,Jordan,Logan,Nathaniel","Love the shapes here,12,380,20","Good too basic.,18,160,20","I like the colors in the bottom half of the painting,10,60,20","Made me uncomfortable, reminded me of the 90s,-9,160,20","giving me major endless summer vibes,26,360,20","Too many blocks. I can't see a purpose or a focal point,-44,220,20","Nathaniel","Too many blocks. I can't see a purpose or a focal point,-44,220,20","Jordan","Made me uncomfortable, reminded me of the 90s,-9,160,20","Marcus","I like the colors in the bottom half of the painting,10,60,20","2"
"3993","","survey-text","224","1439214","0.0-223.0-0.0","A11FRLH5KWRLBV","","","","{""Q0"":""table""}","","","","","","","","","","","","","","","","","","","","","","",""
"21958","","survey-text","225","1461173","0.0-224.0-0.0","A11FRLH5KWRLBV","","","","{""Q0"":""looks like a beach? or just randomness. bad colors""}","","","","","","","","","","","","","","","","","","","","","","",""
"2926","","image-slider-response","226","1464100","0.0-225.0","A11FRLH5KWRLBV","","","","","-33","","","","","","","","","","","","","","","","","","","","","",""
"null","","image-button-response","227","1469101","0.0-226.0","A11FRLH5KWRLBV","img_art/19.jpg","null","","","","","","","","","","","","","","","","","","","","","","","","",""
"606","","image-button-response","228","1469709","0.0-227.0","A11FRLH5KWRLBV","img_art/19.jpg","5","","","","","","","","","","","","","","","","","","","","","","","","",""
"1022","","image-button-response","229","1470733","0.0-228.0-0.0","A11FRLH5KWRLBV","img_art/19.jpg","0","","","","","","","","","","","","","","","","","","","","","","","","",""
"1046","","image-button-response","230","1471781","0.0-229.0-0.0","A11FRLH5KWRLBV","img_art/19.jpg","3","","","","","","","","","","","","","","","","","","","","","","","","",""
"null","","html-keyboard-response","231","1472781","0.0-230.0","A11FRLH5KWRLBV","<p style=""font-size: 48px;"">+</p>","","","","","null","allTrialResponses","1000","1","26","img_art/19.jpg","-33","looks like a beach? or just randomness. bad colors","Chase,Cody,Marcus,Jordan,Cameron,Nathaniel","This is just a mess.,-30,120,20","Interesting, leaves you wondering what it is,40,180,20","I like the colors but the scene itself feels too jumbled and cluttered,9,60,20","I dont like the gray shadows, ruins it,-7,160,20","Snowy winter scene,25,60,20","Horrible. Squiggly lines everywhere.,-50,220,20","Nathaniel","Horrible. Squiggly lines everywhere.,-50,220,20","Chase","This is just a mess.,-30,120,20","Jordan","I dont like the gray shadows, ruins it,-7,160,20","2"
"22690","","survey-text","232","1495475","0.0-231.0-0.0","A11FRLH5KWRLBV","","","","{""Q0"":""Reminds me of space for some reason. like all the colors""}","","","","","","","","","","","","","","","","","","","","","","",""
"2255.005000000121","","image-slider-response","233","1497731","0.0-232.0","A11FRLH5KWRLBV","","","","","35","","","","","","","","","","","","","","","","","","","","","",""
"null","","image-button-response","234","1502732","0.0-233.0","A11FRLH5KWRLBV","img_art/23.jpg","null","","","","","","","","","","","","","","","","","","","","","","","","",""
"4773","","image-button-response","235","1507506","0.0-234.0","A11FRLH5KWRLBV","img_art/23.jpg","3","","","","","","","","","","","","","","","","","","","","","","","","",""
"918","","image-button-response","236","1508427","0.0-235.0-0.0","A11FRLH5KWRLBV","img_art/23.jpg","2","","","","","","","","","","","","","","","","","","","","","","","","",""
"1518","","image-button-response","237","1509947","0.0-236.0-0.0","A11FRLH5KWRLBV","img_art/23.jpg","4","","","","","","","","","","","","","","","","","","","","","","","","",""
"null","","html-keyboard-response","238","1510447","0.0-237.0","A11FRLH5KWRLBV","<p style=""font-size: 48px;"">+</p>","","","","","null","allTrialResponses","500","1","27","img_art/23.jpg","35","Reminds me of space for some reason. like all the colors","Chase,Trevor,Patrick,Jordan,Mark,Nathaniel","It's kind of neat with the white slash marks.,13,120,20","nice bright colors but looks like it's from the 90's,6,280,20","Beautiful color scheme,21,280,20","I like the contrast,29,160,20","I see souls in torment and that makes me feel uneasy.,-21,80,20","Not a fan of these dot pieces. They hurt my eyes.,-25,220,20","Jordan","I like the contrast,29,160,20","Patrick","Beautiful color scheme,21,280,20","Mark","I see souls in torment and that makes me feel uneasy.,-21,80,20","2"
"27990","","survey-text","239","1538441","0.0-238.0-0.0","A11FRLH5KWRLBV","","","","{""Q0"":""biblical, face of god in the top bad contrast ""}","","","","","","","","","","","","","","","","","","","","","","",""
"3247","","image-slider-response","240","1541689","0.0-239.0","A11FRLH5KWRLBV","","","","","10","","","","","","","","","","","","","","","","","","","","","",""
"null","","image-button-response","241","1546690","0.0-240.0","A11FRLH5KWRLBV","img_art/8.jpg","null","","","","","","","","","","","","","","","","","","","","","","","","",""
"3646","","image-button-response","242","1550337","0.0-241.0","A11FRLH5KWRLBV","img_art/8.jpg","4","","","","","","","","","","","","","","","","","","","","","","","","",""
"5566","","image-button-response","243","1555905","0.0-242.0-0.0","A11FRLH5KWRLBV","img_art/8.jpg","0","","","","","","","","","","","","","","","","","","","","","","","","",""
"894","","image-button-response","244","1556801","0.0-243.0-0.0","A11FRLH5KWRLBV","img_art/8.jpg","2","","","","","","","","","","","","","","","","","","","","","","","","",""
"null","","html-keyboard-response","245","1557801","0.0-244.0","A11FRLH5KWRLBV","<p style=""font-size: 48px;"">+</p>","","","","","null","allTrialResponses","1000","1","28","img_art/8.jpg","10","biblical, face of god in the top bad contrast ","Nicholas,Juan,Patrick,Jordan,Mark,Spencer","The face bothers me,-25,240,20","I don't like the negative emotion this picture makes me feel. It's also too abstract.,-30,260,20","Very interesting use of blocks,21,280,20","I did not like the face,-10,160,20","The face makes me think its a statement of the almighty of big brother watching us. onfuCsion limits my enjoyment.,6,80,20","Nice formats, I just don't like it much,-16,120,20","Mark","The face makes me think its a statement of the almighty of big brother watching us. onfuCsion limits my enjoyment.,6,80,20","Nicholas","The face bothers me,-25,240,20","Patrick","Very interesting use of blocks,21,280,20","2"
"25026","","survey-text","246","1582831","0.0-245.0-0.0","A11FRLH5KWRLBV","","","","{""Q0"":""meh, a gold Hershey kiss?""}","","","","","","","","","","","","","","","","","","","","","","",""
"3118","","image-slider-response","247","1585951","0.0-246.0","A11FRLH5KWRLBV","","","","","-38","","","","","","","","","","","","","","","","","","","","","",""
"null","","image-button-response","248","1590952","0.0-247.0","A11FRLH5KWRLBV","img_art/5.jpg","null","","","","","","","","","","","","","","","","","","","","","","","","",""
"774","","image-button-response","249","1591728","0.0-248.0","A11FRLH5KWRLBV","img_art/5.jpg","5","","","","","","","","","","","","","","","","","","","","","","","","",""
"1133","","image-button-response","250","1592863","0.0-249.0-0.0","A11FRLH5KWRLBV","img_art/5.jpg","1","","","","","","","","","","","","","","","","","","","","","","","","",""
"590","","image-button-response","251","1593454","0.0-250.0-0.0","A11FRLH5KWRLBV","img_art/5.jpg","2","","","","","","","","","","","","","","","","","","","","","","","","",""
"null","","html-keyboard-response","252","1594956","0.0-251.0","A11FRLH5KWRLBV","<p style=""font-size: 48px;"">+</p>","","","","","null","allTrialResponses","1500","1","29","img_art/5.jpg","-38","meh, a gold Hershey kiss?","Nicholas,Jesus,Patrick,Benjamin,Mark,Richard","I cant explain why i like this so much but it really calls out to me,50,240,20","Overpowering colors.,-26,100,20","It looks random,-10,280,20","Missing something,-5,260,20","Perfume bottle, reminds of fancy nights out.,11,80,20","looks like a 2nd grader did it,-50,340,20","Richard","looks like a 2nd grader did it,-50,340,20","Jesus","Overpowering colors.,-26,100,20","Patrick","It looks random,-10,280,20","2"
"14790","","survey-text","253","1609751","0.0-252.0-0.0","A11FRLH5KWRLBV","","","","{""Q0"":""2 year old with a red pen, terrible.""}","","","","","","","","","","","","","","","","","","","","","","",""
"1942","","image-slider-response","254","1611693","0.0-253.0","A11FRLH5KWRLBV","","","","","-50","","","","","","","","","","","","","","","","","","","","","",""
"null","","image-button-response","255","1616695","0.0-254.0","A11FRLH5KWRLBV","img_art/3.jpg","null","","","","","","","","","","","","","","","","","","","","","","","","",""
"805","","image-button-response","256","1617501","0.0-255.0","A11FRLH5KWRLBV","img_art/3.jpg","4","","","","","","","","","","","","","","","","","","","","","","","","",""
"2799","","image-button-response","257","1620302","0.0-256.0-0.0","A11FRLH5KWRLBV","img_art/3.jpg","2","","","","","","","","","","","","","","","","","","","","","","","","",""
"1942","","image-button-response","258","1622246","0.0-257.0-0.0","A11FRLH5KWRLBV","img_art/3.jpg","5","","","","","","","","","","","","","","","","","","","","","","","","",""
"null","","html-keyboard-response","259","1623246","0.0-258.0","A11FRLH5KWRLBV","<p style=""font-size: 48px;"">+</p>","","","","","null","allTrialResponses","1000","1","30","img_art/3.jpg","-50","2 year old with a red pen, terrible.","Scott,Jesus,Patrick,Edward,Dylan,Richard","I like that it's messy,14,20,20","I like the simplicity of it.,20,100,20","Random use of red and looks scary,-50,280,20","It looks like someone took a red sharpie and just scribbled angrily,-20,60,20","I could scribble on paper and mimic this,-48,40,20","7th grade art, not much effort to do this.,-39,340,20","Dylan","I could scribble on paper and mimic this,-48,40,20","Patrick","Random use of red and looks scary,-50,280,20","Richard","7th grade art, not much effort to do this.,-39,340,20","2"
"4498","","image-button-response_instructions","260","1627749","0.0-259.0","A11FRLH5KWRLBV","","0","instructions","","","","","","","","","","","","","","","","","","","","","","","",""
"1634","","image-button-response","261","1629389","0.0-260.0","A11FRLH5KWRLBV","","0","","","","","","","","","","","","","","","","","","","","","","","","",""
