"rt","url","trial_type","trial_index","time_elapsed","internal_node_id","participant_id","stimulus","button_pressed","Name","responses","response","key_press","variableName","fixationTime","condition","trial","photo","subjectRating","subjectResponse","agentsNames","agent_1_Response","agent_2_Response","agent_3_Response","agent_4_Response","agent_5_Response","agent_6_Response","kept_1_name","kept_1_response","kept_2_name","kept_2_response","kept_3_name","kept_3_response","errorCounter"
"7401","external_page_harvard.html","external-html","0","7426","0.0-0.0","A11KMXC4ZR5PW2","","","","","","","","","","","","","","","","","","","","","","","","","","",""
"2270","","image-button-response","1","9712","0.0-1.0","A11KMXC4ZR5PW2","","0","","","","","","","","","","","","","","","","","","","","","","","","",""
"2372","","image-button-response","2","12114","0.0-2.0-0.0","A11KMXC4ZR5PW2","","1","phone","","","","","","","","","","","","","","","","","","","","","","","",""
"8706","","survey-text","3","20833","0.0-3.0-0.0","A11KMXC4ZR5PW2","","","","{""Q0"":""A11KMXC4ZR5PW2""}","","","","","","","","","","","","","","","","","","","","","","",""
"8142","","image-button-response_instructions","4","28985","0.0-4.0","A11KMXC4ZR5PW2","","0","instructions","","","","","","","","","","","","","","","","","","","","","","","",""
"22492","","image-button-response_instructions","5","51485","0.0-5.0","A11KMXC4ZR5PW2","img_art/ins/popularity/ins1.png","0","instructions","","","","","","","","","","","","","","","","","","","","","","","",""
"14900","","image-button-response_instructions","6","66394","0.0-6.0","A11KMXC4ZR5PW2","img_art/ins/popularity/ins2.png","0","instructions","","","","","","","","","","","","","","","","","","","","","","","",""
"4964","","image-button-response_instructions","7","71366","0.0-7.0","A11KMXC4ZR5PW2","img_art/ins/popularity/ins2Extreme.png","0","instructions","","","","","","","","","","","","","","","","","","","","","","","",""
"10706","","image-button-response_instructions","8","82079","0.0-8.0","A11KMXC4ZR5PW2","img_art/ins/popularity/ins3KEEPpop.PNG","0","instructions","","","","","","","","","","","","","","","","","","","","","","","",""
"2160","","image-button-response_instructions","9","84248","0.0-9.0","A11KMXC4ZR5PW2","img_art/ins/popularity/ins3ANamepop.PNG","0","instructions","","","","","","","","","","","","","","","","","","","","","","","",""
"19990","","image-button-response_instructions","10","104245","0.0-10.0","A11KMXC4ZR5PW2","img_art/ins/popularity/ins3ARatingpop.png","0","instructions","","","","","","","","","","","","","","","","","","","","","","","",""
"2541","","image-button-response_instructions","11","106794","0.0-11.0","A11KMXC4ZR5PW2","img_art/ins/popularity/ins3ATextpop.png","0","instructions","","","","","","","","","","","","","","","","","","","","","","","",""
"5768","","image-button-response_instructions","12","112570","0.0-12.0","A11KMXC4ZR5PW2","img_art/ins/popularity/ins3ALikespop.png","0","instructions","","","","","","","","","","","","","","","","","","","","","","","",""
"4388","","image-button-response_instructions","13","116968","0.0-13.0","A11KMXC4ZR5PW2","img_art/ins/popularity/ins3KEEPpop.PNG","0","instructions","","","","","","","","","","","","","","","","","","","","","","","",""
"1956","","image-button-response_instructions","14","118936","0.0-14.0","A11KMXC4ZR5PW2","img_art/ins/popularity/ins3_5RED.png","0","instructions","","","","","","","","","","","","","","","","","","","","","","","",""
"1572","","image-button-response_instructions","15","120514","0.0-15.0","A11KMXC4ZR5PW2","img_art/ins/popularity/ins3KEEPpop.PNG","0","instructions","","","","","","","","","","","","","","","","","","","","","","","",""
"4474","","image-button-response_instructions","16","124995","0.0-16.0","A11KMXC4ZR5PW2","img_art/ins/popularity/ins4KEEPpop.PNG","0","instructions","","","","","","","","","","","","","","","","","","","","","","","",""
"1561","","image-button-response_instructions","17","126562","0.0-17.0","A11KMXC4ZR5PW2","img_art/ins/popularity/ins5KEEPpop.PNG","0","instructions","","","","","","","","","","","","","","","","","","","","","","","",""
"1567","","image-button-response_instructions","18","128135","0.0-18.0","A11KMXC4ZR5PW2","","0","instructions","","","","","","","","","","","","","","","","","","","","","","","",""
"8861","","survey-text","19","137083","0.0-19.0-0.0","A11KMXC4ZR5PW2","","","","{""Q0"":""but""}","","","","","","","","","","","","","","","","","","","","","","",""
"14035","","survey-text","20","151131","0.0-20.0-0.0","A11KMXC4ZR5PW2","","","","{""Q0"":""Impressionist beauty""}","","","","","","","","","","","","","","","","","","","","","","",""
"5153.300000190735","","image-slider-response","21","156302","0.0-21.0","A11KMXC4ZR5PW2","","","","","32","","","","","","","","","","","","","","","","","","","","","",""
"null","","image-button-response","22","161321","0.0-22.0","A11KMXC4ZR5PW2","img_art/ins/1.jpg","null","","","","","","","","","","","","","","","","","","","","","","","","",""
"2318","","image-button-response","23","163659","0.0-23.0","A11KMXC4ZR5PW2","img_art/ins/1.jpg","3","","","","","","","","","","","","","","","","","","","","","","","","",""
"1535","","image-button-response","24","165209","0.0-24.0-0.0","A11KMXC4ZR5PW2","img_art/ins/1.jpg","1","","","","","","","","","","","","","","","","","","","","","","","","",""
"1155","","image-button-response","25","166384","0.0-25.0-0.0","A11KMXC4ZR5PW2","img_art/ins/1.jpg","5","","","","","","","","","","","","","","","","","","","","","","","","",""
"null","","html-keyboard-response","26","167900","0.0-26.0","A11KMXC4ZR5PW2","<p style=""font-size: 48px;"">+</p>","","","","","null","allTrialResponses","1500","1","-2","img_art/ins/1.jpg","32","Impressionist beauty","Adam,Alex,Ben,Carl,Daniel,Jack","Seems like doodles,-20,20,20","very creative work.,36,40,20","This color reminds me of poo,-46,60,20","very calming artwork,42,80,20","It looks like a murder scene.,-48,100,20","I like the sophisticated brushwork,40,120,20","Carl","very calming artwork,42,80,20","Alex","very creative work.,36,40,20","Jack","I like the sophisticated brushwork,40,120,20","0"
"8841","","survey-text","27","176772","0.0-27.0-0.0","A11KMXC4ZR5PW2","","","","{""Q0"":""Gorgeous colors""}","","","","","","","","","","","","","","","","","","","","","","",""
"3220","","image-slider-response","28","180006","0.0-28.0","A11KMXC4ZR5PW2","","","","","39","","","","","","","","","","","","","","","","","","","","","",""
"4822","","image-button-response","29","185031","0.0-29.0","A11KMXC4ZR5PW2","img_art/ins/2.jpg","5","","","","","","","","","","","","","","","","","","","","","","","","",""
"2533","","image-button-response","30","187578","0.0-30.0","A11KMXC4ZR5PW2","img_art/ins/2.jpg","3","","","","","","","","","","","","","","","","","","","","","","","","",""
"6955","","image-button-response","31","194544","0.0-31.0-0.0","A11KMXC4ZR5PW2","img_art/ins/2.jpg","4","","","","","","","","","","","","","","","","","","","","","","","","",""
"1636","","image-button-response","32","196197","0.0-32.0-0.0","A11KMXC4ZR5PW2","img_art/ins/2.jpg","5","","","","","","","","","","","","","","","","","","","","","","","","",""
"null","","html-keyboard-response","33","197700","0.0-33.0","A11KMXC4ZR5PW2","<p style=""font-size: 48px;"">+</p>","","","","","null","allTrialResponses","1500","1","-1","img_art/ins/2.jpg","39","Gorgeous colors","James,Alex,Kyle,Carl,John,Jack","looks too angry,-50,140,20","I like the blocks of color arrangements,30,40,20","Idk, it is just annoying,-32,180,20","I can feel the artist's passion in it,45,80,20","love the texture of paint,48,160,20","I would never be able to compose a sophisticated pallete like this,48,120,20","Carl","I can feel the artist's passion in it,45,80,20","John","love the texture of paint,48,160,20","Jack","I would never be able to compose a sophisticated pallete like this,48,120,20","0"
"12188","","survey-text","34","209915","0.0-34.0-0.0","A11KMXC4ZR5PW2","","","","{""Q0"":""Icy and beautiful""}","","","","","","","","","","","","","","","","","","","","","","",""
"3473.699999809265","","image-slider-response","35","213403","0.0-35.0","A11KMXC4ZR5PW2","","","","","24","","","","","","","","","","","","","","","","","","","","","",""
"3110","","image-button-response","36","218419","0.0-36.0","A11KMXC4ZR5PW2","img_art/ins/3.jpg","4","","","","","","","","","","","","","","","","","","","","","","","","",""
"157","","image-button-response","37","218592","0.0-37.0","A11KMXC4ZR5PW2","img_art/ins/3.jpg","1","","","","","","","","","","","","","","","","","","","","","","","","",""
"2663","","image-button-response","38","221274","0.0-38.0-0.0","A11KMXC4ZR5PW2","img_art/ins/3.jpg","3","","","","","","","","","","","","","","","","","","","","","","","","",""
"1477","","image-button-response","39","222770","0.0-39.0-0.0","A11KMXC4ZR5PW2","img_art/ins/3.jpg","0","","","","","","","","","","","","","","","","","","","","","","","","",""
"null","","html-keyboard-response","40","224278","0.0-40.0","A11KMXC4ZR5PW2","<p style=""font-size: 48px;"">+</p>","","","","","null","allTrialResponses","1500","1","0","img_art/ins/3.jpg","24","Icy and beautiful","Mike,Sam,Ron,Carl,John,Jack","enjoy the different shades of blue,22,200,20","I can feel a rainy day from this painting,18,240,20","It looks depressing,-26,220,20","It's an alright work,15,80,20","I like the overlapping of brushes,41,160,20","I feel connected to the artist,40,120,20","Sam","I can feel a rainy day from this painting,18,240,20","Carl","It's an alright work,15,80,20","Mike","enjoy the different shades of blue,22,200,20","0"
"4719","","image-button-response_instructions","41","229030","0.0-41.0","A11KMXC4ZR5PW2","","0","instructions","","","","","","","","","","","","","","","","","","","","","","","",""
"10564","","survey-likert","42","239613","0.0-42.0-0.0","A11KMXC4ZR5PW2","","","","{""Q0"":"""",""Q1"":0,""Q2"":1}","","","","","","","","","","","","","","","","","","","","","","",""
"6107","","survey-text","43","245748","0.0-43.0-0.0","A11KMXC4ZR5PW2","","","","{""Q0"":""rock""}","","","","","","","","","","","","","","","","","","","","","","",""
"13297","","survey-text","44","259057","0.0-44.0-0.0","A11KMXC4ZR5PW2","","","","{""Q0"":""Slippery and winding""}","","","","","","","","","","","","","","","","","","","","","","",""
"3290.0999999046326","","image-slider-response","45","262364","0.0-45.0","A11KMXC4ZR5PW2","","","","","10","","","","","","","","","","","","","","","","","","","","","",""
"null","","image-button-response","46","267441","0.0-46.0","A11KMXC4ZR5PW2","img_art/30.jpg","null","","","","","","","","","","","","","","","","","","","","","","","","",""
"5948","","image-button-response","47","273412","0.0-47.0","A11KMXC4ZR5PW2","img_art/30.jpg","1","","","","","","","","","","","","","","","","","","","","","","","","",""
"2151","","image-button-response","48","275582","0.0-48.0-0.0","A11KMXC4ZR5PW2","img_art/30.jpg","3","","","","","","","","","","","","","","","","","","","","","","","","",""
"2995","","image-button-response","49","278597","0.0-49.0-0.0","A11KMXC4ZR5PW2","img_art/30.jpg","2","","","","","","","","","","","","","","","","","","","","","","","","",""
"null","","html-keyboard-response","50","279609","0.0-50.0","A11KMXC4ZR5PW2","<p style=""font-size: 48px;"">+</p>","","","","","null","allTrialResponses","1000","1","1","img_art/30.jpg","10","Slippery and winding","Bryan,Tristan,Jorge,Malik,Trevor,Michael","A little too dull. Would've liked brighter colors. Also looks washed out.,1,400,20","Too much abstraction for me, leaving my focus mainly on color. I like the texture.,-20,300,20","fun and imaginative,12,180,20","I can't parse any intention or emotion,-17,40,20","it looks like some thing I could make it my garage,-18,280,20","It looks like a child did it. There is nothing talented or special about it.,-16,140,20","Tristan","Too much abstraction for me, leaving my focus mainly on color. I like the texture.,-20,300,20","Malik","I can't parse any intention or emotion,-17,40,20","Jorge","fun and imaginative,12,180,20","0"
"12413","","survey-text","51","292059","0.0-51.0-0.0","A11KMXC4ZR5PW2","","","","{""Q0"":""Childlike in a good way""}","","","","","","","","","","","","","","","","","","","","","","",""
"9272.099999904633","","image-slider-response","52","301347","0.0-52.0","A11KMXC4ZR5PW2","","","","","13","","","","","","","","","","","","","","","","","","","","","",""
"null","","image-button-response","53","306366","0.0-53.0","A11KMXC4ZR5PW2","img_art/29.jpg","null","","","","","","","","","","","","","","","","","","","","","","","","",""
"3788","","image-button-response","54","310174","0.0-54.0","A11KMXC4ZR5PW2","img_art/29.jpg","3","","","","","","","","","","","","","","","","","","","","","","","","",""
"1344","","image-button-response","55","311536","0.0-55.0-0.0","A11KMXC4ZR5PW2","img_art/29.jpg","5","","","","","","","","","","","","","","","","","","","","","","","","",""
"2258","","image-button-response","56","313812","0.0-56.0-0.0","A11KMXC4ZR5PW2","img_art/29.jpg","1","","","","","","","","","","","","","","","","","","","","","","","","",""
"null","","html-keyboard-response","57","315319","0.0-57.0","A11KMXC4ZR5PW2","<p style=""font-size: 48px;"">+</p>","","","","","null","allTrialResponses","1500","1","2","img_art/29.jpg","13","Childlike in a good way","Samuel,Tristan,Jorge,Malik,Chase,Isaac","too challenging to comprehend,-28,400,20","The textures bring this painting alive. A window to another existence with infinite possibility.,25,300,20","makes me feel busy and unorganized,4,180,20","Feels like an abandoned dream,13,40,20","This is ugly as fuck,-50,120,20","It is intriguing but I don't like the red X.,6,280,20","Malik","Feels like an abandoned dream,13,40,20","Isaac","It is intriguing but I don't like the red X.,6,280,20","Tristan","The textures bring this painting alive. A window to another existence with infinite possibility.,25,300,20","0"
"22810","","survey-text","58","338168","0.0-58.0-0.0","A11KMXC4ZR5PW2","","","","{""Q0"":""Carousel horse in a maelstrom""}","","","","","","","","","","","","","","","","","","","","","","",""
"2464.0999999046326","","image-slider-response","59","340646","0.0-59.0","A11KMXC4ZR5PW2","","","","","29","","","","","","","","","","","","","","","","","","","","","",""
"4361","","image-button-response","60","345663","0.0-60.0","A11KMXC4ZR5PW2","img_art/18.jpg","2","","","","","","","","","","","","","","","","","","","","","","","","",""
"1763","","image-button-response","61","347447","0.0-61.0","A11KMXC4ZR5PW2","img_art/18.jpg","1","","","","","","","","","","","","","","","","","","","","","","","","",""
"3076","","image-button-response","62","350536","0.0-62.0-0.0","A11KMXC4ZR5PW2","img_art/18.jpg","0","","","","","","","","","","","","","","","","","","","","","","","","",""
"3600","","image-button-response","63","354154","0.0-63.0-0.0","A11KMXC4ZR5PW2","img_art/18.jpg","0","","","","","","","","","","","","","","","","","","","","","","","","",""
"2495","","image-button-response","64","361006","0.0-63.1-0.1","A11KMXC4ZR5PW2","img_art/18.jpg","4","","","","","","","","","","","","","","","","","","","","","","","","",""
"null","","html-keyboard-response","65","362513","0.0-64.0","A11KMXC4ZR5PW2","<p style=""font-size: 48px;"">+</p>","","","","","null","allTrialResponses","1500","1","3","img_art/18.jpg","29","Carousel horse in a maelstrom","Alejandro,Tristan,James,Malik,Victor,Isaac","I love this because abstractly depicts the apocalypse. The white horse and its rider as Death, described in religious texts and pop culture. ""He rode a pale horse and his name was death."",50,80,20","So much going on. Frightening and tumultous, brave and inspiring. I'd like to spend the rest of my life interpreting it.,30,300,20","Very eerie and it's spooky,11,380,20","Gently chaotic and beautiful,40,40,20","nice balance of color. The different sizes and types of strokes give a lot to look at,18,340,20","I like the detail but I wouldn't hang this up on my wall.,14,280,20","Tristan","So much going on. Frightening and tumultous, brave and inspiring. I'd like to spend the rest of my life interpreting it.,30,300,20","Alejandro","I love this because abstractly depicts the apocalypse. The white horse and its rider as Death, described in religious texts and pop culture. ""He rode a pale horse and his name was death."",50,80,20","Victor","nice balance of color. The different sizes and types of strokes give a lot to look at,18,340,20","2"
"9913","","survey-text","66","372452","0.0-65.0-0.0","A11KMXC4ZR5PW2","","","","{""Q0"":""Fall in New England""}","","","","","","","","","","","","","","","","","","","","","","",""
"3360.5999999046326","","image-slider-response","67","375826","0.0-66.0","A11KMXC4ZR5PW2","","","","","16","","","","","","","","","","","","","","","","","","","","","",""
"4950","","image-button-response","68","380846","0.0-67.0","A11KMXC4ZR5PW2","img_art/1.jpg","4","","","","","","","","","","","","","","","","","","","","","","","","",""
"1854","","image-button-response","69","382714","0.0-68.0","A11KMXC4ZR5PW2","img_art/1.jpg","0","","","","","","","","","","","","","","","","","","","","","","","","",""
"6736","","image-button-response","70","389469","0.0-69.0-0.0","A11KMXC4ZR5PW2","img_art/1.jpg","5","","","","","","","","","","","","","","","","","","","","","","","","",""
"2203","","image-button-response","71","391690","0.0-70.0-0.0","A11KMXC4ZR5PW2","img_art/1.jpg","1","","","","","","","","","","","","","","","","","","","","","","","","",""
"null","","html-keyboard-response","72","392198","0.0-71.0","A11KMXC4ZR5PW2","<p style=""font-size: 48px;"">+</p>","","","","","null","allTrialResponses","500","1","4","img_art/1.jpg","16","Fall in New England","Alejandro,Tristan,Travis,Sean,Victor,Noah","Interesting color scheme but to bled to me,11,80,20","Unpleasing palette. I see a figure but it seems incongrous to the highly abstract background.,-20,300,20","I didn't like this too much...I didn't like the red and the jaggedness to it.,-29,260,20","my reaction is that the picture is that Ive seen it before,-14,40,20","I like the colors and layers,25,340,20","the bright colours evoke the 90s, and not their best part,-10,260,20","Alejandro","Interesting color scheme but to bled to me,11,80,20","Noah","the bright colours evoke the 90s, and not their best part,-10,260,20","Tristan","Unpleasing palette. I see a figure but it seems incongrous to the highly abstract background.,-20,300,20","2"
"9457","","survey-text","73","401677","0.0-72.0-0.0","A11KMXC4ZR5PW2","","","","{""Q0"":""Southwest mosaic""}","","","","","","","","","","","","","","","","","","","","","","",""
"2461.0999999046326","","image-slider-response","74","404152","0.0-73.0","A11KMXC4ZR5PW2","","","","","9","","","","","","","","","","","","","","","","","","","","","",""
"null","","image-button-response","75","409171","0.0-74.0","A11KMXC4ZR5PW2","img_art/12.jpg","null","","","","","","","","","","","","","","","","","","","","","","","","",""
"452","","image-button-response","76","409651","0.0-75.0","A11KMXC4ZR5PW2","img_art/12.jpg","4","","","","","","","","","","","","","","","","","","","","","","","","",""
"1441","","image-button-response","77","411112","0.0-76.0-0.0","A11KMXC4ZR5PW2","img_art/12.jpg","0","","","","","","","","","","","","","","","","","","","","","","","","",""
"2145","","image-button-response","78","413275","0.0-77.0-0.0","A11KMXC4ZR5PW2","img_art/12.jpg","2","","","","","","","","","","","","","","","","","","","","","","","","",""
"null","","html-keyboard-response","79","413783","0.0-78.0","A11KMXC4ZR5PW2","<p style=""font-size: 48px;"">+</p>","","","","","null","allTrialResponses","500","1","5","img_art/12.jpg","9","Southwest mosaic","Alejandro,Tristan,Derek,Jacob,Joshua,Noah","I like the sectioned nature of the squares and curves. Not my favorite but still a good one.,27,80,20","Quite lovely with depth and possibility.,21,300,20","I love the pattern and this looks like it took a good deal of effort,35,360,20","I like this concept.,11,340,20","I don't get this one. Doesn't evoke an emotional response.,-10,240,20","evokes the 80s, and not in a necessarily good way,-10,260,20","Joshua","I don't get this one. Doesn't evoke an emotional response.,-10,240,20","Alejandro","I like the sectioned nature of the squares and curves. Not my favorite but still a good one.,27,80,20","Derek","I love the pattern and this looks like it took a good deal of effort,35,360,20","2"
"5034","","survey-text","80","418873","0.0-79.0-0.0","A11KMXC4ZR5PW2","","","","{""Q0"":""sky""}","","","","","","","","","","","","","","","","","","","","","","",""
"15451","","survey-text","81","434333","0.0-80.0-0.0","A11KMXC4ZR5PW2","","","","{""Q0"":""Apocalyptic tracks""}","","","","","","","","","","","","","","","","","","","","","","",""
"2879.7999997138977","","image-slider-response","82","437223","0.0-81.0","A11KMXC4ZR5PW2","","","","","7","","","","","","","","","","","","","","","","","","","","","",""
"null","","image-button-response","83","442237","0.0-82.0","A11KMXC4ZR5PW2","img_art/11.jpg","null","","","","","","","","","","","","","","","","","","","","","","","","",""
"3915","","image-button-response","84","446170","0.0-83.0","A11KMXC4ZR5PW2","img_art/11.jpg","1","","","","","","","","","","","","","","","","","","","","","","","","",""
"926","","image-button-response","85","447112","0.0-84.0-0.0","A11KMXC4ZR5PW2","img_art/11.jpg","0","","","","","","","","","","","","","","","","","","","","","","","","",""
"738","","image-button-response","86","447867","0.0-85.0-0.0","A11KMXC4ZR5PW2","img_art/11.jpg","3","","","","","","","","","","","","","","","","","","","","","","","","",""
"null","","html-keyboard-response","87","448373","0.0-86.0","A11KMXC4ZR5PW2","<p style=""font-size: 48px;"">+</p>","","","","","null","allTrialResponses","500","1","6","img_art/11.jpg","7","Apocalyptic tracks","Alejandro,Vincent,Derek,Mark,Joshua,Shawn","Enjoyed the lines representing different paths that encompass different entities,20,80,20","Looks like a familiar area,31,360,20","There's a lot going on in this painting but it is pleasing and neat looking,31,360,20","My initial thought was roller coasters but I see ship masts on a cloudy day too.,35,80,20","Is interesting. Wouldn't bother me to have this hanging where I'd see it every day.,11,240,20","Like the movement but not the background colors.,21,100,20","Vincent","Looks like a familiar area,31,360,20","Alejandro","Enjoyed the lines representing different paths that encompass different entities,20,80,20","Mark","My initial thought was roller coasters but I see ship masts on a cloudy day too.,35,80,20","2"
"13261","","survey-text","88","461653","0.0-87.0-0.0","A11KMXC4ZR5PW2","","","","{""Q0"":""Salvador Dali inspired""}","","","","","","","","","","","","","","","","","","","","","","",""
"2117.5999999046326","","image-slider-response","89","463781","0.0-88.0","A11KMXC4ZR5PW2","","","","","15","","","","","","","","","","","","","","","","","","","","","",""
"4513","","image-button-response","90","468800","0.0-89.0","A11KMXC4ZR5PW2","img_art/20.jpg","5","","","","","","","","","","","","","","","","","","","","","","","","",""
"5425","","image-button-response","91","474250","0.0-90.0","A11KMXC4ZR5PW2","img_art/20.jpg","3","","","","","","","","","","","","","","","","","","","","","","","","",""
"1833","","image-button-response","92","476100","0.0-91.0-0.0","A11KMXC4ZR5PW2","img_art/20.jpg","0","","","","","","","","","","","","","","","","","","","","","","","","",""
"2051","","image-button-response","93","478175","0.0-92.0-0.0","A11KMXC4ZR5PW2","img_art/20.jpg","1","","","","","","","","","","","","","","","","","","","","","","","","",""
"null","","html-keyboard-response","94","478686","0.0-93.0","A11KMXC4ZR5PW2","<p style=""font-size: 48px;"">+</p>","","","","","null","allTrialResponses","500","1","7","img_art/20.jpg","15","Salvador Dali inspired","Alejandro,Vincent,Cody,Mark,Alexander,Christopher","The pulling and sagging nature is very beautiful.,30,80,20","I love the colors and coukd spend alot of time with the picture,33,360,20","I like the distortion of the objects, good colors,20,180,20","Reminds me of persistance of time (a favorite of mine).,30,80,20","The beach and industry.,12,120,20","i ind of like this, it's saying something but not my style,6,160,20","Mark","Reminds me of persistance of time (a favorite of mine).,30,80,20","Alejandro","The pulling and sagging nature is very beautiful.,30,80,20","Vincent","I love the colors and coukd spend alot of time with the picture,33,360,20","2"
"12085","","survey-text","95","490806","0.0-94.0-0.0","A11KMXC4ZR5PW2","","","","{""Q0"":""Strange and basic, not a fan""}","","","","","","","","","","","","","","","","","","","","","","",""
"3339.8999996185303","","image-slider-response","96","494160","0.0-95.0","A11KMXC4ZR5PW2","","","","","-20","","","","","","","","","","","","","","","","","","","","","",""
"4633","","image-button-response","97","499178","0.0-96.0","A11KMXC4ZR5PW2","img_art/4.jpg","1","","","","","","","","","","","","","","","","","","","","","","","","",""
"3091","","image-button-response","98","502293","0.0-97.0","A11KMXC4ZR5PW2","img_art/4.jpg","4","","","","","","","","","","","","","","","","","","","","","","","","",""
"1824","","image-button-response","99","504135","0.0-98.0-0.0","A11KMXC4ZR5PW2","img_art/4.jpg","3","","","","","","","","","","","","","","","","","","","","","","","","",""
"1372","","image-button-response","100","505527","0.0-99.0-0.0","A11KMXC4ZR5PW2","img_art/4.jpg","1","","","","","","","","","","","","","","","","","","","","","","","","",""
"null","","html-keyboard-response","101","506036","0.0-100.0","A11KMXC4ZR5PW2","<p style=""font-size: 48px;"">+</p>","","","","","null","allTrialResponses","500","1","8","img_art/4.jpg","-20","Strange and basic, not a fan","Alejandro,Vincent,Stephen,Mark,John,Seth","Looks like finger nails from the Guinness world record book.,-30,80,20","I like it not sure much of how I feel about it,7,360,20","Just doesn't look nice.,-40,140,20","I think it speaks to familial closeness but the tonality is offputting to me.,-10,80,20","Extremely simple and like not alot of time was put into it,-20,120,20","Odd but intriguing. I feel emotion from this. Like a woman bent over carrying these emotions on her back.,33,60,20","John","Extremely simple and like not alot of time was put into it,-20,120,20","Mark","I think it speaks to familial closeness but the tonality is offputting to me.,-10,80,20","Vincent","I like it not sure much of how I feel about it,7,360,20","2"
"13622","","survey-text","102","519690","0.0-101.0-0.0","A11KMXC4ZR5PW2","","","","{""Q0"":""Juvenile and confusing""}","","","","","","","","","","","","","","","","","","","","","","",""
"3045.300000190735","","image-slider-response","103","522751","0.0-102.0","A11KMXC4ZR5PW2","","","","","-24","","","","","","","","","","","","","","","","","","","","","",""
"4255","","image-button-response","104","527771","0.0-103.0","A11KMXC4ZR5PW2","img_art/2.jpg","4","","","","","","","","","","","","","","","","","","","","","","","","",""
"591","","image-button-response","105","528384","0.0-104.0","A11KMXC4ZR5PW2","img_art/2.jpg","0","","","","","","","","","","","","","","","","","","","","","","","","",""
"1403","","image-button-response","106","529809","0.0-105.0-0.0","A11KMXC4ZR5PW2","img_art/2.jpg","4","","","","","","","","","","","","","","","","","","","","","","","","",""
"5421","","image-button-response","107","535257","0.0-106.0-0.0","A11KMXC4ZR5PW2","img_art/2.jpg","5","","","","","","","","","","","","","","","","","","","","","","","","",""
"null","","html-keyboard-response","108","536766","0.0-107.0","A11KMXC4ZR5PW2","<p style=""font-size: 48px;"">+</p>","","","","","null","allTrialResponses","1500","1","9","img_art/2.jpg","-24","Juvenile and confusing","Anthony,Vincent,Ethan,Mark,John,Aaron","Ugly color scheme,-50,200,20","This reminds me of a peaceful day out alone shopping and spending some me time,41,360,20","This looks like a professional abstract drawing. I like the shapes.,7,120,20","It feels like a party and Moulin Rouge.,20,80,20","Its meh. Doesnt illicit any strong feelings in me,1,120,20","The colors are pretty but I don't really like the shapes in it.,-20,20,20","Anthony","Ugly color scheme,-50,200,20","John","Its meh. Doesnt illicit any strong feelings in me,1,120,20","Aaron","The colors are pretty but I don't really like the shapes in it.,-20,20,20","2"
"11987","","survey-text","109","548789","0.0-108.0-0.0","A11KMXC4ZR5PW2","","","","{""Q0"":""Interesting but plain""}","","","","","","","","","","","","","","","","","","","","","","",""
"2660.8999996185303","","image-slider-response","110","551462","0.0-109.0","A11KMXC4ZR5PW2","","","","","-17","","","","","","","","","","","","","","","","","","","","","",""
"null","","image-button-response","111","556473","0.0-110.0","A11KMXC4ZR5PW2","img_art/15.jpg","null","","","","","","","","","","","","","","","","","","","","","","","","",""
"1651","","image-button-response","112","558135","0.0-111.0","A11KMXC4ZR5PW2","img_art/15.jpg","4","","","","","","","","","","","","","","","","","","","","","","","","",""
"1596","","image-button-response","113","559753","0.0-112.0-0.0","A11KMXC4ZR5PW2","img_art/15.jpg","3","","","","","","","","","","","","","","","","","","","","","","","","",""
"1306","","image-button-response","114","561079","0.0-113.0-0.0","A11KMXC4ZR5PW2","img_art/15.jpg","1","","","","","","","","","","","","","","","","","","","","","","","","",""
"null","","html-keyboard-response","115","562587","0.0-114.0","A11KMXC4ZR5PW2","<p style=""font-size: 48px;"">+</p>","","","","","null","allTrialResponses","1500","1","10","img_art/15.jpg","-17","Interesting but plain","Anthony,Jesus,Benjamin,Grant,John,Aaron","This piece isn't particularly attractive, but it's not ugly either.,1,200,20","I like the colors and textures.,32,100,20","Reminds me of blueberry bushes.,7,260,20","This elicits no reaction in me.,0,200,20","Uninteresting and too much black,-30,120,20","I like how it's simple but beautiful.,40,20,20","John","Uninteresting and too much black,-30,120,20","Grant","This elicits no reaction in me.,0,200,20","Jesus","I like the colors and textures.,32,100,20","2"
"4562","","survey-text","116","567185","0.0-115.0-0.0","A11KMXC4ZR5PW2","","","","{""Q0"":""our""}","","","","","","","","","","","","","","","","","","","","","","",""
"11890","","survey-text","117","579087","0.0-116.0-0.0","A11KMXC4ZR5PW2","","","","{""Q0"":""Sisyphus in abstract""}","","","","","","","","","","","","","","","","","","","","","","",""
"3191","","image-slider-response","118","582292","0.0-117.0","A11KMXC4ZR5PW2","","","","","24","","","","","","","","","","","","","","","","","","","","","",""
"null","","image-button-response","119","587310","0.0-118.0","A11KMXC4ZR5PW2","img_art/22.jpg","null","","","","","","","","","","","","","","","","","","","","","","","","",""
"1291","","image-button-response","120","588623","0.0-119.0","A11KMXC4ZR5PW2","img_art/22.jpg","0","","","","","","","","","","","","","","","","","","","","","","","","",""
"3568","","image-button-response","121","592214","0.0-120.0-0.0","A11KMXC4ZR5PW2","img_art/22.jpg","3","","","","","","","","","","","","","","","","","","","","","","","","",""
"5451","","image-button-response","122","597681","0.0-121.0-0.0","A11KMXC4ZR5PW2","img_art/22.jpg","1","","","","","","","","","","","","","","","","","","","","","","","","",""
"null","","html-keyboard-response","123","599189","0.0-122.0","A11KMXC4ZR5PW2","<p style=""font-size: 48px;"">+</p>","","","","","null","allTrialResponses","1500","1","11","img_art/22.jpg","24","Sisyphus in abstract","Nicholas,Jesus,Jared,Grant,John,Jason","Pretty colors but something seems sinister about it,25,240,20","Different shapes within the image make it interesting to look at,20,100,20","colorful. but not much happening,1,400,20","The way the colors seem to be reflected is a bit mesmerizing.,10,200,20","Its okay,it doesnt make me feel any sort of strong emotion,1,120,20","Would be better if random black object was not present,11,20,20","Nicholas","Pretty colors but something seems sinister about it,25,240,20","Grant","The way the colors seem to be reflected is a bit mesmerizing.,10,200,20","Jesus","Different shapes within the image make it interesting to look at,20,100,20","2"
"21462","","survey-text","124","620677","0.0-123.0-0.0","A11KMXC4ZR5PW2","","","","{""Q0"":""Foreboding imagery""}","","","","","","","","","","","","","","","","","","","","","","",""
"2790.5","","image-slider-response","125","623483","0.0-124.0","A11KMXC4ZR5PW2","","","","","22","","","","","","","","","","","","","","","","","","","","","",""
"null","","image-button-response","126","628504","0.0-125.0","A11KMXC4ZR5PW2","img_art/8.jpg","null","","","","","","","","","","","","","","","","","","","","","","","","",""
"72","","image-button-response","127","628590","0.0-126.0","A11KMXC4ZR5PW2","img_art/8.jpg","5","","","","","","","","","","","","","","","","","","","","","","","","",""
"3099","","image-button-response","128","631708","0.0-127.0-0.0","A11KMXC4ZR5PW2","img_art/8.jpg","2","","","","","","","","","","","","","","","","","","","","","","","","",""
"1475","","image-button-response","129","633205","0.0-128.0-0.0","A11KMXC4ZR5PW2","img_art/8.jpg","3","","","","","","","","","","","","","","","","","","","","","","","","",""
"null","","html-keyboard-response","130","634716","0.0-129.0","A11KMXC4ZR5PW2","<p style=""font-size: 48px;"">+</p>","","","","","null","allTrialResponses","1500","1","12","img_art/8.jpg","22","Foreboding imagery","Nicholas,Jesus,Corey,Grant,Spencer,Eric","The face bothers me,-25,240,20","The different shapes are fun to look for.,30,100,20","its pretty exciting to look at, there is alot going on,15,260,20","The stylized faces remind me of German expressionism in a very good way.,40,200,20","Nice formats, I just don't like it much,-16,120,20","I love the colors in this piece.,25,100,20","Eric","I love the colors in this piece.,25,100,20","Corey","its pretty exciting to look at, there is alot going on,15,260,20","Grant","The stylized faces remind me of German expressionism in a very good way.,40,200,20","2"
"17323","","survey-text","131","652074","0.0-130.0-0.0","A11KMXC4ZR5PW2","","","","{""Q0"":""Talented but chaotic""}","","","","","","","","","","","","","","","","","","","","","","",""
"1902","","image-slider-response","132","653989","0.0-131.0","A11KMXC4ZR5PW2","","","","","10","","","","","","","","","","","","","","","","","","","","","",""
"null","","image-button-response","133","659005","0.0-132.0","A11KMXC4ZR5PW2","img_art/14.jpg","null","","","","","","","","","","","","","","","","","","","","","","","","",""
"5258","","image-button-response","134","664284","0.0-133.0","A11KMXC4ZR5PW2","img_art/14.jpg","2","","","","","","","","","","","","","","","","","","","","","","","","",""
"1211","","image-button-response","135","665515","0.0-134.0-0.0","A11KMXC4ZR5PW2","img_art/14.jpg","1","","","","","","","","","","","","","","","","","","","","","","","","",""
"3157","","image-button-response","136","668688","0.0-135.0-0.0","A11KMXC4ZR5PW2","img_art/14.jpg","3","","","","","","","","","","","","","","","","","","","","","","","","",""
"null","","html-keyboard-response","137","669198","0.0-136.0","A11KMXC4ZR5PW2","<p style=""font-size: 48px;"">+</p>","","","","","null","allTrialResponses","500","1","13","img_art/14.jpg","10","Talented but chaotic","Caleb,Adam,Corey,Grant,Kenneth,Eric","Again. This is pretty neutral, leaning dislike.,-18,40,20","Very abstract. Unsure of what I'm looking at. No emotions towards it.,-6,40,20","its okay. pretty bland but looks like nature,8,260,20","This elicits no reaction in me.,0,200,20","Its cute, but not my favorite.,8,300,20","I'm imagining a flower bouquet with pretty colors which I like.,35,100,20","Corey","its okay. pretty bland but looks like nature,8,260,20","Adam","Very abstract. Unsure of what I'm looking at. No emotions towards it.,-6,40,20","Grant","This elicits no reaction in me.,0,200,20","2"
"32152","","survey-text","138","701369","0.0-137.0-0.0","A11KMXC4ZR5PW2","","","","{""Q0"":""Evokes image of music""}","","","","","","","","","","","","","","","","","","","","","","",""
"2382.300000190735","","image-slider-response","139","703765","0.0-138.0","A11KMXC4ZR5PW2","","","","","20","","","","","","","","","","","","","","","","","","","","","",""
"null","","image-button-response","140","708785","0.0-139.0","A11KMXC4ZR5PW2","img_art/10.jpg","null","","","","","","","","","","","","","","","","","","","","","","","","",""
"986","","image-button-response","141","709794","0.0-140.0","A11KMXC4ZR5PW2","img_art/10.jpg","5","","","","","","","","","","","","","","","","","","","","","","","","",""
"1260","","image-button-response","142","711068","0.0-141.0-0.0","A11KMXC4ZR5PW2","img_art/10.jpg","3","","","","","","","","","","","","","","","","","","","","","","","","",""
"1891","","image-button-response","143","712973","0.0-142.0-0.0","A11KMXC4ZR5PW2","img_art/10.jpg","2","","","","","","","","","","","","","","","","","","","","","","","","",""
"null","","html-keyboard-response","144","714481","0.0-143.0","A11KMXC4ZR5PW2","<p style=""font-size: 48px;"">+</p>","","","","","null","allTrialResponses","1500","1","14","img_art/10.jpg","20","Evokes image of music","Devon,Adam,Corey,Grant,Cole,Zachary","awww... this looks very nice,32,400,20","I like the contrast,10,40,20","I think this was going to be a guitar but then the artist got mad and gave up,-4,260,20","I love the chaotic feel of the brush strokes.,35,200,20","It confuses me. I dont know whats going on,14,200,20","Reminds me of a terrarium with cacti inside. It reminds me of home.,27,400,20","Zachary","Reminds me of a terrarium with cacti inside. It reminds me of home.,27,400,20","Grant","I love the chaotic feel of the brush strokes.,35,200,20","Corey","I think this was going to be a guitar but then the artist got mad and gave up,-4,260,20","2"
"12570","","survey-text","145","727093","0.0-144.0-0.0","A11KMXC4ZR5PW2","","","","{""Q0"":""Childish and unprofessional""}","","","","","","","","","","","","","","","","","","","","","","",""
"2817.4000000953674","","image-slider-response","146","729923","0.0-145.0","A11KMXC4ZR5PW2","","","","","-33","","","","","","","","","","","","","","","","","","","","","",""
"null","","image-button-response","147","734947","0.0-146.0","A11KMXC4ZR5PW2","img_art/5.jpg","null","","","","","","","","","","","","","","","","","","","","","","","","",""
"141149","","image-button-response","148","876116","0.0-147.0","A11KMXC4ZR5PW2","img_art/5.jpg","0","","","","","","","","","","","","","","","","","","","","","","","","",""
"3208","","image-button-response","149","879348","0.0-148.0-0.0","A11KMXC4ZR5PW2","img_art/5.jpg","4","","","","","","","","","","","","","","","","","","","","","","","","",""
"902","","image-button-response","150","880267","0.0-149.0-0.0","A11KMXC4ZR5PW2","img_art/5.jpg","3","","","","","","","","","","","","","","","","","","","","","","","","",""
"null","","html-keyboard-response","151","881776","0.0-150.0","A11KMXC4ZR5PW2","<p style=""font-size: 48px;"">+</p>","","","","","null","allTrialResponses","1500","1","15","img_art/5.jpg","-33","Childish and unprofessional","Robert,Colton,Corey,Grant,Luis,Zachary","This did not do a thing for me.,-50,360,20","I like the strokes and colors used,20,220,20","simple. love the color scheme,27,260,20","This elicits no reaction in me.,0,200,20","Very messy and not a lot of thought,-29,400,20","Not sure what to make of this one.,-1,400,20","Robert","This did not do a thing for me.,-50,360,20","Luis","Very messy and not a lot of thought,-29,400,20","Grant","This elicits no reaction in me.,0,200,20","2"
"8098","","survey-text","152","889927","0.0-151.0-0.0","A11KMXC4ZR5PW2","","","","{""Q0"":""course""}","","","","","","","","","","","","","","","","","","","","","","",""
"43080","","survey-text","153","933020","0.0-152.0-0.0","A11KMXC4ZR5PW2","","","","{""Q0"":""Watercolor plazas""}","","","","","","","","","","","","","","","","","","","","","","",""
"2118","","image-slider-response","154","935153","0.0-153.0","A11KMXC4ZR5PW2","","","","","16","","","","","","","","","","","","","","","","","","","","","",""
"null","","image-button-response","155","940173","0.0-154.0","A11KMXC4ZR5PW2","img_art/26.jpg","null","","","","","","","","","","","","","","","","","","","","","","","","",""
"8710","","image-button-response","156","948905","0.0-155.0","A11KMXC4ZR5PW2","img_art/26.jpg","5","","","","","","","","","","","","","","","","","","","","","","","","",""
"1846","","image-button-response","157","950767","0.0-156.0-0.0","A11KMXC4ZR5PW2","img_art/26.jpg","3","","","","","","","","","","","","","","","","","","","","","","","","",""
"2878","","image-button-response","158","953660","0.0-157.0-0.0","A11KMXC4ZR5PW2","img_art/26.jpg","0","","","","","","","","","","","","","","","","","","","","","","","","",""
"null","","html-keyboard-response","159","955169","0.0-158.0","A11KMXC4ZR5PW2","<p style=""font-size: 48px;"">+</p>","","","","","null","allTrialResponses","1500","1","16","img_art/26.jpg","16","Watercolor plazas","Robert,Jose,Christian,Grant,Luis,Tanner","Day just begun in the city and the stores are opening their doors.,41,360,20","This style of objects that are supposed to be something but then are blurry is interesting.,38,200,20","love the ""lowkey"" vibrant colors that are colorful but at the same time greyscale,12,140,20","It's a cute city scene. I like the trees.,10,200,20","I dont see any expression,-29,400,20","happy, park, childhood,9,180,20","Tanner","happy, park, childhood,9,180,20","Grant","It's a cute city scene. I like the trees.,10,200,20","Robert","Day just begun in the city and the stores are opening their doors.,41,360,20","2"
"13260","","survey-text","160","968473","0.0-159.0-0.0","A11KMXC4ZR5PW2","","","","{""Q0"":""Aquatic messiness""}","","","","","","","","","","","","","","","","","","","","","","",""
"1846.3000001907349","","image-slider-response","161","970328","0.0-160.0","A11KMXC4ZR5PW2","","","","","18","","","","","","","","","","","","","","","","","","","","","",""
"null","","image-button-response","162","975343","0.0-161.0","A11KMXC4ZR5PW2","img_art/9.jpg","null","","","","","","","","","","","","","","","","","","","","","","","","",""
"7722","","image-button-response","163","983084","0.0-162.0","A11KMXC4ZR5PW2","img_art/9.jpg","4","","","","","","","","","","","","","","","","","","","","","","","","",""
"3810","","image-button-response","164","986906","0.0-163.0-0.0","A11KMXC4ZR5PW2","img_art/9.jpg","3","","","","","","","","","","","","","","","","","","","","","","","","",""
"1758","","image-button-response","165","988679","0.0-164.0-0.0","A11KMXC4ZR5PW2","img_art/9.jpg","2","","","","","","","","","","","","","","","","","","","","","","","","",""
"null","","html-keyboard-response","166","990186","0.0-165.0","A11KMXC4ZR5PW2","<p style=""font-size: 48px;"">+</p>","","","","","null","allTrialResponses","1500","1","17","img_art/9.jpg","18","Aquatic messiness","Robert,Dakota,Dylan,Grant,Gregory,Tanner","Someone sleeping in a cave. Dont like the scribble look.,-30,360,20","autopsy, morgue, dead corpses - don't like the flesh tones,-43,280,20","This picture is too busy and ugly,-20,40,20","The colors are pretty, and remind me of a circus.,5,200,20","Mash up of colors and designs don't really go together,-5,220,20","sleep, calm, safe,12,180,20","Gregory","Mash up of colors and designs don't really go together,-5,220,20","Grant","The colors are pretty, and remind me of a circus.,5,200,20","Dylan","This picture is too busy and ugly,-20,40,20","2"
"15255","","survey-text","167","1005476","0.0-166.0-0.0","A11KMXC4ZR5PW2","","","","{""Q0"":""Scribbled mess""}","","","","","","","","","","","","","","","","","","","","","","",""
"1648.1999998092651","","image-slider-response","168","1007136","0.0-167.0","A11KMXC4ZR5PW2","","","","","-18","","","","","","","","","","","","","","","","","","","","","",""
"4990","","image-button-response","169","1012158","0.0-168.0","A11KMXC4ZR5PW2","img_art/3.jpg","3","","","","","","","","","","","","","","","","","","","","","","","","",""
"1940","","image-button-response","170","1014112","0.0-169.0","A11KMXC4ZR5PW2","img_art/3.jpg","2","","","","","","","","","","","","","","","","","","","","","","","","",""
"1229","","image-button-response","171","1015355","0.0-170.0-0.0","A11KMXC4ZR5PW2","img_art/3.jpg","5","","","","","","","","","","","","","","","","","","","","","","","","",""
"2778","","image-button-response","172","1018154","0.0-171.0-0.0","A11KMXC4ZR5PW2","img_art/3.jpg","3","","","","","","","","","","","","","","","","","","","","","","","","",""
"null","","html-keyboard-response","173","1019662","0.0-172.0","A11KMXC4ZR5PW2","<p style=""font-size: 48px;"">+</p>","","","","","null","allTrialResponses","1500","1","18","img_art/3.jpg","-18","Scribbled mess","Isaiah,Richard,Dylan,Grant,Gregory,Steven","I feel uncomfortable, like I am looking at a crime scene.,-17,300,20","7th grade art, not much effort to do this.,-39,340,20","I could scribble on paper and mimic this,-48,40,20","It looks like the artist was trying too hard to make it chaotic and emotional.,-25,200,20","Looks like somebody squirted ketchup everywhere,-40,220,20","i don't like this, just looks like scribbles,-50,160,20","Dylan","I could scribble on paper and mimic this,-48,40,20","Steven","i don't like this, just looks like scribbles,-50,160,20","Grant","It looks like the artist was trying too hard to make it chaotic and emotional.,-25,200,20","2"
"21771","","survey-text","174","1041447","0.0-173.0-0.0","A11KMXC4ZR5PW2","","","","{""Q0"":""Demonic church images""}","","","","","","","","","","","","","","","","","","","","","","",""
"2552.3999996185303","","image-slider-response","175","1044015","0.0-174.0","A11KMXC4ZR5PW2","","","","","26","","","","","","","","","","","","","","","","","","","","","",""
"null","","image-button-response","176","1049032","0.0-175.0","A11KMXC4ZR5PW2","img_art/27.jpg","null","","","","","","","","","","","","","","","","","","","","","","","","",""
"3360","","image-button-response","177","1052411","0.0-176.0","A11KMXC4ZR5PW2","img_art/27.jpg","1","","","","","","","","","","","","","","","","","","","","","","","","",""
"2229","","image-button-response","178","1054654","0.0-177.0-0.0","A11KMXC4ZR5PW2","img_art/27.jpg","0","","","","","","","","","","","","","","","","","","","","","","","","",""
"1943","","image-button-response","179","1056607","0.0-178.0-0.0","A11KMXC4ZR5PW2","img_art/27.jpg","0","","","","","","","","","","","","","","","","","","","","","","","","",""
"2989","","image-button-response","180","1063238","0.0-178.1-0.1","A11KMXC4ZR5PW2","img_art/27.jpg","4","","","","","","","","","","","","","","","","","","","","","","","","",""
"null","","html-keyboard-response","181","1063748","0.0-179.0","A11KMXC4ZR5PW2","<p style=""font-size: 48px;"">+</p>","","","","","null","allTrialResponses","500","1","19","img_art/27.jpg","26","Demonic church images","Paul,Austin,Dylan,Grant,Peter,Steven","It tries to remind me of the autumn season but it's grey and looks dirty,-5,300,20","Like the abstractness of this picture,20,240,20","This is ugly and looks like a child did this,-36,40,20","This feels like I'm looking at a child's scribbles.,-27,200,20","Calming sky , relaxing,23,320,20","two warring cities, separated by a small desert,50,160,20","Austin","Like the abstractness of this picture,20,240,20","Paul","It tries to remind me of the autumn season but it's grey and looks dirty,-5,300,20","Peter","Calming sky , relaxing,23,320,20","4"
"16900","","survey-text","182","1080691","0.0-180.0-0.0","A11KMXC4ZR5PW2","","","","{""Q0"":""Transfixed portrait""}","","","","","","","","","","","","","","","","","","","","","","",""
"2275.9000000953674","","image-slider-response","183","1082976","0.0-181.0","A11KMXC4ZR5PW2","","","","","22","","","","","","","","","","","","","","","","","","","","","",""
"4541","","image-button-response","184","1087990","0.0-182.0","A11KMXC4ZR5PW2","img_art/17.jpg","3","","","","","","","","","","","","","","","","","","","","","","","","",""
"1891","","image-button-response","185","1089889","0.0-183.0","A11KMXC4ZR5PW2","img_art/17.jpg","1","","","","","","","","","","","","","","","","","","","","","","","","",""
"873","","image-button-response","186","1090776","0.0-184.0-0.0","A11KMXC4ZR5PW2","img_art/17.jpg","2","","","","","","","","","","","","","","","","","","","","","","","","",""
"1722","","image-button-response","187","1092514","0.0-185.0-0.0","A11KMXC4ZR5PW2","img_art/17.jpg","3","","","","","","","","","","","","","","","","","","","","","","","","",""
"null","","html-keyboard-response","188","1093518","0.0-186.0","A11KMXC4ZR5PW2","<p style=""font-size: 48px;"">+</p>","","","","","null","allTrialResponses","1000","1","20","img_art/17.jpg","22","Transfixed portrait","Paul,Austin,Jonathan,Kevin,Peter,Scott","The colors remind me of a sunset and give a bittersweet feeling. It looks unfinished but not terrible.,6,300,20","Has a unique vibe to it,50,240,20","Feels nostalgic somehow,31,140,20","Some new perm we got there.,12,320,20","I feel okay , it's like a tree,28,320,20","pretty bland in coloring,1,20,20","Austin","Has a unique vibe to it,50,240,20","Jonathan","Feels nostalgic somehow,31,140,20","Kevin","Some new perm we got there.,12,320,20","4"
"4456","","survey-text","189","1097992","0.0-187.0-0.0","A11KMXC4ZR5PW2","","","","{""Q0"":""we""}","","","","","","","","","","","","","","","","","","","","","","",""
"14132","","survey-text","190","1112135","0.0-188.0-0.0","A11KMXC4ZR5PW2","","","","{""Q0"":""Desolation crow""}","","","","","","","","","","","","","","","","","","","","","","",""
"3099.0999999046326","","image-slider-response","191","1115244","0.0-189.0","A11KMXC4ZR5PW2","","","","","-18","","","","","","","","","","","","","","","","","","","","","",""
"3522","","image-button-response","192","1120256","0.0-190.0","A11KMXC4ZR5PW2","img_art/6.jpg","5","","","","","","","","","","","","","","","","","","","","","","","","",""
"269","","image-button-response","193","1120545","0.0-191.0","A11KMXC4ZR5PW2","img_art/6.jpg","3","","","","","","","","","","","","","","","","","","","","","","","","",""
"33607","","image-button-response","194","1154172","0.0-192.0-0.0","A11KMXC4ZR5PW2","img_art/6.jpg","0","","","","","","","","","","","","","","","","","","","","","","","","",""
"3839","","image-button-response","195","1158033","0.0-193.0-0.0","A11KMXC4ZR5PW2","img_art/6.jpg","5","","","","","","","","","","","","","","","","","","","","","","","","",""
"null","","html-keyboard-response","196","1159043","0.0-194.0","A11KMXC4ZR5PW2","<p style=""font-size: 48px;"">+</p>","","","","","null","allTrialResponses","1000","1","21","img_art/6.jpg","-18","Desolation crow","David,Austin,Jonathan,Kevin,Luke,Jake","I like the simplicity of the piece.,10,340,20","Love the simplicity of it,41,240,20","The colors and rough brush strokes make me nervous,-10,140,20","Its the headless bird. But why?,21,320,20","i like it but it is very neutral,9,20,20","It feels sad but it's nice to look at.,4,360,20","Kevin","Its the headless bird. But why?,21,320,20","David","I like the simplicity of the piece.,10,340,20","Jake","It feels sad but it's nice to look at.,4,360,20","4"
"13006","","survey-text","197","1172098","0.0-195.0-0.0","A11KMXC4ZR5PW2","","","","{""Q0"":""Rich waterfuls""}","","","","","","","","","","","","","","","","","","","","","","",""
"3173.7000002861023","","image-slider-response","198","1175289","0.0-196.0","A11KMXC4ZR5PW2","","","","","16","","","","","","","","","","","","","","","","","","","","","",""
"3989","","image-button-response","199","1180310","0.0-197.0","A11KMXC4ZR5PW2","img_art/24.jpg","1","","","","","","","","","","","","","","","","","","","","","","","","",""
"2113","","image-button-response","200","1182441","0.0-198.0","A11KMXC4ZR5PW2","img_art/24.jpg","3","","","","","","","","","","","","","","","","","","","","","","","","",""
"2248","","image-button-response","201","1184706","0.0-199.0-0.0","A11KMXC4ZR5PW2","img_art/24.jpg","4","","","","","","","","","","","","","","","","","","","","","","","","",""
"2571","","image-button-response","202","1187292","0.0-200.0-0.0","A11KMXC4ZR5PW2","img_art/24.jpg","1","","","","","","","","","","","","","","","","","","","","","","","","",""
"null","","html-keyboard-response","203","1188797","0.0-201.0","A11KMXC4ZR5PW2","<p style=""font-size: 48px;"">+</p>","","","","","null","allTrialResponses","1500","1","22","img_art/24.jpg","16","Rich waterfuls","David,Dustin,Mitchell,Kevin,Mason,Jake","Invokes a strong sense of nature, since the piece can interpreted as a stream or an abstracted bird.,40,340,20","I see a waterfall, which is relaxing and peaceful!  I like the blue coloring,30,20,20","Nature, Peace, connected.,50,180,20","What a nice refreshing waterfall.,39,320,20","Nature, abstract, I'd hang this in my house.,37,100,20","This looks ugly and simple, as if done by a young person.,-2,360,20","Kevin","What a nice refreshing waterfall.,39,320,20","Mason","Nature, abstract, I'd hang this in my house.,37,100,20","Dustin","I see a waterfall, which is relaxing and peaceful!  I like the blue coloring,30,20,20","4"
"14933","","survey-text","204","1203744","0.0-202.0-0.0","A11KMXC4ZR5PW2","","","","{""Q0"":""Gorgeous and textured""}","","","","","","","","","","","","","","","","","","","","","","",""
"2054.2999997138977","","image-slider-response","205","1205811","0.0-203.0","A11KMXC4ZR5PW2","","","","","25","","","","","","","","","","","","","","","","","","","","","",""
"4804","","image-button-response","206","1210829","0.0-204.0","A11KMXC4ZR5PW2","img_art/7.jpg","1","","","","","","","","","","","","","","","","","","","","","","","","",""
"3285","","image-button-response","207","1214133","0.0-205.0","A11KMXC4ZR5PW2","img_art/7.jpg","3","","","","","","","","","","","","","","","","","","","","","","","","",""
"4644","","image-button-response","208","1218789","0.0-206.0-0.0","A11KMXC4ZR5PW2","img_art/7.jpg","4","","","","","","","","","","","","","","","","","","","","","","","","",""
"4268","","image-button-response","209","1223076","0.0-207.0-0.0","A11KMXC4ZR5PW2","img_art/7.jpg","1","","","","","","","","","","","","","","","","","","","","","","","","",""
"null","","html-keyboard-response","210","1224586","0.0-208.0","A11KMXC4ZR5PW2","<p style=""font-size: 48px;"">+</p>","","","","","null","allTrialResponses","1500","1","23","img_art/7.jpg","25","Gorgeous and textured","Adrian,Dustin,Devin,Kevin,Mason,Elijah","It's dirty. I don't mind the colors so much as the way they are put together in this dirty-looking pattern.,-41,60,20","I see dryness, which is sad. Dirt, sand, the dessert. Barren dry lifeless,-30,20,20","Not very big on the sameness here,-20,380,20","That a desert floor,16,320,20","I don't get it. looks like a picture of the ground.,-42,100,20","Not highly impressed,-5,80,20","Kevin","That a desert floor,16,320,20","Mason","I don't get it. looks like a picture of the ground.,-42,100,20","Dustin","I see dryness, which is sad. Dirt, sand, the dessert. Barren dry lifeless,-30,20,20","4"
"13483","","survey-text","211","1238096","0.0-209.0-0.0","A11KMXC4ZR5PW2","","","","{""Q0"":""Nightmare conference""}","","","","","","","","","","","","","","","","","","","","","","",""
"1472.4000000953674","","image-slider-response","212","1239582","0.0-210.0","A11KMXC4ZR5PW2","","","","","23","","","","","","","","","","","","","","","","","","","","","",""
"null","","image-button-response","213","1244605","0.0-211.0","A11KMXC4ZR5PW2","img_art/28.jpg","null","","","","","","","","","","","","","","","","","","","","","","","","",""
"1755","","image-button-response","214","1246381","0.0-212.0","A11KMXC4ZR5PW2","img_art/28.jpg","3","","","","","","","","","","","","","","","","","","","","","","","","",""
"3019","","image-button-response","215","1249419","0.0-213.0-0.0","A11KMXC4ZR5PW2","img_art/28.jpg","1","","","","","","","","","","","","","","","","","","","","","","","","",""
"2217","","image-button-response","216","1251655","0.0-214.0-0.0","A11KMXC4ZR5PW2","img_art/28.jpg","2","","","","","","","","","","","","","","","","","","","","","","","","",""
"null","","html-keyboard-response","217","1252163","0.0-215.0","A11KMXC4ZR5PW2","<p style=""font-size: 48px;"">+</p>","","","","","null","allTrialResponses","500","1","24","img_art/28.jpg","23","Nightmare conference","Juan,Dustin,Bryce,Kevin,Mason,Nathaniel","It's such a blah piece and way too abstract.,-50,260,20","Like the muted pink colors. However, the mood is sad because of the blurriness,22,20,20","It gives me weird vibes.,-25,20,20","Looks like some guys in s band playing at a busy park.,18,320,20","bland busy ugly,-31,100,20","Has an air of darkness to it, but no real substance besides the mouse-like thing.,-38,220,20","Kevin","Looks like some guys in s band playing at a busy park.,18,320,20","Dustin","Like the muted pink colors. However, the mood is sad because of the blurriness,22,20,20","Bryce","It gives me weird vibes.,-25,20,20","4"
"11281","","survey-text","218","1263495","0.0-216.0-0.0","A11KMXC4ZR5PW2","","","","{""Q0"":""Rainy splatters""}","","","","","","","","","","","","","","","","","","","","","","",""
"5011.800000190735","","image-slider-response","219","1268524","0.0-217.0","A11KMXC4ZR5PW2","","","","","47","","","","","","","","","","","","","","","","","","","","","",""
"3685","","image-button-response","220","1273544","0.0-218.0","A11KMXC4ZR5PW2","img_art/13.jpg","5","","","","","","","","","","","","","","","","","","","","","","","","",""
"1209","","image-button-response","221","1274773","0.0-219.0","A11KMXC4ZR5PW2","img_art/13.jpg","1","","","","","","","","","","","","","","","","","","","","","","","","",""
"4003","","image-button-response","222","1278789","0.0-220.0-0.0","A11KMXC4ZR5PW2","img_art/13.jpg","0","","","","","","","","","","","","","","","","","","","","","","","","",""
"1494","","image-button-response","223","1280305","0.0-221.0-0.0","A11KMXC4ZR5PW2","img_art/13.jpg","5","","","","","","","","","","","","","","","","","","","","","","","","",""
"null","","html-keyboard-response","224","1281316","0.0-222.0","A11KMXC4ZR5PW2","<p style=""font-size: 48px;"">+</p>","","","","","null","allTrialResponses","1000","1","25","img_art/13.jpg","47","Rainy splatters","Andrew,Dustin,Bryce,Kevin,Garrett,Joseph","It makes me think of sitting inside on a rainy day while drinking a warm coffee,32,160,20","Cool and calming colors. I like splatter art.,10,20,20","My favorite!,47,20,20","Debree on top of a calm pond.,18,320,20","It looks like someone splattered a bunch of different colors to make a picture; I think its ugly.,-40,180,20","Pleasing, happy, rainy.,12,220,20","Dustin","Cool and calming colors. I like splatter art.,10,20,20","Andrew","It makes me think of sitting inside on a rainy day while drinking a warm coffee,32,160,20","Joseph","Pleasing, happy, rainy.,12,220,20","4"
"6307","","survey-text","225","1287683","0.0-223.0-0.0","A11KMXC4ZR5PW2","","","","{""Q0"":""table""}","","","","","","","","","","","","","","","","","","","","","","",""
"19487","","survey-text","226","1307183","0.0-224.0-0.0","A11KMXC4ZR5PW2","","","","{""Q0"":""Vesuvius before eruption""}","","","","","","","","","","","","","","","","","","","","","","",""
"4083.7000002861023","","image-slider-response","227","1311278","0.0-225.0","A11KMXC4ZR5PW2","","","","","43","","","","","","","","","","","","","","","","","","","","","",""
"null","","image-button-response","228","1316285","0.0-226.0","A11KMXC4ZR5PW2","img_art/19.jpg","null","","","","","","","","","","","","","","","","","","","","","","","","",""
"3948","","image-button-response","229","1320246","0.0-227.0","A11KMXC4ZR5PW2","img_art/19.jpg","0","","","","","","","","","","","","","","","","","","","","","","","","",""
"4706","","image-button-response","230","1324976","0.0-228.0-0.0","A11KMXC4ZR5PW2","img_art/19.jpg","5","","","","","","","","","","","","","","","","","","","","","","","","",""
"3475","","image-button-response","231","1328470","0.0-229.0-0.0","A11KMXC4ZR5PW2","img_art/19.jpg","2","","","","","","","","","","","","","","","","","","","","","","","","",""
"null","","html-keyboard-response","232","1329978","0.0-230.0","A11KMXC4ZR5PW2","<p style=""font-size: 48px;"">+</p>","","","","","null","allTrialResponses","1500","1","26","img_art/19.jpg","43","Vesuvius before eruption","Andrew,Dustin,Kyle,Tyler,Angel,Joseph","It reminds me of sitting at a cafe on the side of a river.,45,160,20","Too busy, makes me anxious and frustrated. Lots of movement in the brush strokes.,-9,20,20","Just stirred a negative reaction. Don't really like it perhaps because of the structure?,-8,340,20","Seems unfinished and sloppy,-11,320,20","This one feels pretty neutral. Like a window into someone's life, one person in a bustling metropolis.,0,180,20","Too messy and busy. Too much going on there for me.,-12,220,20","Andrew","It reminds me of sitting at a cafe on the side of a river.,45,160,20","Joseph","Too messy and busy. Too much going on there for me.,-12,220,20","Kyle","Just stirred a negative reaction. Don't really like it perhaps because of the structure?,-8,340,20","4"
"24334","","survey-text","233","1354325","0.0-231.0-0.0","A11KMXC4ZR5PW2","","","","{""Q0"":""Tortured and bleak""}","","","","","","","","","","","","","","","","","","","","","","",""
"1485.3999996185303","","image-slider-response","234","1355824","0.0-232.0","A11KMXC4ZR5PW2","","","","","25","","","","","","","","","","","","","","","","","","","","","",""
"3468","","image-button-response","235","1360846","0.0-233.0","A11KMXC4ZR5PW2","img_art/16.jpg","4","","","","","","","","","","","","","","","","","","","","","","","","",""
"3107","","image-button-response","236","1363972","0.0-234.0","A11KMXC4ZR5PW2","img_art/16.jpg","2","","","","","","","","","","","","","","","","","","","","","","","","",""
"1325","","image-button-response","237","1365311","0.0-235.0-0.0","A11KMXC4ZR5PW2","img_art/16.jpg","5","","","","","","","","","","","","","","","","","","","","","","","","",""
"2911","","image-button-response","238","1368239","0.0-236.0-0.0","A11KMXC4ZR5PW2","img_art/16.jpg","0","","","","","","","","","","","","","","","","","","","","","","","","",""
"null","","html-keyboard-response","239","1368750","0.0-237.0","A11KMXC4ZR5PW2","<p style=""font-size: 48px;"">+</p>","","","","","null","allTrialResponses","500","1","27","img_art/16.jpg","25","Tortured and bleak","Andrew,William,Kyle,Ian,Miguel,Joseph","It just makes me feel uncomfortable,-25,160,20","liked the bear, nothing else made sense,10,380,20","I like it because it's quite different from the rest,23,340,20","This looks like it was made by an art student filled with angst,-30,260,20","Very cool abstraction.,19,160,20","Looks upsetting. Like it's actually graphic violence but you can't tell.,-24,220,20","Kyle","I like it because it's quite different from the rest,23,340,20","Joseph","Looks upsetting. Like it's actually graphic violence but you can't tell.,-24,220,20","Andrew","It just makes me feel uncomfortable,-25,160,20","4"
"22033","","survey-text","240","1390833","0.0-238.0-0.0","A11KMXC4ZR5PW2","","","","{""Q0"":""Psychedelic fossils""}","","","","","","","","","","","","","","","","","","","","","","",""
"1847.1999998092651","","image-slider-response","241","1392690","0.0-239.0","A11KMXC4ZR5PW2","","","","","17","","","","","","","","","","","","","","","","","","","","","",""
"null","","image-button-response","242","1397705","0.0-240.0","A11KMXC4ZR5PW2","img_art/23.jpg","null","","","","","","","","","","","","","","","","","","","","","","","","",""
"347","","image-button-response","243","1398068","0.0-241.0","A11KMXC4ZR5PW2","img_art/23.jpg","1","","","","","","","","","","","","","","","","","","","","","","","","",""
"1575","","image-button-response","244","1399656","0.0-242.0-0.0","A11KMXC4ZR5PW2","img_art/23.jpg","0","","","","","","","","","","","","","","","","","","","","","","","","",""
"2215","","image-button-response","245","1401886","0.0-243.0-0.0","A11KMXC4ZR5PW2","img_art/23.jpg","3","","","","","","","","","","","","","","","","","","","","","","","","",""
"null","","html-keyboard-response","246","1402393","0.0-244.0","A11KMXC4ZR5PW2","<p style=""font-size: 48px;"">+</p>","","","","","null","allTrialResponses","500","1","28","img_art/23.jpg","17","Psychedelic fossils","Andrew,Taylor,Kyle,Jesse,Cameron,Joseph","The color contrast makes me happy,40,160,20","SOME thought was put into this one.,5,200,20","Mostly neutral but a bit too guady with the brash colors,-6,340,20","Makes me want to stare at it for hours. Like there is something deeper to find.,37,80,20","looks like those paper chain things.,0,60,20","Like a wound that has been sutured. Pain, but also healing.,5,220,20","Taylor","SOME thought was put into this one.,5,200,20","Andrew","The color contrast makes me happy,40,160,20","Jesse","Makes me want to stare at it for hours. Like there is something deeper to find.,37,80,20","4"
"12691","","survey-text","247","1415132","0.0-245.0-0.0","A11KMXC4ZR5PW2","","","","{""Q0"":""Sea monster awakens""}","","","","","","","","","","","","","","","","","","","","","","",""
"3477.9000000953674","","image-slider-response","248","1418624","0.0-246.0","A11KMXC4ZR5PW2","","","","","33","","","","","","","","","","","","","","","","","","","","","",""
"null","","image-button-response","249","1423644","0.0-247.0","A11KMXC4ZR5PW2","img_art/21.jpg","null","","","","","","","","","","","","","","","","","","","","","","","","",""
"1944","","image-button-response","250","1425609","0.0-248.0","A11KMXC4ZR5PW2","img_art/21.jpg","0","","","","","","","","","","","","","","","","","","","","","","","","",""
"1388","","image-button-response","251","1427012","0.0-249.0-0.0","A11KMXC4ZR5PW2","img_art/21.jpg","1","","","","","","","","","","","","","","","","","","","","","","","","",""
"3943","","image-button-response","252","1430969","0.0-250.0-0.0","A11KMXC4ZR5PW2","img_art/21.jpg","4","","","","","","","","","","","","","","","","","","","","","","","","",""
"null","","html-keyboard-response","253","1431476","0.0-251.0","A11KMXC4ZR5PW2","<p style=""font-size: 48px;"">+</p>","","","","","null","allTrialResponses","500","1","29","img_art/21.jpg","33","Sea monster awakens","Andrew,Taylor,Bradley,Jesse,Thomas,Antonio","I love the contrasting tones between the two sides,36,160,20","Remove the rocks(?) on the lower right.,5,200,20","Indifferent toward this one.,6,300,20","I dont like how nothing is defined and the colors dont work for me,-5,80,20","Again, I love the use of color,50,220,20","the colors are pretty but I did not feel any thing looking at it,33,220,20","Andrew","I love the contrasting tones between the two sides,36,160,20","Taylor","Remove the rocks(?) on the lower right.,5,200,20","Thomas","Again, I love the use of color,50,220,20","4"
"18802","","survey-text","254","1450329","0.0-252.0-0.0","A11KMXC4ZR5PW2","","","","{""Q0"":""Dreams of fallen warriors""}","","","","","","","","","","","","","","","","","","","","","","",""
"5513.700000286102","","image-slider-response","255","1455857","0.0-253.0","A11KMXC4ZR5PW2","","","","","48","","","","","","","","","","","","","","","","","","","","","",""
"4715","","image-button-response","256","1460880","0.0-254.0","A11KMXC4ZR5PW2","img_art/25.jpg","0","","","","","","","","","","","","","","","","","","","","","","","","",""
"1907","","image-button-response","257","1462805","0.0-255.0","A11KMXC4ZR5PW2","img_art/25.jpg","3","","","","","","","","","","","","","","","","","","","","","","","","",""
"1903","","image-button-response","258","1464727","0.0-256.0-0.0","A11KMXC4ZR5PW2","img_art/25.jpg","5","","","","","","","","","","","","","","","","","","","","","","","","",""
"1491","","image-button-response","259","1466237","0.0-257.0-0.0","A11KMXC4ZR5PW2","img_art/25.jpg","0","","","","","","","","","","","","","","","","","","","","","","","","",""
"null","","html-keyboard-response","260","1467746","0.0-258.0","A11KMXC4ZR5PW2","<p style=""font-size: 48px;"">+</p>","","","","","null","allTrialResponses","1500","1","30","img_art/25.jpg","48","Dreams of fallen warriors","Andrew,Taylor,Marcus,Jeremy,Thomas,Evan","It makes me feel a little uneasy, but I like the painting,11,160,20","Wish I was that thin.,-5,200,20","Ugly green color and don't like it at all,-30,60,20","reminds me of ancient history which makes me happy,40,60,20","I like the design but the brightness of the color feels almost blinding to me.,-3,220,20","I really like the green and the fact that it is tattered on the edges,23,140,20","Jeremy","reminds me of ancient history which makes me happy,40,60,20","Evan","I really like the green and the fact that it is tattered on the edges,23,140,20","Andrew","It makes me feel a little uneasy, but I like the painting,11,160,20","4"
"6702","","image-button-response_instructions","261","1474507","0.0-259.0","A11KMXC4ZR5PW2","","0","instructions","","","","","","","","","","","","","","","","","","","","","","","",""
"2589","","image-button-response","262","1477144","0.0-260.0","A11KMXC4ZR5PW2","","0","","","","","","","","","","","","","","","","","","","","","","","","",""
