"rt","url","trial_type","trial_index","time_elapsed","internal_node_id","participant_id","stimulus","button_pressed","Name","responses","response","key_press","variableName","fixationTime","condition","trial","photo","subjectRating","subjectResponse","agentsNames","agent_1_Response","agent_2_Response","agent_3_Response","agent_4_Response","agent_5_Response","agent_6_Response","kept_1_name","kept_1_response","kept_2_name","kept_2_response","kept_3_name","kept_3_response","errorCounter"
"136526","external_page_harvard.html","external-html","0","136581","0.0-0.0","A13CXQGLSH6QY8","","","","","","","","","","","","","","","","","","","","","","","","","","",""
"3026","","image-button-response","1","139622","0.0-1.0","A13CXQGLSH6QY8","","1","","","","","","","","","","","","","","","","","","","","","","","","",""
"5774","","image-button-response","2","145412","0.0-2.0-0.0","A13CXQGLSH6QY8","","1","phone","","","","","","","","","","","","","","","","","","","","","","","",""
"3764","","survey-text","3","149176","0.0-3.0-0.0","A13CXQGLSH6QY8","","","","{""Q0"":""A13CXQGLSH6QY8""}","","","","","","","","","","","","","","","","","","","","","","",""
"30175","","image-button-response_instructions","4","179351","0.0-4.0","A13CXQGLSH6QY8","","0","instructions","","","","","","","","","","","","","","","","","","","","","","","",""
"35069","","image-button-response_instructions","5","214422","0.0-5.0","A13CXQGLSH6QY8","img_art/ins/popularity/ins1.png","0","instructions","","","","","","","","","","","","","","","","","","","","","","","",""
"13052","","image-button-response_instructions","6","227474","0.0-6.0","A13CXQGLSH6QY8","img_art/ins/popularity/ins2.png","0","instructions","","","","","","","","","","","","","","","","","","","","","","","",""
"19083","","image-button-response_instructions","7","246573","0.0-7.0","A13CXQGLSH6QY8","img_art/ins/popularity/ins2Extreme.png","0","instructions","","","","","","","","","","","","","","","","","","","","","","","",""
"140962","","image-button-response_instructions","8","387550","0.0-8.0","A13CXQGLSH6QY8","img_art/ins/popularity/ins3KEEPpop.PNG","0","instructions","","","","","","","","","","","","","","","","","","","","","","","",""
"13951","","image-button-response_instructions","9","401501","0.0-9.0","A13CXQGLSH6QY8","img_art/ins/popularity/ins3ANamepop.PNG","0","instructions","","","","","","","","","","","","","","","","","","","","","","","",""
"8734","","image-button-response_instructions","10","410235","0.0-10.0","A13CXQGLSH6QY8","img_art/ins/popularity/ins3ARatingpop.png","0","instructions","","","","","","","","","","","","","","","","","","","","","","","",""
"7733","","image-button-response_instructions","11","417983","0.0-11.0","A13CXQGLSH6QY8","img_art/ins/popularity/ins3ATextpop.png","0","instructions","","","","","","","","","","","","","","","","","","","","","","","",""
"13758","","image-button-response_instructions","12","431741","0.0-12.0","A13CXQGLSH6QY8","img_art/ins/popularity/ins3ALikespop.png","0","instructions","","","","","","","","","","","","","","","","","","","","","","","",""
"17973","","image-button-response_instructions","13","449714","0.0-13.0","A13CXQGLSH6QY8","img_art/ins/popularity/ins3KEEPpop.PNG","0","instructions","","","","","","","","","","","","","","","","","","","","","","","",""
"16368","","image-button-response_instructions","14","466082","0.0-14.0","A13CXQGLSH6QY8","img_art/ins/popularity/ins3_5RED.png","0","instructions","","","","","","","","","","","","","","","","","","","","","","","",""
"10531","","image-button-response_instructions","15","476613","0.0-15.0","A13CXQGLSH6QY8","img_art/ins/popularity/ins3KEEPpop.PNG","0","instructions","","","","","","","","","","","","","","","","","","","","","","","",""
"12010","","image-button-response_instructions","16","488623","0.0-16.0","A13CXQGLSH6QY8","img_art/ins/popularity/ins4KEEPpop.PNG","0","instructions","","","","","","","","","","","","","","","","","","","","","","","",""
"7624","","image-button-response_instructions","17","496247","0.0-17.0","A13CXQGLSH6QY8","img_art/ins/popularity/ins5KEEPpop.PNG","0","instructions","","","","","","","","","","","","","","","","","","","","","","","",""
"2598","","image-button-response_instructions","18","498845","0.0-18.0","A13CXQGLSH6QY8","","0","instructions","","","","","","","","","","","","","","","","","","","","","","","",""
"19864","","survey-text","19","518760","0.0-19.0-0.0","A13CXQGLSH6QY8","","","","{""Q0"":""BUT""}","","","","","","","","","","","","","","","","","","","","","","",""
"4671","","survey-text","20","528501","0.0-19.1-0.1","A13CXQGLSH6QY8","","","","{""Q0"":""but""}","","","","","","","","","","","","","","","","","","","","","","",""
"25235","","survey-text","21","553736","0.0-20.0-0.0","A13CXQGLSH6QY8","","","","{""Q0"":""The colors are pretty.""}","","","","","","","","","","","","","","","","","","","","","","",""
"15657","","image-slider-response","22","569393","0.0-21.0","A13CXQGLSH6QY8","","","","","3","","","","","","","","","","","","","","","","","","","","","",""
"null","","image-button-response","23","574393","0.0-22.0","A13CXQGLSH6QY8","img_art/ins/1.jpg","null","","","","","","","","","","","","","","","","","","","","","","","","",""
"15761","","image-button-response","24","590156","0.0-23.0","A13CXQGLSH6QY8","img_art/ins/1.jpg","5","","","","","","","","","","","","","","","","","","","","","","","","",""
"8635","","image-button-response","25","598807","0.0-24.0-0.0","A13CXQGLSH6QY8","img_art/ins/1.jpg","2","","","","","","","","","","","","","","","","","","","","","","","","",""
"7697","","image-button-response","26","606504","0.0-25.0-0.0","A13CXQGLSH6QY8","img_art/ins/1.jpg","0","","","","","","","","","","","","","","","","","","","","","","","","",""
"null","","html-keyboard-response","27","608004","0.0-26.0","A13CXQGLSH6QY8","<p style=""font-size: 48px;"">+</p>","","","","","null","allTrialResponses","1500","1","-2","img_art/ins/1.jpg","3","The colors are pretty.","Allison,Ashley,Beth,Dora,Erika,Jen","looks like a lot of things going on in the mist,20,20,20","I just don't get why these type of art would be popular,-32,40,20","This color reminds me of poo,-46,60,20","looks like what my niece in 3rd grade did this afternoon,-50,80,20","I like the sophisticated brushwork,40,100,20","It reminds me of a candy land dream I had,36,120,20","Jen","It reminds me of a candy land dream I had,36,120,20","Beth","This color reminds me of poo,-46,60,20","Allison","looks like a lot of things going on in the mist,20,20,20","1"
"25468","","survey-text","28","633477","0.0-27.0-0.0","A13CXQGLSH6QY8","","","","{""Q0"":""My Grandson paints like this""}","","","","","","","","","","","","","","","","","","","","","","",""
"6747","","image-slider-response","29","640224","0.0-28.0","A13CXQGLSH6QY8","","","","","7","","","","","","","","","","","","","","","","","","","","","",""
"null","","image-button-response","30","645224","0.0-29.0","A13CXQGLSH6QY8","img_art/ins/2.jpg","null","","","","","","","","","","","","","","","","","","","","","","","","",""
"4611","","image-button-response","31","649837","0.0-30.0","A13CXQGLSH6QY8","img_art/ins/2.jpg","5","","","","","","","","","","","","","","","","","","","","","","","","",""
"9317","","image-button-response","32","659154","0.0-31.0-0.0","A13CXQGLSH6QY8","img_art/ins/2.jpg","4","","","","","","","","","","","","","","","","","","","","","","","","",""
"5869","","image-button-response","33","665023","0.0-32.0-0.0","A13CXQGLSH6QY8","img_art/ins/2.jpg","1","","","","","","","","","","","","","","","","","","","","","","","","",""
"null","","html-keyboard-response","34","666523","0.0-33.0","A13CXQGLSH6QY8","<p style=""font-size: 48px;"">+</p>","","","","","null","allTrialResponses","1500","1","-1","img_art/ins/2.jpg","7","My Grandson paints like this","Allison,Katie,Beth,Jenna,Kara,Jen","I don't have strong feelings about this,10,20,20","too much color!,-28,180,20","meaningless painting,-45,60,20","One of my pet peevs,-48,140,20","I like the blocks of color arrangements,30,160,20","It reminds me of a fireplace,36,120,20","Jen","It reminds me of a fireplace,36,120,20","Kara","I like the blocks of color arrangements,30,160,20","Katie","too much color!,-28,180,20","1"
"20877","","survey-text","35","687405","0.0-34.0-0.0","A13CXQGLSH6QY8","","","","{""Q0"":""Looks like a blue rainstorm""}","","","","","","","","","","","","","","","","","","","","","","",""
"3848","","image-slider-response","36","691253","0.0-35.0","A13CXQGLSH6QY8","","","","","18","","","","","","","","","","","","","","","","","","","","","",""
"null","","image-button-response","37","696253","0.0-36.0","A13CXQGLSH6QY8","img_art/ins/3.jpg","null","","","","","","","","","","","","","","","","","","","","","","","","",""
"1169","","image-button-response","38","697424","0.0-37.0","A13CXQGLSH6QY8","img_art/ins/3.jpg","5","","","","","","","","","","","","","","","","","","","","","","","","",""
"6898","","image-button-response","39","704322","0.0-38.0-0.0","A13CXQGLSH6QY8","img_art/ins/3.jpg","2","","","","","","","","","","","","","","","","","","","","","","","","",""
"7782","","image-button-response","40","712120","0.0-39.0-0.0","A13CXQGLSH6QY8","img_art/ins/3.jpg","4","","","","","","","","","","","","","","","","","","","","","","","","",""
"null","","html-keyboard-response","41","712630","0.0-40.0","A13CXQGLSH6QY8","<p style=""font-size: 48px;"">+</p>","","","","","null","allTrialResponses","500","1","0","img_art/ins/3.jpg","18","Looks like a blue rainstorm","Rose,Katie,Mary,Leslie,Kara,Jen","My daily routine, it's depressing,-20,240,20","It looks depressing,-26,180,20","I like the overlapping of brushes,41,220,20","It's an alright work,15,200,20","calming blue is very nice,36,160,20","I can feel a rainy day from this painting,18,120,20","Jen","I can feel a rainy day from this painting,18,120,20","Mary","I like the overlapping of brushes,41,220,20","Kara","calming blue is very nice,36,160,20","1"
"5574","","image-button-response_instructions","42","718204","0.0-41.0","A13CXQGLSH6QY8","","0","instructions","","","","","","","","","","","","","","","","","","","","","","","",""
"23525","","survey-likert","43","741729","0.0-42.0-0.0","A13CXQGLSH6QY8","","","","{""Q0"":"""",""Q1"":1,""Q2"":1}","","","","","","","","","","","","","","","","","","","","","","",""
"11190","","survey-likert","44","755172","0.0-42.1-0.1","A13CXQGLSH6QY8","","","","{""Q0"":"""",""Q1"":0,""Q2"":1}","","","","","","","","","","","","","","","","","","","","","","",""
"6445","","survey-text","45","761617","0.0-43.0-0.0","A13CXQGLSH6QY8","","","","{""Q0"":""rock""}","","","","","","","","","","","","","","","","","","","","","","",""
"23450","","survey-text","46","785067","0.0-44.0-0.0","A13CXQGLSH6QY8","","","","{""Q0"":""looks kind of weird to me""}","","","","","","","","","","","","","","","","","","","","","","",""
"4300","","image-slider-response","47","789366","0.0-45.0","A13CXQGLSH6QY8","","","","","-24","","","","","","","","","","","","","","","","","","","","","",""
"null","","image-button-response","48","794439","0.0-46.0","A13CXQGLSH6QY8","img_art/12.jpg","null","","","","","","","","","","","","","","","","","","","","","","","","",""
"3426","","image-button-response","49","797865","0.0-47.0","A13CXQGLSH6QY8","img_art/12.jpg","5","","","","","","","","","","","","","","","","","","","","","","","","",""
"14465","","image-button-response","50","812330","0.0-48.0-0.0","A13CXQGLSH6QY8","img_art/12.jpg","4","","","","","","","","","","","","","","","","","","","","","","","","",""
"10557","","image-button-response","51","822887","0.0-49.0-0.0","A13CXQGLSH6QY8","img_art/12.jpg","2","","","","","","","","","","","","","","","","","","","","","","","","",""
"null","","html-keyboard-response","52","823895","0.0-50.0","A13CXQGLSH6QY8","<p style=""font-size: 48px;"">+</p>","","","","","null","allTrialResponses","1000","1","1","img_art/12.jpg","-24","looks kind of weird to me","Samantha,Bailey,Vanessa,Paige,Erika,Rachel","It is interesting but seems like some cheap painting from like walmart,24,140,20","Too many blocks. I can't see a purpose or a focal point,-44,360,20","This is too abstract and the colors are too worn out.,-23,380,20","do not like it. Seems too busy,-10,60,20","I don't like it, but I appreciate the effort and technique,11,100,20","I like how it's split into tiny squares, but otherwise, not very intriguing.,-18,80,20","Rachel","I like how it's split into tiny squares, but otherwise, not very intriguing.,-18,80,20","Erika","I don't like it, but I appreciate the effort and technique,11,100,20","Vanessa","This is too abstract and the colors are too worn out.,-23,380,20","2"
"28449","","survey-text","53","852344","0.0-51.0-0.0","A13CXQGLSH6QY8","","","","{""Q0"":""Looks like a shipping port""}","","","","","","","","","","","","","","","","","","","","","","",""
"4440","","image-slider-response","54","856784","0.0-52.0","A13CXQGLSH6QY8","","","","","7","","","","","","","","","","","","","","","","","","","","","",""
"null","","image-button-response","55","861789","0.0-53.0","A13CXQGLSH6QY8","img_art/11.jpg","null","","","","","","","","","","","","","","","","","","","","","","","","",""
"9405","","image-button-response","56","871194","0.0-54.0","A13CXQGLSH6QY8","img_art/11.jpg","4","","","","","","","","","","","","","","","","","","","","","","","","",""
"1895","","image-button-response","57","873105","0.0-55.0-0.0","A13CXQGLSH6QY8","img_art/11.jpg","2","","","","","","","","","","","","","","","","","","","","","","","","",""
"17353","","image-button-response","58","890458","0.0-56.0-0.0","A13CXQGLSH6QY8","img_art/11.jpg","3","","","","","","","","","","","","","","","","","","","","","","","","",""
"null","","html-keyboard-response","59","891472","0.0-57.0","A13CXQGLSH6QY8","<p style=""font-size: 48px;"">+</p>","","","","","null","allTrialResponses","1000","1","2","img_art/11.jpg","7","Looks like a shipping port","Victoria,Meghan,Vanessa,Heather,Erika,Rachel","reminds me of a rainy day in the city,32,400,20","makes me feel dizzy,-37,220,20","It makes me think of a rainy day and I like the colors. Also like the wavy lines.,22,380,20","looks like highways and homes and lives intertwining.,27,260,20","I want to know which skyline the artist is depicting,26,100,20","Makes me think of a futuristic scene of vehicles flying in the sky in a city.,36,80,20","Erika","I want to know which skyline the artist is depicting,26,100,20","Vanessa","It makes me think of a rainy day and I like the colors. Also like the wavy lines.,22,380,20","Heather","looks like highways and homes and lives intertwining.,27,260,20","2"
"46609","","survey-text","60","938081","0.0-58.0-0.0","A13CXQGLSH6QY8","","","","{""Q0"":""God looking over a city""}","","","","","","","","","","","","","","","","","","","","","","",""
"4084","","image-slider-response","61","942165","0.0-59.0","A13CXQGLSH6QY8","","","","","2","","","","","","","","","","","","","","","","","","","","","",""
"null","","image-button-response","62","947165","0.0-60.0","A13CXQGLSH6QY8","img_art/8.jpg","null","","","","","","","","","","","","","","","","","","","","","","","","",""
"5928","","image-button-response","63","953095","0.0-61.0","A13CXQGLSH6QY8","img_art/8.jpg","0","","","","","","","","","","","","","","","","","","","","","","","","",""
"20633","","image-button-response","64","973744","0.0-62.0-0.0","A13CXQGLSH6QY8","img_art/8.jpg","4","","","","","","","","","","","","","","","","","","","","","","","","",""
"4864","","image-button-response","65","978608","0.0-63.0-0.0","A13CXQGLSH6QY8","img_art/8.jpg","2","","","","","","","","","","","","","","","","","","","","","","","","",""
"null","","html-keyboard-response","66","979118","0.0-64.0","A13CXQGLSH6QY8","<p style=""font-size: 48px;"">+</p>","","","","","null","allTrialResponses","500","1","3","img_art/8.jpg","2","God looking over a city","Kaylee,Morgan,Vanessa,Heather,Erika,Jasmine","beautiful buildings,32,200,20","Falling into a city's heart.,10,380,20","I don't like the negative emotion this picture makes me feel. It's also too abstract.,-30,380,20","woman looking over a the community,1,260,20","Striking, but not my taste,20,100,20","Not too bad despite the chaos.,16,340,20","Kaylee","beautiful buildings,32,200,20","Erika","Striking, but not my taste,20,100,20","Vanessa","I don't like the negative emotion this picture makes me feel. It's also too abstract.,-30,380,20","2"
"41990","","survey-text","67","1021108","0.0-65.0-0.0","A13CXQGLSH6QY8","","","","{""Q0"":""Color collage""}","","","","","","","","","","","","","","","","","","","","","","",""
"5002","","image-slider-response","68","1026110","0.0-66.0","A13CXQGLSH6QY8","","","","","30","","","","","","","","","","","","","","","","","","","","","",""
"null","","image-button-response","69","1031140","0.0-67.0","A13CXQGLSH6QY8","img_art/17.jpg","null","","","","","","","","","","","","","","","","","","","","","","","","",""
"6330","","image-button-response","70","1037470","0.0-68.0","A13CXQGLSH6QY8","img_art/17.jpg","2","","","","","","","","","","","","","","","","","","","","","","","","",""
"4070","","image-button-response","71","1041540","0.0-69.0-0.0","A13CXQGLSH6QY8","img_art/17.jpg","4","","","","","","","","","","","","","","","","","","","","","","","","",""
"8282","","image-button-response","72","1049822","0.0-70.0-0.0","A13CXQGLSH6QY8","img_art/17.jpg","5","","","","","","","","","","","","","","","","","","","","","","","","",""
"null","","html-keyboard-response","73","1050332","0.0-71.0","A13CXQGLSH6QY8","<p style=""font-size: 48px;"">+</p>","","","","","null","allTrialResponses","500","1","4","img_art/17.jpg","30","Color collage","Kaylee,Elizabeth,Vanessa,Sara,Erika,Monica","colorful tree really cool,27,200,20","Has a unique vibe to it,50,20,20","I want to know more about this picture and where it leads if you could get inside it.,27,380,20","Beautiful patterns but evokes sad emotions in me due to the color shades,31,160,20","I love vague, dreamlike styles,50,100,20","The colors remind me of a sunset and give a bittersweet feeling. It looks unfinished but not terrible.,6,360,20","Vanessa","I want to know more about this picture and where it leads if you could get inside it.,27,380,20","Erika","I love vague, dreamlike styles,50,100,20","Monica","The colors remind me of a sunset and give a bittersweet feeling. It looks unfinished but not terrible.,6,360,20","2"
"43987","","survey-text","74","1094319","0.0-72.0-0.0","A13CXQGLSH6QY8","","","","{""Q0"":""looks like it's done by a second grader""}","","","","","","","","","","","","","","","","","","","","","","",""
"5083","","image-slider-response","75","1099402","0.0-73.0","A13CXQGLSH6QY8","","","","","-7","","","","","","","","","","","","","","","","","","","","","",""
"null","","image-button-response","76","1104418","0.0-74.0","A13CXQGLSH6QY8","img_art/27.jpg","null","","","","","","","","","","","","","","","","","","","","","","","","",""
"73848","","image-button-response","77","1178268","0.0-75.0","A13CXQGLSH6QY8","img_art/27.jpg","2","","","","","","","","","","","","","","","","","","","","","","","","",""
"5897","","image-button-response","78","1184165","0.0-76.0-0.0","A13CXQGLSH6QY8","img_art/27.jpg","5","","","","","","","","","","","","","","","","","","","","","","","","",""
"3003","","image-button-response","79","1187168","0.0-77.0-0.0","A13CXQGLSH6QY8","img_art/27.jpg","4","","","","","","","","","","","","","","","","","","","","","","","","",""
"null","","html-keyboard-response","80","1187677","0.0-78.0","A13CXQGLSH6QY8","<p style=""font-size: 48px;"">+</p>","","","","","null","allTrialResponses","500","1","5","img_art/27.jpg","-7","looks like it's done by a second grader","Stephanie,Brianna,Vanessa,Makayla,Erika,Monica","The black sketchy over the colors doesn't fit.,-4,300,20","This painting is very unique,21,20,20","Colors make me think of fall, but I don't like how the picture was done or the weird lines across the background,6,380,20","Calming sky , relaxing,23,80,20","Nice color, but too vague,-12,100,20","It tries to remind me of the autumn season but it's grey and looks dirty,-5,360,20","Vanessa","Colors make me think of fall, but I don't like how the picture was done or the weird lines across the background,6,380,20","Monica","It tries to remind me of the autumn season but it's grey and looks dirty,-5,360,20","Erika","Nice color, but too vague,-12,100,20","2"
"6243","","survey-text","81","1193920","0.0-79.0-0.0","A13CXQGLSH6QY8","","","","{""Q0"":""sky""}","","","","","","","","","","","","","","","","","","","","","","",""
"45674","","survey-text","82","1239594","0.0-80.0-0.0","A13CXQGLSH6QY8","","","","{""Q0"":""palm tree in the sand""}","","","","","","","","","","","","","","","","","","","","","","",""
"6305","","image-slider-response","83","1245899","0.0-81.0","A13CXQGLSH6QY8","","","","","20","","","","","","","","","","","","","","","","","","","","","",""
"null","","image-button-response","84","1250899","0.0-82.0","A13CXQGLSH6QY8","img_art/6.jpg","null","","","","","","","","","","","","","","","","","","","","","","","","",""
"19377","","image-button-response","85","1270277","0.0-83.0","A13CXQGLSH6QY8","img_art/6.jpg","1","","","","","","","","","","","","","","","","","","","","","","","","",""
"1357","","image-button-response","86","1271650","0.0-84.0-0.0","A13CXQGLSH6QY8","img_art/6.jpg","0","","","","","","","","","","","","","","","","","","","","","","","","",""
"17077","","image-button-response","87","1288727","0.0-85.0-0.0","A13CXQGLSH6QY8","img_art/6.jpg","5","","","","","","","","","","","","","","","","","","","","","","","","",""
"null","","html-keyboard-response","88","1289743","0.0-86.0","A13CXQGLSH6QY8","<p style=""font-size: 48px;"">+</p>","","","","","null","allTrialResponses","1000","1","6","img_art/6.jpg","20","palm tree in the sand","Kaitlyn,Jamie,Vanessa,Jennifer,Erika,Monica","I like the simplicity of the picture,30,80,20","Tree growing in a desert. Gives me feelings of hope,5,320,20","I don't like the colors and the dark shape at the top makes me think of a buzzard.,-28,380,20","I am neutral towards this piece.,0,380,20","Lonesome in nature,13,100,20","Maybe it's supposed to be a bird but it looks like a scary cloaked figure. it's just too simple and jarring,-23,360,20","Jamie","Tree growing in a desert. Gives me feelings of hope,5,320,20","Kaitlyn","I like the simplicity of the picture,30,80,20","Monica","Maybe it's supposed to be a bird but it looks like a scary cloaked figure. it's just too simple and jarring,-23,360,20","2"
"21879","","survey-text","89","1311627","0.0-87.0-0.0","A13CXQGLSH6QY8","","","","{""Q0"":""paint splatters""}","","","","","","","","","","","","","","","","","","","","","","",""
"6500","","image-slider-response","90","1318127","0.0-88.0","A13CXQGLSH6QY8","","","","","18","","","","","","","","","","","","","","","","","","","","","",""
"3433","","image-button-response","91","1323153","0.0-89.0","A13CXQGLSH6QY8","img_art/13.jpg","1","","","","","","","","","","","","","","","","","","","","","","","","",""
"4322","","image-button-response","92","1327475","0.0-90.0","A13CXQGLSH6QY8","img_art/13.jpg","1","","","","","","","","","","","","","","","","","","","","","","","","",""
"6323","","image-button-response","93","1333798","0.0-91.0-0.0","A13CXQGLSH6QY8","img_art/13.jpg","2","","","","","","","","","","","","","","","","","","","","","","","","",""
"41029","","image-button-response","94","1374842","0.0-92.0-0.0","A13CXQGLSH6QY8","img_art/13.jpg","5","","","","","","","","","","","","","","","","","","","","","","","","",""
"null","","html-keyboard-response","95","1375354","0.0-93.0","A13CXQGLSH6QY8","<p style=""font-size: 48px;"">+</p>","","","","","null","allTrialResponses","500","1","7","img_art/13.jpg","18","paint splatters","Kaitlyn,Jamie,Jessica,Sarah,Crystal,Monica","Like the color choices,7,80,20","Cool colors and looks like rain on a window,45,320,20","The paint splatter idea is kind of overused but I like how it brings the piece together,16,400,20","this is an appealing mix of textures to me and the color scheme is harmonious,36,180,20","Reminiscent of Jackson Pollock and gives me a feeling of chaotic satisfaction,50,300,20","It's like any other splatter paint art piece, nothing special,1,360,20","Jamie","Cool colors and looks like rain on a window,45,320,20","Jessica","The paint splatter idea is kind of overused but I like how it brings the piece together,16,400,20","Monica","It's like any other splatter paint art piece, nothing special,1,360,20","2"
"97714","","survey-text","96","1473068","0.0-94.0-0.0","A13CXQGLSH6QY8","","","","{""Q0"":""busy and fun""}","","","","","","","","","","","","","","","","","","","","","","",""
"3456","","image-slider-response","97","1476524","0.0-95.0","A13CXQGLSH6QY8","","","","","5","","","","","","","","","","","","","","","","","","","","","",""
"null","","image-button-response","98","1481526","0.0-96.0","A13CXQGLSH6QY8","img_art/19.jpg","null","","","","","","","","","","","","","","","","","","","","","","","","",""
"8315","","image-button-response","99","1489841","0.0-97.0","A13CXQGLSH6QY8","img_art/19.jpg","3","","","","","","","","","","","","","","","","","","","","","","","","",""
"2229","","image-button-response","100","1492085","0.0-98.0-0.0","A13CXQGLSH6QY8","img_art/19.jpg","2","","","","","","","","","","","","","","","","","","","","","","","","",""
"2621","","image-button-response","101","1494706","0.0-99.0-0.0","A13CXQGLSH6QY8","img_art/19.jpg","1","","","","","","","","","","","","","","","","","","","","","","","","",""
"null","","html-keyboard-response","102","1495735","0.0-100.0","A13CXQGLSH6QY8","<p style=""font-size: 48px;"">+</p>","","","","","null","allTrialResponses","1000","1","8","img_art/19.jpg","5","busy and fun","Allison,Jamie,Jessica,Andrea,Michelle,Monica","Messy mix of colors.,-5,140,20","Looks like a busy port,10,320,20","Vibrant and colorful,13,400,20","Feels like a cafe in Paris.,35,240,20","I like the water but again, the small lines with no detail are irritating,3,280,20","The shapes make me recall a city scene but it looks dirty,-22,360,20","Andrea","Feels like a cafe in Paris.,35,240,20","Jessica","Vibrant and colorful,13,400,20","Jamie","Looks like a busy port,10,320,20","2"
"21433","","survey-text","103","1517174","0.0-101.0-0.0","A13CXQGLSH6QY8","","","","{""Q0"":""volcanic rocks""}","","","","","","","","","","","","","","","","","","","","","","",""
"2648","","image-slider-response","104","1519822","0.0-102.0","A13CXQGLSH6QY8","","","","","5","","","","","","","","","","","","","","","","","","","","","",""
"null","","image-button-response","105","1524822","0.0-103.0","A13CXQGLSH6QY8","img_art/7.jpg","null","","","","","","","","","","","","","","","","","","","","","","","","",""
"4233","","image-button-response","106","1529056","0.0-104.0","A13CXQGLSH6QY8","img_art/7.jpg","5","","","","","","","","","","","","","","","","","","","","","","","","",""
"2583","","image-button-response","107","1531639","0.0-105.0-0.0","A13CXQGLSH6QY8","img_art/7.jpg","2","","","","","","","","","","","","","","","","","","","","","","","","",""
"7152","","image-button-response","108","1538807","0.0-106.0-0.0","A13CXQGLSH6QY8","img_art/7.jpg","4","","","","","","","","","","","","","","","","","","","","","","","","",""
"null","","html-keyboard-response","109","1540307","0.0-107.0","A13CXQGLSH6QY8","<p style=""font-size: 48px;"">+</p>","","","","","null","allTrialResponses","1500","1","9","img_art/7.jpg","5","volcanic rocks","Maria,Jamie,Jessica,Andrea,Hannah,Destiny","elicits no real response,0,120,20","Looks like a battle raging on,20,320,20","Looks like a natural texture, reminds me of rocks.,0,400,20","Reminds me of mold. Repulsive.,-10,240,20","Looks almost like a photograph of nature.,11,240,20","mars also crunchy leaves maybe a beehive,32,360,20","Destiny","mars also crunchy leaves maybe a beehive,32,360,20","Jessica","Looks like a natural texture, reminds me of rocks.,0,400,20","Hannah","Looks almost like a photograph of nature.,11,240,20","2"
"19988","","survey-text","110","1560301","0.0-108.0-0.0","A13CXQGLSH6QY8","","","","{""Q0"":""sleeping beauty""}","","","","","","","","","","","","","","","","","","","","","","",""
"3637","","image-slider-response","111","1563938","0.0-109.0","A13CXQGLSH6QY8","","","","","21","","","","","","","","","","","","","","","","","","","","","",""
"4448","","image-button-response","112","1568938","0.0-110.0","A13CXQGLSH6QY8","img_art/9.jpg","5","","","","","","","","","","","","","","","","","","","","","","","","",""
"1616","","image-button-response","113","1570556","0.0-111.0","A13CXQGLSH6QY8","img_art/9.jpg","5","","","","","","","","","","","","","","","","","","","","","","","","",""
"31731","","image-button-response","114","1602287","0.0-112.0-0.0","A13CXQGLSH6QY8","img_art/9.jpg","2","","","","","","","","","","","","","","","","","","","","","","","","",""
"4822","","image-button-response","115","1607125","0.0-113.0-0.0","A13CXQGLSH6QY8","img_art/9.jpg","1","","","","","","","","","","","","","","","","","","","","","","","","",""
"null","","html-keyboard-response","116","1607628","0.0-114.0","A13CXQGLSH6QY8","<p style=""font-size: 48px;"">+</p>","","","","","null","allTrialResponses","500","1","10","img_art/9.jpg","21","sleeping beauty","Alexandra,Dominique,Jessica,Lindsey,Hannah,Destiny","This picture is too busy and ugly,-20,60,20","This speaks to me like a personalities and sides and not all are nice,19,400,20","So I don't really like this style but it looks somewhat okay,3,400,20","Looks like my niece's doodles.,-50,400,20","Someone lying in bed?  Don't care for it.,-14,240,20","is that sleeping beauty,33,360,20","Destiny","is that sleeping beauty,33,360,20","Jessica","So I don't really like this style but it looks somewhat okay,3,400,20","Dominique","This speaks to me like a personalities and sides and not all are nice,19,400,20","2"
"15701","","survey-text","117","1623329","0.0-115.0-0.0","A13CXQGLSH6QY8","","","","{""Q0"":""our""}","","","","","","","","","","","","","","","","","","","","","","",""
"15942","","survey-text","118","1639286","0.0-116.0-0.0","A13CXQGLSH6QY8","","","","{""Q0"":""fire station ""}","","","","","","","","","","","","","","","","","","","","","","",""
"3267","","image-slider-response","119","1642553","0.0-117.0","A13CXQGLSH6QY8","","","","","-17","","","","","","","","","","","","","","","","","","","","","",""
"null","","image-button-response","120","1647566","0.0-118.0","A13CXQGLSH6QY8","img_art/29.jpg","null","","","","","","","","","","","","","","","","","","","","","","","","",""
"12907","","image-button-response","121","1660473","0.0-119.0","A13CXQGLSH6QY8","img_art/29.jpg","2","","","","","","","","","","","","","","","","","","","","","","","","",""
"2062","","image-button-response","122","1662535","0.0-120.0-0.0","A13CXQGLSH6QY8","img_art/29.jpg","5","","","","","","","","","","","","","","","","","","","","","","","","",""
"2360","","image-button-response","123","1664895","0.0-121.0-0.0","A13CXQGLSH6QY8","img_art/29.jpg","4","","","","","","","","","","","","","","","","","","","","","","","","",""
"null","","html-keyboard-response","124","1665902","0.0-122.0","A13CXQGLSH6QY8","<p style=""font-size: 48px;"">+</p>","","","","","null","allTrialResponses","1000","1","11","img_art/29.jpg","-17","fire station ","Tiffany,Dominique,Jessica,Haley,Claire,Destiny","I feel a little disgust. There is something off-putting about the smooth shapes and dark colors.,-43,360,20","Another great work of art and very conversational piece,33,400,20","It looks cool but I don't really get what's going on, it looks too busy,0,400,20","Looks messy, but not in appealing way,-20,220,20","interesting, but I wouldn't put it on my wall,8,260,20","is this supposed to be edgy,-21,360,20","Jessica","It looks cool but I don't really get what's going on, it looks too busy,0,400,20","Destiny","is this supposed to be edgy,-21,360,20","Claire","interesting, but I wouldn't put it on my wall,8,260,20","2"
"28897","","survey-text","125","1694799","0.0-123.0-0.0","A13CXQGLSH6QY8","","","","{""Q0"":""makes me think of a pirate ship""}","","","","","","","","","","","","","","","","","","","","","","",""
"4385","","image-slider-response","126","1699184","0.0-124.0","A13CXQGLSH6QY8","","","","","38","","","","","","","","","","","","","","","","","","","","","",""
"null","","image-button-response","127","1704203","0.0-125.0","A13CXQGLSH6QY8","img_art/18.jpg","null","","","","","","","","","","","","","","","","","","","","","","","","",""
"5007","","image-button-response","128","1709225","0.0-126.0","A13CXQGLSH6QY8","img_art/18.jpg","2","","","","","","","","","","","","","","","","","","","","","","","","",""
"2324","","image-button-response","129","1711549","0.0-127.0-0.0","A13CXQGLSH6QY8","img_art/18.jpg","1","","","","","","","","","","","","","","","","","","","","","","","","",""
"41213","","image-button-response","130","1752778","0.0-128.0-0.0","A13CXQGLSH6QY8","img_art/18.jpg","4","","","","","","","","","","","","","","","","","","","","","","","","",""
"null","","html-keyboard-response","131","1753778","0.0-129.0","A13CXQGLSH6QY8","<p style=""font-size: 48px;"">+</p>","","","","","null","allTrialResponses","1000","1","12","img_art/18.jpg","38","makes me think of a pirate ship","Alicia,Shannon,Jessica,Briana,Claire,Destiny","Skeletons, death, bleak colors, still kinda like it.,16,120,20","I think its supposed to be a boat and the boat looks kind of interesting to me.,10,220,20","I think this looks pretty cool, I can see what's kind of going on here.,22,400,20","Two people fighting with one watching,17,400,20","reminds me of greek mythology,22,260,20","Can't tell if I love it or hate it. That response warranted more than neutral so I gave it 20 but not sure,21,360,20","Jessica","I think this looks pretty cool, I can see what's kind of going on here.,22,400,20","Shannon","I think its supposed to be a boat and the boat looks kind of interesting to me.,10,220,20","Claire","reminds me of greek mythology,22,260,20","2"
"59880","","survey-text","132","1813664","0.0-130.0-0.0","A13CXQGLSH6QY8","","","","{""Q0"":""beautiful mountain stream""}","","","","","","","","","","","","","","","","","","","","","","",""
"6425","","image-slider-response","133","1820089","0.0-131.0","A13CXQGLSH6QY8","","","","","50","","","","","","","","","","","","","","","","","","","","","",""
"2497","","image-button-response","134","1825089","0.0-132.0","A13CXQGLSH6QY8","img_art/24.jpg","2","","","","","","","","","","","","","","","","","","","","","","","","",""
"1388","","image-button-response","135","1826479","0.0-133.0","A13CXQGLSH6QY8","img_art/24.jpg","1","","","","","","","","","","","","","","","","","","","","","","","","",""
"7196","","image-button-response","136","1833675","0.0-134.0-0.0","A13CXQGLSH6QY8","img_art/24.jpg","4","","","","","","","","","","","","","","","","","","","","","","","","",""
"7346","","image-button-response","137","1841021","0.0-135.0-0.0","A13CXQGLSH6QY8","img_art/24.jpg","2","","","","","","","","","","","","","","","","","","","","","","","","",""
"null","","html-keyboard-response","138","1841526","0.0-136.0","A13CXQGLSH6QY8","<p style=""font-size: 48px;"">+</p>","","","","","null","allTrialResponses","500","1","13","img_art/24.jpg","50","beautiful mountain stream","Katelyn,Shannon,Jessica,Mariah,Claire,Cassidy","Love the colors and contrast. Feels peaceful.,33,100,20","I like the way the colors are put together, and I can imagine this picture in real life.,40,220,20","Vibrant, beautiful depiction.,50,400,20","It is like a really bad impressionist painting.,-40,140,20","reminds me of a beautiful waterfall,50,260,20","I don't even know. It's just kind of meh,1,140,20","Shannon","I like the way the colors are put together, and I can imagine this picture in real life.,40,220,20","Claire","reminds me of a beautiful waterfall,50,260,20","Jessica","Vibrant, beautiful depiction.,50,400,20","2"
"37234","","survey-text","139","1878776","0.0-137.0-0.0","A13CXQGLSH6QY8","","","","{""Q0"":""A kind of dull city picture""}","","","","","","","","","","","","","","","","","","","","","","",""
"4068","","image-slider-response","140","1882844","0.0-138.0","A13CXQGLSH6QY8","","","","","-18","","","","","","","","","","","","","","","","","","","","","",""
"null","","image-button-response","141","1887863","0.0-139.0","A13CXQGLSH6QY8","img_art/26.jpg","null","","","","","","","","","","","","","","","","","","","","","","","","",""
"13978","","image-button-response","142","1901841","0.0-140.0","A13CXQGLSH6QY8","img_art/26.jpg","2","","","","","","","","","","","","","","","","","","","","","","","","",""
"9847","","image-button-response","143","1911688","0.0-141.0-0.0","A13CXQGLSH6QY8","img_art/26.jpg","0","","","","","","","","","","","","","","","","","","","","","","","","",""
"7073","","image-button-response","144","1918761","0.0-142.0-0.0","A13CXQGLSH6QY8","img_art/26.jpg","4","","","","","","","","","","","","","","","","","","","","","","","","",""
"null","","html-keyboard-response","145","1919261","0.0-143.0","A13CXQGLSH6QY8","<p style=""font-size: 48px;"">+</p>","","","","","null","allTrialResponses","500","1","14","img_art/26.jpg","-18","A kind of dull city picture","Leslie,Shannon,Jessica,Mikayla,Claire,Lauren","It's a cute city scene. I like the trees.,10,380,20","I like that it looks like an actual picture and isn't just random colors.,25,220,20","It doesn't look so vibrant, I'm not sure what feelings they were trying to capture,-41,400,20","Love the colors in this one.,22,300,20","very impressionistic,11,260,20","The piece doesn't really invoke anything for me.,0,340,20","Jessica","It doesn't look so vibrant, I'm not sure what feelings they were trying to capture,-41,400,20","Leslie","It's a cute city scene. I like the trees.,10,380,20","Claire","very impressionistic,11,260,20","2"
"50734","","survey-text","146","1970001","0.0-144.0-0.0","A13CXQGLSH6QY8","","","","{""Q0"":""I see a sea monster""}","","","","","","","","","","","","","","","","","","","","","","",""
"42034","","image-slider-response","147","2012035","0.0-145.0","A13CXQGLSH6QY8","","","","","47","","","","","","","","","","","","","","","","","","","","","",""
"3530","","image-button-response","148","2017051","0.0-146.0","A13CXQGLSH6QY8","img_art/10.jpg","4","","","","","","","","","","","","","","","","","","","","","","","","",""
"9696","","image-button-response","149","2026749","0.0-147.0","A13CXQGLSH6QY8","img_art/10.jpg","4","","","","","","","","","","","","","","","","","","","","","","","","",""
"3626","","image-button-response","150","2030375","0.0-148.0-0.0","A13CXQGLSH6QY8","img_art/10.jpg","2","","","","","","","","","","","","","","","","","","","","","","","","",""
"2415","","image-button-response","151","2032790","0.0-149.0-0.0","A13CXQGLSH6QY8","img_art/10.jpg","0","","","","","","","","","","","","","","","","","","","","","","","","",""
"null","","html-keyboard-response","152","2033803","0.0-150.0","A13CXQGLSH6QY8","<p style=""font-size: 48px;"">+</p>","","","","","null","allTrialResponses","1000","1","15","img_art/10.jpg","47","I see a sea monster","Leslie,Savannah,Jessica,Kaitlin,Claire,Nicole","I love the chaotic feel of the brush strokes.,35,380,20","This is a scribble of a mad man. Appears low effort.,-33,200,20","I feel like this has a cool concept behind it.,11,400,20","awww... this looks very nice,32,60,20","it looks very musical,24,260,20","Too much negative space makes it feel unfinished,-25,20,20","Claire","it looks very musical,24,260,20","Jessica","I feel like this has a cool concept behind it.,11,400,20","Leslie","I love the chaotic feel of the brush strokes.,35,380,20","2"
"8012","","survey-text","153","2041815","0.0-151.0-0.0","A13CXQGLSH6QY8","","","","{""Q0"":""course""}","","","","","","","","","","","","","","","","","","","","","","",""
"56422","","survey-text","154","2098237","0.0-152.0-0.0","A13CXQGLSH6QY8","","","","{""Q0"":""reminds me of Christmas lights maybe""}","","","","","","","","","","","","","","","","","","","","","","",""
"5694","","image-slider-response","155","2103931","0.0-153.0","A13CXQGLSH6QY8","","","","","11","","","","","","","","","","","","","","","","","","","","","",""
"2532","","image-button-response","156","2108931","0.0-154.0","A13CXQGLSH6QY8","img_art/14.jpg","2","","","","","","","","","","","","","","","","","","","","","","","","",""
"1679","","image-button-response","157","2110612","0.0-155.0","A13CXQGLSH6QY8","img_art/14.jpg","4","","","","","","","","","","","","","","","","","","","","","","","","",""
"6940","","image-button-response","158","2117552","0.0-156.0-0.0","A13CXQGLSH6QY8","img_art/14.jpg","4","","","","","","","","","","","","","","","","","","","","","","","","",""
"1057","","image-button-response","159","2127533","0.0-156.1-0.1","A13CXQGLSH6QY8","img_art/14.jpg","4","","","","","","","","","","","","","","","","","","","","","","","","",""
"1516","","image-button-response","160","2133982","0.0-156.2-0.2","A13CXQGLSH6QY8","img_art/14.jpg","4","","","","","","","","","","","","","","","","","","","","","","","","",""
"696","","image-button-response","161","2139715","0.0-156.3-0.3","A13CXQGLSH6QY8","img_art/14.jpg","5","","","","","","","","","","","","","","","","","","","","","","","","",""
"282","","image-button-response","162","2139997","0.0-157.0-0.0","A13CXQGLSH6QY8","img_art/14.jpg","5","","","","","","","","","","","","","","","","","","","","","","","","",""
"1250","","image-button-response","163","2148894","0.0-157.1-0.1","A13CXQGLSH6QY8","img_art/14.jpg","1","","","","","","","","","","","","","","","","","","","","","","","","",""
"null","","html-keyboard-response","164","2149905","0.0-158.0","A13CXQGLSH6QY8","<p style=""font-size: 48px;"">+</p>","","","","","null","allTrialResponses","1000","1","16","img_art/14.jpg","11","reminds me of Christmas lights maybe","Leslie,Cassandra,Jessica,Ashley,Claire,Molly","This elicits no reaction in me.,0,380,20","I kind of like it...I like the white back ground,11,120,20","I kind of like it!,6,400,20","I like the color tone, it's kind of disturbing.,35,320,20","mythical and nature like,37,260,20","In my opinion it's spectacular.,35,340,20","Claire","mythical and nature like,37,260,20","Molly","In my opinion it's spectacular.,35,340,20","Cassandra","I kind of like it...I like the white back ground,11,120,20","10"
"31038","","survey-text","165","2180943","0.0-159.0-0.0","A13CXQGLSH6QY8","","","","{""Q0"":""First grade drawing""}","","","","","","","","","","","","","","","","","","","","","","",""
"3869","","image-slider-response","166","2184812","0.0-160.0","A13CXQGLSH6QY8","","","","","-18","","","","","","","","","","","","","","","","","","","","","",""
"4364","","image-button-response","167","2189812","0.0-161.0","A13CXQGLSH6QY8","img_art/5.jpg","1","","","","","","","","","","","","","","","","","","","","","","","","",""
"1222","","image-button-response","168","2191036","0.0-162.0","A13CXQGLSH6QY8","img_art/5.jpg","1","","","","","","","","","","","","","","","","","","","","","","","","",""
"11224","","image-button-response","169","2202275","0.0-163.0-0.0","A13CXQGLSH6QY8","img_art/5.jpg","2","","","","","","","","","","","","","","","","","","","","","","","","",""
"5246","","image-button-response","170","2207521","0.0-164.0-0.0","A13CXQGLSH6QY8","img_art/5.jpg","5","","","","","","","","","","","","","","","","","","","","","","","","",""
"null","","html-keyboard-response","171","2208527","0.0-165.0","A13CXQGLSH6QY8","<p style=""font-size: 48px;"">+</p>","","","","","null","allTrialResponses","1000","1","17","img_art/5.jpg","-18","First grade drawing","Laura,Cassandra,Rebecca,Leah,Claire,Molly","fresh and fun - bright and active,16,320,20","This was awful and it looked like someone took minimul effort with it... no time at all.,-49,120,20","sorry not my style,-37,100,20","Boring, no flow except the pink feathery band,-42,360,20","I like the strokes and colors used,20,260,20","Very non-dynamic painting, dislike it.,-10,340,20","Cassandra","This was awful and it looked like someone took minimul effort with it... no time at all.,-49,120,20","Rebecca","sorry not my style,-37,100,20","Molly","Very non-dynamic painting, dislike it.,-10,340,20","10"
"29868","","survey-text","172","2238395","0.0-166.0-0.0","A13CXQGLSH6QY8","","","","{""Q0"":""to busy""}","","","","","","","","","","","","","","","","","","","","","","",""
"2972","","image-slider-response","173","2241382","0.0-167.0","A13CXQGLSH6QY8","","","","","-35","","","","","","","","","","","","","","","","","","","","","",""
"4263","","image-button-response","174","2246382","0.0-168.0","A13CXQGLSH6QY8","img_art/2.jpg","3","","","","","","","","","","","","","","","","","","","","","","","","",""
"708","","image-button-response","175","2247092","0.0-169.0","A13CXQGLSH6QY8","img_art/2.jpg","3","","","","","","","","","","","","","","","","","","","","","","","","",""
"2719","","image-button-response","176","2249811","0.0-170.0-0.0","A13CXQGLSH6QY8","img_art/2.jpg","1","","","","","","","","","","","","","","","","","","","","","","","","",""
"6918","","image-button-response","177","2256729","0.0-171.0-0.0","A13CXQGLSH6QY8","img_art/2.jpg","2","","","","","","","","","","","","","","","","","","","","","","","","",""
"null","","html-keyboard-response","178","2258229","0.0-172.0","A13CXQGLSH6QY8","<p style=""font-size: 48px;"">+</p>","","","","","null","allTrialResponses","1500","1","18","img_art/2.jpg","-35","to busy","Julia,Cassandra,Rebecca,Margaret,Amber,Molly","I like how it looks like a cute smiling face,43,40,20","I didn't like this it looked like a kindergardner painted it and the green was out of place.,-46,120,20","do not understand,-21,100,20","doesn't do anything for me,-7,100,20","bright and happy,20,200,20","Colorful, curious.,20,340,20","Margaret","doesn't do anything for me,-7,100,20","Cassandra","I didn't like this it looked like a kindergardner painted it and the green was out of place.,-46,120,20","Rebecca","do not understand,-21,100,20","10"
"20105","","survey-text","179","2278340","0.0-173.0-0.0","A13CXQGLSH6QY8","","","","{""Q0"":""someone is bleeding""}","","","","","","","","","","","","","","","","","","","","","","",""
"4268","","image-slider-response","180","2282608","0.0-174.0","A13CXQGLSH6QY8","","","","","-42","","","","","","","","","","","","","","","","","","","","","",""
"3899","","image-button-response","181","2287608","0.0-175.0","A13CXQGLSH6QY8","img_art/3.jpg","1","","","","","","","","","","","","","","","","","","","","","","","","",""
"398","","image-button-response","182","2288008","0.0-176.0","A13CXQGLSH6QY8","img_art/3.jpg","1","","","","","","","","","","","","","","","","","","","","","","","","",""
"6515","","image-button-response","183","2294523","0.0-177.0-0.0","A13CXQGLSH6QY8","img_art/3.jpg","3","","","","","","","","","","","","","","","","","","","","","","","","",""
"7461","","image-button-response","184","2301984","0.0-178.0-0.0","A13CXQGLSH6QY8","img_art/3.jpg","4","","","","","","","","","","","","","","","","","","","","","","","","",""
"null","","html-keyboard-response","185","2302984","0.0-179.0","A13CXQGLSH6QY8","<p style=""font-size: 48px;"">+</p>","","","","","null","allTrialResponses","1000","1","19","img_art/3.jpg","-42","someone is bleeding","Megan,Cassandra,Rebecca,Margaret,Erin,Courtney","5 min scribble by a 3 year old,-46,200,20","I hate this...just a scribble of red.,-50,120,20","sorry do not understand,-26,100,20","seems distressing. a blood scene,-3,100,20","Shapes are interesting but color is overwhelming,5,120,20","That just looks like a mess..,-18,280,20","Cassandra","I hate this...just a scribble of red.,-50,120,20","Margaret","seems distressing. a blood scene,-3,100,20","Erin","Shapes are interesting but color is overwhelming,5,120,20","10"
"24681","","survey-text","186","2327672","0.0-180.0-0.0","A13CXQGLSH6QY8","","","","{""Q0"":""mixed up rainbow""}","","","","","","","","","","","","","","","","","","","","","","",""
"6450","","image-slider-response","187","2334122","0.0-181.0","A13CXQGLSH6QY8","","","","","13","","","","","","","","","","","","","","","","","","","","","",""
"null","","image-button-response","188","2339127","0.0-182.0","A13CXQGLSH6QY8","img_art/1.jpg","null","","","","","","","","","","","","","","","","","","","","","","","","",""
"6066","","image-button-response","189","2345193","0.0-183.0","A13CXQGLSH6QY8","img_art/1.jpg","1","","","","","","","","","","","","","","","","","","","","","","","","",""
"10800","","image-button-response","190","2356009","0.0-184.0-0.0","A13CXQGLSH6QY8","img_art/1.jpg","5","","","","","","","","","","","","","","","","","","","","","","","","",""
"7462","","image-button-response","191","2363471","0.0-185.0-0.0","A13CXQGLSH6QY8","img_art/1.jpg","4","","","","","","","","","","","","","","","","","","","","","","","","",""
"null","","html-keyboard-response","192","2364471","0.0-186.0","A13CXQGLSH6QY8","<p style=""font-size: 48px;"">+</p>","","","","","null","allTrialResponses","1000","1","20","img_art/1.jpg","13","mixed up rainbow","Brittany,Cassandra,Brooke,Margaret,Erin,Kelsey","It reminds me of a sunset I once saw.,16,40,20","I didn't like this too much...I didn't like the red and the jaggedness to it.,-29,120,20","It's okay, colors remind me of autumn.,10,60,20","basic reminds me of something a school would have on the wall,-7,100,20","Love the coloration and abstract figures,18,120,20","this ones alright,10,240,20","Cassandra","I didn't like this too much...I didn't like the red and the jaggedness to it.,-29,120,20","Kelsey","this ones alright,10,240,20","Erin","Love the coloration and abstract figures,18,120,20","10"
"7788","","survey-text","193","2372289","0.0-187.0-0.0","A13CXQGLSH6QY8","","","","{""Q0"":""we""}","","","","","","","","","","","","","","","","","","","","","","",""
"36250","","survey-text","194","2408539","0.0-188.0-0.0","A13CXQGLSH6QY8","","","","{""Q0"":""Look like people looking over a very sick person""}","","","","","","","","","","","","","","","","","","","","","","",""
"3731","","image-slider-response","195","2412270","0.0-189.0","A13CXQGLSH6QY8","","","","","-24","","","","","","","","","","","","","","","","","","","","","",""
"null","","image-button-response","196","2417271","0.0-190.0","A13CXQGLSH6QY8","img_art/28.jpg","null","","","","","","","","","","","","","","","","","","","","","","","","",""
"7466","","image-button-response","197","2424754","0.0-191.0","A13CXQGLSH6QY8","img_art/28.jpg","5","","","","","","","","","","","","","","","","","","","","","","","","",""
"2180","","image-button-response","198","2426934","0.0-192.0-0.0","A13CXQGLSH6QY8","img_art/28.jpg","2","","","","","","","","","","","","","","","","","","","","","","","","",""
"5061","","image-button-response","199","2432011","0.0-193.0-0.0","A13CXQGLSH6QY8","img_art/28.jpg","0","","","","","","","","","","","","","","","","","","","","","","","","",""
"null","","html-keyboard-response","200","2432511","0.0-194.0","A13CXQGLSH6QY8","<p style=""font-size: 48px;"">+</p>","","","","","null","allTrialResponses","500","1","21","img_art/28.jpg","-24","Look like people looking over a very sick person","Amy,Cassandra,Autumn,Katherine,Erin,Kelsey","Contemplative and a little dark. The muted colors and subject create a sense of mystery.,15,220,20","Hate it...brown and drab,-37,120,20","Looks yucky and poor.,-33,340,20","Eh it's just kinda brown and muddy and not very nice looking,-18,120,20","Dislike color palette and amoeba,-9,120,20","this one is rather disturbing,-22,240,20","Kelsey","this one is rather disturbing,-22,240,20","Autumn","Looks yucky and poor.,-33,340,20","Amy","Contemplative and a little dark. The muted colors and subject create a sense of mystery.,15,220,20","10"
"37088","","survey-text","201","2469606","0.0-195.0-0.0","A13CXQGLSH6QY8","","","","{""Q0"":""its really weird and its gross""}","","","","","","","","","","","","","","","","","","","","","","",""
"8901","","image-slider-response","202","2478522","0.0-196.0","A13CXQGLSH6QY8","","","","","-50","","","","","","","","","","","","","","","","","","","","","",""
"4681","","image-button-response","203","2483522","0.0-197.0","A13CXQGLSH6QY8","img_art/4.jpg","2","","","","","","","","","","","","","","","","","","","","","","","","",""
"3561","","image-button-response","204","2487085","0.0-198.0","A13CXQGLSH6QY8","img_art/4.jpg","2","","","","","","","","","","","","","","","","","","","","","","","","",""
"7654","","image-button-response","205","2494739","0.0-199.0-0.0","A13CXQGLSH6QY8","img_art/4.jpg","0","","","","","","","","","","","","","","","","","","","","","","","","",""
"1564","","image-button-response","206","2496303","0.0-200.0-0.0","A13CXQGLSH6QY8","img_art/4.jpg","0","","","","","","","","","","","","","","","","","","","","","","","","",""
"1375","","image-button-response","207","2502968","0.0-200.1-0.1","A13CXQGLSH6QY8","img_art/4.jpg","0","","","","","","","","","","","","","","","","","","","","","","","","",""
"2430","","image-button-response","208","2511303","0.0-200.2-0.2","A13CXQGLSH6QY8","img_art/4.jpg","5","","","","","","","","","","","","","","","","","","","","","","","","",""
"null","","html-keyboard-response","209","2512305","0.0-201.0","A13CXQGLSH6QY8","<p style=""font-size: 48px;"">+</p>","","","","","null","allTrialResponses","1000","1","22","img_art/4.jpg","-50","its really weird and its gross","Amy,Olivia,Autumn,Alexandria,Katie,Kelsey","disturbing and uncomfortable.,10,220,20","The muted tones,-11,40,20","I don't like murky colors.,-40,340,20","it looks like a simple finger painting, yet i liked the color choices,-12,80,20","Warm colors, but too random. I feel like I'm seeing something mangled. It is unpleasant.,-30,160,20","this is terrible,-49,240,20","Autumn","I don't like murky colors.,-40,340,20","Amy","disturbing and uncomfortable.,10,220,20","Kelsey","this is terrible,-49,240,20","14"
"31614","","survey-text","210","2543919","0.0-202.0-0.0","A13CXQGLSH6QY8","","","","{""Q0"":""scary skeleton""}","","","","","","","","","","","","","","","","","","","","","","",""
"6169","","image-slider-response","211","2550088","0.0-203.0","A13CXQGLSH6QY8","","","","","19","","","","","","","","","","","","","","","","","","","","","",""
"null","","image-button-response","212","2555097","0.0-204.0","A13CXQGLSH6QY8","img_art/25.jpg","null","","","","","","","","","","","","","","","","","","","","","","","","",""
"799","","image-button-response","213","2555896","0.0-205.0","A13CXQGLSH6QY8","img_art/25.jpg","4","","","","","","","","","","","","","","","","","","","","","","","","",""
"11735","","image-button-response","214","2567631","0.0-206.0-0.0","A13CXQGLSH6QY8","img_art/25.jpg","1","","","","","","","","","","","","","","","","","","","","","","","","",""
"38128","","image-button-response","215","2605759","0.0-207.0-0.0","A13CXQGLSH6QY8","img_art/25.jpg","5","","","","","","","","","","","","","","","","","","","","","","","","",""
"null","","html-keyboard-response","216","2607259","0.0-208.0","A13CXQGLSH6QY8","<p style=""font-size: 48px;"">+</p>","","","","","null","allTrialResponses","1500","1","23","img_art/25.jpg","19","scary skeleton","Amy,Gabriela,Autumn,Sabrina,Taylor,Kelsey","The limited palette make this figure mysterious and interpret-able.,20,220,20","It looks like a person at a graveyard,18,140,20","This is too simple,-22,340,20","New life, rising from your personal battles,50,120,20","It makes me feel a little uneasy, but I like the painting,11,340,20","quite unnerving,-15,240,20","Taylor","It makes me feel a little uneasy, but I like the painting,11,340,20","Gabriela","It looks like a person at a graveyard,18,140,20","Kelsey","quite unnerving,-15,240,20","14"
"36634","","survey-text","217","2643893","0.0-209.0-0.0","A13CXQGLSH6QY8","","","","{""Q0"":""Teddy bear fun""}","","","","","","","","","","","","","","","","","","","","","","",""
"4100","","image-slider-response","218","2647993","0.0-210.0","A13CXQGLSH6QY8","","","","","41","","","","","","","","","","","","","","","","","","","","","",""
"null","","image-button-response","219","2653009","0.0-211.0","A13CXQGLSH6QY8","img_art/16.jpg","null","","","","","","","","","","","","","","","","","","","","","","","","",""
"9474","","image-button-response","220","2662485","0.0-212.0","A13CXQGLSH6QY8","img_art/16.jpg","2","","","","","","","","","","","","","","","","","","","","","","","","",""
"4041","","image-button-response","221","2666526","0.0-213.0-0.0","A13CXQGLSH6QY8","img_art/16.jpg","1","","","","","","","","","","","","","","","","","","","","","","","","",""
"1100","","image-button-response","222","2667641","0.0-214.0-0.0","A13CXQGLSH6QY8","img_art/16.jpg","0","","","","","","","","","","","","","","","","","","","","","","","","",""
"null","","html-keyboard-response","223","2669146","0.0-215.0","A13CXQGLSH6QY8","<p style=""font-size: 48px;"">+</p>","","","","","null","allTrialResponses","1500","1","24","img_art/16.jpg","41","Teddy bear fun","Abigail,Gabriela,Amanda,Emma,Taylor,Kelsey","The bear makes me very uncomfortable,-50,20,20","It looks very generic, like items were pasted onto the background,-38,140,20","Very modern, reminds me of bansky,43,180,20","Kind of creepyyyyyy,-41,60,20","It just makes me feel uncomfortable,-25,340,20","its disturbing! what the heck,-27,240,20","Amanda","Very modern, reminds me of bansky,43,180,20","Gabriela","It looks very generic, like items were pasted onto the background,-38,140,20","Abigail","The bear makes me very uncomfortable,-50,20,20","14"
"42628","","survey-text","224","2711774","0.0-216.0-0.0","A13CXQGLSH6QY8","","","","{""Q0"":""autumn in the valley""}","","","","","","","","","","","","","","","","","","","","","","",""
"2834","","image-slider-response","225","2714608","0.0-217.0","A13CXQGLSH6QY8","","","","","10","","","","","","","","","","","","","","","","","","","","","",""
"2561","","image-button-response","226","2719608","0.0-218.0","A13CXQGLSH6QY8","img_art/23.jpg","2","","","","","","","","","","","","","","","","","","","","","","","","",""
"5942","","image-button-response","227","2725552","0.0-219.0","A13CXQGLSH6QY8","img_art/23.jpg","1","","","","","","","","","","","","","","","","","","","","","","","","",""
"15572","","image-button-response","228","2741124","0.0-220.0-0.0","A13CXQGLSH6QY8","img_art/23.jpg","5","","","","","","","","","","","","","","","","","","","","","","","","",""
"2697","","image-button-response","229","2743821","0.0-221.0-0.0","A13CXQGLSH6QY8","img_art/23.jpg","2","","","","","","","","","","","","","","","","","","","","","","","","",""
"null","","html-keyboard-response","230","2744332","0.0-222.0","A13CXQGLSH6QY8","<p style=""font-size: 48px;"">+</p>","","","","","null","allTrialResponses","500","1","25","img_art/23.jpg","10","autumn in the valley","Abigail,Gabriela,Amanda,Jacqueline,Kristen,Chelsea","I like the contrast,29,20,20","It looks like a parade of musicians full of excitement. Makes me feel upbeat,33,140,20","One of my favorites, love the colors and how the white looks like humans,50,180,20","It's kind of neat with the white slash marks.,13,300,20","fsiries, happy, spiritual,16,280,20","I like the royal colors.,38,180,20","Gabriela","It looks like a parade of musicians full of excitement. Makes me feel upbeat,33,140,20","Chelsea","I like the royal colors.,38,180,20","Amanda","One of my favorites, love the colors and how the white looks like humans,50,180,20","14"
"4928","","survey-text","231","2749276","0.0-223.0-0.0","A13CXQGLSH6QY8","","","","{""Q0"":""table""}","","","","","","","","","","","","","","","","","","","","","","",""
"19482","","survey-text","232","2768758","0.0-224.0-0.0","A13CXQGLSH6QY8","","","","{""Q0"":""Too generic already been done""}","","","","","","","","","","","","","","","","","","","","","","",""
"3231","","image-slider-response","233","2771989","0.0-225.0","A13CXQGLSH6QY8","","","","","-25","","","","","","","","","","","","","","","","","","","","","",""
"4964","","image-button-response","234","2776989","0.0-226.0","A13CXQGLSH6QY8","img_art/22.jpg","2","","","","","","","","","","","","","","","","","","","","","","","","",""
"900","","image-button-response","235","2777890","0.0-227.0","A13CXQGLSH6QY8","img_art/22.jpg","2","","","","","","","","","","","","","","","","","","","","","","","","",""
"8689","","image-button-response","236","2786579","0.0-228.0-0.0","A13CXQGLSH6QY8","img_art/22.jpg","1","","","","","","","","","","","","","","","","","","","","","","","","",""
"6670","","image-button-response","237","2793249","0.0-229.0-0.0","A13CXQGLSH6QY8","img_art/22.jpg","5","","","","","","","","","","","","","","","","","","","","","","","","",""
"null","","html-keyboard-response","238","2793762","0.0-230.0","A13CXQGLSH6QY8","<p style=""font-size: 48px;"">+</p>","","","","","null","allTrialResponses","500","1","26","img_art/22.jpg","-25","Too generic already been done","Grace,Gabriela,Amanda,Danielle,Miranda,Chelsea","Love vibrant colors & the abstractness.,43,180,20","Neither like nor dislike it. The red, yellow and blue colors are bright but I don't know what it's meant to be.,1,140,20","Very generic, seen many times before,-43,180,20","A bit colorful, but slightly enjoyable, almost gives off castle/sunset vibes,10,340,20","Its very warm, it reminds of someone not liking their painting so they destoryed it,26,320,20","The colors clash, and I don't know what is happening.,-23,180,20","Amanda","Very generic, seen many times before,-43,180,20","Gabriela","Neither like nor dislike it. The red, yellow and blue colors are bright but I don't know what it's meant to be.,1,140,20","Chelsea","The colors clash, and I don't know what is happening.,-23,180,20","14"
"26867","","survey-text","239","2820629","0.0-231.0-0.0","A13CXQGLSH6QY8","","","","{""Q0"":""black and blue""}","","","","","","","","","","","","","","","","","","","","","","",""
"2521","","image-slider-response","240","2823150","0.0-232.0","A13CXQGLSH6QY8","","","","","11","","","","","","","","","","","","","","","","","","","","","",""
"null","","image-button-response","241","2828150","0.0-233.0","A13CXQGLSH6QY8","img_art/15.jpg","null","","","","","","","","","","","","","","","","","","","","","","","","",""
"3184","","image-button-response","242","2831336","0.0-234.0","A13CXQGLSH6QY8","img_art/15.jpg","3","","","","","","","","","","","","","","","","","","","","","","","","",""
"3550","","image-button-response","243","2834901","0.0-235.0-0.0","A13CXQGLSH6QY8","img_art/15.jpg","0","","","","","","","","","","","","","","","","","","","","","","","","",""
"4318","","image-button-response","244","2839235","0.0-236.0-0.0","A13CXQGLSH6QY8","img_art/15.jpg","5","","","","","","","","","","","","","","","","","","","","","","","","",""
"null","","html-keyboard-response","245","2840235","0.0-237.0","A13CXQGLSH6QY8","<p style=""font-size: 48px;"">+</p>","","","","","null","allTrialResponses","1000","1","27","img_art/15.jpg","11","black and blue","Caroline,Gabriela,Amanda,Kelly,Anna,Chelsea","Makes me think of a bush and flowers and spring and happy warm times,25,100,20","it is dark and gloomy,-9,140,20","It triggers my tripophobia,-50,180,20","I can't really make out what this is supposed to be.,-8,220,20","I like how it's simple but beautiful.,40,300,20","The colors are too busy.,-39,180,20","Kelly","I can't really make out what this is supposed to be.,-8,220,20","Caroline","Makes me think of a bush and flowers and spring and happy warm times,25,100,20","Chelsea","The colors are too busy.,-39,180,20","14"
"25800","","survey-text","246","2866043","0.0-238.0-0.0","A13CXQGLSH6QY8","","","","{""Q0"":""City by the water""}","","","","","","","","","","","","","","","","","","","","","","",""
"3124","","image-slider-response","247","2869167","0.0-239.0","A13CXQGLSH6QY8","","","","","20","","","","","","","","","","","","","","","","","","","","","",""
"null","","image-button-response","248","2874170","0.0-240.0","A13CXQGLSH6QY8","img_art/20.jpg","null","","","","","","","","","","","","","","","","","","","","","","","","",""
"7195","","image-button-response","249","2881365","0.0-241.0","A13CXQGLSH6QY8","img_art/20.jpg","5","","","","","","","","","","","","","","","","","","","","","","","","",""
"7721","","image-button-response","250","2889086","0.0-242.0-0.0","A13CXQGLSH6QY8","img_art/20.jpg","1","","","","","","","","","","","","","","","","","","","","","","","","",""
"3445","","image-button-response","251","2892531","0.0-243.0-0.0","A13CXQGLSH6QY8","img_art/20.jpg","2","","","","","","","","","","","","","","","","","","","","","","","","",""
"null","","html-keyboard-response","252","2894031","0.0-244.0","A13CXQGLSH6QY8","<p style=""font-size: 48px;"">+</p>","","","","","null","allTrialResponses","1500","1","28","img_art/20.jpg","20","City by the water","Caroline,Cheyenne,Kayla,Kelly,Gabrielle,Chelsea","Makes me feel weary,21,100,20","Liked the background,15,200,20","Something fell over and is burning, but it's kinda dope, you know?,14,180,20","I want to like this more, but i wish it was more detailed. It's hard for me to see what it is.,5,220,20","The white blob on the left seems out of place,-34,160,20","It is abstract but it looks neat.,15,180,20","Chelsea","It is abstract but it looks neat.,15,180,20","Cheyenne","Liked the background,15,200,20","Kayla","Something fell over and is burning, but it's kinda dope, you know?,14,180,20","14"
"38748","","survey-text","253","2932802","0.0-245.0-0.0","A13CXQGLSH6QY8","","","","{""Q0"":""too plain""}","","","","","","","","","","","","","","","","","","","","","","",""
"3797","","image-slider-response","254","2936599","0.0-246.0","A13CXQGLSH6QY8","","","","","-19","","","","","","","","","","","","","","","","","","","","","",""
"4317","","image-button-response","255","2941599","0.0-247.0","A13CXQGLSH6QY8","img_art/30.jpg","0","","","","","","","","","","","","","","","","","","","","","","","","",""
"481","","image-button-response","256","2942082","0.0-248.0","A13CXQGLSH6QY8","img_art/30.jpg","0","","","","","","","","","","","","","","","","","","","","","","","","",""
"1359","","image-button-response","257","2943441","0.0-249.0-0.0","A13CXQGLSH6QY8","img_art/30.jpg","0","","","","","","","","","","","","","","","","","","","","","","","","",""
"1031","","image-button-response","258","2956722","0.0-249.1-0.1","A13CXQGLSH6QY8","img_art/30.jpg","5","","","","","","","","","","","","","","","","","","","","","","","","",""
"2192","","image-button-response","259","2958914","0.0-250.0-0.0","A13CXQGLSH6QY8","img_art/30.jpg","0","","","","","","","","","","","","","","","","","","","","","","","","",""
"5676","","image-button-response","260","2967506","0.0-250.1-0.1","A13CXQGLSH6QY8","img_art/30.jpg","3","","","","","","","","","","","","","","","","","","","","","","","","",""
"null","","html-keyboard-response","261","2968506","0.0-251.0","A13CXQGLSH6QY8","<p style=""font-size: 48px;"">+</p>","","","","","null","allTrialResponses","1000","1","29","img_art/30.jpg","-19","too plain","Jordan,Cheyenne,Kayla,Caitlin,Madison,Chelsea","cant see the meaning behind it,-20,20,20","A bit too dark for my liking,-10,200,20","It's soothing- the page is full, but there aren't too many things happening.,23,180,20","My kid drew this same picture at daycare!!!,5,80,20","Interesting brushstroke work, but not particularly memorable.,21,60,20","It looks like it was painted in 5 minutes.,-32,180,20","Jordan","cant see the meaning behind it,-20,20,20","Chelsea","It looks like it was painted in 5 minutes.,-32,180,20","Caitlin","My kid drew this same picture at daycare!!!,5,80,20","18"
"10467","","survey-text","262","2978982","0.0-252.0-0.0","A13CXQGLSH6QY8","","","","{""Q0"":""stormy day""}","","","","","","","","","","","","","","","","","","","","","","",""
"3050","","image-slider-response","263","2982031","0.0-253.0","A13CXQGLSH6QY8","","","","","16","","","","","","","","","","","","","","","","","","","","","",""
"null","","image-button-response","264","2987031","0.0-254.0","A13CXQGLSH6QY8","img_art/21.jpg","null","","","","","","","","","","","","","","","","","","","","","","","","",""
"1746","","image-button-response","265","2988778","0.0-255.0","A13CXQGLSH6QY8","img_art/21.jpg","4","","","","","","","","","","","","","","","","","","","","","","","","",""
"7832","","image-button-response","266","2996610","0.0-256.0-0.0","A13CXQGLSH6QY8","img_art/21.jpg","5","","","","","","","","","","","","","","","","","","","","","","","","",""
"12838","","image-button-response","267","3009448","0.0-257.0-0.0","A13CXQGLSH6QY8","img_art/21.jpg","2","","","","","","","","","","","","","","","","","","","","","","","","",""
"null","","html-keyboard-response","268","3010948","0.0-258.0","A13CXQGLSH6QY8","<p style=""font-size: 48px;"">+</p>","","","","","null","allTrialResponses","1500","1","30","img_art/21.jpg","16","stormy day","Jordan,Mary,Sydney,Caitlin,Hailey,Chelsea","Okay, I love the color schemes, I can't quite figure it out though,14,20,20","This is lovely. I like the mix of colors, the warn and cool slowly combining.,39,180,20","I love everything about this piece.,50,320,20","Remove the rocks(?) on the lower right.,5,80,20","ocean and rocks at the beach,11,200,20","I like the colors. It looks dramatic.,5,180,20","Hailey","ocean and rocks at the beach,11,200,20","Chelsea","I like the colors. It looks dramatic.,5,180,20","Sydney","I love everything about this piece.,50,320,20","18"
"14800","","image-button-response_instructions","269","3025758","0.0-259.0","A13CXQGLSH6QY8","","0","instructions","","","","","","","","","","","","","","","","","","","","","","","",""
"1771","","image-button-response","270","3027529","0.0-260.0","A13CXQGLSH6QY8","","0","","","","","","","","","","","","","","","","","","","","","","","","",""
