"rt","url","trial_type","trial_index","time_elapsed","internal_node_id","participant_id","stimulus","button_pressed","Name","responses","response","key_press","variableName","fixationTime","condition","trial","photo","subjectRating","subjectResponse","agentsNames","agent_1_Response","agent_2_Response","agent_3_Response","agent_4_Response","agent_5_Response","agent_6_Response","kept_1_name","kept_1_response","kept_2_name","kept_2_response","kept_3_name","kept_3_response","errorCounter"
"32433","external_page_harvard.html","external-html","0","32511","0.0-0.0","A13O22EMG5ZVN0","","","","","","","","","","","","","","","","","","","","","","","","","","",""
"1151","","image-button-response","1","33664","0.0-1.0","A13O22EMG5ZVN0","","0","","","","","","","","","","","","","","","","","","","","","","","","",""
"1921","","image-button-response","2","35589","0.0-2.0-0.0","A13O22EMG5ZVN0","","1","phone","","","","","","","","","","","","","","","","","","","","","","","",""
"178853","","survey-text","3","214444","0.0-3.0-0.0","A13O22EMG5ZVN0","","","","{""Q0"":""A13O22EMG5ZVN0""}","","","","","","","","","","","","","","","","","","","","","","",""
"136150","","image-button-response_instructions","4","350596","0.0-4.0","A13O22EMG5ZVN0","","0","instructions","","","","","","","","","","","","","","","","","","","","","","","",""
"8554","","image-button-response_instructions","5","359152","0.0-5.0","A13O22EMG5ZVN0","img_art/ins/popularity/ins1.png","0","instructions","","","","","","","","","","","","","","","","","","","","","","","",""
"2828","","image-button-response_instructions","6","361982","0.0-6.0","A13O22EMG5ZVN0","img_art/ins/popularity/ins2.png","0","instructions","","","","","","","","","","","","","","","","","","","","","","","",""
"4416","","image-button-response_instructions","7","366400","0.0-7.0","A13O22EMG5ZVN0","img_art/ins/popularity/ins2Extreme.png","0","instructions","","","","","","","","","","","","","","","","","","","","","","","",""
"1321","","image-button-response_instructions","8","367722","0.0-8.0","A13O22EMG5ZVN0","img_art/ins/popularity/ins3KEEPpop.PNG","0","instructions","","","","","","","","","","","","","","","","","","","","","","","",""
"1881","","image-button-response_instructions","9","369604","0.0-9.0","A13O22EMG5ZVN0","img_art/ins/popularity/ins3ANamepop.PNG","0","instructions","","","","","","","","","","","","","","","","","","","","","","","",""
"756","","image-button-response_instructions","10","370362","0.0-10.0","A13O22EMG5ZVN0","img_art/ins/popularity/ins3ARatingpop.png","0","instructions","","","","","","","","","","","","","","","","","","","","","","","",""
"791","","image-button-response_instructions","11","371155","0.0-11.0","A13O22EMG5ZVN0","img_art/ins/popularity/ins3ATextpop.png","0","instructions","","","","","","","","","","","","","","","","","","","","","","","",""
"521","","image-button-response_instructions","12","371677","0.0-12.0","A13O22EMG5ZVN0","img_art/ins/popularity/ins3ALikespop.png","0","instructions","","","","","","","","","","","","","","","","","","","","","","","",""
"587","","image-button-response_instructions","13","372265","0.0-13.0","A13O22EMG5ZVN0","img_art/ins/popularity/ins3KEEPpop.PNG","0","instructions","","","","","","","","","","","","","","","","","","","","","","","",""
"594","","image-button-response_instructions","14","372861","0.0-14.0","A13O22EMG5ZVN0","img_art/ins/popularity/ins3_5RED.png","0","instructions","","","","","","","","","","","","","","","","","","","","","","","",""
"498","","image-button-response_instructions","15","373361","0.0-15.0","A13O22EMG5ZVN0","img_art/ins/popularity/ins3KEEPpop.PNG","0","instructions","","","","","","","","","","","","","","","","","","","","","","","",""
"705","","image-button-response_instructions","16","374066","0.0-16.0","A13O22EMG5ZVN0","img_art/ins/popularity/ins4KEEPpop.PNG","0","instructions","","","","","","","","","","","","","","","","","","","","","","","",""
"609","","image-button-response_instructions","17","374677","0.0-17.0","A13O22EMG5ZVN0","img_art/ins/popularity/ins5KEEPpop.PNG","0","instructions","","","","","","","","","","","","","","","","","","","","","","","",""
"609","","image-button-response_instructions","18","375286","0.0-18.0","A13O22EMG5ZVN0","","0","instructions","","","","","","","","","","","","","","","","","","","","","","","",""
"7813","","survey-text","19","383123","0.0-19.0-0.0","A13O22EMG5ZVN0","","","","{""Q0"":""BUT""}","","","","","","","","","","","","","","","","","","","","","","",""
"8746","","survey-text","20","394496","0.0-19.1-0.1","A13O22EMG5ZVN0","","","","{""Q0"":""but""}","","","","","","","","","","","","","","","","","","","","","","",""
"7730","","survey-text","21","402227","0.0-20.0-0.0","A13O22EMG5ZVN0","","","","{""Q0"":""very colorful""}","","","","","","","","","","","","","","","","","","","","","","",""
"5048.699999999255","","image-slider-response","22","407279","0.0-21.0","A13O22EMG5ZVN0","","","","","10","","","","","","","","","","","","","","","","","","","","","",""
"null","","image-button-response","23","412285","0.0-22.0","A13O22EMG5ZVN0","img_art/ins/1.jpg","null","","","","","","","","","","","","","","","","","","","","","","","","",""
"31337","","image-button-response","24","443623","0.0-23.0","A13O22EMG5ZVN0","img_art/ins/1.jpg","1","","","","","","","","","","","","","","","","","","","","","","","","",""
"3085","","image-button-response","25","446711","0.0-24.0-0.0","A13O22EMG5ZVN0","img_art/ins/1.jpg","5","","","","","","","","","","","","","","","","","","","","","","","","",""
"1084","","image-button-response","26","447797","0.0-25.0-0.0","A13O22EMG5ZVN0","img_art/ins/1.jpg","3","","","","","","","","","","","","","","","","","","","","","","","","",""
"null","","html-keyboard-response","27","448801","0.0-26.0","A13O22EMG5ZVN0","<p style=""font-size: 48px;"">+</p>","","","","","null","allTrialResponses","1000","1","-2","img_art/ins/1.jpg","10","very colorful","Adam,Alex,Ben,Carl,Daniel,Jack","Seems like doodles,-20,20,20","very creative work.,36,40,20","This color reminds me of poo,-46,60,20","very calming artwork,42,80,20","It looks like a murder scene.,-48,100,20","I like the sophisticated brushwork,40,120,20","Alex","very creative work.,36,40,20","Jack","I like the sophisticated brushwork,40,120,20","Carl","very calming artwork,42,80,20","1"
"25065","","survey-text","28","473870","0.0-27.0-0.0","A13O22EMG5ZVN0","","","","{""Q0"":""calm and dreary""}","","","","","","","","","","","","","","","","","","","","","","",""
"3379.2999999998137","","image-slider-response","29","477251","0.0-28.0","A13O22EMG5ZVN0","","","","","21","","","","","","","","","","","","","","","","","","","","","",""
"2202","","image-button-response","30","482256","0.0-29.0","A13O22EMG5ZVN0","img_art/ins/2.jpg","1","","","","","","","","","","","","","","","","","","","","","","","","",""
"727","","image-button-response","31","482985","0.0-30.0","A13O22EMG5ZVN0","img_art/ins/2.jpg","3","","","","","","","","","","","","","","","","","","","","","","","","",""
"314","","image-button-response","32","483300","0.0-31.0-0.0","A13O22EMG5ZVN0","img_art/ins/2.jpg","4","","","","","","","","","","","","","","","","","","","","","","","","",""
"1616","","image-button-response","33","484919","0.0-32.0-0.0","A13O22EMG5ZVN0","img_art/ins/2.jpg","5","","","","","","","","","","","","","","","","","","","","","","","","",""
"null","","html-keyboard-response","34","486426","0.0-33.0","A13O22EMG5ZVN0","<p style=""font-size: 48px;"">+</p>","","","","","null","allTrialResponses","1500","1","-1","img_art/ins/2.jpg","21","calm and dreary","James,Alex,Kyle,Carl,John,Jack","looks too angry,-50,140,20","I like the blocks of color arrangements,30,40,20","Idk, it is just annoying,-32,180,20","I can feel the artist's passion in it,45,80,20","love the texture of paint,48,160,20","I would never be able to compose a sophisticated pallete like this,48,120,20","Carl","I can feel the artist's passion in it,45,80,20","John","love the texture of paint,48,160,20","Jack","I would never be able to compose a sophisticated pallete like this,48,120,20","1"
"7788","","survey-text","35","494217","0.0-34.0-0.0","A13O22EMG5ZVN0","","","","{""Q0"":""is very calm and speratic""}","","","","","","","","","","","","","","","","","","","","","","",""
"2093.5","","image-slider-response","36","496312","0.0-35.0","A13O22EMG5ZVN0","","","","","9","","","","","","","","","","","","","","","","","","","","","",""
"1976","","image-button-response","37","501321","0.0-36.0","A13O22EMG5ZVN0","img_art/ins/3.jpg","0","","","","","","","","","","","","","","","","","","","","","","","","",""
"930","","image-button-response","38","502253","0.0-37.0","A13O22EMG5ZVN0","img_art/ins/3.jpg","5","","","","","","","","","","","","","","","","","","","","","","","","",""
"888","","image-button-response","39","503142","0.0-38.0-0.0","A13O22EMG5ZVN0","img_art/ins/3.jpg","1","","","","","","","","","","","","","","","","","","","","","","","","",""
"387","","image-button-response","40","503531","0.0-39.0-0.0","A13O22EMG5ZVN0","img_art/ins/3.jpg","0","","","","","","","","","","","","","","","","","","","","","","","","",""
"null","","html-keyboard-response","41","504035","0.0-40.0","A13O22EMG5ZVN0","<p style=""font-size: 48px;"">+</p>","","","","","null","allTrialResponses","500","1","0","img_art/ins/3.jpg","9","is very calm and speratic","Mike,Sam,Ron,Carl,John,Jack","enjoy the different shades of blue,22,200,20","I can feel a rainy day from this painting,18,240,20","It looks depressing,-26,220,20","It's an alright work,15,80,20","I like the overlapping of brushes,41,160,20","I feel connected to the artist,40,120,20","Jack","I feel connected to the artist,40,120,20","Sam","I can feel a rainy day from this painting,18,240,20","Mike","enjoy the different shades of blue,22,200,20","1"
"1977","","image-button-response_instructions","42","506016","0.0-41.0","A13O22EMG5ZVN0","","0","instructions","","","","","","","","","","","","","","","","","","","","","","","",""
"2145","","survey-likert","43","508162","0.0-42.0-0.0","A13O22EMG5ZVN0","","","","{""Q0"":"""",""Q1"":"""",""Q2"":""""}","","","","","","","","","","","","","","","","","","","","","","",""
"9347","","survey-likert","44","518773","0.0-42.1-0.1","A13O22EMG5ZVN0","","","","{""Q0"":"""",""Q1"":0,""Q2"":1}","","","","","","","","","","","","","","","","","","","","","","",""
"3381","","survey-text","45","522161","0.0-43.0-0.0","A13O22EMG5ZVN0","","","","{""Q0"":""rock""}","","","","","","","","","","","","","","","","","","","","","","",""
"5526","","survey-text","46","527689","0.0-44.0-0.0","A13O22EMG5ZVN0","","","","{""Q0"":""its okay""}","","","","","","","","","","","","","","","","","","","","","","",""
"6335.200000000186","","image-slider-response","47","534025","0.0-45.0","A13O22EMG5ZVN0","","","","","4","","","","","","","","","","","","","","","","","","","","","",""
"4820","","image-button-response","48","539052","0.0-46.0","A13O22EMG5ZVN0","img_art/4.jpg","0","","","","","","","","","","","","","","","","","","","","","","","","",""
"1853","","image-button-response","49","540907","0.0-47.0","A13O22EMG5ZVN0","img_art/4.jpg","1","","","","","","","","","","","","","","","","","","","","","","","","",""
"1461","","image-button-response","50","542370","0.0-48.0-0.0","A13O22EMG5ZVN0","img_art/4.jpg","3","","","","","","","","","","","","","","","","","","","","","","","","",""
"1616","","image-button-response","51","543988","0.0-49.0-0.0","A13O22EMG5ZVN0","img_art/4.jpg","0","","","","","","","","","","","","","","","","","","","","","","","","",""
"null","","html-keyboard-response","52","544993","0.0-50.0","A13O22EMG5ZVN0","<p style=""font-size: 48px;"">+</p>","","","","","null","allTrialResponses","1000","1","1","img_art/4.jpg","4","its okay","Chase,Matthew,Garrett,Alejandro,Isaiah,Eric","It looks like smeared poop.,-27,120,20","It looks like a hand.,25,120,20","I think that this picture is too boring in terms of color and it looks ugly.,-41,180,20","Looks like finger nails from the Guinness world record book.,-30,80,20","The sickly looking colors make me feel very uncomfortable.,-35,300,20","This piece catches my eye, but it's strange to me.,10,100,20","Matthew","It looks like a hand.,25,120,20","Alejandro","Looks like finger nails from the Guinness world record book.,-30,80,20","Chase","It looks like smeared poop.,-27,120,20","2"
"64071","","survey-text","53","609068","0.0-51.0-0.0","A13O22EMG5ZVN0","","","","{""Q0"":""its very dull ""}","","","","","","","","","","","","","","","","","","","","","","",""
"1954","","image-slider-response","54","611024","0.0-52.0","A13O22EMG5ZVN0","","","","","-22","","","","","","","","","","","","","","","","","","","","","",""
"2769","","image-button-response","55","616030","0.0-53.0","A13O22EMG5ZVN0","img_art/7.jpg","2","","","","","","","","","","","","","","","","","","","","","","","","",""
"373","","image-button-response","56","616405","0.0-54.0","A13O22EMG5ZVN0","img_art/7.jpg","5","","","","","","","","","","","","","","","","","","","","","","","","",""
"1204","","image-button-response","57","617612","0.0-55.0-0.0","A13O22EMG5ZVN0","img_art/7.jpg","1","","","","","","","","","","","","","","","","","","","","","","","","",""
"681","","image-button-response","58","618295","0.0-56.0-0.0","A13O22EMG5ZVN0","img_art/7.jpg","2","","","","","","","","","","","","","","","","","","","","","","","","",""
"null","","html-keyboard-response","59","619297","0.0-57.0","A13O22EMG5ZVN0","<p style=""font-size: 48px;"">+</p>","","","","","null","allTrialResponses","1000","1","2","img_art/7.jpg","-22","its very dull ","Chase,Matthew,Sean,Alejandro,Jacob,Joseph","Just looks like rocks or some kind of mineral.,0,120,20","landscape of amrs, yawn.,-25,120,20","does not look good,-42,40,20","I thought I was looking at a satellite image of mars.,21,80,20","Looks like a natural texture, reminds me of rocks.,0,340,20","Dinosaur bones. Death.,-14,220,20","Joseph","Dinosaur bones. Death.,-14,220,20","Matthew","landscape of amrs, yawn.,-25,120,20","Sean","does not look good,-42,40,20","2"
"6748","","survey-text","60","626049","0.0-58.0-0.0","A13O22EMG5ZVN0","","","","{""Q0"":""its spooky""}","","","","","","","","","","","","","","","","","","","","","","",""
"2308","","image-slider-response","61","628359","0.0-59.0","A13O22EMG5ZVN0","","","","","22","","","","","","","","","","","","","","","","","","","","","",""
"2951","","image-button-response","62","633361","0.0-60.0","A13O22EMG5ZVN0","img_art/25.jpg","3","","","","","","","","","","","","","","","","","","","","","","","","",""
"935","","image-button-response","63","634298","0.0-61.0","A13O22EMG5ZVN0","img_art/25.jpg","4","","","","","","","","","","","","","","","","","","","","","","","","",""
"322","","image-button-response","64","634622","0.0-62.0-0.0","A13O22EMG5ZVN0","img_art/25.jpg","3","","","","","","","","","","","","","","","","","","","","","","","","",""
"1277","","image-button-response","65","635900","0.0-63.0-0.0","A13O22EMG5ZVN0","img_art/25.jpg","1","","","","","","","","","","","","","","","","","","","","","","","","",""
"null","","html-keyboard-response","66","637406","0.0-64.0","A13O22EMG5ZVN0","<p style=""font-size: 48px;"">+</p>","","","","","null","allTrialResponses","1500","1","3","img_art/25.jpg","22","its spooky","Miguel,Matthew,Sean,Steven,Lucas,Joseph","This is too simple,-22,160,20","haunting, a lovely impression.,50,120,20","my response to the picture its weird,-9,40,20","It's fine, belongs in a church, or somewhere else mystical,15,160,20","Well-designed, interesting.,30,380,20","Ghosts are NOT my thing.,-13,220,20","Lucas","Well-designed, interesting.,30,380,20","Steven","It's fine, belongs in a church, or somewhere else mystical,15,160,20","Matthew","haunting, a lovely impression.,50,120,20","2"
"8458","","survey-text","67","645869","0.0-65.0-0.0","A13O22EMG5ZVN0","","","","{""Q0"":""its a knight on a horse""}","","","","","","","","","","","","","","","","","","","","","","",""
"2623","","image-slider-response","68","648494","0.0-66.0","A13O22EMG5ZVN0","","","","","17","","","","","","","","","","","","","","","","","","","","","",""
"1453","","image-button-response","69","653777","0.0-67.0","A13O22EMG5ZVN0","img_art/18.jpg","1","","","","","","","","","","","","","","","","","","","","","","","","",""
"4066","","image-button-response","70","657845","0.0-68.0","A13O22EMG5ZVN0","img_art/18.jpg","3","","","","","","","","","","","","","","","","","","","","","","","","",""
"379","","image-button-response","71","658227","0.0-69.0-0.0","A13O22EMG5ZVN0","img_art/18.jpg","4","","","","","","","","","","","","","","","","","","","","","","","","",""
"504","","image-button-response","72","658735","0.0-70.0-0.0","A13O22EMG5ZVN0","img_art/18.jpg","5","","","","","","","","","","","","","","","","","","","","","","","","",""
"null","","html-keyboard-response","73","660594","0.0-71.0","A13O22EMG5ZVN0","<p style=""font-size: 48px;"">+</p>","","","","","null","allTrialResponses","1500","1","4","img_art/18.jpg","17","its a knight on a horse","Nathaniel,Matthew,Anthony,Steven,Lucas,Spencer","Looks like a jumbled mess. I prefer a clearer picture,-18,220,20","Resembles a ship at sea, storm of activity.,28,120,20","I have no strong feelings about this image,1,200,20","Oh heck yes! I see two warriors riding down from valhalla, awesome painting,50,160,20","White and yellow look awesome and the picture's dynamics are wonderful.,30,380,20","I really like it, like hells drivers,43,120,20","Steven","Oh heck yes! I see two warriors riding down from valhalla, awesome painting,50,160,20","Lucas","White and yellow look awesome and the picture's dynamics are wonderful.,30,380,20","Spencer","I really like it, like hells drivers,43,120,20","2"
"14782","","survey-text","74","675379","0.0-72.0-0.0","A13O22EMG5ZVN0","","","","{""Q0"":""its smears""}","","","","","","","","","","","","","","","","","","","","","","",""
"2837.0999999996275","","image-slider-response","75","678218","0.0-73.0","A13O22EMG5ZVN0","","","","","7","","","","","","","","","","","","","","","","","","","","","",""
"1335","","image-button-response","76","683226","0.0-74.0","A13O22EMG5ZVN0","img_art/30.jpg","1","","","","","","","","","","","","","","","","","","","","","","","","",""
"511","","image-button-response","77","683740","0.0-75.0","A13O22EMG5ZVN0","img_art/30.jpg","4","","","","","","","","","","","","","","","","","","","","","","","","",""
"344","","image-button-response","78","684086","0.0-76.0-0.0","A13O22EMG5ZVN0","img_art/30.jpg","5","","","","","","","","","","","","","","","","","","","","","","","","",""
"755","","image-button-response","79","684843","0.0-77.0-0.0","A13O22EMG5ZVN0","img_art/30.jpg","1","","","","","","","","","","","","","","","","","","","","","","","","",""
"null","","html-keyboard-response","80","685350","0.0-78.0","A13O22EMG5ZVN0","<p style=""font-size: 48px;"">+</p>","","","","","null","allTrialResponses","500","1","5","img_art/30.jpg","7","its smears","Marcus,Zachary,William,Steven,Lucas,Spencer","Really don't like this piece. It feels very lazy to me.,-31,60,20","I like this one because I am a mom and it reminds me of a child finger-painting.,20,400,20","to dark and dreary,-28,380,20","cant see the meaning behind it,-20,160,20","I like the way the artist has painted his work.,40,380,20","Interesting, almost an underworld of plant life,11,120,20","Lucas","I like the way the artist has painted his work.,40,380,20","Spencer","Interesting, almost an underworld of plant life,11,120,20","Zachary","I like this one because I am a mom and it reminds me of a child finger-painting.,20,400,20","2"
"3398","","survey-text","81","688754","0.0-79.0-0.0","A13O22EMG5ZVN0","","","","{""Q0"":""sky""}","","","","","","","","","","","","","","","","","","","","","","",""
"12884","","survey-text","82","701639","0.0-80.0-0.0","A13O22EMG5ZVN0","","","","{""Q0"":""i like the playfulness""}","","","","","","","","","","","","","","","","","","","","","","",""
"2277.7999999998137","","image-slider-response","83","703919","0.0-81.0","A13O22EMG5ZVN0","","","","","17","","","","","","","","","","","","","","","","","","","","","",""
"2548","","image-button-response","84","708922","0.0-82.0","A13O22EMG5ZVN0","img_art/26.jpg","5","","","","","","","","","","","","","","","","","","","","","","","","",""
"36041","","image-button-response","85","744966","0.0-83.0","A13O22EMG5ZVN0","img_art/26.jpg","3","","","","","","","","","","","","","","","","","","","","","","","","",""
"1093","","image-button-response","86","746061","0.0-84.0-0.0","A13O22EMG5ZVN0","img_art/26.jpg","5","","","","","","","","","","","","","","","","","","","","","","","","",""
"1227","","image-button-response","87","747290","0.0-85.0-0.0","A13O22EMG5ZVN0","img_art/26.jpg","2","","","","","","","","","","","","","","","","","","","","","","","","",""
"null","","html-keyboard-response","88","748297","0.0-86.0","A13O22EMG5ZVN0","<p style=""font-size: 48px;"">+</p>","","","","","null","allTrialResponses","1000","1","6","img_art/26.jpg","17","i like the playfulness","Shane,Zachary,Peter,Vincent,Lucas,Spencer","Colors are full and reminds me of a messy room,-9,80,20","Pretty trees and bushes around fancy brown stones. I like the soft nature.,20,400,20","Reminds me of a European street, I desire to walk in this picture,28,320,20","Small town and home feel on A nice day.,28,360,20","Nothing to say.,0,380,20","Really like it, a very nice neighborhood scene to me,42,120,20","Vincent","Small town and home feel on A nice day.,28,360,20","Spencer","Really like it, a very nice neighborhood scene to me,42,120,20","Peter","Reminds me of a European street, I desire to walk in this picture,28,320,20","2"
"9504","","survey-text","89","757805","0.0-87.0-0.0","A13O22EMG5ZVN0","","","","{""Q0"":""its a calm piece""}","","","","","","","","","","","","","","","","","","","","","","",""
"2607.5999999996275","","image-slider-response","90","760415","0.0-88.0","A13O22EMG5ZVN0","","","","","15","","","","","","","","","","","","","","","","","","","","","",""
"2305","","image-button-response","91","765417","0.0-89.0","A13O22EMG5ZVN0","img_art/28.jpg","2","","","","","","","","","","","","","","","","","","","","","","","","",""
"591","","image-button-response","92","766010","0.0-90.0","A13O22EMG5ZVN0","img_art/28.jpg","3","","","","","","","","","","","","","","","","","","","","","","","","",""
"358","","image-button-response","93","766370","0.0-91.0-0.0","A13O22EMG5ZVN0","img_art/28.jpg","4","","","","","","","","","","","","","","","","","","","","","","","","",""
"793","","image-button-response","94","767164","0.0-92.0-0.0","A13O22EMG5ZVN0","img_art/28.jpg","0","","","","","","","","","","","","","","","","","","","","","","","","",""
"null","","html-keyboard-response","95","768173","0.0-93.0","A13O22EMG5ZVN0","<p style=""font-size: 48px;"">+</p>","","","","","null","allTrialResponses","1000","1","7","img_art/28.jpg","15","its a calm piece","Logan,Daniel,Peter,Vincent,Corey,Spencer","I wish I knew why I liked it, maybes its the pinky tones,36,360,20","Compact grey mess lack negative space,-10,320,20","The earthy colors smeared around looks like prison food tray,-17,320,20","This is one of my favorites. It says to me to take time for people,37,360,20","i like the neutral color pallette but i dont know what i am looking at,26,260,20","Too me it's a mish mash, true abstract,-37,120,20","Vincent","This is one of my favorites. It says to me to take time for people,37,360,20","Corey","i like the neutral color pallette but i dont know what i am looking at,26,260,20","Logan","I wish I knew why I liked it, maybes its the pinky tones,36,360,20","2"
"19091","","survey-text","96","787269","0.0-94.0-0.0","A13O22EMG5ZVN0","","","","{""Q0"":""its very ethereal""}","","","","","","","","","","","","","","","","","","","","","","",""
"2975.899999999441","","image-slider-response","97","790246","0.0-95.0","A13O22EMG5ZVN0","","","","","37","","","","","","","","","","","","","","","","","","","","","",""
"null","","image-button-response","98","795249","0.0-96.0","A13O22EMG5ZVN0","img_art/23.jpg","null","","","","","","","","","","","","","","","","","","","","","","","","",""
"2685","","image-button-response","99","797936","0.0-97.0","A13O22EMG5ZVN0","img_art/23.jpg","1","","","","","","","","","","","","","","","","","","","","","","","","",""
"769","","image-button-response","100","798707","0.0-98.0-0.0","A13O22EMG5ZVN0","img_art/23.jpg","2","","","","","","","","","","","","","","","","","","","","","","","","",""
"1954","","image-button-response","101","800664","0.0-99.0-0.0","A13O22EMG5ZVN0","img_art/23.jpg","2","","","","","","","","","","","","","","","","","","","","","","","","",""
"860","","image-button-response","102","805178","0.0-99.1-0.1","A13O22EMG5ZVN0","img_art/23.jpg","5","","","","","","","","","","","","","","","","","","","","","","","","",""
"null","","html-keyboard-response","103","806182","0.0-100.0","A13O22EMG5ZVN0","<p style=""font-size: 48px;"">+</p>","","","","","null","allTrialResponses","1000","1","8","img_art/23.jpg","37","its very ethereal","Logan,Alexander,Devin,Vincent,Corey,Gregory","This looks like the cover art for a scene band,-29,360,20","Unicorns flying through a colorful space.,25,120,20","background is great but the white is a bit weird,3,380,20","Very happy , busy , free, and full of Hope,28,360,20","white reminds me of screamo music band tshirts when they have their name in the unreadable lettering,-9,260,20","Reminds me of outer space and the stars,30,220,20","Alexander","Unicorns flying through a colorful space.,25,120,20","Devin","background is great but the white is a bit weird,3,380,20","Gregory","Reminds me of outer space and the stars,30,220,20","4"
"9379","","survey-text","104","815564","0.0-101.0-0.0","A13O22EMG5ZVN0","","","","{""Q0"":""i like the abstract""}","","","","","","","","","","","","","","","","","","","","","","",""
"2403","","image-slider-response","105","817969","0.0-102.0","A13O22EMG5ZVN0","","","","","10","","","","","","","","","","","","","","","","","","","","","",""
"1440","","image-button-response","106","822972","0.0-103.0","A13O22EMG5ZVN0","img_art/2.jpg","2","","","","","","","","","","","","","","","","","","","","","","","","",""
"765","","image-button-response","107","823740","0.0-104.0","A13O22EMG5ZVN0","img_art/2.jpg","2","","","","","","","","","","","","","","","","","","","","","","","","",""
"402","","image-button-response","108","824144","0.0-105.0-0.0","A13O22EMG5ZVN0","img_art/2.jpg","1","","","","","","","","","","","","","","","","","","","","","","","","",""
"1146","","image-button-response","109","825291","0.0-106.0-0.0","A13O22EMG5ZVN0","img_art/2.jpg","0","","","","","","","","","","","","","","","","","","","","","","","","",""
"null","","html-keyboard-response","110","826298","0.0-107.0","A13O22EMG5ZVN0","<p style=""font-size: 48px;"">+</p>","","","","","null","allTrialResponses","1000","1","9","img_art/2.jpg","10","i like the abstract","Carlos,Alexander,Devin,Paul,Jonathan,Gregory","The colors are soothing, but the composition feels thoughtless.,-11,80,20","Old, dull, messy.,-10,120,20","I don't really like this style,-5,380,20","I like the blue color in the center but that's it, the green is a gross color,-3,300,20","It's a cool piece but honestly these color choices are the worst thing in the world,-31,140,20","Awful color coordination and design,-35,220,20","Devin","I don't really like this style,-5,380,20","Alexander","Old, dull, messy.,-10,120,20","Carlos","The colors are soothing, but the composition feels thoughtless.,-11,80,20","4"
"6687","","survey-text","111","832988","0.0-108.0-0.0","A13O22EMG5ZVN0","","","","{""Q0"":""its too boring for me""}","","","","","","","","","","","","","","","","","","","","","","",""
"2373.4000000003725","","image-slider-response","112","835363","0.0-109.0","A13O22EMG5ZVN0","","","","","-35","","","","","","","","","","","","","","","","","","","","","",""
"4615","","image-button-response","113","840375","0.0-110.0","A13O22EMG5ZVN0","img_art/13.jpg","4","","","","","","","","","","","","","","","","","","","","","","","","",""
"744","","image-button-response","114","841120","0.0-111.0","A13O22EMG5ZVN0","img_art/13.jpg","3","","","","","","","","","","","","","","","","","","","","","","","","",""
"2123","","image-button-response","115","843245","0.0-112.0-0.0","A13O22EMG5ZVN0","img_art/13.jpg","2","","","","","","","","","","","","","","","","","","","","","","","","",""
"711","","image-button-response","116","843959","0.0-113.0-0.0","A13O22EMG5ZVN0","img_art/13.jpg","4","","","","","","","","","","","","","","","","","","","","","","","","",""
"null","","html-keyboard-response","117","844465","0.0-114.0","A13O22EMG5ZVN0","<p style=""font-size: 48px;"">+</p>","","","","","null","allTrialResponses","500","1","10","img_art/13.jpg","-35","its too boring for me","Carlos,Alexander,Devin,Dylan,Jason,Christopher","Rain on a cold window.,22,80,20","Seeing the world through different lenses.,15,120,20","Really love the colors,11,380,20","I do like the blue colors in this.,12,40,20","Like the color choices,7,20,20","this is an appealing mix of textures to me and the color scheme is harmonious,36,160,20","Dylan","I do like the blue colors in this.,12,40,20","Devin","Really love the colors,11,380,20","Jason","Like the color choices,7,20,20","4"
"2920","","survey-text","118","847392","0.0-115.0-0.0","A13O22EMG5ZVN0","","","","{""Q0"":""our""}","","","","","","","","","","","","","","","","","","","","","","",""
"9836","","survey-text","119","857230","0.0-116.0-0.0","A13O22EMG5ZVN0","","","","{""Q0"":""i like the smoothness""}","","","","","","","","","","","","","","","","","","","","","","",""
"2123.0999999996275","","image-slider-response","120","859355","0.0-117.0","A13O22EMG5ZVN0","","","","","18","","","","","","","","","","","","","","","","","","","","","",""
"4159","","image-button-response","121","864356","0.0-118.0","A13O22EMG5ZVN0","img_art/11.jpg","1","","","","","","","","","","","","","","","","","","","","","","","","",""
"46537","","image-button-response","122","910895","0.0-119.0","A13O22EMG5ZVN0","img_art/11.jpg","1","","","","","","","","","","","","","","","","","","","","","","","","",""
"2438","","image-button-response","123","913336","0.0-120.0-0.0","A13O22EMG5ZVN0","img_art/11.jpg","3","","","","","","","","","","","","","","","","","","","","","","","","",""
"2038","","image-button-response","124","915378","0.0-121.0-0.0","A13O22EMG5ZVN0","img_art/11.jpg","4","","","","","","","","","","","","","","","","","","","","","","","","",""
"null","","html-keyboard-response","125","915884","0.0-122.0","A13O22EMG5ZVN0","<p style=""font-size: 48px;"">+</p>","","","","","null","allTrialResponses","500","1","11","img_art/11.jpg","18","i like the smoothness","Scott,Benjamin,Devin,Dylan,Jason,Angel","makes me feel dizzy,-37,20,20","Look like it's in constant movement.,10,260,20","I like the vibe of the painting,-3,380,20","I normally would not like this photo, but the design is nice.,21,40,20","Interesting use of color,9,20,20","This is disorienting, like motion sickness.,-20,180,20","Benjamin","Look like it's in constant movement.,10,260,20","Dylan","I normally would not like this photo, but the design is nice.,21,40,20","Jason","Interesting use of color,9,20,20","4"
"7806","","survey-text","126","923694","0.0-123.0-0.0","A13O22EMG5ZVN0","","","","{""Q0"":""i like the blends""}","","","","","","","","","","","","","","","","","","","","","","",""
"2041.4000000003725","","image-slider-response","127","925738","0.0-124.0","A13O22EMG5ZVN0","","","","","15","","","","","","","","","","","","","","","","","","","","","",""
"1306","","image-button-response","128","930742","0.0-125.0","A13O22EMG5ZVN0","img_art/1.jpg","4","","","","","","","","","","","","","","","","","","","","","","","","",""
"1125","","image-button-response","129","931870","0.0-126.0","A13O22EMG5ZVN0","img_art/1.jpg","3","","","","","","","","","","","","","","","","","","","","","","","","",""
"833","","image-button-response","130","932705","0.0-127.0-0.0","A13O22EMG5ZVN0","img_art/1.jpg","4","","","","","","","","","","","","","","","","","","","","","","","","",""
"1503","","image-button-response","131","934210","0.0-128.0-0.0","A13O22EMG5ZVN0","img_art/1.jpg","5","","","","","","","","","","","","","","","","","","","","","","","","",""
"null","","html-keyboard-response","132","934716","0.0-129.0","A13O22EMG5ZVN0","<p style=""font-size: 48px;"">+</p>","","","","","null","allTrialResponses","500","1","12","img_art/1.jpg","15","i like the blends","Justin,Benjamin,Timothy,Dylan,Jason,Evan","It reminds me of a sunset I once saw.,16,280,20","Really like all of the colors and how they mesh well.,27,260,20","This one has a pleasent energy,15,240,20","I love the warm colors of the art,32,40,20","Interesting blend of colors,9,20,20","It is beautiful, I really enjoy the colors,32,140,20","Dylan","I love the warm colors of the art,32,40,20","Jason","Interesting blend of colors,9,20,20","Evan","It is beautiful, I really enjoy the colors,32,140,20","4"
"23969","","survey-text","133","958688","0.0-130.0-0.0","A13O22EMG5ZVN0","","","","{""Q0"":""i like the chaos in the middle""}","","","","","","","","","","","","","","","","","","","","","","",""
"2945.0999999996275","","image-slider-response","134","961635","0.0-131.0","A13O22EMG5ZVN0","","","","","12","","","","","","","","","","","","","","","","","","","","","",""
"2225","","image-button-response","135","966638","0.0-132.0","A13O22EMG5ZVN0","img_art/14.jpg","3","","","","","","","","","","","","","","","","","","","","","","","","",""
"48498","","image-button-response","136","1015138","0.0-133.0","A13O22EMG5ZVN0","img_art/14.jpg","3","","","","","","","","","","","","","","","","","","","","","","","","",""
"741","","image-button-response","137","1015881","0.0-134.0-0.0","A13O22EMG5ZVN0","img_art/14.jpg","4","","","","","","","","","","","","","","","","","","","","","","","","",""
"738","","image-button-response","138","1016622","0.0-135.0-0.0","A13O22EMG5ZVN0","img_art/14.jpg","5","","","","","","","","","","","","","","","","","","","","","","","","",""
"null","","html-keyboard-response","139","1018129","0.0-136.0","A13O22EMG5ZVN0","<p style=""font-size: 48px;"">+</p>","","","","","null","allTrialResponses","1500","1","13","img_art/14.jpg","12","i like the chaos in the middle","Dakota,Adam,Juan,Dylan,Jason,Evan","feels incomplete, poorly planned/executed,-34,280,20","Very abstract. Unsure of what I'm looking at. No emotions towards it.,-6,40,20","I don't like the colors, but I espeically don't like all the negative space.,-20,260,20","Pretty, dainty, unique,22,40,20","Focal point is interesting,5,20,20","I like the sharpness of the lines,20,140,20","Dylan","Pretty, dainty, unique,22,40,20","Jason","Focal point is interesting,5,20,20","Evan","I like the sharpness of the lines,20,140,20","4"
"89903","","survey-text","140","1108037","0.0-137.0-0.0","A13O22EMG5ZVN0","","","","{""Q0"":""i like the colors""}","","","","","","","","","","","","","","","","","","","","","","",""
"6450.0999999996275","","image-slider-response","141","1114496","0.0-138.0","A13O22EMG5ZVN0","","","","","22","","","","","","","","","","","","","","","","","","","","","",""
"4231","","image-button-response","142","1119504","0.0-139.0","A13O22EMG5ZVN0","img_art/17.jpg","3","","","","","","","","","","","","","","","","","","","","","","","","",""
"36237","","image-button-response","143","1155743","0.0-140.0","A13O22EMG5ZVN0","img_art/17.jpg","3","","","","","","","","","","","","","","","","","","","","","","","","",""
"863","","image-button-response","144","1156609","0.0-141.0-0.0","A13O22EMG5ZVN0","img_art/17.jpg","4","","","","","","","","","","","","","","","","","","","","","","","","",""
"678","","image-button-response","145","1157290","0.0-142.0-0.0","A13O22EMG5ZVN0","img_art/17.jpg","5","","","","","","","","","","","","","","","","","","","","","","","","",""
"null","","html-keyboard-response","146","1157793","0.0-143.0","A13O22EMG5ZVN0","<p style=""font-size: 48px;"">+</p>","","","","","null","allTrialResponses","500","1","14","img_art/17.jpg","22","i like the colors","Jake,Connor,Brian,Dylan,Jason,Evan","This could have been good but was poorly done.,-5,360,20","Windows indoor tree, weird palette,-11,240,20","I'm not into paintings of trees,-18,380,20","This is very beautiful and elegant.,42,40,20","Very beautiful,19,20,20","This reminds me of spring,24,140,20","Dylan","This is very beautiful and elegant.,42,40,20","Jason","Very beautiful,19,20,20","Evan","This reminds me of spring,24,140,20","4"
"64186","","survey-text","147","1221984","0.0-144.0-0.0","A13O22EMG5ZVN0","","","","{""Q0"":""its smoothness""}","","","","","","","","","","","","","","","","","","","","","","",""
"2608.199999999255","","image-slider-response","148","1224593","0.0-145.0","A13O22EMG5ZVN0","","","","","18","","","","","","","","","","","","","","","","","","","","","",""
"3460","","image-button-response","149","1229596","0.0-146.0","A13O22EMG5ZVN0","img_art/10.jpg","1","","","","","","","","","","","","","","","","","","","","","","","","",""
"839","","image-button-response","150","1230438","0.0-147.0","A13O22EMG5ZVN0","img_art/10.jpg","3","","","","","","","","","","","","","","","","","","","","","","","","",""
"1107","","image-button-response","151","1231547","0.0-148.0-0.0","A13O22EMG5ZVN0","img_art/10.jpg","0","","","","","","","","","","","","","","","","","","","","","","","","",""
"366","","image-button-response","152","1231915","0.0-149.0-0.0","A13O22EMG5ZVN0","img_art/10.jpg","1","","","","","","","","","","","","","","","","","","","","","","","","",""
"null","","html-keyboard-response","153","1232920","0.0-150.0","A13O22EMG5ZVN0","<p style=""font-size: 48px;"">+</p>","","","","","null","allTrialResponses","1000","1","15","img_art/10.jpg","18","its smoothness","Cameron,Mason,David,Dylan,Jason,Evan","artistic cello piece?,30,60,20","It's art. (for some),7,100,20","I can't really tell what this is suppose to represent, but overall I don't like the design.,-20,340,20","The longer I looked at this, the more I liked it,33,40,20","Picture looks smudged,-7,20,20","My immediate thought is WTF is this,-20,140,20","Dylan","The longer I looked at this, the more I liked it,33,40,20","Cameron","artistic cello piece?,30,60,20","Mason","It's art. (for some),7,100,20","4"
"3597","","survey-text","154","1236523","0.0-151.0-0.0","A13O22EMG5ZVN0","","","","{""Q0"":""course""}","","","","","","","","","","","","","","","","","","","","","","",""
"10370","","survey-text","155","1246895","0.0-152.0-0.0","A13O22EMG5ZVN0","","","","{""Q0"":""its like buildings and faces""}","","","","","","","","","","","","","","","","","","","","","","",""
"2093.2000000001863","","image-slider-response","156","1248990","0.0-153.0","A13O22EMG5ZVN0","","","","","8","","","","","","","","","","","","","","","","","","","","","",""
"2093","","image-button-response","157","1253993","0.0-154.0","A13O22EMG5ZVN0","img_art/8.jpg","1","","","","","","","","","","","","","","","","","","","","","","","","",""
"4645","","image-button-response","158","1258640","0.0-155.0","A13O22EMG5ZVN0","img_art/8.jpg","1","","","","","","","","","","","","","","","","","","","","","","","","",""
"1109","","image-button-response","159","1259751","0.0-156.0-0.0","A13O22EMG5ZVN0","img_art/8.jpg","2","","","","","","","","","","","","","","","","","","","","","","","","",""
"1137","","image-button-response","160","1260890","0.0-157.0-0.0","A13O22EMG5ZVN0","img_art/8.jpg","4","","","","","","","","","","","","","","","","","","","","","","","","",""
"null","","html-keyboard-response","161","1262396","0.0-158.0","A13O22EMG5ZVN0","<p style=""font-size: 48px;"">+</p>","","","","","null","allTrialResponses","1500","1","16","img_art/8.jpg","8","its like buildings and faces","Cameron,Mason,Jared,Dylan,Cody,Christian","what's going on here. looks like scary town.,-25,60,20","wow. blocky, angled, neat colors. The faces are what makes it. love it.,45,100,20","i love the colors, the church and the face,42,400,20","The colors are nice but the big face in the sky is creepy,-11,40,20","Love the colors & block-style,50,180,20","gives off inception vibes <3,50,140,20","Mason","wow. blocky, angled, neat colors. The faces are what makes it. love it.,45,100,20","Jared","i love the colors, the church and the face,42,400,20","Cody","Love the colors & block-style,50,180,20","4"
"13264","","survey-text","162","1275665","0.0-159.0-0.0","A13O22EMG5ZVN0","","","","{""Q0"":""i like the dark blends""}","","","","","","","","","","","","","","","","","","","","","","",""
"1864.7000000001863","","image-slider-response","163","1277531","0.0-160.0","A13O22EMG5ZVN0","","","","","16","","","","","","","","","","","","","","","","","","","","","",""
"null","","image-button-response","164","1282536","0.0-161.0","A13O22EMG5ZVN0","img_art/21.jpg","null","","","","","","","","","","","","","","","","","","","","","","","","",""
"896","","image-button-response","165","1283434","0.0-162.0","A13O22EMG5ZVN0","img_art/21.jpg","4","","","","","","","","","","","","","","","","","","","","","","","","",""
"321","","image-button-response","166","1283758","0.0-163.0-0.0","A13O22EMG5ZVN0","img_art/21.jpg","5","","","","","","","","","","","","","","","","","","","","","","","","",""
"856","","image-button-response","167","1284617","0.0-164.0-0.0","A13O22EMG5ZVN0","img_art/21.jpg","1","","","","","","","","","","","","","","","","","","","","","","","","",""
"null","","html-keyboard-response","168","1285622","0.0-165.0","A13O22EMG5ZVN0","<p style=""font-size: 48px;"">+</p>","","","","","null","allTrialResponses","1000","1","17","img_art/21.jpg","16","i like the dark blends","Tristan,Mason,Jared,Elijah,Cody,Jeffrey","A landscape that leaves me inspired and hopeful.,20,300,20","Don't know why I like it, cant describe, maybe many landscapes?,47,100,20","i like the way the colors divide the canvas.,16,400,20","Can't understand what it is,-27,80,20","Pretty, good colors,30,180,20","Relaxing and easy to look at,27,40,20","Cody","Pretty, good colors,30,180,20","Jeffrey","Relaxing and easy to look at,27,40,20","Mason","Don't know why I like it, cant describe, maybe many landscapes?,47,100,20","4"
"13775","","survey-text","169","1299400","0.0-166.0-0.0","A13O22EMG5ZVN0","","","","{""Q0"":""its just scribbles to me""}","","","","","","","","","","","","","","","","","","","","","","",""
"2306","","image-slider-response","170","1301708","0.0-167.0","A13O22EMG5ZVN0","","","","","7","","","","","","","","","","","","","","","","","","","","","",""
"null","","image-button-response","171","1306710","0.0-168.0","A13O22EMG5ZVN0","img_art/3.jpg","null","","","","","","","","","","","","","","","","","","","","","","","","",""
"524","","image-button-response","172","1307235","0.0-169.0","A13O22EMG5ZVN0","img_art/3.jpg","2","","","","","","","","","","","","","","","","","","","","","","","","",""
"727","","image-button-response","173","1307964","0.0-170.0-0.0","A13O22EMG5ZVN0","img_art/3.jpg","0","","","","","","","","","","","","","","","","","","","","","","","","",""
"702","","image-button-response","174","1308668","0.0-171.0-0.0","A13O22EMG5ZVN0","img_art/3.jpg","1","","","","","","","","","","","","","","","","","","","","","","","","",""
"null","","html-keyboard-response","175","1309172","0.0-172.0","A13O22EMG5ZVN0","<p style=""font-size: 48px;"">+</p>","","","","","null","allTrialResponses","500","1","18","img_art/3.jpg","7","its just scribbles to me","Travis,Mason,Patrick,Brandon,Cody,Jeffrey","I hate this...just a scribble of red.,-50,260,20","scribbles in red. 2 minute piece.,-30,100,20","Random use of red and looks scary,-50,280,20","Just scribbles. Not a fan.,-40,320,20","Feels upset .......,-10,180,20","Associates with blood and crime scene,-12,40,20","Patrick","Random use of red and looks scary,-50,280,20","Travis","I hate this...just a scribble of red.,-50,260,20","Mason","scribbles in red. 2 minute piece.,-30,100,20","4"
"11202","","survey-text","176","1320378","0.0-173.0-0.0","A13O22EMG5ZVN0","","","","{""Q0"":""i like the playfulness""}","","","","","","","","","","","","","","","","","","","","","","",""
"2320.4000000003725","","image-slider-response","177","1322700","0.0-174.0","A13O22EMG5ZVN0","","","","","6","","","","","","","","","","","","","","","","","","","","","",""
"null","","image-button-response","178","1327706","0.0-175.0","A13O22EMG5ZVN0","img_art/19.jpg","null","","","","","","","","","","","","","","","","","","","","","","","","",""
"108","","image-button-response","179","1327815","0.0-176.0","A13O22EMG5ZVN0","img_art/19.jpg","2","","","","","","","","","","","","","","","","","","","","","","","","",""
"425","","image-button-response","180","1328243","0.0-177.0-0.0","A13O22EMG5ZVN0","img_art/19.jpg","1","","","","","","","","","","","","","","","","","","","","","","","","",""
"343","","image-button-response","181","1328588","0.0-178.0-0.0","A13O22EMG5ZVN0","img_art/19.jpg","0","","","","","","","","","","","","","","","","","","","","","","","","",""
"null","","html-keyboard-response","182","1330095","0.0-179.0","A13O22EMG5ZVN0","<p style=""font-size: 48px;"">+</p>","","","","","null","allTrialResponses","1500","1","19","img_art/19.jpg","6","i like the playfulness","Travis,Mason,Patrick,John,Isaac,Taylor","Nuetral...can't think of anything to say,4,260,20","calming, like the drips,25,100,20","I like the vibrant color blocks,13,280,20","There's alot of elements to it bordering on clutter and chaotic,-20,120,20","It is too busy.,-34,280,20","Looks like a homeless man and this painting should be too.,-5,200,20","Patrick","I like the vibrant color blocks,13,280,20","Mason","calming, like the drips,25,100,20","Travis","Nuetral...can't think of anything to say,4,260,20","4"
"12534","","survey-text","183","1342633","0.0-180.0-0.0","A13O22EMG5ZVN0","","","","{""Q0"":""its okay""}","","","","","","","","","","","","","","","","","","","","","","",""
"4842.700000000186","","image-slider-response","184","1347477","0.0-181.0","A13O22EMG5ZVN0","","","","","0","","","","","","","","","","","","","","","","","","","","","",""
"4578","","image-button-response","185","1352487","0.0-182.0","A13O22EMG5ZVN0","img_art/27.jpg","1","","","","","","","","","","","","","","","","","","","","","","","","",""
"547","","image-button-response","186","1353036","0.0-183.0","A13O22EMG5ZVN0","img_art/27.jpg","1","","","","","","","","","","","","","","","","","","","","","","","","",""
"748","","image-button-response","187","1353786","0.0-184.0-0.0","A13O22EMG5ZVN0","img_art/27.jpg","4","","","","","","","","","","","","","","","","","","","","","","","","",""
"380","","image-button-response","188","1354168","0.0-185.0-0.0","A13O22EMG5ZVN0","img_art/27.jpg","3","","","","","","","","","","","","","","","","","","","","","","","","",""
"null","","html-keyboard-response","189","1355678","0.0-186.0","A13O22EMG5ZVN0","<p style=""font-size: 48px;"">+</p>","","","","","null","allTrialResponses","1500","1","20","img_art/27.jpg","0","its okay","Travis,Mason,Patrick,Austin,Samuel,Ryan","I don't like any of it...just scibbles.,-37,260,20","dont like it, don't hate it, meh.,2,100,20","Not cohesive design,-31,280,20","Like the abstractness of this picture,20,240,20","city at sunset brings happyness,10,400,20","I love the childish aspect to it,37,380,20","Mason","dont like it, don't hate it, meh.,2,100,20","Samuel","city at sunset brings happyness,10,400,20","Austin","Like the abstractness of this picture,20,240,20","4"
"2804","","survey-text","190","1358489","0.0-187.0-0.0","A13O22EMG5ZVN0","","","","{""Q0"":""we""}","","","","","","","","","","","","","","","","","","","","","","",""
"6929","","survey-text","191","1365419","0.0-188.0-0.0","A13O22EMG5ZVN0","","","","{""Q0"":""i really like the waterfall""}","","","","","","","","","","","","","","","","","","","","","","",""
"3269","","image-slider-response","192","1368691","0.0-189.0","A13O22EMG5ZVN0","","","","","28","","","","","","","","","","","","","","","","","","","","","",""
"3753","","image-button-response","193","1373696","0.0-190.0","A13O22EMG5ZVN0","img_art/24.jpg","3","","","","","","","","","","","","","","","","","","","","","","","","",""
"1218","","image-button-response","194","1374917","0.0-191.0","A13O22EMG5ZVN0","img_art/24.jpg","2","","","","","","","","","","","","","","","","","","","","","","","","",""
"659","","image-button-response","195","1375578","0.0-192.0-0.0","A13O22EMG5ZVN0","img_art/24.jpg","4","","","","","","","","","","","","","","","","","","","","","","","","",""
"585","","image-button-response","196","1376166","0.0-193.0-0.0","A13O22EMG5ZVN0","img_art/24.jpg","3","","","","","","","","","","","","","","","","","","","","","","","","",""
"null","","html-keyboard-response","197","1377169","0.0-194.0","A13O22EMG5ZVN0","<p style=""font-size: 48px;"">+</p>","","","","","null","allTrialResponses","1000","1","21","img_art/24.jpg","28","i really like the waterfall","Hunter,Mason,Tanner,Austin,Samuel,Alex","feels overdone, but still executed well,0,240,20","Nature, abstract, I'd hang this in my house.,37,100,20","calm, nature, safe, happy place,,50,180,20","Evokes pleasant feelings,50,240,20","tranquility in the stream,34,400,20","Looks like a waterfall or a brook, the colors are very nice,15,100,20","Tanner","calm, nature, safe, happy place,,50,180,20","Samuel","tranquility in the stream,34,400,20","Austin","Evokes pleasant feelings,50,240,20","4"
"7922","","survey-text","198","1385095","0.0-195.0-0.0","A13O22EMG5ZVN0","","","","{""Q0"":""i do not like the colors""}","","","","","","","","","","","","","","","","","","","","","","",""
"2247.0999999996275","","image-slider-response","199","1387344","0.0-196.0","A13O22EMG5ZVN0","","","","","-17","","","","","","","","","","","","","","","","","","","","","",""
"4546","","image-button-response","200","1392350","0.0-197.0","A13O22EMG5ZVN0","img_art/12.jpg","4","","","","","","","","","","","","","","","","","","","","","","","","",""
"717","","image-button-response","201","1393070","0.0-198.0","A13O22EMG5ZVN0","img_art/12.jpg","2","","","","","","","","","","","","","","","","","","","","","","","","",""
"652","","image-button-response","202","1393724","0.0-199.0-0.0","A13O22EMG5ZVN0","img_art/12.jpg","1","","","","","","","","","","","","","","","","","","","","","","","","",""
"733","","image-button-response","203","1394459","0.0-200.0-0.0","A13O22EMG5ZVN0","img_art/12.jpg","4","","","","","","","","","","","","","","","","","","","","","","","","",""
"null","","html-keyboard-response","204","1395967","0.0-201.0","A13O22EMG5ZVN0","<p style=""font-size: 48px;"">+</p>","","","","","null","allTrialResponses","1500","1","22","img_art/12.jpg","-17","i do not like the colors","Malik,Brendan,Tanner,Austin,Samuel,Caleb","I don't like it, but I appreciate the effort and technique,11,40,20","wtf is that i dont get it,-50,340,20","stressful, upsetting,-10,180,20","Explosion of texture,31,240,20","feels cluttered,-11,400,20","Almost natural flowing between abstract sections.,27,40,20","Tanner","stressful, upsetting,-10,180,20","Brendan","wtf is that i dont get it,-50,340,20","Samuel","feels cluttered,-11,400,20","4"
"7776","","survey-text","205","1403749","0.0-202.0-0.0","A13O22EMG5ZVN0","","","","{""Q0"":""i like the eerieness""}","","","","","","","","","","","","","","","","","","","","","","",""
"2533.600000000559","","image-slider-response","206","1406284","0.0-203.0","A13O22EMG5ZVN0","","","","","20","","","","","","","","","","","","","","","","","","","","","",""
"null","","image-button-response","207","1411293","0.0-204.0","A13O22EMG5ZVN0","img_art/6.jpg","null","","","","","","","","","","","","","","","","","","","","","","","","",""
"691","","image-button-response","208","1411986","0.0-205.0","A13O22EMG5ZVN0","img_art/6.jpg","3","","","","","","","","","","","","","","","","","","","","","","","","",""
"491","","image-button-response","209","1412479","0.0-206.0-0.0","A13O22EMG5ZVN0","img_art/6.jpg","4","","","","","","","","","","","","","","","","","","","","","","","","",""
"1768","","image-button-response","210","1414250","0.0-207.0-0.0","A13O22EMG5ZVN0","img_art/6.jpg","2","","","","","","","","","","","","","","","","","","","","","","","","",""
"null","","html-keyboard-response","211","1415754","0.0-208.0","A13O22EMG5ZVN0","<p style=""font-size: 48px;"">+</p>","","","","","null","allTrialResponses","1500","1","23","img_art/6.jpg","20","i like the eerieness","Jeremy,Brendan,Tanner,Kevin,Samuel,Devon","Kind of boring. I don't care for many abstracts,1,60,20","just an another tree on a desert?,9,340,20","loneliness, fragile, forever alone, a girl who's been there for eternity, only think tracking time is the length of her hair,9,180,20","Its the headless bird. But why?,21,320,20","surviving the dryness of life,30,400,20","This one also confuses me a bit.,-19,400,20","Kevin","Its the headless bird. But why?,21,320,20","Samuel","surviving the dryness of life,30,400,20","Tanner","loneliness, fragile, forever alone, a girl who's been there for eternity, only think tracking time is the length of her hair,9,180,20","4"
"11000","","survey-text","212","1426759","0.0-209.0-0.0","A13O22EMG5ZVN0","","","","{""Q0"":""i dont rly like the blend""}","","","","","","","","","","","","","","","","","","","","","","",""
"2070.0999999996275","","image-slider-response","213","1428831","0.0-210.0","A13O22EMG5ZVN0","","","","","-7","","","","","","","","","","","","","","","","","","","","","",""
"null","","image-button-response","214","1433834","0.0-211.0","A13O22EMG5ZVN0","img_art/22.jpg","null","","","","","","","","","","","","","","","","","","","","","","","","",""
"573","","image-button-response","215","1434409","0.0-212.0","A13O22EMG5ZVN0","img_art/22.jpg","2","","","","","","","","","","","","","","","","","","","","","","","","",""
"1131","","image-button-response","216","1435542","0.0-213.0-0.0","A13O22EMG5ZVN0","img_art/22.jpg","3","","","","","","","","","","","","","","","","","","","","","","","","",""
"542","","image-button-response","217","1436086","0.0-214.0-0.0","A13O22EMG5ZVN0","img_art/22.jpg","5","","","","","","","","","","","","","","","","","","","","","","","","",""
"null","","html-keyboard-response","218","1437588","0.0-215.0","A13O22EMG5ZVN0","<p style=""font-size: 48px;"">+</p>","","","","","null","allTrialResponses","1500","1","24","img_art/22.jpg","-7","i dont rly like the blend","Bryan,Mitchell,Tanner,Kevin,Samuel,Jorge","Love vibrant colors & the abstractness.,43,400,20","Scary monsters lurking causing confusion.,-40,180,20","fire, danger, resentful,-17,180,20","Looks hot where ever that is.,-8,320,20","ball of light in 90s,8,400,20","A key to the unknown,15,180,20","Tanner","fire, danger, resentful,-17,180,20","Kevin","Looks hot where ever that is.,-8,320,20","Jorge","A key to the unknown,15,180,20","4"
"10986","","survey-text","219","1448580","0.0-216.0-0.0","A13O22EMG5ZVN0","","","","{""Q0"":""i like the use of llike magazine paper""}","","","","","","","","","","","","","","","","","","","","","","",""
"2210.2999999998137","","image-slider-response","220","1450792","0.0-217.0","A13O22EMG5ZVN0","","","","","24","","","","","","","","","","","","","","","","","","","","","",""
"3533","","image-button-response","221","1455797","0.0-218.0","A13O22EMG5ZVN0","img_art/16.jpg","0","","","","","","","","","","","","","","","","","","","","","","","","",""
"742","","image-button-response","222","1456540","0.0-219.0","A13O22EMG5ZVN0","img_art/16.jpg","0","","","","","","","","","","","","","","","","","","","","","","","","",""
"660","","image-button-response","223","1457202","0.0-220.0-0.0","A13O22EMG5ZVN0","img_art/16.jpg","3","","","","","","","","","","","","","","","","","","","","","","","","",""
"1233","","image-button-response","224","1458436","0.0-221.0-0.0","A13O22EMG5ZVN0","img_art/16.jpg","2","","","","","","","","","","","","","","","","","","","","","","","","",""
"null","","html-keyboard-response","225","1459939","0.0-222.0","A13O22EMG5ZVN0","<p style=""font-size: 48px;"">+</p>","","","","","null","allTrialResponses","1500","1","25","img_art/16.jpg","24","i like the use of llike magazine paper","Joshua,Charles,Tanner,Kevin,Michael,Jorge","This is weird and a little creepy.,6,240,20","Weird and creepy,-30,100,20","sad. desth of childhood,-5,180,20","Hmm i don't know what going on here.,1,320,20","Looks like a kid did itt and ti looks disturbing.,-45,140,20","Dreamy and chaotic,-9,180,20","Joshua","This is weird and a little creepy.,6,240,20","Kevin","Hmm i don't know what going on here.,1,320,20","Tanner","sad. desth of childhood,-5,180,20","4"
"3303","","survey-text","226","1463250","0.0-223.0-0.0","A13O22EMG5ZVN0","","","","{""Q0"":""table""}","","","","","","","","","","","","","","","","","","","","","","",""
"9531","","survey-text","227","1472782","0.0-224.0-0.0","A13O22EMG5ZVN0","","","","{""Q0"":""i do not like the dots""}","","","","","","","","","","","","","","","","","","","","","","",""
"5739.4000000003725","","image-slider-response","228","1478524","0.0-225.0","A13O22EMG5ZVN0","","","","","-7","","","","","","","","","","","","","","","","","","","","","",""
"1313","","image-button-response","229","1483530","0.0-226.0","A13O22EMG5ZVN0","img_art/15.jpg","1","","","","","","","","","","","","","","","","","","","","","","","","",""
"483","","image-button-response","230","1484014","0.0-227.0","A13O22EMG5ZVN0","img_art/15.jpg","1","","","","","","","","","","","","","","","","","","","","","","","","",""
"542","","image-button-response","231","1484558","0.0-228.0-0.0","A13O22EMG5ZVN0","img_art/15.jpg","0","","","","","","","","","","","","","","","","","","","","","","","","",""
"1578","","image-button-response","232","1486139","0.0-229.0-0.0","A13O22EMG5ZVN0","img_art/15.jpg","3","","","","","","","","","","","","","","","","","","","","","","","","",""
"null","","html-keyboard-response","233","1487642","0.0-230.0","A13O22EMG5ZVN0","<p style=""font-size: 48px;"">+</p>","","","","","null","allTrialResponses","1500","1","26","img_art/15.jpg","-7","i do not like the dots","Joshua,Victor,Tanner,Kevin,Bryce,Jordan","Like this for the colors and arrangement.,11,240,20","I like the random blue dabs to break up the black, but it looks unfinished.,4,340,20","darkness, hatred, fear,-29,180,20","Weird fuzzball bush.,22,320,20","The dots are cool with the blue accents.,24,20,20","This also has nice contrast,34,160,20","Victor","I like the random blue dabs to break up the black, but it looks unfinished.,4,340,20","Joshua","Like this for the colors and arrangement.,11,240,20","Kevin","Weird fuzzball bush.,22,320,20","4"
"8840","","survey-text","234","1496488","0.0-231.0-0.0","A13O22EMG5ZVN0","","","","{""Q0"":""i like the shine""}","","","","","","","","","","","","","","","","","","","","","","",""
"2814.0999999996275","","image-slider-response","235","1499304","0.0-232.0","A13O22EMG5ZVN0","","","","","3","","","","","","","","","","","","","","","","","","","","","",""
"3106","","image-button-response","236","1504313","0.0-233.0","A13O22EMG5ZVN0","img_art/29.jpg","3","","","","","","","","","","","","","","","","","","","","","","","","",""
"942","","image-button-response","237","1505257","0.0-234.0","A13O22EMG5ZVN0","img_art/29.jpg","3","","","","","","","","","","","","","","","","","","","","","","","","",""
"770","","image-button-response","238","1506029","0.0-235.0-0.0","A13O22EMG5ZVN0","img_art/29.jpg","1","","","","","","","","","","","","","","","","","","","","","","","","",""
"791","","image-button-response","239","1506823","0.0-236.0-0.0","A13O22EMG5ZVN0","img_art/29.jpg","2","","","","","","","","","","","","","","","","","","","","","","","","",""
"null","","html-keyboard-response","240","1507331","0.0-237.0","A13O22EMG5ZVN0","<p style=""font-size: 48px;"">+</p>","","","","","null","allTrialResponses","500","1","27","img_art/29.jpg","3","i like the shine","Joshua,Victor,Thomas,Kevin,James,Luis","I don't like the red X through it.,-20,240,20","I like the colors but it looks very amateur,1,340,20","Looks messy, but not in appealing way,-20,220,20","Thats a pretty wierd picture.,6,320,20","It has a red X on there, and x's mean bad in my perspective,-29,380,20","I love the representation of a mess,50,400,20","Kevin","Thats a pretty wierd picture.,6,320,20","Victor","I like the colors but it looks very amateur,1,340,20","Thomas","Looks messy, but not in appealing way,-20,220,20","4"
"73771","","survey-text","241","1581108","0.0-238.0-0.0","A13O22EMG5ZVN0","","","","{""Q0"":""i like the use of color""}","","","","","","","","","","","","","","","","","","","","","","",""
"2644.2000000001863","","image-slider-response","242","1583754","0.0-239.0","A13O22EMG5ZVN0","","","","","25","","","","","","","","","","","","","","","","","","","","","",""
"null","","image-button-response","243","1588762","0.0-240.0","A13O22EMG5ZVN0","img_art/20.jpg","null","","","","","","","","","","","","","","","","","","","","","","","","",""
"642","","image-button-response","244","1589405","0.0-241.0","A13O22EMG5ZVN0","img_art/20.jpg","2","","","","","","","","","","","","","","","","","","","","","","","","",""
"1654","","image-button-response","245","1591062","0.0-242.0-0.0","A13O22EMG5ZVN0","img_art/20.jpg","3","","","","","","","","","","","","","","","","","","","","","","","","",""
"312","","image-button-response","246","1591377","0.0-243.0-0.0","A13O22EMG5ZVN0","img_art/20.jpg","4","","","","","","","","","","","","","","","","","","","","","","","","",""
"null","","html-keyboard-response","247","1592382","0.0-244.0","A13O22EMG5ZVN0","<p style=""font-size: 48px;"">+</p>","","","","","null","allTrialResponses","1000","1","28","img_art/20.jpg","25","i like the use of color","Gabriel,Victor,Thomas,Kevin,Stephen,Ian","i almost feel like i can recognize what this is,-6,160,20","sort of pleasant to look at, but can't tell if it's supposed to be something,13,340,20","I really enjoy the contrast of colors (blue/red/orange),30,220,20","The beast is running after you.,33,320,20","Liked the background,15,140,20","A painting within a painting, the inner painting looks like a car crash with a semi truck.,21,260,20","Thomas","I really enjoy the contrast of colors (blue/red/orange),30,220,20","Kevin","The beast is running after you.,33,320,20","Stephen","Liked the background,15,140,20","4"
"11493","","survey-text","248","1603881","0.0-245.0-0.0","A13O22EMG5ZVN0","","","","{""Q0"":""its simple but kind of too simple""}","","","","","","","","","","","","","","","","","","","","","","",""
"1924.7000000001863","","image-slider-response","249","1605808","0.0-246.0","A13O22EMG5ZVN0","","","","","9","","","","","","","","","","","","","","","","","","","","","",""
"2460","","image-button-response","250","1610812","0.0-247.0","A13O22EMG5ZVN0","img_art/5.jpg","3","","","","","","","","","","","","","","","","","","","","","","","","",""
"1124","","image-button-response","251","1611938","0.0-248.0","A13O22EMG5ZVN0","img_art/5.jpg","3","","","","","","","","","","","","","","","","","","","","","","","","",""
"948","","image-button-response","252","1612887","0.0-249.0-0.0","A13O22EMG5ZVN0","img_art/5.jpg","1","","","","","","","","","","","","","","","","","","","","","","","","",""
"549","","image-button-response","253","1613438","0.0-250.0-0.0","A13O22EMG5ZVN0","img_art/5.jpg","2","","","","","","","","","","","","","","","","","","","","","","","","",""
"null","","html-keyboard-response","254","1614444","0.0-251.0","A13O22EMG5ZVN0","<p style=""font-size: 48px;"">+</p>","","","","","null","allTrialResponses","1000","1","29","img_art/5.jpg","9","its simple but kind of too simple","Colton,Grant,Thomas,Kevin,Stephen,Dustin","I like the strokes and colors used,20,220,20","This elicits no reaction in me.,0,200,20","I'm confused by what I am looking at,-3,220,20","A rabbits head.,4,320,20","Very little going on.,-4,140,20","I don't get it at all. But, maybe it is the top portion of a piece of fruit.,-50,20,20","Kevin","A rabbits head.,4,320,20","Grant","This elicits no reaction in me.,0,200,20","Thomas","I'm confused by what I am looking at,-3,220,20","4"
"12706","","survey-text","255","1627155","0.0-252.0-0.0","A13O22EMG5ZVN0","","","","{""Q0"":""i like the playfulness""}","","","","","","","","","","","","","","","","","","","","","","",""
"2151.2000000001863","","image-slider-response","256","1629309","0.0-253.0","A13O22EMG5ZVN0","","","","","14","","","","","","","","","","","","","","","","","","","","","",""
"4600","","image-button-response","257","1634319","0.0-254.0","A13O22EMG5ZVN0","img_art/9.jpg","1","","","","","","","","","","","","","","","","","","","","","","","","",""
"1450","","image-button-response","258","1635771","0.0-255.0","A13O22EMG5ZVN0","img_art/9.jpg","1","","","","","","","","","","","","","","","","","","","","","","","","",""
"307","","image-button-response","259","1636079","0.0-256.0-0.0","A13O22EMG5ZVN0","img_art/9.jpg","0","","","","","","","","","","","","","","","","","","","","","","","","",""
"1306","","image-button-response","260","1637388","0.0-257.0-0.0","A13O22EMG5ZVN0","img_art/9.jpg","0","","","","","","","","","","","","","","","","","","","","","","","","",""
"675","","image-button-response","261","1640961","0.0-257.1-0.1","A13O22EMG5ZVN0","img_art/9.jpg","5","","","","","","","","","","","","","","","","","","","","","","","","",""
"null","","html-keyboard-response","262","1641964","0.0-258.0","A13O22EMG5ZVN0","<p style=""font-size: 48px;"">+</p>","","","","","null","allTrialResponses","1000","1","30","img_art/9.jpg","14","i like the playfulness","Edward,Grant,Thomas,Kevin,Tyler,Dalton","The colors remind me of peacocks,24,60,20","The colors are pretty, and remind me of a circus.,5,200,20","I don't like the picture, but it wouldn't surprise me if someone did,-20,220,20","This is a picture of a scary mans head sideways.,-24,320,20","No cohesive form whatsoever. Hard pass.,-31,320,20","a mother in bed surrounded by emotions,1,300,20","Grant","The colors are pretty, and remind me of a circus.,5,200,20","Edward","The colors remind me of peacocks,24,60,20","Dalton","a mother in bed surrounded by emotions,1,300,20","6"
"2483","","image-button-response_instructions","263","1644452","0.0-259.0","A13O22EMG5ZVN0","","0","instructions","","","","","","","","","","","","","","","","","","","","","","","",""
"1442","","image-button-response","264","1645899","0.0-260.0","A13O22EMG5ZVN0","","0","","","","","","","","","","","","","","","","","","","","","","","","",""
