"rt","url","trial_type","trial_index","time_elapsed","internal_node_id","participant_id","stimulus","button_pressed","Name","responses","response","key_press","variableName","fixationTime","condition","trial","photo","subjectRating","subjectResponse","agentsNames","agent_1_Response","agent_2_Response","agent_3_Response","agent_4_Response","agent_5_Response","agent_6_Response","kept_1_name","kept_1_response","kept_2_name","kept_2_response","kept_3_name","kept_3_response","errorCounter"
"5356","external_page_harvard.html","external-html","0","5559","0.0-0.0","A13OHDWN9XSCIG","","","","","","","","","","","","","","","","","","","","","","","","","","",""
"1519","","image-button-response","1","7078","0.0-1.0","A13OHDWN9XSCIG","","1","","","","","","","","","","","","","","","","","","","","","","","","",""
"1811","","image-button-response","2","8893","0.0-2.0-0.0","A13OHDWN9XSCIG","","1","phone","","","","","","","","","","","","","","","","","","","","","","","",""
"2504","","survey-text","3","11398","0.0-3.0-0.0","A13OHDWN9XSCIG","","","","{""Q0"":""A13OHDWN9XSCIG""}","","","","","","","","","","","","","","","","","","","","","","",""
"5824","","image-button-response_instructions","4","17223","0.0-4.0","A13OHDWN9XSCIG","","0","instructions","","","","","","","","","","","","","","","","","","","","","","","",""
"14191","","image-button-response_instructions","5","31416","0.0-5.0","A13OHDWN9XSCIG","img_art/ins/popularity/ins1.png","0","instructions","","","","","","","","","","","","","","","","","","","","","","","",""
"6175","","image-button-response_instructions","6","37592","0.0-6.0","A13OHDWN9XSCIG","img_art/ins/popularity/ins2.png","0","instructions","","","","","","","","","","","","","","","","","","","","","","","",""
"5065","","image-button-response_instructions","7","42658","0.0-7.0","A13OHDWN9XSCIG","img_art/ins/popularity/ins2Extreme.png","0","instructions","","","","","","","","","","","","","","","","","","","","","","","",""
"8647","","image-button-response_instructions","8","51307","0.0-8.0","A13OHDWN9XSCIG","img_art/ins/popularity/ins3KEEPpop.PNG","0","instructions","","","","","","","","","","","","","","","","","","","","","","","",""
"3544","","image-button-response_instructions","9","54852","0.0-9.0","A13OHDWN9XSCIG","img_art/ins/popularity/ins3ANamepop.PNG","0","instructions","","","","","","","","","","","","","","","","","","","","","","","",""
"3616","","image-button-response_instructions","10","58469","0.0-10.0","A13OHDWN9XSCIG","img_art/ins/popularity/ins3ARatingpop.png","0","instructions","","","","","","","","","","","","","","","","","","","","","","","",""
"3247","","image-button-response_instructions","11","61717","0.0-11.0","A13OHDWN9XSCIG","img_art/ins/popularity/ins3ATextpop.png","0","instructions","","","","","","","","","","","","","","","","","","","","","","","",""
"6320","","image-button-response_instructions","12","68037","0.0-12.0","A13OHDWN9XSCIG","img_art/ins/popularity/ins3ALikespop.png","0","instructions","","","","","","","","","","","","","","","","","","","","","","","",""
"8456","","image-button-response_instructions","13","76494","0.0-13.0","A13OHDWN9XSCIG","img_art/ins/popularity/ins3KEEPpop.PNG","0","instructions","","","","","","","","","","","","","","","","","","","","","","","",""
"9232","","image-button-response_instructions","14","85727","0.0-14.0","A13OHDWN9XSCIG","img_art/ins/popularity/ins3_5RED.png","0","instructions","","","","","","","","","","","","","","","","","","","","","","","",""
"4920","","image-button-response_instructions","15","90648","0.0-15.0","A13OHDWN9XSCIG","img_art/ins/popularity/ins3KEEPpop.PNG","0","instructions","","","","","","","","","","","","","","","","","","","","","","","",""
"8584","","image-button-response_instructions","16","99233","0.0-16.0","A13OHDWN9XSCIG","img_art/ins/popularity/ins4KEEPpop.PNG","0","instructions","","","","","","","","","","","","","","","","","","","","","","","",""
"3351","","image-button-response_instructions","17","102585","0.0-17.0","A13OHDWN9XSCIG","img_art/ins/popularity/ins5KEEPpop.PNG","0","instructions","","","","","","","","","","","","","","","","","","","","","","","",""
"2120","","image-button-response_instructions","18","104706","0.0-18.0","A13OHDWN9XSCIG","","0","instructions","","","","","","","","","","","","","","","","","","","","","","","",""
"5693","","survey-text","19","110418","0.0-19.0-0.0","A13OHDWN9XSCIG","","","","{""Q0"":""but""}","","","","","","","","","","","","","","","","","","","","","","",""
"10369","","survey-text","20","120789","0.0-20.0-0.0","A13OHDWN9XSCIG","","","","{""Q0"":""It looks like a child did it""}","","","","","","","","","","","","","","","","","","","","","","",""
"4335.100000023842","","image-slider-response","21","125126","0.0-21.0","A13OHDWN9XSCIG","","","","","-22","","","","","","","","","","","","","","","","","","","","","",""
"null","","image-button-response","22","130141","0.0-22.0","A13OHDWN9XSCIG","img_art/ins/1.jpg","null","","","","","","","","","","","","","","","","","","","","","","","","",""
"49711","","image-button-response","23","179854","0.0-23.0","A13OHDWN9XSCIG","img_art/ins/1.jpg","3","","","","","","","","","","","","","","","","","","","","","","","","",""
"5575","","image-button-response","24","185431","0.0-24.0-0.0","A13OHDWN9XSCIG","img_art/ins/1.jpg","1","","","","","","","","","","","","","","","","","","","","","","","","",""
"3355","","image-button-response","25","188787","0.0-25.0-0.0","A13OHDWN9XSCIG","img_art/ins/1.jpg","5","","","","","","","","","","","","","","","","","","","","","","","","",""
"null","","html-keyboard-response","26","189289","0.0-26.0","A13OHDWN9XSCIG","<p style=""font-size: 48px;"">+</p>","","","","","null","allTrialResponses","500","1","-2","img_art/ins/1.jpg","-22","It looks like a child did it","Allison,Ashley,Beth,Dora,Erika,Jen","looks like a lot of things going on in the mist,20,20,20","I just don't get why these type of art would be popular,-32,40,20","This color reminds me of poo,-46,60,20","looks like what my niece in 3rd grade did this afternoon,-50,80,20","I like the sophisticated brushwork,40,100,20","It reminds me of a candy land dream I had,36,120,20","Dora","looks like what my niece in 3rd grade did this afternoon,-50,80,20","Ashley","I just don't get why these type of art would be popular,-32,40,20","Jen","It reminds me of a candy land dream I had,36,120,20","0"
"17404","","survey-text","27","206701","0.0-27.0-0.0","A13OHDWN9XSCIG","","","","{""Q0"":""This seems like a moody, depressing piece""}","","","","","","","","","","","","","","","","","","","","","","",""
"3751.599999964237","","image-slider-response","28","210454","0.0-28.0","A13OHDWN9XSCIG","","","","","-44","","","","","","","","","","","","","","","","","","","","","",""
"null","","image-button-response","29","215457","0.0-29.0","A13OHDWN9XSCIG","img_art/ins/2.jpg","null","","","","","","","","","","","","","","","","","","","","","","","","",""
"366","","image-button-response","30","215825","0.0-30.0","A13OHDWN9XSCIG","img_art/ins/2.jpg","3","","","","","","","","","","","","","","","","","","","","","","","","",""
"3614","","image-button-response","31","219441","0.0-31.0-0.0","A13OHDWN9XSCIG","img_art/ins/2.jpg","5","","","","","","","","","","","","","","","","","","","","","","","","",""
"4574","","image-button-response","32","224017","0.0-32.0-0.0","A13OHDWN9XSCIG","img_art/ins/2.jpg","2","","","","","","","","","","","","","","","","","","","","","","","","",""
"null","","html-keyboard-response","33","224521","0.0-33.0","A13OHDWN9XSCIG","<p style=""font-size: 48px;"">+</p>","","","","","null","allTrialResponses","500","1","-1","img_art/ins/2.jpg","-44","This seems like a moody, depressing piece","Jenna,Ashley,Katie,Dora,Kara,Jen","One of my pet peevs,-48,140,20","Idk, it is just annoying,-32,40,20","too much color!,-28,180,20","looks too angry,-50,80,20","I like the blocks of color arrangements,30,160,20","It reminds me of a fireplace,36,120,20","Dora","looks too angry,-50,80,20","Jen","It reminds me of a fireplace,36,120,20","Katie","too much color!,-28,180,20","0"
"13613","","survey-text","34","238141","0.0-34.0-0.0","A13OHDWN9XSCIG","","","","{""Q0"":""It feels cold and is pretty plain""}","","","","","","","","","","","","","","","","","","","","","","",""
"4182.099999964237","","image-slider-response","35","242324","0.0-35.0","A13OHDWN9XSCIG","","","","","-28","","","","","","","","","","","","","","","","","","","","","",""
"null","","image-button-response","36","247327","0.0-36.0","A13OHDWN9XSCIG","img_art/ins/3.jpg","null","","","","","","","","","","","","","","","","","","","","","","","","",""
"833","","image-button-response","37","248162","0.0-37.0","A13OHDWN9XSCIG","img_art/ins/3.jpg","4","","","","","","","","","","","","","","","","","","","","","","","","",""
"878","","image-button-response","38","249041","0.0-38.0-0.0","A13OHDWN9XSCIG","img_art/ins/3.jpg","4","","","","","","","","","","","","","","","","","","","","","","","","",""
"912","","image-button-response","39","252843","0.0-38.1-0.1","A13OHDWN9XSCIG","img_art/ins/3.jpg","4","","","","","","","","","","","","","","","","","","","","","","","","",""
"534","","image-button-response","40","257122","0.0-38.2-0.2","A13OHDWN9XSCIG","img_art/ins/3.jpg","5","","","","","","","","","","","","","","","","","","","","","","","","",""
"2223","","image-button-response","41","259346","0.0-39.0-0.0","A13OHDWN9XSCIG","img_art/ins/3.jpg","2","","","","","","","","","","","","","","","","","","","","","","","","",""
"null","","html-keyboard-response","42","260349","0.0-40.0","A13OHDWN9XSCIG","<p style=""font-size: 48px;"">+</p>","","","","","null","allTrialResponses","1000","1","0","img_art/ins/3.jpg","-28","It feels cold and is pretty plain","Leslie,Rose,Katie,Dora,Mary,Jen","It's an alright work,15,200,20","My daily routine, it's depressing,-20,240,20","It looks depressing,-26,180,20","My worst nightmare,-42,80,20","I like the overlapping of brushes,41,220,20","I can feel a rainy day from this painting,18,120,20","Mary","I like the overlapping of brushes,41,220,20","Jen","I can feel a rainy day from this painting,18,120,20","Katie","It looks depressing,-26,180,20","4"
"4008","","image-button-response_instructions","43","264363","0.0-41.0","A13OHDWN9XSCIG","","0","instructions","","","","","","","","","","","","","","","","","","","","","","","",""
"9097","","survey-likert","44","273462","0.0-42.0-0.0","A13OHDWN9XSCIG","","","","{""Q0"":"""",""Q1"":0,""Q2"":1}","","","","","","","","","","","","","","","","","","","","","","",""
"3939","","survey-text","45","277405","0.0-43.0-0.0","A13OHDWN9XSCIG","","","","{""Q0"":""rock""}","","","","","","","","","","","","","","","","","","","","","","",""
"9664","","survey-text","46","287070","0.0-44.0-0.0","A13OHDWN9XSCIG","","","","{""Q0"":""It is colorful and strange""}","","","","","","","","","","","","","","","","","","","","","","",""
"2758.599999964237","","image-slider-response","47","289830","0.0-45.0","A13OHDWN9XSCIG","","","","","-23","","","","","","","","","","","","","","","","","","","","","",""
"null","","image-button-response","48","294849","0.0-46.0","A13OHDWN9XSCIG","img_art/22.jpg","null","","","","","","","","","","","","","","","","","","","","","","","","",""
"7968","","image-button-response","49","302818","0.0-47.0","A13OHDWN9XSCIG","img_art/22.jpg","2","","","","","","","","","","","","","","","","","","","","","","","","",""
"3823","","image-button-response","50","306642","0.0-48.0-0.0","A13OHDWN9XSCIG","img_art/22.jpg","3","","","","","","","","","","","","","","","","","","","","","","","","",""
"559","","image-button-response","51","307203","0.0-49.0-0.0","A13OHDWN9XSCIG","img_art/22.jpg","0","","","","","","","","","","","","","","","","","","","","","","","","",""
"null","","html-keyboard-response","52","307705","0.0-50.0","A13OHDWN9XSCIG","<p style=""font-size: 48px;"">+</p>","","","","","null","allTrialResponses","500","1","1","img_art/22.jpg","-23","It is colorful and strange","Katelyn,Sophia,Shannon,Kelly,Kaylee,Catherine","I usually dont like blurry pieces but the colors are amazing in this,14,100,20","I like this one. There is a lot to see if you keep looking for it.,27,280,20","I think this picture looks interesting because of the way the colors work together.,20,220,20","I really enjoy the blended colors.,20,220,20","its just ugly for me,-50,200,20","Scary monsters lurking causing confusion.,-40,160,20","Shannon","I think this picture looks interesting because of the way the colors work together.,20,220,20","Kelly","I really enjoy the blended colors.,20,220,20","Katelyn","I usually dont like blurry pieces but the colors are amazing in this,14,100,20","4"
"9437","","survey-text","53","317148","0.0-51.0-0.0","A13OHDWN9XSCIG","","","","{""Q0"":""It reminds me of something musical""}","","","","","","","","","","","","","","","","","","","","","","",""
"3686.5","","image-slider-response","54","320836","0.0-52.0","A13OHDWN9XSCIG","","","","","1","","","","","","","","","","","","","","","","","","","","","",""
"null","","image-button-response","55","325846","0.0-53.0","A13OHDWN9XSCIG","img_art/11.jpg","null","","","","","","","","","","","","","","","","","","","","","","","","",""
"156629","","image-button-response","56","482478","0.0-54.0","A13OHDWN9XSCIG","img_art/11.jpg","3","","","","","","","","","","","","","","","","","","","","","","","","",""
"3911","","image-button-response","57","486391","0.0-55.0-0.0","A13OHDWN9XSCIG","img_art/11.jpg","4","","","","","","","","","","","","","","","","","","","","","","","","",""
"1555","","image-button-response","58","487951","0.0-56.0-0.0","A13OHDWN9XSCIG","img_art/11.jpg","0","","","","","","","","","","","","","","","","","","","","","","","","",""
"null","","html-keyboard-response","59","489453","0.0-57.0","A13OHDWN9XSCIG","<p style=""font-size: 48px;"">+</p>","","","","","null","allTrialResponses","1500","1","2","img_art/11.jpg","1","It reminds me of something musical","Katelyn,Jennifer,Shannon,Kelly,Lauren,Grace","I like the dark lines and it interests me,13,100,20","The narrow groups of lines in the center make me feel uneasy for some reason,-31,380,20","This looks like a bridge that has plenty of color.,10,220,20","Its a little psychedelic.,10,220,20","I like how this piece can be interpreted in different ways, such as a village on hilly terrain.,10,340,20","Rainy asian city scape.,31,180,20","Kelly","Its a little psychedelic.,10,220,20","Lauren","I like how this piece can be interpreted in different ways, such as a village on hilly terrain.,10,340,20","Katelyn","I like the dark lines and it interests me,13,100,20","4"
"14674","","survey-text","60","504131","0.0-58.0-0.0","A13OHDWN9XSCIG","","","","{""Q0"":""It looks like simple child's art""}","","","","","","","","","","","","","","","","","","","","","","",""
"4270.800000011921","","image-slider-response","61","508404","0.0-59.0","A13OHDWN9XSCIG","","","","","-49","","","","","","","","","","","","","","","","","","","","","",""
"4559","","image-button-response","62","513406","0.0-60.0","A13OHDWN9XSCIG","img_art/30.jpg","2","","","","","","","","","","","","","","","","","","","","","","","","",""
"3626","","image-button-response","63","517036","0.0-61.0","A13OHDWN9XSCIG","img_art/30.jpg","5","","","","","","","","","","","","","","","","","","","","","","","","",""
"1935","","image-button-response","64","518973","0.0-62.0-0.0","A13OHDWN9XSCIG","img_art/30.jpg","3","","","","","","","","","","","","","","","","","","","","","","","","",""
"5247","","image-button-response","65","524222","0.0-63.0-0.0","A13OHDWN9XSCIG","img_art/30.jpg","2","","","","","","","","","","","","","","","","","","","","","","","","",""
"null","","html-keyboard-response","66","525224","0.0-64.0","A13OHDWN9XSCIG","<p style=""font-size: 48px;"">+</p>","","","","","null","allTrialResponses","1000","1","3","img_art/30.jpg","-49","It looks like simple child's art","Katelyn,Shelby,Andrea,Kelly,Lauren,Jacqueline","I do like the multi-dimensional aspect of this piece,10,100,20","It's pleasent but otherwise unprovoking,8,240,20","It feels like graffiti and the dark colors do nothing for the mood.,-5,240,20","The red helps it to pop.,13,220,20","I like how the strokes invokes a sense of fluidity.,20,340,20","Too dark and ugly with all the black smears,-20,300,20","Jacqueline","Too dark and ugly with all the black smears,-20,300,20","Kelly","The red helps it to pop.,13,220,20","Andrea","It feels like graffiti and the dark colors do nothing for the mood.,-5,240,20","4"
"18626","","survey-text","67","543858","0.0-65.0-0.0","A13OHDWN9XSCIG","","","","{""Q0"":""It's pretty simple paint splatter anyone could do, but the colors are nice.""}","","","","","","","","","","","","","","","","","","","","","","",""
"2693.300000011921","","image-slider-response","68","546552","0.0-66.0","A13OHDWN9XSCIG","","","","","-2","","","","","","","","","","","","","","","","","","","","","",""
"3343","","image-button-response","69","551554","0.0-67.0","A13OHDWN9XSCIG","img_art/13.jpg","1","","","","","","","","","","","","","","","","","","","","","","","","",""
"1236","","image-button-response","70","552793","0.0-68.0","A13OHDWN9XSCIG","img_art/13.jpg","1","","","","","","","","","","","","","","","","","","","","","","","","",""
"4915","","image-button-response","71","557710","0.0-69.0-0.0","A13OHDWN9XSCIG","img_art/13.jpg","5","","","","","","","","","","","","","","","","","","","","","","","","",""
"1206","","image-button-response","72","558917","0.0-70.0-0.0","A13OHDWN9XSCIG","img_art/13.jpg","2","","","","","","","","","","","","","","","","","","","","","","","","",""
"null","","html-keyboard-response","73","560418","0.0-71.0","A13OHDWN9XSCIG","<p style=""font-size: 48px;"">+</p>","","","","","null","allTrialResponses","1500","1","4","img_art/13.jpg","-2","It's pretty simple paint splatter anyone could do, but the colors are nice.","Autumn,Chloe,Andrea,Kelly,Alexandria,Jacqueline","Nice color abstractions.,21,340,20","Industrial Jackson Pollock knock-off,-20,220,20","Raindrops on a window. Makes me feel like traveling.,31,240,20","I would hang this photo in my room.,21,220,20","the monochrome of blue with splatters makes me excited and happy,36,80,20","Seems a little cold but I like the neuron looking splatters.,10,300,20","Chloe","Industrial Jackson Pollock knock-off,-20,220,20","Jacqueline","Seems a little cold but I like the neuron looking splatters.,10,300,20","Andrea","Raindrops on a window. Makes me feel like traveling.,31,240,20","4"
"17852","","survey-text","74","578277","0.0-72.0-0.0","A13OHDWN9XSCIG","","","","{""Q0"":""This one is busy and there is alot to take in""}","","","","","","","","","","","","","","","","","","","","","","",""
"4431.399999976158","","image-slider-response","75","582709","0.0-73.0","A13OHDWN9XSCIG","","","","","-26","","","","","","","","","","","","","","","","","","","","","",""
"4031","","image-button-response","76","587711","0.0-74.0","A13OHDWN9XSCIG","img_art/19.jpg","0","","","","","","","","","","","","","","","","","","","","","","","","",""
"3707","","image-button-response","77","591421","0.0-75.0","A13OHDWN9XSCIG","img_art/19.jpg","0","","","","","","","","","","","","","","","","","","","","","","","","",""
"4616","","image-button-response","78","596038","0.0-76.0-0.0","A13OHDWN9XSCIG","img_art/19.jpg","0","","","","","","","","","","","","","","","","","","","","","","","","",""
"1863","","image-button-response","79","600912","0.0-76.1-0.1","A13OHDWN9XSCIG","img_art/19.jpg","5","","","","","","","","","","","","","","","","","","","","","","","","",""
"2551","","image-button-response","80","603465","0.0-77.0-0.0","A13OHDWN9XSCIG","img_art/19.jpg","3","","","","","","","","","","","","","","","","","","","","","","","","",""
"null","","html-keyboard-response","81","604480","0.0-78.0","A13OHDWN9XSCIG","<p style=""font-size: 48px;"">+</p>","","","","","null","allTrialResponses","1000","1","5","img_art/19.jpg","-26","This one is busy and there is alot to take in","Michaela,Chloe,Andrea,Cassidy,Briana,Jacqueline","It's ok but it's nothing I would hang on my wall,11,260,20","The use of space isn't my favorite.,-20,220,20","Feels like a cafe in Paris.,35,240,20","too much going on, can't tell what it is,-14,140,20","Its simple and the colors i like. It reminds me of chagall,34,400,20","This is just a mess.,-30,300,20","Michaela","It's ok but it's nothing I would hang on my wall,11,260,20","Jacqueline","This is just a mess.,-30,300,20","Cassidy","too much going on, can't tell what it is,-14,140,20","6"
"4017","","survey-text","82","608505","0.0-79.0-0.0","A13OHDWN9XSCIG","","","","{""Q0"":""sky""}","","","","","","","","","","","","","","","","","","","","","","",""
"16563","","survey-text","83","625069","0.0-80.0-0.0","A13OHDWN9XSCIG","","","","{""Q0"":""This one is just weird, not sure what it is supposed to be""}","","","","","","","","","","","","","","","","","","","","","","",""
"2151.600000023842","","image-slider-response","84","627222","0.0-81.0","A13OHDWN9XSCIG","","","","","-46","","","","","","","","","","","","","","","","","","","","","",""
"null","","image-button-response","85","632224","0.0-82.0","A13OHDWN9XSCIG","img_art/29.jpg","null","","","","","","","","","","","","","","","","","","","","","","","","",""
"3550","","image-button-response","86","635777","0.0-83.0","A13OHDWN9XSCIG","img_art/29.jpg","3","","","","","","","","","","","","","","","","","","","","","","","","",""
"2591","","image-button-response","87","638370","0.0-84.0-0.0","A13OHDWN9XSCIG","img_art/29.jpg","5","","","","","","","","","","","","","","","","","","","","","","","","",""
"1302","","image-button-response","88","639673","0.0-85.0-0.0","A13OHDWN9XSCIG","img_art/29.jpg","2","","","","","","","","","","","","","","","","","","","","","","","","",""
"null","","html-keyboard-response","89","641175","0.0-86.0","A13OHDWN9XSCIG","<p style=""font-size: 48px;"">+</p>","","","","","null","allTrialResponses","1500","1","6","img_art/29.jpg","-46","This one is just weird, not sure what it is supposed to be","Michaela,Crystal,Sara,Cassidy,Amy,Jacqueline","Like a crime scene. It's neat and different,30,260,20","Reminiscent of Jackson Pollock with a hint of abstract structure with the bordering.,32,300,20","I don't like the black,-50,160,20","I like the colors but it looks very amateur,1,140,20","The textures bring this painting alive. A window to another existence with infinite possibility.,25,220,20","This is ugly as fuck,-50,300,20","Cassidy","I like the colors but it looks very amateur,1,140,20","Jacqueline","This is ugly as fuck,-50,300,20","Sara","I don't like the black,-50,160,20","6"
"10700","","survey-text","90","651882","0.0-87.0-0.0","A13OHDWN9XSCIG","","","","{""Q0"":""I like the colors, but that is all""}","","","","","","","","","","","","","","","","","","","","","","",""
"2247.199999988079","","image-slider-response","91","654131","0.0-88.0","A13OHDWN9XSCIG","","","","","5","","","","","","","","","","","","","","","","","","","","","",""
"null","","image-button-response","92","659134","0.0-89.0","A13OHDWN9XSCIG","img_art/21.jpg","null","","","","","","","","","","","","","","","","","","","","","","","","",""
"4733","","image-button-response","93","663869","0.0-90.0","A13OHDWN9XSCIG","img_art/21.jpg","3","","","","","","","","","","","","","","","","","","","","","","","","",""
"4792","","image-button-response","94","668662","0.0-91.0-0.0","A13OHDWN9XSCIG","img_art/21.jpg","5","","","","","","","","","","","","","","","","","","","","","","","","",""
"333","","image-button-response","95","668998","0.0-92.0-0.0","A13OHDWN9XSCIG","img_art/21.jpg","4","","","","","","","","","","","","","","","","","","","","","","","","",""
"null","","html-keyboard-response","96","669499","0.0-93.0","A13OHDWN9XSCIG","<p style=""font-size: 48px;"">+</p>","","","","","null","allTrialResponses","500","1","7","img_art/21.jpg","5","I like the colors, but that is all","Jenna,Isabella,Sara,Cassidy,Olivia,Jacqueline","beautiful. reminds me of a storm brewing over sea. i love the white dots.,45,360,20","It reminds me of war, red blood and dark blue reminds me of an army,-20,280,20","It looks confusing,-21,160,20","I really like these colors together and their placement. The dabs of white are a nice contrast to the soft blending,10,140,20","feels like a wave coming into light,9,40,20","Kind of looks like a sky with a storm or tornado.,10,300,20","Cassidy","I really like these colors together and their placement. The dabs of white are a nice contrast to the soft blending,10,140,20","Jacqueline","Kind of looks like a sky with a storm or tornado.,10,300,20","Olivia","feels like a wave coming into light,9,40,20","6"
"11580","","survey-text","97","681087","0.0-94.0-0.0","A13OHDWN9XSCIG","","","","{""Q0"":""this looks like it was done by a child""}","","","","","","","","","","","","","","","","","","","","","","",""
"2440.5","","image-slider-response","98","683529","0.0-95.0","A13OHDWN9XSCIG","","","","","-49","","","","","","","","","","","","","","","","","","","","","",""
"null","","image-button-response","99","688531","0.0-96.0","A13OHDWN9XSCIG","img_art/5.jpg","null","","","","","","","","","","","","","","","","","","","","","","","","",""
"3371","","image-button-response","100","691905","0.0-97.0","A13OHDWN9XSCIG","img_art/5.jpg","3","","","","","","","","","","","","","","","","","","","","","","","","",""
"1607","","image-button-response","101","693513","0.0-98.0-0.0","A13OHDWN9XSCIG","img_art/5.jpg","5","","","","","","","","","","","","","","","","","","","","","","","","",""
"3047","","image-button-response","102","696562","0.0-99.0-0.0","A13OHDWN9XSCIG","img_art/5.jpg","2","","","","","","","","","","","","","","","","","","","","","","","","",""
"null","","html-keyboard-response","103","697563","0.0-100.0","A13OHDWN9XSCIG","<p style=""font-size: 48px;"">+</p>","","","","","null","allTrialResponses","1000","1","8","img_art/5.jpg","-49","this looks like it was done by a child","Kayla,Breanna,Paige,Cassidy,Olivia,Jacqueline","I like that the pyramid is putting off a beacon of light.,11,180,20","Makes me feel weird,-16,380,20","I don't hate it but I can't relate to it,1,60,20","I like these colors together and the tiny splatters, but what is this?,7,140,20","a brush in time,-14,40,20","Seems very basic and uninteresting.,-15,300,20","Cassidy","I like these colors together and the tiny splatters, but what is this?,7,140,20","Jacqueline","Seems very basic and uninteresting.,-15,300,20","Paige","I don't hate it but I can't relate to it,1,60,20","6"
"12106","","survey-text","104","709676","0.0-101.0-0.0","A13OHDWN9XSCIG","","","","{""Q0"":""I can't tell what this is supposed to be""}","","","","","","","","","","","","","","","","","","","","","","",""
"3503.2999999523163","","image-slider-response","105","713181","0.0-102.0","A13OHDWN9XSCIG","","","","","-39","","","","","","","","","","","","","","","","","","","","","",""
"null","","image-button-response","106","718189","0.0-103.0","A13OHDWN9XSCIG","img_art/28.jpg","null","","","","","","","","","","","","","","","","","","","","","","","","",""
"2343","","image-button-response","107","720534","0.0-104.0","A13OHDWN9XSCIG","img_art/28.jpg","2","","","","","","","","","","","","","","","","","","","","","","","","",""
"6208","","image-button-response","108","726743","0.0-105.0-0.0","A13OHDWN9XSCIG","img_art/28.jpg","4","","","","","","","","","","","","","","","","","","","","","","","","",""
"1718","","image-button-response","109","728463","0.0-106.0-0.0","A13OHDWN9XSCIG","img_art/28.jpg","3","","","","","","","","","","","","","","","","","","","","","","","","",""
"null","","html-keyboard-response","110","728964","0.0-107.0","A13OHDWN9XSCIG","<p style=""font-size: 48px;"">+</p>","","","","","null","allTrialResponses","500","1","9","img_art/28.jpg","-39","I can't tell what this is supposed to be","Brianna,Katie,Paige,Cassidy,Bailey,Jacqueline","My grandparents would like this, maybe my great grandparents. It's not my style.,-30,20,20","Like the muted pink colors. However, the mood is sad because of the blurriness,22,160,20","I just don't like it. It makes no sense to me,1,60,20","Almost looks like child's artwork, sloppy and chaotic,6,140,20","Has an air of darkness to it, but no real substance besides the mouse-like thing.,-38,360,20","I don't like the washed out colors.,-15,300,20","Paige","I just don't like it. It makes no sense to me,1,60,20","Bailey","Has an air of darkness to it, but no real substance besides the mouse-like thing.,-38,360,20","Cassidy","Almost looks like child's artwork, sloppy and chaotic,6,140,20","6"
"14878","","survey-text","111","743848","0.0-108.0-0.0","A13OHDWN9XSCIG","","","","{""Q0"":""It kind of looks like a distorted face""}","","","","","","","","","","","","","","","","","","","","","","",""
"1543.0999999642372","","image-slider-response","112","745393","0.0-109.0","A13OHDWN9XSCIG","","","","","-43","","","","","","","","","","","","","","","","","","","","","",""
"null","","image-button-response","113","750395","0.0-110.0","A13OHDWN9XSCIG","img_art/2.jpg","null","","","","","","","","","","","","","","","","","","","","","","","","",""
"1308","","image-button-response","114","751706","0.0-111.0","A13OHDWN9XSCIG","img_art/2.jpg","0","","","","","","","","","","","","","","","","","","","","","","","","",""
"4527","","image-button-response","115","756235","0.0-112.0-0.0","A13OHDWN9XSCIG","img_art/2.jpg","2","","","","","","","","","","","","","","","","","","","","","","","","",""
"1270","","image-button-response","116","757507","0.0-113.0-0.0","A13OHDWN9XSCIG","img_art/2.jpg","4","","","","","","","","","","","","","","","","","","","","","","","","",""
"null","","html-keyboard-response","117","758009","0.0-114.0","A13OHDWN9XSCIG","<p style=""font-size: 48px;"">+</p>","","","","","null","allTrialResponses","500","1","10","img_art/2.jpg","-43","It kind of looks like a distorted face","Jamie,Diana,Paige,Cassidy,Bailey,Mackenzie","Awful color coordination and design,-35,320,20","I think I see people sitting in lawn chairs in a circle watching an event. Not really sure so I rated it lower.,-35,380,20","Unhappy. I do not like it,-5,60,20","It's interesting. The chunks of black here and there are nice,13,140,20","Too gloopy and unfocused,-38,360,20","Muted green is overpowering,-10,20,20","Jamie","Awful color coordination and design,-35,320,20","Paige","Unhappy. I do not like it,-5,60,20","Bailey","Too gloopy and unfocused,-38,360,20","6"
"3540","","survey-text","118","761555","0.0-115.0-0.0","A13OHDWN9XSCIG","","","","{""Q0"":""our""}","","","","","","","","","","","","","","","","","","","","","","",""
"20989","","survey-text","119","782545","0.0-116.0-0.0","A13OHDWN9XSCIG","","","","{""Q0"":""It looks like a bird sitting on an orange""}","","","","","","","","","","","","","","","","","","","","","","",""
"2495.199999988079","","image-slider-response","120","785041","0.0-117.0","A13OHDWN9XSCIG","","","","","-30","","","","","","","","","","","","","","","","","","","","","",""
"null","","image-button-response","121","790044","0.0-118.0","A13OHDWN9XSCIG","img_art/6.jpg","null","","","","","","","","","","","","","","","","","","","","","","","","",""
"4172","","image-button-response","122","794219","0.0-119.0","A13OHDWN9XSCIG","img_art/6.jpg","3","","","","","","","","","","","","","","","","","","","","","","","","",""
"7143","","image-button-response","123","801364","0.0-120.0-0.0","A13OHDWN9XSCIG","img_art/6.jpg","2","","","","","","","","","","","","","","","","","","","","","","","","",""
"734","","image-button-response","124","802100","0.0-121.0-0.0","A13OHDWN9XSCIG","img_art/6.jpg","1","","","","","","","","","","","","","","","","","","","","","","","","",""
"null","","html-keyboard-response","125","803601","0.0-122.0","A13OHDWN9XSCIG","<p style=""font-size: 48px;"">+</p>","","","","","null","allTrialResponses","1500","1","11","img_art/6.jpg","-30","It looks like a bird sitting on an orange","Jamie,Julia,Paige,Monica,Bailey,Lindsey","Tree growing in a desert. Gives me feelings of hope,5,320,20","this is too simple for me,-34,40,20","Kind of boring. I don't care for many abstracts,1,60,20","Maybe it's supposed to be a bird but it looks like a scary cloaked figure. it's just too simple and jarring,-23,360,20","Not my favorite, but I like the empty vibe and the imagination it invokes. A skinny girl with long legs, perhaps, looking over a cliff,9,360,20","Simple, warm, hopeful.,12,400,20","Monica","Maybe it's supposed to be a bird but it looks like a scary cloaked figure. it's just too simple and jarring,-23,360,20","Paige","Kind of boring. I don't care for many abstracts,1,60,20","Julia","this is too simple for me,-34,40,20","6"
"15090","","survey-text","126","818701","0.0-123.0-0.0","A13OHDWN9XSCIG","","","","{""Q0"":""I don't see what this is supposed to be exactly""}","","","","","","","","","","","","","","","","","","","","","","",""
"1791.800000011921","","image-slider-response","127","820494","0.0-124.0","A13OHDWN9XSCIG","","","","","-44","","","","","","","","","","","","","","","","","","","","","",""
"4630","","image-button-response","128","825496","0.0-125.0","A13OHDWN9XSCIG","img_art/15.jpg","2","","","","","","","","","","","","","","","","","","","","","","","","",""
"2933","","image-button-response","129","828433","0.0-126.0","A13OHDWN9XSCIG","img_art/15.jpg","3","","","","","","","","","","","","","","","","","","","","","","","","",""
"1998","","image-button-response","130","830433","0.0-127.0-0.0","A13OHDWN9XSCIG","img_art/15.jpg","2","","","","","","","","","","","","","","","","","","","","","","","","",""
"2686","","image-button-response","131","833121","0.0-128.0-0.0","A13OHDWN9XSCIG","img_art/15.jpg","5","","","","","","","","","","","","","","","","","","","","","","","","",""
"null","","html-keyboard-response","132","834123","0.0-129.0","A13OHDWN9XSCIG","<p style=""font-size: 48px;"">+</p>","","","","","null","allTrialResponses","1000","1","12","img_art/15.jpg","-44","I don't see what this is supposed to be exactly","Alexis,Julia,Paige,Monica,Alicia,Angelica","Not a fan of abstract, but the black is very striking,10,100,20","This is simply too ""old-school"",-27,40,20","I feel nothing when looking at this,1,60,20","I don't feel much of anything when looking at this, it's just a random pattern,1,360,20","It's ok, it makes me think. That's something I guess.,8,120,20","This looks odd and was not well executed.,-3,280,20","Monica","I don't feel much of anything when looking at this, it's just a random pattern,1,360,20","Paige","I feel nothing when looking at this,1,60,20","Angelica","This looks odd and was not well executed.,-3,280,20","6"
"17230","","survey-text","133","851360","0.0-130.0-0.0","A13OHDWN9XSCIG","","","","{""Q0"":""This looks like a loose city scene messily painted""}","","","","","","","","","","","","","","","","","","","","","","",""
"2334.600000023842","","image-slider-response","134","853696","0.0-131.0","A13OHDWN9XSCIG","","","","","-29","","","","","","","","","","","","","","","","","","","","","",""
"null","","image-button-response","135","858698","0.0-132.0","A13OHDWN9XSCIG","img_art/26.jpg","null","","","","","","","","","","","","","","","","","","","","","","","","",""
"5677","","image-button-response","136","864377","0.0-133.0","A13OHDWN9XSCIG","img_art/26.jpg","4","","","","","","","","","","","","","","","","","","","","","","","","",""
"1039","","image-button-response","137","865417","0.0-134.0-0.0","A13OHDWN9XSCIG","img_art/26.jpg","3","","","","","","","","","","","","","","","","","","","","","","","","",""
"1583","","image-button-response","138","867001","0.0-135.0-0.0","A13OHDWN9XSCIG","img_art/26.jpg","5","","","","","","","","","","","","","","","","","","","","","","","","",""
"null","","html-keyboard-response","139","868502","0.0-136.0","A13OHDWN9XSCIG","<p style=""font-size: 48px;"">+</p>","","","","","null","allTrialResponses","1500","1","13","img_art/26.jpg","-29","This looks like a loose city scene messily painted","Anna,Samantha,Paige,Monica,Molly,Angelica","It looks like a watercolor I did when I was 6.,-30,300,20","I like the colors and trees. Seems cheap vintage retail store art but i love it anyways,50,140,20","somewhat happy, like being outside on a nice day,30,60,20","It looks empty and unfinished,-28,360,20","Nothing to say.,0,340,20","It's not ugly but not beautiful at all.,-3,280,20","Molly","Nothing to say.,0,340,20","Monica","It looks empty and unfinished,-28,360,20","Angelica","It's not ugly but not beautiful at all.,-3,280,20","6"
"8336","","survey-text","140","876842","0.0-137.0-0.0","A13OHDWN9XSCIG","","","","{""Q0"":""This is just plain weird!""}","","","","","","","","","","","","","","","","","","","","","","",""
"2183.599999964237","","image-slider-response","141","879027","0.0-138.0","A13OHDWN9XSCIG","","","","","-47","","","","","","","","","","","","","","","","","","","","","",""
"null","","image-button-response","142","884029","0.0-139.0","A13OHDWN9XSCIG","img_art/16.jpg","null","","","","","","","","","","","","","","","","","","","","","","","","",""
"5693","","image-button-response","143","889724","0.0-140.0","A13OHDWN9XSCIG","img_art/16.jpg","4","","","","","","","","","","","","","","","","","","","","","","","","",""
"494","","image-button-response","144","890220","0.0-141.0-0.0","A13OHDWN9XSCIG","img_art/16.jpg","5","","","","","","","","","","","","","","","","","","","","","","","","",""
"1488","","image-button-response","145","891709","0.0-142.0-0.0","A13OHDWN9XSCIG","img_art/16.jpg","1","","","","","","","","","","","","","","","","","","","","","","","","",""
"null","","html-keyboard-response","146","892711","0.0-143.0","A13OHDWN9XSCIG","<p style=""font-size: 48px;"">+</p>","","","","","null","allTrialResponses","1000","1","14","img_art/16.jpg","-47","This is just plain weird!","Stephanie,Sarah,Michelle,Monica,Molly,Angelica","It looks violent.,-30,300,20","i don't like the collage aspect,-25,180,20","I'm a fan of collage and of reminiscing about childhood so this was nice,10,280,20","Don't know if there's a meaning but I like how seemingly random objects were stuck together and called art,20,360,20","It's frightening.,30,340,20","This is creepy and puerile.,-45,280,20","Molly","It's frightening.,30,340,20","Angelica","This is creepy and puerile.,-45,280,20","Sarah","i don't like the collage aspect,-25,180,20","6"
"11437","","survey-text","147","904157","0.0-144.0-0.0","A13OHDWN9XSCIG","","","","{""Q0"":""Very abstract, and boring colors""}","","","","","","","","","","","","","","","","","","","","","","",""
"1791.6000000238419","","image-slider-response","148","905950","0.0-145.0","A13OHDWN9XSCIG","","","","","-38","","","","","","","","","","","","","","","","","","","","","",""
"null","","image-button-response","149","910953","0.0-146.0","A13OHDWN9XSCIG","img_art/18.jpg","null","","","","","","","","","","","","","","","","","","","","","","","","",""
"1580","","image-button-response","150","912536","0.0-147.0","A13OHDWN9XSCIG","img_art/18.jpg","2","","","","","","","","","","","","","","","","","","","","","","","","",""
"8808","","image-button-response","151","921345","0.0-148.0-0.0","A13OHDWN9XSCIG","img_art/18.jpg","5","","","","","","","","","","","","","","","","","","","","","","","","",""
"7174","","image-button-response","152","928520","0.0-149.0-0.0","A13OHDWN9XSCIG","img_art/18.jpg","0","","","","","","","","","","","","","","","","","","","","","","","","",""
"null","","html-keyboard-response","153","929023","0.0-150.0","A13OHDWN9XSCIG","<p style=""font-size: 48px;"">+</p>","","","","","null","allTrialResponses","500","1","15","img_art/18.jpg","-38","Very abstract, and boring colors","Dominique,Sarah,Brooke,Ashley,Molly,Angelica","Very conversational and can see many different looks and feels from this .,34,400,20","this is kind of cool. I like the color scheme and the figure in the upper left is interesting,15,180,20","Don't like the color scheme. Or the theme.,-5,60,20","Resembles a ship at sea, storm of activity.,28,320,20","White and yellow look awesome and the picture's dynamics are wonderful.,30,340,20","It looks grotesque and violent.,-50,280,20","Brooke","Don't like the color scheme. Or the theme.,-5,60,20","Angelica","It looks grotesque and violent.,-50,280,20","Dominique","Very conversational and can see many different looks and feels from this .,34,400,20","6"
"4096","","survey-text","154","933137","0.0-151.0-0.0","A13OHDWN9XSCIG","","","","{""Q0"":""course""}","","","","","","","","","","","","","","","","","","","","","","",""
"10600","","survey-text","155","943738","0.0-152.0-0.0","A13OHDWN9XSCIG","","","","{""Q0"":""very simple, and the green is vibrant""}","","","","","","","","","","","","","","","","","","","","","","",""
"3815.7000000476837","","image-slider-response","156","947555","0.0-153.0","A13OHDWN9XSCIG","","","","","-27","","","","","","","","","","","","","","","","","","","","","",""
"null","","image-button-response","157","952565","0.0-154.0","A13OHDWN9XSCIG","img_art/25.jpg","null","","","","","","","","","","","","","","","","","","","","","","","","",""
"169572","","image-button-response","158","1122140","0.0-155.0","A13OHDWN9XSCIG","img_art/25.jpg","1","","","","","","","","","","","","","","","","","","","","","","","","",""
"1753","","image-button-response","159","1123895","0.0-156.0-0.0","A13OHDWN9XSCIG","img_art/25.jpg","2","","","","","","","","","","","","","","","","","","","","","","","","",""
"1861","","image-button-response","160","1125758","0.0-157.0-0.0","A13OHDWN9XSCIG","img_art/25.jpg","5","","","","","","","","","","","","","","","","","","","","","","","","",""
"null","","html-keyboard-response","161","1126759","0.0-158.0","A13OHDWN9XSCIG","<p style=""font-size: 48px;"">+</p>","","","","","null","allTrialResponses","1000","1","16","img_art/25.jpg","-27","very simple, and the green is vibrant","Dominique,Kylie,Brooke,Alexandra,Alyssa,Angelica","Iike this picture; it speaks to me on a personal level. But seems to scare the ones around me.,7,400,20","Egyptian heiroglyphics and painting,15,300,20","Like the color, but what is that thing.,-10,60,20","This is too dark and creepy. I also hate the color,-30,60,20","Dark silhouette against the murky background Illicites an ominous feeling. Don't really like it.,-20,160,20","This is strange and poorly done.,-2,280,20","Kylie","Egyptian heiroglyphics and painting,15,300,20","Brooke","Like the color, but what is that thing.,-10,60,20","Angelica","This is strange and poorly done.,-2,280,20","6"
"10491","","survey-text","162","1137256","0.0-159.0-0.0","A13OHDWN9XSCIG","","","","{""Q0"":""very colorful, but not sure what it could be""}","","","","","","","","","","","","","","","","","","","","","","",""
"2574.2999999523163","","image-slider-response","163","1139832","0.0-160.0","A13OHDWN9XSCIG","","","","","-30","","","","","","","","","","","","","","","","","","","","","",""
"null","","image-button-response","164","1144834","0.0-161.0","A13OHDWN9XSCIG","img_art/1.jpg","null","","","","","","","","","","","","","","","","","","","","","","","","",""
"1077","","image-button-response","165","1145914","0.0-162.0","A13OHDWN9XSCIG","img_art/1.jpg","0","","","","","","","","","","","","","","","","","","","","","","","","",""
"6885","","image-button-response","166","1152800","0.0-163.0-0.0","A13OHDWN9XSCIG","img_art/1.jpg","3","","","","","","","","","","","","","","","","","","","","","","","","",""
"807","","image-button-response","167","1153608","0.0-164.0-0.0","A13OHDWN9XSCIG","img_art/1.jpg","0","","","","","","","","","","","","","","","","","","","","","","","","",""
"964","","image-button-response","168","1157649","0.0-164.1-0.1","A13OHDWN9XSCIG","img_art/1.jpg","2","","","","","","","","","","","","","","","","","","","","","","","","",""
"null","","html-keyboard-response","169","1158150","0.0-165.0","A13OHDWN9XSCIG","<p style=""font-size: 48px;"">+</p>","","","","","null","allTrialResponses","500","1","17","img_art/1.jpg","-30","very colorful, but not sure what it could be","Cheyenne,Kylie,Brooke,Allison,Chelsea,Angelica","Nothing really going on but good color choices.,-3,200,20","I don't know how I feel about this,1,300,20","It's okay, colors remind me of autumn.,10,60,20","Messy mix of primary colors.,-10,140,20","The colors are a little too intense.,1,180,20","This is ugly with bad colors.,-6,280,20","Cheyenne","Nothing really going on but good color choices.,-3,200,20","Allison","Messy mix of primary colors.,-10,140,20","Brooke","It's okay, colors remind me of autumn.,10,60,20","8"
"10637","","survey-text","170","1168796","0.0-166.0-0.0","A13OHDWN9XSCIG","","","","{""Q0"":""Looks very musical with alot going on""}","","","","","","","","","","","","","","","","","","","","","","",""
"2908.300000011921","","image-slider-response","171","1171706","0.0-167.0","A13OHDWN9XSCIG","","","","","-32","","","","","","","","","","","","","","","","","","","","","",""
"null","","image-button-response","172","1176710","0.0-168.0","A13OHDWN9XSCIG","img_art/10.jpg","null","","","","","","","","","","","","","","","","","","","","","","","","",""
"638","","image-button-response","173","1177351","0.0-169.0","A13OHDWN9XSCIG","img_art/10.jpg","2","","","","","","","","","","","","","","","","","","","","","","","","",""
"9242","","image-button-response","174","1186594","0.0-170.0-0.0","A13OHDWN9XSCIG","img_art/10.jpg","3","","","","","","","","","","","","","","","","","","","","","","","","",""
"2450","","image-button-response","175","1189046","0.0-171.0-0.0","A13OHDWN9XSCIG","img_art/10.jpg","5","","","","","","","","","","","","","","","","","","","","","","","","",""
"null","","html-keyboard-response","176","1190047","0.0-172.0","A13OHDWN9XSCIG","<p style=""font-size: 48px;"">+</p>","","","","","null","allTrialResponses","1000","1","18","img_art/10.jpg","-32","Looks very musical with alot going on","Cheyenne,Nicole,Brooke,Allison,Abigail,Alexa","Very nice painting, would like it more with different color choice.,6,200,20","Too much negative space makes it feel unfinished,-25,20,20","artistic cello piece?,30,60,20","I like the contrast,10,140,20","Looks gross and messy,-39,20,20","Cute and has a vintage feel to it,45,40,20","Brooke","artistic cello piece?,30,60,20","Allison","I like the contrast,10,140,20","Alexa","Cute and has a vintage feel to it,45,40,20","8"
"12349","","survey-text","177","1202399","0.0-173.0-0.0","A13OHDWN9XSCIG","","","","{""Q0"":""Great colors, looks like a waterfall to me""}","","","","","","","","","","","","","","","","","","","","","","",""
"2631.7000000476837","","image-slider-response","178","1205032","0.0-174.0","A13OHDWN9XSCIG","","","","","-2","","","","","","","","","","","","","","","","","","","","","",""
"null","","image-button-response","179","1210047","0.0-175.0","A13OHDWN9XSCIG","img_art/24.jpg","null","","","","","","","","","","","","","","","","","","","","","","","","",""
"1518","","image-button-response","180","1211566","0.0-176.0","A13OHDWN9XSCIG","img_art/24.jpg","1","","","","","","","","","","","","","","","","","","","","","","","","",""
"5154","","image-button-response","181","1216722","0.0-177.0-0.0","A13OHDWN9XSCIG","img_art/24.jpg","0","","","","","","","","","","","","","","","","","","","","","","","","",""
"1807","","image-button-response","182","1218530","0.0-178.0-0.0","A13OHDWN9XSCIG","img_art/24.jpg","0","","","","","","","","","","","","","","","","","","","","","","","","",""
"2655","","image-button-response","183","1223737","0.0-178.1-0.1","A13OHDWN9XSCIG","img_art/24.jpg","2","","","","","","","","","","","","","","","","","","","","","","","","",""
"null","","html-keyboard-response","184","1224738","0.0-179.0","A13OHDWN9XSCIG","<p style=""font-size: 48px;"">+</p>","","","","","null","allTrialResponses","1000","1","19","img_art/24.jpg","-2","Great colors, looks like a waterfall to me","Amber,Gabrielle,Brooke,Allison,Kimberly,Alexa","peaceful and calm yet joyous.,50,200,20","flowing water part is good, some of the rest is ok but dark,14,160,20","Mountain stream pineapple texture?,30,60,20","I appreciate the earth tones. Soothing.,5,140,20","It just feels a little bland for me,-23,260,20","I absolutely adore this painting. The colors, designs, everything. It's phenomenal,50,40,20","Gabrielle","flowing water part is good, some of the rest is ok but dark,14,160,20","Amber","peaceful and calm yet joyous.,50,200,20","Brooke","Mountain stream pineapple texture?,30,60,20","10"
"8721","","survey-text","185","1233465","0.0-180.0-0.0","A13OHDWN9XSCIG","","","","{""Q0"":""It's very washed out and pale""}","","","","","","","","","","","","","","","","","","","","","","",""
"1830.800000011921","","image-slider-response","186","1235298","0.0-181.0","A13OHDWN9XSCIG","","","","","-24","","","","","","","","","","","","","","","","","","","","","",""
"null","","image-button-response","187","1240300","0.0-182.0","A13OHDWN9XSCIG","img_art/17.jpg","null","","","","","","","","","","","","","","","","","","","","","","","","",""
"4812","","image-button-response","188","1245115","0.0-183.0","A13OHDWN9XSCIG","img_art/17.jpg","5","","","","","","","","","","","","","","","","","","","","","","","","",""
"5023","","image-button-response","189","1250140","0.0-184.0-0.0","A13OHDWN9XSCIG","img_art/17.jpg","2","","","","","","","","","","","","","","","","","","","","","","","","",""
"2646","","image-button-response","190","1252788","0.0-185.0-0.0","A13OHDWN9XSCIG","img_art/17.jpg","4","","","","","","","","","","","","","","","","","","","","","","","","",""
"null","","html-keyboard-response","191","1253790","0.0-186.0","A13OHDWN9XSCIG","<p style=""font-size: 48px;"">+</p>","","","","","null","allTrialResponses","1000","1","20","img_art/17.jpg","-24","It's very washed out and pale","Amber,Gabrielle,Brooke,Erika,Marissa,Tiffany","Don't really like pastels.,-10,200,20","nice composition and colors, fairy land,28,160,20","doorways and trees are pleasant,30,60,20","I love vague, dreamlike styles,50,100,20","This reminds me of spring,24,160,20","The painting makes me feel relaxed, and a bit lonely, like I'm sitting at a park waiting for someone.,30,360,20","Tiffany","The painting makes me feel relaxed, and a bit lonely, like I'm sitting at a park waiting for someone.,30,360,20","Brooke","doorways and trees are pleasant,30,60,20","Marissa","This reminds me of spring,24,160,20","10"
"4386","","survey-text","192","1258183","0.0-187.0-0.0","A13OHDWN9XSCIG","","","","{""Q0"":""we""}","","","","","","","","","","","","","","","","","","","","","","",""
"16382","","survey-text","193","1274567","0.0-188.0-0.0","A13OHDWN9XSCIG","","","","{""Q0"":""I like the colors, but not sure what it really is""}","","","","","","","","","","","","","","","","","","","","","","",""
"534370.7000000477","","image-slider-response","194","1808948","0.0-189.0","A13OHDWN9XSCIG","","","","","8","","","","","","","","","","","","","","","","","","","","","",""
"2624","","image-button-response","195","1813950","0.0-190.0","A13OHDWN9XSCIG","img_art/20.jpg","0","","","","","","","","","","","","","","","","","","","","","","","","",""
"5582","","image-button-response","196","1819534","0.0-191.0","A13OHDWN9XSCIG","img_art/20.jpg","4","","","","","","","","","","","","","","","","","","","","","","","","",""
"1159","","image-button-response","197","1820694","0.0-192.0-0.0","A13OHDWN9XSCIG","img_art/20.jpg","0","","","","","","","","","","","","","","","","","","","","","","","","",""
"4543","","image-button-response","198","1825238","0.0-193.0-0.0","A13OHDWN9XSCIG","img_art/20.jpg","3","","","","","","","","","","","","","","","","","","","","","","","","",""
"null","","html-keyboard-response","199","1825743","0.0-194.0","A13OHDWN9XSCIG","<p style=""font-size: 48px;"">+</p>","","","","","null","allTrialResponses","500","1","21","img_art/20.jpg","8","I like the colors, but not sure what it really is","Danielle,Jasmine,Brooke,Kelsey,Marissa,Tiffany","Don't really like the subject it focuses on, however the color usage is great,-10,340,20","This one is okay but I don't really care for it,5,340,20","Dinosaur skill and some dark shadow above,-30,60,20","i almost feel like i can recognize what this is,-6,240,20","I feel intrigued and impressed,34,160,20","I feel powerful, like I am looking out a window at this machine, that I am in charge.,17,360,20","Marissa","I feel intrigued and impressed,34,160,20","Danielle","Don't really like the subject it focuses on, however the color usage is great,-10,340,20","Kelsey","i almost feel like i can recognize what this is,-6,240,20","10"
"19098","","survey-text","200","1844844","0.0-195.0-0.0","A13OHDWN9XSCIG","","","","{""Q0"":""very mixed media, definitely odd""}","","","","","","","","","","","","","","","","","","","","","","",""
"1718.3999999761581","","image-slider-response","201","1846564","0.0-196.0","A13OHDWN9XSCIG","","","","","-26","","","","","","","","","","","","","","","","","","","","","",""
"null","","image-button-response","202","1851566","0.0-197.0","A13OHDWN9XSCIG","img_art/27.jpg","null","","","","","","","","","","","","","","","","","","","","","","","","",""
"950","","image-button-response","203","1852518","0.0-198.0","A13OHDWN9XSCIG","img_art/27.jpg","3","","","","","","","","","","","","","","","","","","","","","","","","",""
"2374","","image-button-response","204","1854893","0.0-199.0-0.0","A13OHDWN9XSCIG","img_art/27.jpg","4","","","","","","","","","","","","","","","","","","","","","","","","",""
"2744","","image-button-response","205","1857638","0.0-200.0-0.0","A13OHDWN9XSCIG","img_art/27.jpg","0","","","","","","","","","","","","","","","","","","","","","","","","",""
"null","","html-keyboard-response","206","1859146","0.0-201.0","A13OHDWN9XSCIG","<p style=""font-size: 48px;"">+</p>","","","","","null","allTrialResponses","1500","1","22","img_art/27.jpg","-26","very mixed media, definitely odd","Danielle,Heather,Natalie,Kelsey,Marissa,Jordan","Looks a bit like a child's project with unsatisfying colors,-31,340,20","looks like a garden in between two storms.,33,260,20","also gives me anxiety,-21,400,20","too messy dont like the color choices either,-17,240,20","I am bothered by the green doodles,-20,160,20","two warring cities, separated by a small desert,50,20,20","Kelsey","too messy dont like the color choices either,-17,240,20","Marissa","I am bothered by the green doodles,-20,160,20","Danielle","Looks a bit like a child's project with unsatisfying colors,-31,340,20","10"
"12708","","survey-text","207","1871862","0.0-202.0-0.0","A13OHDWN9XSCIG","","","","{""Q0"":""This is so weird, I don't even know what it could be""}","","","","","","","","","","","","","","","","","","","","","","",""
"1783.699999988079","","image-slider-response","208","1873647","0.0-203.0","A13OHDWN9XSCIG","","","","","-33","","","","","","","","","","","","","","","","","","","","","",""
"null","","image-button-response","209","1878654","0.0-204.0","A13OHDWN9XSCIG","img_art/9.jpg","null","","","","","","","","","","","","","","","","","","","","","","","","",""
"2816","","image-button-response","210","1881471","0.0-205.0","A13OHDWN9XSCIG","img_art/9.jpg","0","","","","","","","","","","","","","","","","","","","","","","","","",""
"3071","","image-button-response","211","1884543","0.0-206.0-0.0","A13OHDWN9XSCIG","img_art/9.jpg","3","","","","","","","","","","","","","","","","","","","","","","","","",""
"1448","","image-button-response","212","1885992","0.0-207.0-0.0","A13OHDWN9XSCIG","img_art/9.jpg","0","","","","","","","","","","","","","","","","","","","","","","","","",""
"1846","","image-button-response","213","1890552","0.0-207.1-0.1","A13OHDWN9XSCIG","img_art/9.jpg","2","","","","","","","","","","","","","","","","","","","","","","","","",""
"null","","html-keyboard-response","214","1891054","0.0-208.0","A13OHDWN9XSCIG","<p style=""font-size: 48px;"">+</p>","","","","","null","allTrialResponses","500","1","23","img_art/9.jpg","-33","This is so weird, I don't even know what it could be","Danielle,Miranda,Claire,Kelsey,Marissa,Kathryn","Looks like a child's drawing,-40,340,20","It looks like someone gave a kid a coloring book page but the colors are soothing and look put together and elegant,27,320,20","the colors are nice,6,260,20","i like the colors but not the composition,-17,240,20","It makes me think of Snow White sleeping,11,160,20","This feels dreamy. Like I'm seeing inside someone's head while they're sleeping.,20,140,20","Danielle","Looks like a child's drawing,-40,340,20","Kelsey","i like the colors but not the composition,-17,240,20","Claire","the colors are nice,6,260,20","12"
"5431","","survey-text","215","1896497","0.0-209.0-0.0","A13OHDWN9XSCIG","","","","{""Q0"":""very cubic""}","","","","","","","","","","","","","","","","","","","","","","",""
"2143","","image-slider-response","216","1898641","0.0-210.0","A13OHDWN9XSCIG","","","","","-19","","","","","","","","","","","","","","","","","","","","","",""
"null","","image-button-response","217","1903643","0.0-211.0","A13OHDWN9XSCIG","img_art/12.jpg","null","","","","","","","","","","","","","","","","","","","","","","","","",""
"2011","","image-button-response","218","1905658","0.0-212.0","A13OHDWN9XSCIG","img_art/12.jpg","3","","","","","","","","","","","","","","","","","","","","","","","","",""
"1414","","image-button-response","219","1907074","0.0-213.0-0.0","A13OHDWN9XSCIG","img_art/12.jpg","4","","","","","","","","","","","","","","","","","","","","","","","","",""
"4359","","image-button-response","220","1911435","0.0-214.0-0.0","A13OHDWN9XSCIG","img_art/12.jpg","1","","","","","","","","","","","","","","","","","","","","","","","","",""
"null","","html-keyboard-response","221","1912937","0.0-215.0","A13OHDWN9XSCIG","<p style=""font-size: 48px;"">+</p>","","","","","null","allTrialResponses","1500","1","24","img_art/12.jpg","-19","very cubic","Danielle,Kaitlin,Claire,Kelsey,Mariah,Hailey","Kind of interesting, seems almost nostalgic in a way to me.,10,340,20","too much - just overcrowded,-20,60,20","i like the repetition,30,260,20","dont like the squares,-16,240,20","It is very bland and the colors are not cohesive.,-20,140,20","negative feelings with these blocks,-20,200,20","Kelsey","dont like the squares,-16,240,20","Mariah","It is very bland and the colors are not cohesive.,-20,140,20","Kaitlin","too much - just overcrowded,-20,60,20","12"
"16070","","survey-text","222","1929019","0.0-216.0-0.0","A13OHDWN9XSCIG","","","","{""Q0"":""looks like a line of people silhouettes""}","","","","","","","","","","","","","","","","","","","","","","",""
"2590.5","","image-slider-response","223","1931610","0.0-217.0","A13OHDWN9XSCIG","","","","","-17","","","","","","","","","","","","","","","","","","","","","",""
"4311","","image-button-response","224","1936612","0.0-218.0","A13OHDWN9XSCIG","img_art/23.jpg","0","","","","","","","","","","","","","","","","","","","","","","","","",""
"1157","","image-button-response","225","1937771","0.0-219.0","A13OHDWN9XSCIG","img_art/23.jpg","2","","","","","","","","","","","","","","","","","","","","","","","","",""
"695","","image-button-response","226","1938467","0.0-220.0-0.0","A13OHDWN9XSCIG","img_art/23.jpg","0","","","","","","","","","","","","","","","","","","","","","","","","",""
"4952","","image-button-response","227","1943421","0.0-221.0-0.0","A13OHDWN9XSCIG","img_art/23.jpg","5","","","","","","","","","","","","","","","","","","","","","","","","",""
"null","","html-keyboard-response","228","1944422","0.0-222.0","A13OHDWN9XSCIG","<p style=""font-size: 48px;"">+</p>","","","","","null","allTrialResponses","1000","1","25","img_art/23.jpg","-17","looks like a line of people silhouettes","Melissa,Kaitlin,Rachel,Kelsey,Mariah,Megan","do not like color splatters or sharp silhouettes, feels tacky,-34,240,20","i cannot breath in this,-10,60,20","Vivid colors and the white in the middle looks like people dancing.,31,80,20","i think this ones okay,10,240,20","It feels active and vibrant.,20,140,20","Too busy with color with warrior lineup,0,200,20","Rachel","Vivid colors and the white in the middle looks like people dancing.,31,80,20","Melissa","do not like color splatters or sharp silhouettes, feels tacky,-34,240,20","Megan","Too busy with color with warrior lineup,0,200,20","12"
"3463","","survey-text","229","1947903","0.0-223.0-0.0","A13OHDWN9XSCIG","","","","{""Q0"":""table""}","","","","","","","","","","","","","","","","","","","","","","",""
"9360","","survey-text","230","1957264","0.0-224.0-0.0","A13OHDWN9XSCIG","","","","{""Q0"":""looks like peanut brittle!""}","","","","","","","","","","","","","","","","","","","","","","",""
"1885.7000000476837","","image-slider-response","231","1959151","0.0-225.0","A13OHDWN9XSCIG","","","","","-48","","","","","","","","","","","","","","","","","","","","","",""
"null","","image-button-response","232","1964154","0.0-226.0","A13OHDWN9XSCIG","img_art/7.jpg","null","","","","","","","","","","","","","","","","","","","","","","","","",""
"652","","image-button-response","233","1964808","0.0-227.0","A13OHDWN9XSCIG","img_art/7.jpg","1","","","","","","","","","","","","","","","","","","","","","","","","",""
"3151","","image-button-response","234","1967960","0.0-228.0-0.0","A13OHDWN9XSCIG","img_art/7.jpg","3","","","","","","","","","","","","","","","","","","","","","","","","",""
"8672","","image-button-response","235","1976633","0.0-229.0-0.0","A13OHDWN9XSCIG","img_art/7.jpg","2","","","","","","","","","","","","","","","","","","","","","","","","",""
"null","","html-keyboard-response","236","1977635","0.0-230.0","A13OHDWN9XSCIG","<p style=""font-size: 48px;"">+</p>","","","","","null","allTrialResponses","1000","1","26","img_art/7.jpg","-48","looks like peanut brittle!","Melissa,Maria,Rachel,Caroline,Savannah,Megan","textures are engaging,8,240,20","elicits no real response,0,120,20","Looks like a desert or another planet. While the color choices are narrow, it's still interesting because it is very natural.,12,80,20","Looks like dirt on the ground. Makes me feel unclean,-37,100,20","More saturated color, even more interpretations to have.,44,200,20","Great portrayal of solid surface,19,200,20","Maria","elicits no real response,0,120,20","Caroline","Looks like dirt on the ground. Makes me feel unclean,-37,100,20","Rachel","Looks like a desert or another planet. While the color choices are narrow, it's still interesting because it is very natural.,12,80,20","12"
"13435","","survey-text","237","1991076","0.0-231.0-0.0","A13OHDWN9XSCIG","","","","{""Q0"":""seems like a knockoff of some famous artist""}","","","","","","","","","","","","","","","","","","","","","","",""
"2567.699999988079","","image-slider-response","238","1993645","0.0-232.0","A13OHDWN9XSCIG","","","","","-26","","","","","","","","","","","","","","","","","","","","","",""
"null","","image-button-response","239","1998648","0.0-233.0","A13OHDWN9XSCIG","img_art/8.jpg","null","","","","","","","","","","","","","","","","","","","","","","","","",""
"4811","","image-button-response","240","2003461","0.0-234.0","A13OHDWN9XSCIG","img_art/8.jpg","1","","","","","","","","","","","","","","","","","","","","","","","","",""
"1200","","image-button-response","241","2004662","0.0-235.0-0.0","A13OHDWN9XSCIG","img_art/8.jpg","4","","","","","","","","","","","","","","","","","","","","","","","","",""
"3814","","image-button-response","242","2008478","0.0-236.0-0.0","A13OHDWN9XSCIG","img_art/8.jpg","5","","","","","","","","","","","","","","","","","","","","","","","","",""
"null","","html-keyboard-response","243","2008989","0.0-237.0","A13OHDWN9XSCIG","<p style=""font-size: 48px;"">+</p>","","","","","null","allTrialResponses","500","1","27","img_art/8.jpg","-26","seems like a knockoff of some famous artist","Vanessa,Maria,Rachel,Caroline,Christina,Taylor","I don't like the negative emotion this picture makes me feel. It's also too abstract.,-30,380,20","not sure what to make of this - just neutral again,-1,120,20","I like all of the faces that can be found in this piece. Interesting.,35,80,20","I love the colors in it and also the faces and door ways. Made me feel hopeful,35,100,20","it looks very 80's and kind of scary,-11,240,20","Looks like it would be an interesting place to live,35,340,20","Maria","not sure what to make of this - just neutral again,-1,120,20","Christina","it looks very 80's and kind of scary,-11,240,20","Taylor","Looks like it would be an interesting place to live,35,340,20","12"
"11693","","survey-text","244","2020688","0.0-238.0-0.0","A13OHDWN9XSCIG","","","","{""Q0"":""looks like it might be a hand gone wrong""}","","","","","","","","","","","","","","","","","","","","","","",""
"2623","","image-slider-response","245","2023312","0.0-239.0","A13OHDWN9XSCIG","","","","","-45","","","","","","","","","","","","","","","","","","","","","",""
"null","","image-button-response","246","2028314","0.0-240.0","A13OHDWN9XSCIG","img_art/4.jpg","null","","","","","","","","","","","","","","","","","","","","","","","","",""
"589","","image-button-response","247","2028904","0.0-241.0","A13OHDWN9XSCIG","img_art/4.jpg","0","","","","","","","","","","","","","","","","","","","","","","","","",""
"4552","","image-button-response","248","2033457","0.0-242.0-0.0","A13OHDWN9XSCIG","img_art/4.jpg","4","","","","","","","","","","","","","","","","","","","","","","","","",""
"839","","image-button-response","249","2034297","0.0-243.0-0.0","A13OHDWN9XSCIG","img_art/4.jpg","3","","","","","","","","","","","","","","","","","","","","","","","","",""
"null","","html-keyboard-response","250","2034810","0.0-244.0","A13OHDWN9XSCIG","<p style=""font-size: 48px;"">+</p>","","","","","null","allTrialResponses","500","1","28","img_art/4.jpg","-45","looks like it might be a hand gone wrong","Sierra,Maria,Amanda,Mikayla,Christina,Taylor","it looks like a deformed hand,-9,260,20","no strong feelings about this one,2,120,20","Looks like an abstract version of the Scream painting,-50,180,20","Not very interesting to look at.,-34,300,20","not enough color and too yellow for me. Not my favorite colors,-10,240,20","Reminds me of a first place trophy,30,340,20","Sierra","it looks like a deformed hand,-9,260,20","Christina","not enough color and too yellow for me. Not my favorite colors,-10,240,20","Mikayla","Not very interesting to look at.,-34,300,20","12"
"10648","","survey-text","251","2045466","0.0-245.0-0.0","A13OHDWN9XSCIG","","","","{""Q0"":""looks like childs art""}","","","","","","","","","","","","","","","","","","","","","","",""
"2575.100000023842","","image-slider-response","252","2048043","0.0-246.0","A13OHDWN9XSCIG","","","","","-38","","","","","","","","","","","","","","","","","","","","","",""
"null","","image-button-response","253","2053045","0.0-247.0","A13OHDWN9XSCIG","img_art/3.jpg","null","","","","","","","","","","","","","","","","","","","","","","","","",""
"2717","","image-button-response","254","2055765","0.0-248.0","A13OHDWN9XSCIG","img_art/3.jpg","1","","","","","","","","","","","","","","","","","","","","","","","","",""
"1751","","image-button-response","255","2057517","0.0-249.0-0.0","A13OHDWN9XSCIG","img_art/3.jpg","0","","","","","","","","","","","","","","","","","","","","","","","","",""
"463","","image-button-response","256","2057981","0.0-250.0-0.0","A13OHDWN9XSCIG","img_art/3.jpg","2","","","","","","","","","","","","","","","","","","","","","","","","",""
"null","","html-keyboard-response","257","2058482","0.0-251.0","A13OHDWN9XSCIG","<p style=""font-size: 48px;"">+</p>","","","","","null","allTrialResponses","500","1","29","img_art/3.jpg","-38","looks like childs art","Sierra,Gabriela,Victoria,Mikayla,Christina,Laura","scattered and angry,-26,260,20","It looks like a child drawing,-29,140,20","makes me think of anger,-33,400,20","Scary. Looks like blood.,-45,300,20","looks more classic but i'm not a fan of the colors,7,240,20","wild scribbling, freedom, expression,40,320,20","Gabriela","It looks like a child drawing,-29,140,20","Sierra","scattered and angry,-26,260,20","Victoria","makes me think of anger,-33,400,20","12"
"13800","","survey-text","258","2072287","0.0-252.0-0.0","A13OHDWN9XSCIG","","","","{""Q0"":""Not sure what this is supposed to be""}","","","","","","","","","","","","","","","","","","","","","","",""
"2158.899999976158","","image-slider-response","259","2074447","0.0-253.0","A13OHDWN9XSCIG","","","","","-34","","","","","","","","","","","","","","","","","","","","","",""
"null","","image-button-response","260","2079449","0.0-254.0","A13OHDWN9XSCIG","img_art/14.jpg","null","","","","","","","","","","","","","","","","","","","","","","","","",""
"445","","image-button-response","261","2079897","0.0-255.0","A13OHDWN9XSCIG","img_art/14.jpg","3","","","","","","","","","","","","","","","","","","","","","","","","",""
"3887","","image-button-response","262","2083784","0.0-256.0-0.0","A13OHDWN9XSCIG","img_art/14.jpg","0","","","","","","","","","","","","","","","","","","","","","","","","",""
"4369","","image-button-response","263","2088155","0.0-257.0-0.0","A13OHDWN9XSCIG","img_art/14.jpg","5","","","","","","","","","","","","","","","","","","","","","","","","",""
"null","","html-keyboard-response","264","2089156","0.0-258.0","A13OHDWN9XSCIG","<p style=""font-size: 48px;"">+</p>","","","","","null","allTrialResponses","1000","1","30","img_art/14.jpg","-34","Not sure what this is supposed to be","Sierra,Gabriela,Victoria,Caitlin,Leah,Courtney","it put me on edge.,-11,260,20","It looks like a table centerpiece,-22,140,20","calming to look at,37,400,20","Are they blowing up a tree?,-5,80,20","I like the simplicity along with the colors,27,360,20","The pirates ship is sinking.,27,280,20","Caitlin","Are they blowing up a tree?,-5,80,20","Sierra","it put me on edge.,-11,260,20","Courtney","The pirates ship is sinking.,27,280,20","12"
"2607","","image-button-response_instructions","265","2091777","0.0-259.0","A13OHDWN9XSCIG","","0","instructions","","","","","","","","","","","","","","","","","","","","","","","",""
"1780","","image-button-response","266","2093561","0.0-260.0","A13OHDWN9XSCIG","","0","","","","","","","","","","","","","","","","","","","","","","","","",""
