"rt","url","trial_type","trial_index","time_elapsed","internal_node_id","participant_id","stimulus","button_pressed","Name","responses","response","key_press","variableName","fixationTime","condition","trial","photo","subjectRating","subjectResponse","agentsNames","agent_1_Response","agent_2_Response","agent_3_Response","agent_4_Response","agent_5_Response","agent_6_Response","kept_1_name","kept_1_response","kept_2_name","kept_2_response","kept_3_name","kept_3_response","errorCounter"
"10719","external_page_harvard.html","external-html","0","10785","0.0-0.0","A1505ZMMJAAZE1","","","","","","","","","","","","","","","","","","","","","","","","","","",""
"1424","","image-button-response","1","12210","0.0-1.0","A1505ZMMJAAZE1","","1","","","","","","","","","","","","","","","","","","","","","","","","",""
"2345","","image-button-response","2","14560","0.0-2.0-0.0","A1505ZMMJAAZE1","","1","phone","","","","","","","","","","","","","","","","","","","","","","","",""
"5652","","survey-text","3","20214","0.0-3.0-0.0","A1505ZMMJAAZE1","","","","{""Q0"":""A1505ZMMJAAZE1""}","","","","","","","","","","","","","","","","","","","","","","",""
"73830","","image-button-response_instructions","4","94046","0.0-4.0","A1505ZMMJAAZE1","","0","instructions","","","","","","","","","","","","","","","","","","","","","","","",""
"10122","","image-button-response_instructions","5","104170","0.0-5.0","A1505ZMMJAAZE1","img_art/ins/popularity/ins1.png","0","instructions","","","","","","","","","","","","","","","","","","","","","","","",""
"4080","","image-button-response_instructions","6","108252","0.0-6.0","A1505ZMMJAAZE1","img_art/ins/popularity/ins2.png","0","instructions","","","","","","","","","","","","","","","","","","","","","","","",""
"2652","","image-button-response_instructions","7","110906","0.0-7.0","A1505ZMMJAAZE1","img_art/ins/popularity/ins2Extreme.png","0","instructions","","","","","","","","","","","","","","","","","","","","","","","",""
"2840","","image-button-response_instructions","8","113748","0.0-8.0","A1505ZMMJAAZE1","img_art/ins/popularity/ins3KEEPpop.PNG","0","instructions","","","","","","","","","","","","","","","","","","","","","","","",""
"2439","","image-button-response_instructions","9","116190","0.0-9.0","A1505ZMMJAAZE1","img_art/ins/popularity/ins3ANamepop.PNG","0","instructions","","","","","","","","","","","","","","","","","","","","","","","",""
"1789","","image-button-response_instructions","10","117980","0.0-10.0","A1505ZMMJAAZE1","img_art/ins/popularity/ins3ARatingpop.png","0","instructions","","","","","","","","","","","","","","","","","","","","","","","",""
"2621","","image-button-response_instructions","11","120602","0.0-11.0","A1505ZMMJAAZE1","img_art/ins/popularity/ins3ATextpop.png","0","instructions","","","","","","","","","","","","","","","","","","","","","","","",""
"94757","","image-button-response_instructions","12","215360","0.0-12.0","A1505ZMMJAAZE1","img_art/ins/popularity/ins3ALikespop.png","0","instructions","","","","","","","","","","","","","","","","","","","","","","","",""
"36941","","image-button-response_instructions","13","252302","0.0-13.0","A1505ZMMJAAZE1","img_art/ins/popularity/ins3KEEPpop.PNG","0","instructions","","","","","","","","","","","","","","","","","","","","","","","",""
"5339","","image-button-response_instructions","14","257642","0.0-14.0","A1505ZMMJAAZE1","img_art/ins/popularity/ins3_5RED.png","0","instructions","","","","","","","","","","","","","","","","","","","","","","","",""
"2880","","image-button-response_instructions","15","260524","0.0-15.0","A1505ZMMJAAZE1","img_art/ins/popularity/ins3KEEPpop.PNG","0","instructions","","","","","","","","","","","","","","","","","","","","","","","",""
"43506","","image-button-response_instructions","16","304032","0.0-16.0","A1505ZMMJAAZE1","img_art/ins/popularity/ins4KEEPpop.PNG","0","instructions","","","","","","","","","","","","","","","","","","","","","","","",""
"1633","","image-button-response_instructions","17","305666","0.0-17.0","A1505ZMMJAAZE1","img_art/ins/popularity/ins5KEEPpop.PNG","0","instructions","","","","","","","","","","","","","","","","","","","","","","","",""
"1300","","image-button-response_instructions","18","306968","0.0-18.0","A1505ZMMJAAZE1","","0","instructions","","","","","","","","","","","","","","","","","","","","","","","",""
"5952","","survey-text","19","312946","0.0-19.0-0.0","A1505ZMMJAAZE1","","","","{""Q0"":""but""}","","","","","","","","","","","","","","","","","","","","","","",""
"21628","","survey-text","20","334577","0.0-20.0-0.0","A1505ZMMJAAZE1","","","","{""Q0"":""It is pure chaos""}","","","","","","","","","","","","","","","","","","","","","","",""
"5027.100000023842","","image-slider-response","21","339609","0.0-21.0","A1505ZMMJAAZE1","","","","","-44","","","","","","","","","","","","","","","","","","","","","",""
"null","","image-button-response","22","344614","0.0-22.0","A1505ZMMJAAZE1","img_art/ins/1.jpg","null","","","","","","","","","","","","","","","","","","","","","","","","",""
"1635","","image-button-response","23","346252","0.0-23.0","A1505ZMMJAAZE1","img_art/ins/1.jpg","3","","","","","","","","","","","","","","","","","","","","","","","","",""
"1763","","image-button-response","24","348018","0.0-24.0-0.0","A1505ZMMJAAZE1","img_art/ins/1.jpg","1","","","","","","","","","","","","","","","","","","","","","","","","",""
"1321","","image-button-response","25","349342","0.0-25.0-0.0","A1505ZMMJAAZE1","img_art/ins/1.jpg","2","","","","","","","","","","","","","","","","","","","","","","","","",""
"null","","html-keyboard-response","26","350845","0.0-26.0","A1505ZMMJAAZE1","<p style=""font-size: 48px;"">+</p>","","","","","null","allTrialResponses","1500","1","-2","img_art/ins/1.jpg","-44","It is pure chaos","Allison,Ashley,Beth,Dora,Erika,Jen","looks like a lot of things going on in the mist,20,20,20","I just don't get why these type of art would be popular,-32,40,20","This color reminds me of poo,-46,60,20","looks like what my niece in 3rd grade did this afternoon,-50,80,20","I like the sophisticated brushwork,40,100,20","It reminds me of a candy land dream I had,36,120,20","Dora","looks like what my niece in 3rd grade did this afternoon,-50,80,20","Ashley","I just don't get why these type of art would be popular,-32,40,20","Beth","This color reminds me of poo,-46,60,20","0"
"13604","","survey-text","27","364456","0.0-27.0-0.0","A1505ZMMJAAZE1","","","","{""Q0"":""interesting texture, terrible color""}","","","","","","","","","","","","","","","","","","","","","","",""
"9847.5","","image-slider-response","28","374307","0.0-28.0","A1505ZMMJAAZE1","","","","","-40","","","","","","","","","","","","","","","","","","","","","",""
"null","","image-button-response","29","379311","0.0-29.0","A1505ZMMJAAZE1","img_art/ins/2.jpg","null","","","","","","","","","","","","","","","","","","","","","","","","",""
"717","","image-button-response","30","380031","0.0-30.0","A1505ZMMJAAZE1","img_art/ins/2.jpg","3","","","","","","","","","","","","","","","","","","","","","","","","",""
"1442","","image-button-response","31","381476","0.0-31.0-0.0","A1505ZMMJAAZE1","img_art/ins/2.jpg","2","","","","","","","","","","","","","","","","","","","","","","","","",""
"2565","","image-button-response","32","384043","0.0-32.0-0.0","A1505ZMMJAAZE1","img_art/ins/2.jpg","3","","","","","","","","","","","","","","","","","","","","","","","","",""
"6517","","image-button-response","33","393398","0.0-32.1-0.1","A1505ZMMJAAZE1","img_art/ins/2.jpg","1","","","","","","","","","","","","","","","","","","","","","","","","",""
"null","","html-keyboard-response","34","394900","0.0-33.0","A1505ZMMJAAZE1","<p style=""font-size: 48px;"">+</p>","","","","","null","allTrialResponses","1500","1","-1","img_art/ins/2.jpg","-40","interesting texture, terrible color","Jenna,Ashley,Beth,Dora,Kara,Katie","One of my pet peevs,-48,140,20","Idk, it is just annoying,-32,40,20","meaningless painting,-45,60,20","looks too angry,-50,80,20","I like the blocks of color arrangements,30,160,20","too much color!,-28,180,20","Dora","looks too angry,-50,80,20","Beth","meaningless painting,-45,60,20","Ashley","Idk, it is just annoying,-32,40,20","2"
"16281","","survey-text","35","411187","0.0-34.0-0.0","A1505ZMMJAAZE1","","","","{""Q0"":""beautiful colors, dumb picture""}","","","","","","","","","","","","","","","","","","","","","","",""
"33197.89999997616","","image-slider-response","36","444388","0.0-35.0","A1505ZMMJAAZE1","","","","","10","","","","","","","","","","","","","","","","","","","","","",""
"null","","image-button-response","37","449392","0.0-36.0","A1505ZMMJAAZE1","img_art/ins/3.jpg","null","","","","","","","","","","","","","","","","","","","","","","","","",""
"4409","","image-button-response","38","453804","0.0-37.0","A1505ZMMJAAZE1","img_art/ins/3.jpg","5","","","","","","","","","","","","","","","","","","","","","","","","",""
"3329","","image-button-response","39","457134","0.0-38.0-0.0","A1505ZMMJAAZE1","img_art/ins/3.jpg","0","","","","","","","","","","","","","","","","","","","","","","","","",""
"2297","","image-button-response","40","459434","0.0-39.0-0.0","A1505ZMMJAAZE1","img_art/ins/3.jpg","0","","","","","","","","","","","","","","","","","","","","","","","","",""
"6790","","image-button-response","41","468756","0.0-39.1-0.1","A1505ZMMJAAZE1","img_art/ins/3.jpg","1","","","","","","","","","","","","","","","","","","","","","","","","",""
"null","","html-keyboard-response","42","469258","0.0-40.0","A1505ZMMJAAZE1","<p style=""font-size: 48px;"">+</p>","","","","","null","allTrialResponses","500","1","0","img_art/ins/3.jpg","10","beautiful colors, dumb picture","Leslie,Ashley,Beth,Dora,Mary,Rose","It's an alright work,15,200,20","It looks like a playground for bats,-36,40,20","This thing gives me anxiety,-41,60,20","My worst nightmare,-42,80,20","I like the overlapping of brushes,41,220,20","My daily routine, it's depressing,-20,240,20","Rose","My daily routine, it's depressing,-20,240,20","Leslie","It's an alright work,15,200,20","Ashley","It looks like a playground for bats,-36,40,20","4"
"4855","","image-button-response_instructions","43","474119","0.0-41.0","A1505ZMMJAAZE1","","0","instructions","","","","","","","","","","","","","","","","","","","","","","","",""
"21751","","survey-likert","44","495872","0.0-42.0-0.0","A1505ZMMJAAZE1","","","","{""Q0"":"""",""Q1"":0,""Q2"":1}","","","","","","","","","","","","","","","","","","","","","","",""
"5650","","survey-text","45","501527","0.0-43.0-0.0","A1505ZMMJAAZE1","","","","{""Q0"":""rock""}","","","","","","","","","","","","","","","","","","","","","","",""
"18082","","survey-text","46","519611","0.0-44.0-0.0","A1505ZMMJAAZE1","","","","{""Q0"":""very random; looks like it could be something but very complicated""}","","","","","","","","","","","","","","","","","","","","","","",""
"3106.399999976158","","image-slider-response","47","522719","0.0-45.0","A1505ZMMJAAZE1","","","","","-50","","","","","","","","","","","","","","","","","","","","","",""
"4438","","image-button-response","48","527743","0.0-46.0","A1505ZMMJAAZE1","img_art/19.jpg","3","","","","","","","","","","","","","","","","","","","","","","","","",""
"1900","","image-button-response","49","529646","0.0-47.0","A1505ZMMJAAZE1","img_art/19.jpg","5","","","","","","","","","","","","","","","","","","","","","","","","",""
"1050","","image-button-response","50","530697","0.0-48.0-0.0","A1505ZMMJAAZE1","img_art/19.jpg","2","","","","","","","","","","","","","","","","","","","","","","","","",""
"1215","","image-button-response","51","531915","0.0-49.0-0.0","A1505ZMMJAAZE1","img_art/19.jpg","3","","","","","","","","","","","","","","","","","","","","","","","","",""
"null","","html-keyboard-response","52","533417","0.0-50.0","A1505ZMMJAAZE1","<p style=""font-size: 48px;"">+</p>","","","","","null","allTrialResponses","1500","1","1","img_art/19.jpg","-50","very random; looks like it could be something but very complicated","Anna,Kristen,Kaitlyn,Sophia,Mikayla,Chloe","I like the shapes.,22,300,20","city, stress of urbanism, slightly panicked,2,280,20","The picture contains a lot of brown and weird drips,-4,80,20","This looks like a child's piece. I appreciate the artistic value, but not for me.,-20,280,20","Very pretty and colorful.,23,300,20","The use of space isn't my favorite.,-20,220,20","Chloe","The use of space isn't my favorite.,-20,220,20","Kaitlyn","The picture contains a lot of brown and weird drips,-4,80,20","Sophia","This looks like a child's piece. I appreciate the artistic value, but not for me.,-20,280,20","4"
"15443","","survey-text","53","548866","0.0-51.0-0.0","A1505ZMMJAAZE1","","","","{""Q0"":""first thoughts are a leg in a trash bag; no thanks""}","","","","","","","","","","","","","","","","","","","","","","",""
"3178.9000000953674","","image-slider-response","54","552047","0.0-52.0","A1505ZMMJAAZE1","","","","","-50","","","","","","","","","","","","","","","","","","","","","",""
"2966","","image-button-response","55","557049","0.0-53.0","A1505ZMMJAAZE1","img_art/5.jpg","1","","","","","","","","","","","","","","","","","","","","","","","","",""
"985","","image-button-response","56","558037","0.0-54.0","A1505ZMMJAAZE1","img_art/5.jpg","1","","","","","","","","","","","","","","","","","","","","","","","","",""
"1828","","image-button-response","57","559867","0.0-55.0-0.0","A1505ZMMJAAZE1","img_art/5.jpg","3","","","","","","","","","","","","","","","","","","","","","","","","",""
"2733","","image-button-response","58","562601","0.0-56.0-0.0","A1505ZMMJAAZE1","img_art/5.jpg","4","","","","","","","","","","","","","","","","","","","","","","","","",""
"null","","html-keyboard-response","59","563104","0.0-57.0","A1505ZMMJAAZE1","<p style=""font-size: 48px;"">+</p>","","","","","null","allTrialResponses","500","1","2","img_art/5.jpg","-50","first thoughts are a leg in a trash bag; no thanks","Samantha,Cassandra,Kaitlyn,Sophia,Victoria,Chloe","I cant explain why i like this so much but it really calls out to me,50,140,20","This was awful and it looked like someone took minimul effort with it... no time at all.,-49,120,20","Wish the background had been kept clean; distracts from main object,11,80,20","Looks like a tied up trash bag.,-10,280,20","very boring and plain,-35,400,20","Black stripe looks violent,-31,220,20","Cassandra","This was awful and it looked like someone took minimul effort with it... no time at all.,-49,120,20","Sophia","Looks like a tied up trash bag.,-10,280,20","Victoria","very boring and plain,-35,400,20","4"
"8941","","survey-text","60","572051","0.0-58.0-0.0","A1505ZMMJAAZE1","","","","{""Q0"":""interesting but depressing""}","","","","","","","","","","","","","","","","","","","","","","",""
"7439.900000095367","","image-slider-response","61","579493","0.0-59.0","A1505ZMMJAAZE1","","","","","-10","","","","","","","","","","","","","","","","","","","","","",""
"null","","image-button-response","62","584495","0.0-60.0","A1505ZMMJAAZE1","img_art/13.jpg","null","","","","","","","","","","","","","","","","","","","","","","","","",""
"2005","","image-button-response","63","586503","0.0-61.0","A1505ZMMJAAZE1","img_art/13.jpg","3","","","","","","","","","","","","","","","","","","","","","","","","",""
"4386","","image-button-response","64","590891","0.0-62.0-0.0","A1505ZMMJAAZE1","img_art/13.jpg","0","","","","","","","","","","","","","","","","","","","","","","","","",""
"1389","","image-button-response","65","592281","0.0-63.0-0.0","A1505ZMMJAAZE1","img_art/13.jpg","0","","","","","","","","","","","","","","","","","","","","","","","","",""
"2266","","image-button-response","66","597620","0.0-63.1-0.1","A1505ZMMJAAZE1","img_art/13.jpg","2","","","","","","","","","","","","","","","","","","","","","","","","",""
"null","","html-keyboard-response","67","598622","0.0-64.0","A1505ZMMJAAZE1","<p style=""font-size: 48px;"">+</p>","","","","","null","allTrialResponses","1000","1","3","img_art/13.jpg","-10","interesting but depressing","Paige,Cassandra,Alexis,Sophia,Victoria,Cheyenne","Pleased. I like to combination of colors,17,60,20","I love the colors and the texture,37,120,20","Simple, but pleasing. The blue gradient is a favorite of mine,32,100,20","I like the colors used in this piece.,2,280,20","reminds me of rain,36,400,20","Like how realistic it looks.,33,200,20","Sophia","I like the colors used in this piece.,2,280,20","Paige","Pleased. I like to combination of colors,17,60,20","Alexis","Simple, but pleasing. The blue gradient is a favorite of mine,32,100,20","6"
"14631","","survey-text","68","613260","0.0-65.0-0.0","A1505ZMMJAAZE1","","","","{""Q0"":""kindergarten work""}","","","","","","","","","","","","","","","","","","","","","","",""
"2579.600000023842","","image-slider-response","69","615841","0.0-66.0","A1505ZMMJAAZE1","","","","","-50","","","","","","","","","","","","","","","","","","","","","",""
"2298","","image-button-response","70","620845","0.0-67.0","A1505ZMMJAAZE1","img_art/30.jpg","2","","","","","","","","","","","","","","","","","","","","","","","","",""
"2704","","image-button-response","71","623551","0.0-68.0","A1505ZMMJAAZE1","img_art/30.jpg","2","","","","","","","","","","","","","","","","","","","","","","","","",""
"5142","","image-button-response","72","628696","0.0-69.0-0.0","A1505ZMMJAAZE1","img_art/30.jpg","3","","","","","","","","","","","","","","","","","","","","","","","","",""
"1098","","image-button-response","73","629796","0.0-70.0-0.0","A1505ZMMJAAZE1","img_art/30.jpg","5","","","","","","","","","","","","","","","","","","","","","","","","",""
"null","","html-keyboard-response","74","630797","0.0-71.0","A1505ZMMJAAZE1","<p style=""font-size: 48px;"">+</p>","","","","","null","allTrialResponses","1000","1","4","img_art/30.jpg","-50","kindergarten work","Paige,Meghan,Alexis,Sophia,Brianna,Kimberly","Happy. Makes me think of childhood finger painting,49,60,20","nothing special about it,1,220,20","Too abstract, looks like something I could paint,-50,100,20","Hmmm. I think the artist is trying to direct me to a spreadsheet?  (s/s),-10,280,20","I like the fact that it's a painting.,21,20,20","looks like eels,-20,260,20","Alexis","Too abstract, looks like something I could paint,-50,100,20","Sophia","Hmmm. I think the artist is trying to direct me to a spreadsheet?  (s/s),-10,280,20","Kimberly","looks like eels,-20,260,20","6"
"8572","","survey-text","75","639376","0.0-72.0-0.0","A1505ZMMJAAZE1","","","","{""Q0"":""ugly colors; makes no sense""}","","","","","","","","","","","","","","","","","","","","","","",""
"2979.7999999523163","","image-slider-response","76","642357","0.0-73.0","A1505ZMMJAAZE1","","","","","-50","","","","","","","","","","","","","","","","","","","","","",""
"null","","image-button-response","77","647361","0.0-74.0","A1505ZMMJAAZE1","img_art/28.jpg","null","","","","","","","","","","","","","","","","","","","","","","","","",""
"6154","","image-button-response","78","653518","0.0-75.0","A1505ZMMJAAZE1","img_art/28.jpg","1","","","","","","","","","","","","","","","","","","","","","","","","",""
"6884","","image-button-response","79","660404","0.0-76.0-0.0","A1505ZMMJAAZE1","img_art/28.jpg","5","","","","","","","","","","","","","","","","","","","","","","","","",""
"4624","","image-button-response","80","665029","0.0-77.0-0.0","A1505ZMMJAAZE1","img_art/28.jpg","4","","","","","","","","","","","","","","","","","","","","","","","","",""
"null","","html-keyboard-response","81","665532","0.0-78.0","A1505ZMMJAAZE1","<p style=""font-size: 48px;"">+</p>","","","","","null","allTrialResponses","500","1","5","img_art/28.jpg","-50","ugly colors; makes no sense","Margaret,Julia,Alexis,Sophia,Megan,Kimberly","i like the neutral color pallette but i dont know what i am looking at,26,100,20","the people kind of scare me in this one,-15,40,20","Interesting. I like the ""old woman"" on the left. Lots of different entities to look at,21,100,20","I think this may have to do with humpty dumpty?,-7,280,20","Compact grey mess lack negative space,-10,200,20","The thing on the right is kind of weird/fetus-y,-12,260,20","Julia","the people kind of scare me in this one,-15,40,20","Kimberly","The thing on the right is kind of weird/fetus-y,-12,260,20","Megan","Compact grey mess lack negative space,-10,200,20","6"
"3067","","survey-text","82","668609","0.0-79.0-0.0","A1505ZMMJAAZE1","","","","{""Q0"":""sky""}","","","","","","","","","","","","","","","","","","","","","","",""
"24027","","survey-text","83","692637","0.0-80.0-0.0","A1505ZMMJAAZE1","","","","{""Q0"":""like the gray swirls; the rest looks like someone didn't like it and painted a big x over it""}","","","","","","","","","","","","","","","","","","","","","","",""
"2510.2000000476837","","image-slider-response","84","695150","0.0-81.0","A1505ZMMJAAZE1","","","","","-50","","","","","","","","","","","","","","","","","","","","","",""
"null","","image-button-response","85","700152","0.0-82.0","A1505ZMMJAAZE1","img_art/29.jpg","null","","","","","","","","","","","","","","","","","","","","","","","","",""
"16790","","image-button-response","86","716946","0.0-83.0","A1505ZMMJAAZE1","img_art/29.jpg","2","","","","","","","","","","","","","","","","","","","","","","","","",""
"3248","","image-button-response","87","720198","0.0-84.0-0.0","A1505ZMMJAAZE1","img_art/29.jpg","4","","","","","","","","","","","","","","","","","","","","","","","","",""
"1481","","image-button-response","88","721681","0.0-85.0-0.0","A1505ZMMJAAZE1","img_art/29.jpg","0","","","","","","","","","","","","","","","","","","","","","","","","",""
"null","","html-keyboard-response","89","722683","0.0-86.0","A1505ZMMJAAZE1","<p style=""font-size: 48px;"">+</p>","","","","","null","allTrialResponses","1000","1","6","img_art/29.jpg","-50","like the gray swirls; the rest looks like someone didn't like it and painted a big x over it","Katherine,Julia,Danielle,Nicole,Megan,Kimberly","I think the grey and red inspire negative feelings but it's not the worst thing.,13,120,20","it looks like a top-down battle arena,26,40,20","Quite ugly in my opinion,-30,340,20","This one feels scary in a good way,30,20,20","Pinball meets a dark dream meets whale alien, drab,13,200,20","I like the usage of a physical object,33,260,20","Danielle","Quite ugly in my opinion,-30,340,20","Megan","Pinball meets a dark dream meets whale alien, drab,13,200,20","Katherine","I think the grey and red inspire negative feelings but it's not the worst thing.,13,120,20","6"
"22518","","survey-text","90","745207","0.0-87.0-0.0","A1505ZMMJAAZE1","","","","{""Q0"":""I like what appears to be water and sky.  The rest is confusing.""}","","","","","","","","","","","","","","","","","","","","","","",""
"6828.600000023842","","image-slider-response","91","752038","0.0-88.0","A1505ZMMJAAZE1","","","","","-10","","","","","","","","","","","","","","","","","","","","","",""
"null","","image-button-response","92","757042","0.0-89.0","A1505ZMMJAAZE1","img_art/20.jpg","null","","","","","","","","","","","","","","","","","","","","","","","","",""
"2546","","image-button-response","93","759592","0.0-90.0","A1505ZMMJAAZE1","img_art/20.jpg","2","","","","","","","","","","","","","","","","","","","","","","","","",""
"2367","","image-button-response","94","761961","0.0-91.0-0.0","A1505ZMMJAAZE1","img_art/20.jpg","4","","","","","","","","","","","","","","","","","","","","","","","","",""
"1082","","image-button-response","95","763046","0.0-92.0-0.0","A1505ZMMJAAZE1","img_art/20.jpg","3","","","","","","","","","","","","","","","","","","","","","","","","",""
"null","","html-keyboard-response","96","764048","0.0-93.0","A1505ZMMJAAZE1","<p style=""font-size: 48px;"">+</p>","","","","","null","allTrialResponses","1000","1","7","img_art/20.jpg","-10","I like what appears to be water and sky.  The rest is confusing.","Katherine,Jessica,Danielle,Alexandra,Megan,Tiffany","More dark colors and blurry objects.,13,120,20","It looks painted really nicely.,5,400,20","Don't really like the subject it focuses on, however the color usage is great,-10,340,20","The white blob looks like a face and it's creepy,-30,60,20","Fails to capture what similar styles do,-12,200,20","I feel powerful, like I am looking out a window at this machine, that I am in charge.,17,360,20","Danielle","Don't really like the subject it focuses on, however the color usage is great,-10,340,20","Megan","Fails to capture what similar styles do,-12,200,20","Alexandra","The white blob looks like a face and it's creepy,-30,60,20","6"
"13478","","survey-text","97","777531","0.0-94.0-0.0","A1505ZMMJAAZE1","","","","{""Q0"":""Nice muted colors, but ugly painting""}","","","","","","","","","","","","","","","","","","","","","","",""
"10644.5","","image-slider-response","98","788177","0.0-95.0","A1505ZMMJAAZE1","","","","","-30","","","","","","","","","","","","","","","","","","","","","",""
"null","","image-button-response","99","793180","0.0-96.0","A1505ZMMJAAZE1","img_art/14.jpg","null","","","","","","","","","","","","","","","","","","","","","","","","",""
"8939","","image-button-response","100","802122","0.0-97.0","A1505ZMMJAAZE1","img_art/14.jpg","2","","","","","","","","","","","","","","","","","","","","","","","","",""
"2730","","image-button-response","101","804854","0.0-98.0-0.0","A1505ZMMJAAZE1","img_art/14.jpg","5","","","","","","","","","","","","","","","","","","","","","","","","",""
"4377","","image-button-response","102","809234","0.0-99.0-0.0","A1505ZMMJAAZE1","img_art/14.jpg","1","","","","","","","","","","","","","","","","","","","","","","","","",""
"null","","html-keyboard-response","103","809737","0.0-100.0","A1505ZMMJAAZE1","<p style=""font-size: 48px;"">+</p>","","","","","null","allTrialResponses","500","1","8","img_art/14.jpg","-30","Nice muted colors, but ugly painting","Katelyn,Emily,Danielle,Alexandra,Megan,Laura","Its cute. Not striking but i would keep it in my home.,10,100,20","Looks like there is some skill but also at the same time parts look unskilled.,-16,40,20","Too much yellow in this image, i'm not a fan of art that is overly-saturated with yellow,-30,340,20","Pretty, dainty, unique,22,60,20","Baby's room palette with tree confusion in a more confused substrate.,-15,200,20","feels incomplete, poorly planned/executed,-34,320,20","Danielle","Too much yellow in this image, i'm not a fan of art that is overly-saturated with yellow,-30,340,20","Laura","feels incomplete, poorly planned/executed,-34,320,20","Emily","Looks like there is some skill but also at the same time parts look unskilled.,-16,40,20","6"
"15509","","survey-text","104","825253","0.0-101.0-0.0","A1505ZMMJAAZE1","","","","{""Q0"":""looks like a large blob of teeth with cavities.  Yuck.""}","","","","","","","","","","","","","","","","","","","","","","",""
"13804.300000071526","","image-slider-response","105","839059","0.0-102.0","A1505ZMMJAAZE1","","","","","-50","","","","","","","","","","","","","","","","","","","","","",""
"1969","","image-button-response","106","844062","0.0-103.0","A1505ZMMJAAZE1","img_art/9.jpg","1","","","","","","","","","","","","","","","","","","","","","","","","",""
"183","","image-button-response","107","844248","0.0-104.0","A1505ZMMJAAZE1","img_art/9.jpg","5","","","","","","","","","","","","","","","","","","","","","","","","",""
"2308","","image-button-response","108","846557","0.0-105.0-0.0","A1505ZMMJAAZE1","img_art/9.jpg","2","","","","","","","","","","","","","","","","","","","","","","","","",""
"663","","image-button-response","109","847223","0.0-106.0-0.0","A1505ZMMJAAZE1","img_art/9.jpg","1","","","","","","","","","","","","","","","","","","","","","","","","",""
"null","","html-keyboard-response","110","848725","0.0-107.0","A1505ZMMJAAZE1","<p style=""font-size: 48px;"">+</p>","","","","","null","allTrialResponses","1500","1","9","img_art/9.jpg","-50","looks like a large blob of teeth with cavities.  Yuck.","Savannah,Emily,Danielle,Kelly,Chelsea,Laura","Unfinished, weird composition.,-34,200,20","Looks like a young child drew it.,-45,40,20","Looks like a child's drawing,-40,340,20","It looks like a child drew it.,-28,220,20","I don't like the obvious lines of colored pencil on the border.,-24,180,20","autopsy, morgue, dead corpses - don't like the flesh tones,-43,320,20","Laura","autopsy, morgue, dead corpses - don't like the flesh tones,-43,320,20","Danielle","Looks like a child's drawing,-40,340,20","Emily","Looks like a young child drew it.,-45,40,20","6"
"16119","","survey-text","111","864851","0.0-108.0-0.0","A1505ZMMJAAZE1","","","","{""Q0"":""interesting colors, but the people in the middle are odd.""}","","","","","","","","","","","","","","","","","","","","","","",""
"3743.899999976158","","image-slider-response","112","868597","0.0-109.0","A1505ZMMJAAZE1","","","","","2","","","","","","","","","","","","","","","","","","","","","",""
"null","","image-button-response","113","873599","0.0-110.0","A1505ZMMJAAZE1","img_art/23.jpg","null","","","","","","","","","","","","","","","","","","","","","","","","",""
"17035","","image-button-response","114","890637","0.0-111.0","A1505ZMMJAAZE1","img_art/23.jpg","3","","","","","","","","","","","","","","","","","","","","","","","","",""
"54316","","image-button-response","115","944955","0.0-112.0-0.0","A1505ZMMJAAZE1","img_art/23.jpg","0","","","","","","","","","","","","","","","","","","","","","","","","",""
"10283","","image-button-response","116","955241","0.0-113.0-0.0","A1505ZMMJAAZE1","img_art/23.jpg","5","","","","","","","","","","","","","","","","","","","","","","","","",""
"null","","html-keyboard-response","117","956744","0.0-114.0","A1505ZMMJAAZE1","<p style=""font-size: 48px;"">+</p>","","","","","null","allTrialResponses","1500","1","10","img_art/23.jpg","2","interesting colors, but the people in the middle are odd.","Caitlin,Emily,Danielle,Heather,Kathryn,Laura","SOME thought was put into this one.,5,80,20","I don't get it.,-40,40,20","While I don't normally enjoy these color schemes all together, I kind of like this one,10,340,20","illegible wording with a graffiti background,1,260,20","I feel positive community and comfort. Singing along at a concert, united with a bunch of strangers through shared joy.,20,140,20","teeth! dancing people, celebrations,-39,320,20","Heather","illegible wording with a graffiti background,1,260,20","Caitlin","SOME thought was put into this one.,5,80,20","Laura","teeth! dancing people, celebrations,-39,320,20","6"
"3690","","survey-text","118","960447","0.0-115.0-0.0","A1505ZMMJAAZE1","","","","{""Q0"":""our""}","","","","","","","","","","","","","","","","","","","","","","",""
"54599","","survey-text","119","1015047","0.0-116.0-0.0","A1505ZMMJAAZE1","","","","{""Q0"":""like the white and blue; don't like the tree thing""}","","","","","","","","","","","","","","","","","","","","","","",""
"4597.399999976158","","image-slider-response","120","1019647","0.0-117.0","A1505ZMMJAAZE1","","","","","4","","","","","","","","","","","","","","","","","","","","","",""
"null","","image-button-response","121","1024651","0.0-118.0","A1505ZMMJAAZE1","img_art/17.jpg","null","","","","","","","","","","","","","","","","","","","","","","","","",""
"4792","","image-button-response","122","1029445","0.0-119.0","A1505ZMMJAAZE1","img_art/17.jpg","0","","","","","","","","","","","","","","","","","","","","","","","","",""
"2352","","image-button-response","123","1031799","0.0-120.0-0.0","A1505ZMMJAAZE1","img_art/17.jpg","1","","","","","","","","","","","","","","","","","","","","","","","","",""
"1561","","image-button-response","124","1033361","0.0-121.0-0.0","A1505ZMMJAAZE1","img_art/17.jpg","2","","","","","","","","","","","","","","","","","","","","","","","","",""
"null","","html-keyboard-response","125","1033864","0.0-122.0","A1505ZMMJAAZE1","<p style=""font-size: 48px;"">+</p>","","","","","null","allTrialResponses","500","1","11","img_art/17.jpg","4","like the white and blue; don't like the tree thing","Caitlin,Hannah,Shelby,Heather,Stephanie,Laura","Somewhat should trim the tree branches at the shopping mall.,10,80,20","Looks like an abandoned building that is being overtaken by nature.,-10,240,20","This feels like creativity and limitlessness,30,240,20","Beautiful simply beautiful. i would love this,,50,260,20","The wispy trees caught my eye.,42,300,20","home - reminds me of fond memories of the Barnes Museum courtyard (looks just like it),30,320,20","Caitlin","Somewhat should trim the tree branches at the shopping mall.,10,80,20","Hannah","Looks like an abandoned building that is being overtaken by nature.,-10,240,20","Shelby","This feels like creativity and limitlessness,30,240,20","6"
"11030","","survey-text","126","1044901","0.0-123.0-0.0","A1505ZMMJAAZE1","","","","{""Q0"":""hate red; hate the lines""}","","","","","","","","","","","","","","","","","","","","","","",""
"2720.100000023842","","image-slider-response","127","1047623","0.0-124.0","A1505ZMMJAAZE1","","","","","-50","","","","","","","","","","","","","","","","","","","","","",""
"3359","","image-button-response","128","1052625","0.0-125.0","A1505ZMMJAAZE1","img_art/3.jpg","0","","","","","","","","","","","","","","","","","","","","","","","","",""
"1730","","image-button-response","129","1054359","0.0-126.0","A1505ZMMJAAZE1","img_art/3.jpg","4","","","","","","","","","","","","","","","","","","","","","","","","",""
"1033","","image-button-response","130","1055395","0.0-127.0-0.0","A1505ZMMJAAZE1","img_art/3.jpg","2","","","","","","","","","","","","","","","","","","","","","","","","",""
"1066","","image-button-response","131","1056463","0.0-128.0-0.0","A1505ZMMJAAZE1","img_art/3.jpg","0","","","","","","","","","","","","","","","","","","","","","","","","",""
"null","","html-keyboard-response","132","1056966","0.0-129.0","A1505ZMMJAAZE1","<p style=""font-size: 48px;"">+</p>","","","","","null","allTrialResponses","500","1","12","img_art/3.jpg","-50","hate red; hate the lines","Caitlin,Hannah,Shelby,Abigail,Briana,Taylor","Why kids with color crayons is called art is beyond me. People pay for this???,-40,80,20","Looks like a Basquiat but just not my cup of tea.,-29,240,20","This makes me feel a bit disturbed,-35,240,20","Reminded me of blood or something bad,-21,20,20","Sharp peaks look like sharp teeth,-37,400,20","It doesn't make me think of art,-20,340,20","Briana","Sharp peaks look like sharp teeth,-37,400,20","Shelby","This makes me feel a bit disturbed,-35,240,20","Caitlin","Why kids with color crayons is called art is beyond me. People pay for this???,-40,80,20","6"
"60752","","survey-text","133","1117723","0.0-130.0-0.0","A1505ZMMJAAZE1","","","","{""Q0"":""terrible colors; what even is this?""}","","","","","","","","","","","","","","","","","","","","","","",""
"2510.399999976158","","image-slider-response","134","1120236","0.0-131.0","A1505ZMMJAAZE1","","","","","-50","","","","","","","","","","","","","","","","","","","","","",""
"4024","","image-button-response","135","1125240","0.0-132.0","A1505ZMMJAAZE1","img_art/2.jpg","5","","","","","","","","","","","","","","","","","","","","","","","","",""
"511","","image-button-response","136","1125754","0.0-133.0","A1505ZMMJAAZE1","img_art/2.jpg","5","","","","","","","","","","","","","","","","","","","","","","","","",""
"664","","image-button-response","137","1126420","0.0-134.0-0.0","A1505ZMMJAAZE1","img_art/2.jpg","3","","","","","","","","","","","","","","","","","","","","","","","","",""
"3670","","image-button-response","138","1130093","0.0-135.0-0.0","A1505ZMMJAAZE1","img_art/2.jpg","1","","","","","","","","","","","","","","","","","","","","","","","","",""
"null","","html-keyboard-response","139","1131597","0.0-136.0","A1505ZMMJAAZE1","<p style=""font-size: 48px;"">+</p>","","","","","null","allTrialResponses","1500","1","13","img_art/2.jpg","-50","terrible colors; what even is this?","Caitlin,Jasmine,Shelby,Natalie,Briana,Claire","Have now advanced from kindergarten to the first grade.,-5,80,20","Color picks are a bad mesh with each other,-17,340,20","The contrasting colors are a bit harsh,-10,240,20","looks like a bunch of gibberish,-39,400,20","Childish smiley face,-19,400,20","too blocky and don't like color combination,-32,260,20","Claire","too blocky and don't like color combination,-32,260,20","Natalie","looks like a bunch of gibberish,-39,400,20","Jasmine","Color picks are a bad mesh with each other,-17,340,20","6"
"22567","","survey-text","140","1154173","0.0-137.0-0.0","A1505ZMMJAAZE1","","","","{""Q0"":""face is creepy, but looks like rock buildings which is cool""}","","","","","","","","","","","","","","","","","","","","","","",""
"5696.200000047684","","image-slider-response","141","1159871","0.0-138.0","A1505ZMMJAAZE1","","","","","20","","","","","","","","","","","","","","","","","","","","","",""
"null","","image-button-response","142","1164874","0.0-139.0","A1505ZMMJAAZE1","img_art/8.jpg","null","","","","","","","","","","","","","","","","","","","","","","","","",""
"837","","image-button-response","143","1165713","0.0-140.0","A1505ZMMJAAZE1","img_art/8.jpg","0","","","","","","","","","","","","","","","","","","","","","","","","",""
"4786","","image-button-response","144","1170502","0.0-141.0-0.0","A1505ZMMJAAZE1","img_art/8.jpg","1","","","","","","","","","","","","","","","","","","","","","","","","",""
"3224","","image-button-response","145","1173727","0.0-142.0-0.0","A1505ZMMJAAZE1","img_art/8.jpg","3","","","","","","","","","","","","","","","","","","","","","","","","",""
"null","","html-keyboard-response","146","1175230","0.0-143.0","A1505ZMMJAAZE1","<p style=""font-size: 48px;"">+</p>","","","","","null","allTrialResponses","1500","1","14","img_art/8.jpg","20","face is creepy, but looks like rock buildings which is cool","Andrea,Jasmine,Rebecca,Natalie,Alyssa,Claire","The face makes me think its a statement of the almighty of big brother watching us. onfuCsion limits my enjoyment.,6,240,20","Not too bad despite the chaos.,16,340,20","gives off inception vibes <3,50,100,20","looks nice, like the details,25,400,20","I like how the more you like at it there are more things to discover.Very creative.,33,160,20","looks like an aerial view, very pretty,32,260,20","Andrea","The face makes me think its a statement of the almighty of big brother watching us. onfuCsion limits my enjoyment.,6,240,20","Jasmine","Not too bad despite the chaos.,16,340,20","Natalie","looks nice, like the details,25,400,20","6"
"12263","","survey-text","147","1187503","0.0-144.0-0.0","A1505ZMMJAAZE1","","","","{""Q0"":""interesting water, but not a big fan""}","","","","","","","","","","","","","","","","","","","","","","",""
"7720.200000047684","","image-slider-response","148","1195225","0.0-145.0","A1505ZMMJAAZE1","","","","","-5","","","","","","","","","","","","","","","","","","","","","",""
"3601","","image-button-response","149","1200227","0.0-146.0","A1505ZMMJAAZE1","img_art/24.jpg","1","","","","","","","","","","","","","","","","","","","","","","","","",""
"2303","","image-button-response","150","1202533","0.0-147.0","A1505ZMMJAAZE1","img_art/24.jpg","3","","","","","","","","","","","","","","","","","","","","","","","","",""
"2030","","image-button-response","151","1204565","0.0-148.0-0.0","A1505ZMMJAAZE1","img_art/24.jpg","4","","","","","","","","","","","","","","","","","","","","","","","","",""
"1153","","image-button-response","152","1205719","0.0-149.0-0.0","A1505ZMMJAAZE1","img_art/24.jpg","1","","","","","","","","","","","","","","","","","","","","","","","","",""
"null","","html-keyboard-response","153","1207222","0.0-150.0","A1505ZMMJAAZE1","<p style=""font-size: 48px;"">+</p>","","","","","null","allTrialResponses","1500","1","15","img_art/24.jpg","-5","interesting water, but not a big fan","Andrea,Jasmine,Rachel,Natalie,Lindsey,Lauren","Waterfall, and I love the coloring.,48,240,20","This one is nice because it reminds me of nature,18,340,20","Looks like a beautiful stream rolling through terrain of rocks and flowers.,43,80,20","I like the waterfall,22,400,20","I like the colors and see a stream in a wooded setting. Makes me feel calm and cheerful.,27,400,20","Invokes a strong sense of nature, since the piece can interpreted as a stream or an abstracted bird.,40,340,20","Natalie","I like the waterfall,22,400,20","Lindsey","I like the colors and see a stream in a wooded setting. Makes me feel calm and cheerful.,27,400,20","Jasmine","This one is nice because it reminds me of nature,18,340,20","6"
"2956","","survey-text","154","1210193","0.0-151.0-0.0","A1505ZMMJAAZE1","","","","{""Q0"":""course""}","","","","","","","","","","","","","","","","","","","","","","",""
"14384","","survey-text","155","1224579","0.0-152.0-0.0","A1505ZMMJAAZE1","","","","{""Q0"":""interesting, but don't like the colors""}","","","","","","","","","","","","","","","","","","","","","","",""
"2713.7999999523163","","image-slider-response","156","1227295","0.0-153.0","A1505ZMMJAAZE1","","","","","-50","","","","","","","","","","","","","","","","","","","","","",""
"3364","","image-button-response","157","1232298","0.0-154.0","A1505ZMMJAAZE1","img_art/12.jpg","4","","","","","","","","","","","","","","","","","","","","","","","","",""
"628","","image-button-response","158","1232929","0.0-155.0","A1505ZMMJAAZE1","img_art/12.jpg","4","","","","","","","","","","","","","","","","","","","","","","","","",""
"1026","","image-button-response","159","1233957","0.0-156.0-0.0","A1505ZMMJAAZE1","img_art/12.jpg","1","","","","","","","","","","","","","","","","","","","","","","","","",""
"894","","image-button-response","160","1234853","0.0-157.0-0.0","A1505ZMMJAAZE1","img_art/12.jpg","3","","","","","","","","","","","","","","","","","","","","","","","","",""
"null","","html-keyboard-response","161","1235354","0.0-158.0","A1505ZMMJAAZE1","<p style=""font-size: 48px;"">+</p>","","","","","null","allTrialResponses","500","1","16","img_art/12.jpg","-50","interesting, but don't like the colors","Amber,Jasmine,Gabriela,Natalie,Lindsey,Melissa","Like how all the colors seem to blend together.,15,200,20","It's just not my style,-18,340,20","In my opinion, this photo has an old school vibe,22,140,20","my reaction is that the picture is wierd,-11,400,20","Ugly colors and I'm just not too much a fan of cubist abstract art.,-50,400,20","reminds me of a dixie cup,3,240,20","Lindsey","Ugly colors and I'm just not too much a fan of cubist abstract art.,-50,400,20","Jasmine","It's just not my style,-18,340,20","Natalie","my reaction is that the picture is wierd,-11,400,20","6"
"10461","","survey-text","162","1245823","0.0-159.0-0.0","A1505ZMMJAAZE1","","","","{""Q0"":""makes me think of crabs in the sand, not a fan""}","","","","","","","","","","","","","","","","","","","","","","",""
"2595.899999976158","","image-slider-response","163","1248421","0.0-160.0","A1505ZMMJAAZE1","","","","","-47","","","","","","","","","","","","","","","","","","","","","",""
"4993","","image-button-response","164","1253424","0.0-161.0","A1505ZMMJAAZE1","img_art/7.jpg","3","","","","","","","","","","","","","","","","","","","","","","","","",""
"741","","image-button-response","165","1254167","0.0-162.0","A1505ZMMJAAZE1","img_art/7.jpg","3","","","","","","","","","","","","","","","","","","","","","","","","",""
"572","","image-button-response","166","1254741","0.0-163.0-0.0","A1505ZMMJAAZE1","img_art/7.jpg","4","","","","","","","","","","","","","","","","","","","","","","","","",""
"2548","","image-button-response","167","1257292","0.0-164.0-0.0","A1505ZMMJAAZE1","img_art/7.jpg","1","","","","","","","","","","","","","","","","","","","","","","","","",""
"null","","html-keyboard-response","168","1258294","0.0-165.0","A1505ZMMJAAZE1","<p style=""font-size: 48px;"">+</p>","","","","","null","allTrialResponses","1000","1","17","img_art/7.jpg","-47","makes me think of crabs in the sand, not a fan","Kaylee,Jasmine,Emma,Natalie,Lindsey,Courtney","some rocks on a mars?,7,200,20","It just reminds me of dirt,-10,340,20","Cool, makes me think of archeology,15,60,20","does not look good,-42,400,20","It's dirty. I don't mind the colors so much as the way they are put together in this dirty-looking pattern.,-41,400,20","That a desert floor,16,280,20","Natalie","does not look good,-42,400,20","Lindsey","It's dirty. I don't mind the colors so much as the way they are put together in this dirty-looking pattern.,-41,400,20","Jasmine","It just reminds me of dirt,-10,340,20","6"
"15900","","survey-text","169","1274201","0.0-166.0-0.0","A1505ZMMJAAZE1","","","","{""Q0"":""abstract, but cool  blue tree and can somewhat tell what it is""}","","","","","","","","","","","","","","","","","","","","","","",""
"5924.299999952316","","image-slider-response","170","1280127","0.0-167.0","A1505ZMMJAAZE1","","","","","30","","","","","","","","","","","","","","","","","","","","","",""
"3993","","image-button-response","171","1285129","0.0-168.0","A1505ZMMJAAZE1","img_art/26.jpg","1","","","","","","","","","","","","","","","","","","","","","","","","",""
"1062","","image-button-response","172","1286193","0.0-169.0","A1505ZMMJAAZE1","img_art/26.jpg","1","","","","","","","","","","","","","","","","","","","","","","","","",""
"956","","image-button-response","173","1287151","0.0-170.0-0.0","A1505ZMMJAAZE1","img_art/26.jpg","0","","","","","","","","","","","","","","","","","","","","","","","","",""
"1270","","image-button-response","174","1288423","0.0-171.0-0.0","A1505ZMMJAAZE1","img_art/26.jpg","2","","","","","","","","","","","","","","","","","","","","","","","","",""
"null","","html-keyboard-response","175","1289927","0.0-172.0","A1505ZMMJAAZE1","<p style=""font-size: 48px;"">+</p>","","","","","null","allTrialResponses","1500","1","18","img_art/26.jpg","30","abstract, but cool  blue tree and can somewhat tell what it is","Jennifer,Jasmine,Katie,Natalie,Lindsey,Sabrina","This picture doesn't really stand out.,0,380,20","This seems like a quiet painting,11,340,20","Reminds me of watercolor. Muted tones and blurry soft brush strokes. Calm to me.,1,160,20","picture looks alright,1,400,20","I see a suburban neighborhood with townhouses and trees. Not a fan of the colors or style.,-16,400,20","I dont see any expression,-29,120,20","Jasmine","This seems like a quiet painting,11,340,20","Jennifer","This picture doesn't really stand out.,0,380,20","Katie","Reminds me of watercolor. Muted tones and blurry soft brush strokes. Calm to me.,1,160,20","6"
"40160","","survey-text","176","1330094","0.0-173.0-0.0","A1505ZMMJAAZE1","","","","{""Q0"":""very strange, don't like the colors""}","","","","","","","","","","","","","","","","","","","","","","",""
"1952.4000000953674","","image-slider-response","177","1332049","0.0-174.0","A1505ZMMJAAZE1","","","","","-50","","","","","","","","","","","","","","","","","","","","","",""
"4212","","image-button-response","178","1337053","0.0-175.0","A1505ZMMJAAZE1","img_art/18.jpg","5","","","","","","","","","","","","","","","","","","","","","","","","",""
"5550","","image-button-response","179","1342605","0.0-176.0","A1505ZMMJAAZE1","img_art/18.jpg","4","","","","","","","","","","","","","","","","","","","","","","","","",""
"2320","","image-button-response","180","1344927","0.0-177.0-0.0","A1505ZMMJAAZE1","img_art/18.jpg","2","","","","","","","","","","","","","","","","","","","","","","","","",""
"1074","","image-button-response","181","1346002","0.0-178.0-0.0","A1505ZMMJAAZE1","img_art/18.jpg","5","","","","","","","","","","","","","","","","","","","","","","","","",""
"null","","html-keyboard-response","182","1347505","0.0-179.0","A1505ZMMJAAZE1","<p style=""font-size: 48px;"">+</p>","","","","","null","allTrialResponses","1500","1","19","img_art/18.jpg","-50","very strange, don't like the colors","Jennifer,Jasmine,Katie,Diana,Michelle,Olivia","I have no strong feelings about this image,1,380,20","I feel indifferent about this one,0,340,20","Looks messy. Reminds me of a battle or war. I have an unpleasant feeling the more I look.,-20,160,20","This painting reminds me of the 4 horsemen of the apocalypse. It feels haunting.,31,380,20","The small lines elicit a very nauseating response for some reason, too Dali like for me,-19,280,20","death rides in life,-25,40,20","Michelle","The small lines elicit a very nauseating response for some reason, too Dali like for me,-19,280,20","Katie","Looks messy. Reminds me of a battle or war. I have an unpleasant feeling the more I look.,-20,160,20","Olivia","death rides in life,-25,40,20","6"
"49830","","survey-text","183","1397343","0.0-180.0-0.0","A1505ZMMJAAZE1","","","","{""Q0"":""maybe a sunset, but odd looking""}","","","","","","","","","","","","","","","","","","","","","","",""
"26367.5","","image-slider-response","184","1423712","0.0-181.0","A1505ZMMJAAZE1","","","","","-48","","","","","","","","","","","","","","","","","","","","","",""
"4786","","image-button-response","185","1428714","0.0-182.0","A1505ZMMJAAZE1","img_art/22.jpg","1","","","","","","","","","","","","","","","","","","","","","","","","",""
"584","","image-button-response","186","1429300","0.0-183.0","A1505ZMMJAAZE1","img_art/22.jpg","1","","","","","","","","","","","","","","","","","","","","","","","","",""
"3225","","image-button-response","187","1432527","0.0-184.0-0.0","A1505ZMMJAAZE1","img_art/22.jpg","2","","","","","","","","","","","","","","","","","","","","","","","","",""
"3828","","image-button-response","188","1436357","0.0-185.0-0.0","A1505ZMMJAAZE1","img_art/22.jpg","4","","","","","","","","","","","","","","","","","","","","","","","","",""
"null","","html-keyboard-response","189","1437859","0.0-186.0","A1505ZMMJAAZE1","<p style=""font-size: 48px;"">+</p>","","","","","null","allTrialResponses","1500","1","20","img_art/22.jpg","-48","maybe a sunset, but odd looking","Brittany,Amanda,Katie,Kaitlin,Michelle,Olivia","It reminds me of sunsets and dusks.,22,40,20","Very generic, seen many times before,-43,180,20","Too much red. The red/yellow/orange make me think of heat/fire, which makes me anxious.,-10,160,20","This represents the hopes in my life.,21,60,20","Not a huge fan of the blocks, also very abstract, I have no idea what it is,8,280,20","ball of light in 90s,8,40,20","Amanda","Very generic, seen many times before,-43,180,20","Katie","Too much red. The red/yellow/orange make me think of heat/fire, which makes me anxious.,-10,160,20","Michelle","Not a huge fan of the blocks, also very abstract, I have no idea what it is,8,280,20","6"
"2330","","survey-text","190","1440203","0.0-187.0-0.0","A1505ZMMJAAZE1","","","","{""Q0"":""we""}","","","","","","","","","","","","","","","","","","","","","","",""
"11652","","survey-text","191","1451856","0.0-188.0-0.0","A1505ZMMJAAZE1","","","","{""Q0"":""very weird stick people and ugly colors""}","","","","","","","","","","","","","","","","","","","","","","",""
"3616.2000000476837","","image-slider-response","192","1455475","0.0-189.0","A1505ZMMJAAZE1","","","","","-50","","","","","","","","","","","","","","","","","","","","","",""
"4902","","image-button-response","193","1460478","0.0-190.0","A1505ZMMJAAZE1","img_art/27.jpg","3","","","","","","","","","","","","","","","","","","","","","","","","",""
"511","","image-button-response","194","1460991","0.0-191.0","A1505ZMMJAAZE1","img_art/27.jpg","3","","","","","","","","","","","","","","","","","","","","","","","","",""
"830","","image-button-response","195","1461823","0.0-192.0-0.0","A1505ZMMJAAZE1","img_art/27.jpg","2","","","","","","","","","","","","","","","","","","","","","","","","",""
"1496","","image-button-response","196","1463321","0.0-193.0-0.0","A1505ZMMJAAZE1","img_art/27.jpg","5","","","","","","","","","","","","","","","","","","","","","","","","",""
"null","","html-keyboard-response","197","1464322","0.0-194.0","A1505ZMMJAAZE1","<p style=""font-size: 48px;"">+</p>","","","","","null","allTrialResponses","1000","1","21","img_art/27.jpg","-50","very weird stick people and ugly colors","Sarah,Amanda,Katie,Cassidy,Michelle,Miranda","i don't think i should like this one because it's a little chaotic and simple but I do,6,180,20","I love the childish aspect to it,37,180,20","Fire, explosion. Red/orange colors are fire/explosion. White is smoke. Makes me worried/scared/anxious,-20,160,20","doesn't look like any effort was put into this piece.,-19,140,20","very abstract, I don't understand it, but I like the bright, cheerful colors,14,280,20","I'm not a fan. It looks like something my nephews (1 and 2) would make,-8,320,20","Cassidy","doesn't look like any effort was put into this piece.,-19,140,20","Katie","Fire, explosion. Red/orange colors are fire/explosion. White is smoke. Makes me worried/scared/anxious,-20,160,20","Miranda","I'm not a fan. It looks like something my nephews (1 and 2) would make,-8,320,20","6"
"7506","","survey-text","198","1471836","0.0-195.0-0.0","A1505ZMMJAAZE1","","","","{""Q0"":""don't like the colors or images""}","","","","","","","","","","","","","","","","","","","","","","",""
"2250","","image-slider-response","199","1474088","0.0-196.0","A1505ZMMJAAZE1","","","","","-50","","","","","","","","","","","","","","","","","","","","","",""
"null","","image-button-response","200","1479091","0.0-197.0","A1505ZMMJAAZE1","img_art/21.jpg","null","","","","","","","","","","","","","","","","","","","","","","","","",""
"136234","","image-button-response","201","1615327","0.0-198.0","A1505ZMMJAAZE1","img_art/21.jpg","3","","","","","","","","","","","","","","","","","","","","","","","","",""
"1083","","image-button-response","202","1616417","0.0-199.0-0.0","A1505ZMMJAAZE1","img_art/21.jpg","0","","","","","","","","","","","","","","","","","","","","","","","","",""
"1067","","image-button-response","203","1617485","0.0-200.0-0.0","A1505ZMMJAAZE1","img_art/21.jpg","0","","","","","","","","","","","","","","","","","","","","","","","","",""
"554","","image-button-response","204","1620545","0.0-200.1-0.1","A1505ZMMJAAZE1","img_art/21.jpg","1","","","","","","","","","","","","","","","","","","","","","","","","",""
"null","","html-keyboard-response","205","1621547","0.0-201.0","A1505ZMMJAAZE1","<p style=""font-size: 48px;"">+</p>","","","","","null","allTrialResponses","1000","1","22","img_art/21.jpg","-50","don't like the colors or images","Amy,Destiny,Katie,Cassidy,Autumn,Miranda","A landscape that leaves me inspired and hopeful.,20,220,20","Pink is my favorite, against blue it looks like sunset. Seems like a boat burning down, so don't absolutely love it,23,360,20","Immediately a positive response! I like the muted colors. the blurriness calms me. It's serene,40,160,20","I really like these colors together and their placement. The dabs of white are a nice contrast to the soft blending,10,140,20","Amazing colors.,34,340,20","This looks very interesting because something is happening but I can't tell what.,28,320,20","Cassidy","I really like these colors together and their placement. The dabs of white are a nice contrast to the soft blending,10,140,20","Amy","A landscape that leaves me inspired and hopeful.,20,220,20","Destiny","Pink is my favorite, against blue it looks like sunset. Seems like a boat burning down, so don't absolutely love it,23,360,20","8"
"10733","","survey-text","206","1632283","0.0-202.0-0.0","A1505ZMMJAAZE1","","","","{""Q0"":""weird; headless bird maybe?""}","","","","","","","","","","","","","","","","","","","","","","",""
"2980.7999999523163","","image-slider-response","207","1635265","0.0-203.0","A1505ZMMJAAZE1","","","","","-50","","","","","","","","","","","","","","","","","","","","","",""
"null","","image-button-response","208","1640267","0.0-204.0","A1505ZMMJAAZE1","img_art/6.jpg","null","","","","","","","","","","","","","","","","","","","","","","","","",""
"16051","","image-button-response","209","1656320","0.0-205.0","A1505ZMMJAAZE1","img_art/6.jpg","0","","","","","","","","","","","","","","","","","","","","","","","","",""
"1153","","image-button-response","210","1657475","0.0-206.0-0.0","A1505ZMMJAAZE1","img_art/6.jpg","2","","","","","","","","","","","","","","","","","","","","","","","","",""
"1731","","image-button-response","211","1659208","0.0-207.0-0.0","A1505ZMMJAAZE1","img_art/6.jpg","1","","","","","","","","","","","","","","","","","","","","","","","","",""
"null","","html-keyboard-response","212","1660710","0.0-208.0","A1505ZMMJAAZE1","<p style=""font-size: 48px;"">+</p>","","","","","null","allTrialResponses","1500","1","23","img_art/6.jpg","-50","weird; headless bird maybe?","Amy,Destiny,Jenna,Cassidy,Cynthia,Marissa","Lack of context makes this painting 1-d for me. The headless bird is mysterious and indecipherable.,-10,220,20","boring. don't really like birds,1,360,20","I like the bottom half, but not the top,-7,360,20","The background on the upper half is nice. I also like the contrast of the top and bottom halves,5,140,20","seeds of change,11,320,20","I am intrigued but unsure whether I enjoy this or not,6,160,20","Amy","Lack of context makes this painting 1-d for me. The headless bird is mysterious and indecipherable.,-10,220,20","Jenna","I like the bottom half, but not the top,-7,360,20","Destiny","boring. don't really like birds,1,360,20","8"
"12297","","survey-text","213","1673012","0.0-209.0-0.0","A1505ZMMJAAZE1","","","","{""Q0"":""weird hand blob; ugly yellow-brown""}","","","","","","","","","","","","","","","","","","","","","","",""
"3536.899999976158","","image-slider-response","214","1676550","0.0-210.0","A1505ZMMJAAZE1","","","","","-50","","","","","","","","","","","","","","","","","","","","","",""
"null","","image-button-response","215","1681553","0.0-211.0","A1505ZMMJAAZE1","img_art/4.jpg","null","","","","","","","","","","","","","","","","","","","","","","","","",""
"143","","image-button-response","216","1681698","0.0-212.0","A1505ZMMJAAZE1","img_art/4.jpg","1","","","","","","","","","","","","","","","","","","","","","","","","",""
"1764","","image-button-response","217","1683463","0.0-213.0-0.0","A1505ZMMJAAZE1","img_art/4.jpg","4","","","","","","","","","","","","","","","","","","","","","","","","",""
"1003","","image-button-response","218","1684468","0.0-214.0-0.0","A1505ZMMJAAZE1","img_art/4.jpg","5","","","","","","","","","","","","","","","","","","","","","","","","",""
"null","","html-keyboard-response","219","1685469","0.0-215.0","A1505ZMMJAAZE1","<p style=""font-size: 48px;"">+</p>","","","","","null","allTrialResponses","1000","1","24","img_art/4.jpg","-50","weird hand blob; ugly yellow-brown","Amy,Destiny,Jenna,Mariah,Kelsey,Shannon","disturbing and uncomfortable.,10,220,20","it looks like a preschooler just dragged his fingers around,-36,360,20","creepy, looks like a deformed hand, but the background is pretty,5,360,20","Movement. Snakes. Hair. The uncertainty makes my eye return.,21,140,20","this is terrible,-49,240,20","I think that this picture is too boring in terms of color and it looks ugly.,-41,220,20","Destiny","it looks like a preschooler just dragged his fingers around,-36,360,20","Kelsey","this is terrible,-49,240,20","Shannon","I think that this picture is too boring in terms of color and it looks ugly.,-41,220,20","8"
"13542","","survey-text","220","1699016","0.0-216.0-0.0","A1505ZMMJAAZE1","","","","{""Q0"":""ugly colors and can't tell what it is""}","","","","","","","","","","","","","","","","","","","","","","",""
"14337.600000023842","","image-slider-response","221","1713355","0.0-217.0","A1505ZMMJAAZE1","","","","","-50","","","","","","","","","","","","","","","","","","","","","",""
"3797","","image-button-response","222","1718358","0.0-218.0","A1505ZMMJAAZE1","img_art/1.jpg","0","","","","","","","","","","","","","","","","","","","","","","","","",""
"536","","image-button-response","223","1718896","0.0-219.0","A1505ZMMJAAZE1","img_art/1.jpg","0","","","","","","","","","","","","","","","","","","","","","","","","",""
"3106","","image-button-response","224","1722003","0.0-220.0-0.0","A1505ZMMJAAZE1","img_art/1.jpg","4","","","","","","","","","","","","","","","","","","","","","","","","",""
"1569","","image-button-response","225","1723574","0.0-221.0-0.0","A1505ZMMJAAZE1","img_art/1.jpg","2","","","","","","","","","","","","","","","","","","","","","","","","",""
"null","","html-keyboard-response","226","1724575","0.0-222.0","A1505ZMMJAAZE1","<p style=""font-size: 48px;"">+</p>","","","","","null","allTrialResponses","1000","1","25","img_art/1.jpg","-50","ugly colors and can't tell what it is","Catherine,Destiny,Erin,Madison,Kelsey,Shannon","confused,animal like brain fog,0,160,20","looks like an earlier painting. I wish I gave it -20 but oh well,21,360,20","Love the coloration and abstract figures,18,120,20","This looks like the same artist as the first picture, but cropped? Looks incomplete.,28,60,20","this ones alright,10,240,20","I think that this picture has nice colors and its pleasing to the eyes.,20,220,20","Catherine","confused,animal like brain fog,0,160,20","Kelsey","this ones alright,10,240,20","Erin","Love the coloration and abstract figures,18,120,20","8"
"3173","","survey-text","227","1727755","0.0-223.0-0.0","A1505ZMMJAAZE1","","","","{""Q0"":""table""}","","","","","","","","","","","","","","","","","","","","","","",""
"12275","","survey-text","228","1740031","0.0-224.0-0.0","A1505ZMMJAAZE1","","","","{""Q0"":""interesting painting, but very drab and depressing""}","","","","","","","","","","","","","","","","","","","","","","",""
"3653.7000000476837","","image-slider-response","229","1743687","0.0-225.0","A1505ZMMJAAZE1","","","","","-16","","","","","","","","","","","","","","","","","","","","","",""
"2794","","image-button-response","230","1748689","0.0-226.0","A1505ZMMJAAZE1","img_art/11.jpg","4","","","","","","","","","","","","","","","","","","","","","","","","",""
"410","","image-button-response","231","1749101","0.0-227.0","A1505ZMMJAAZE1","img_art/11.jpg","4","","","","","","","","","","","","","","","","","","","","","","","","",""
"1066","","image-button-response","232","1750169","0.0-228.0-0.0","A1505ZMMJAAZE1","img_art/11.jpg","1","","","","","","","","","","","","","","","","","","","","","","","","",""
"2391","","image-button-response","233","1752561","0.0-229.0-0.0","A1505ZMMJAAZE1","img_art/11.jpg","0","","","","","","","","","","","","","","","","","","","","","","","","",""
"null","","html-keyboard-response","234","1753062","0.0-230.0","A1505ZMMJAAZE1","<p style=""font-size: 48px;"">+</p>","","","","","null","allTrialResponses","500","1","26","img_art/11.jpg","-16","interesting painting, but very drab and depressing","Catherine,Mary,Erin,Sydney,Kelsey,Christina","Busy city life. transportation, anxiety.,10,160,20","I don't care for the color combo. The wavy lines give dimension though.,-13,180,20","Frank Lloyd Wright, music,24,120,20","I don't like the gloomy color, but it reminds me of a city which I like.,35,320,20","its like telephone wires, or mountains,-17,240,20","I like how it looks like buildings but i'm not a fan of colors,20,240,20","Kelsey","its like telephone wires, or mountains,-17,240,20","Mary","I don't care for the color combo. The wavy lines give dimension though.,-13,180,20","Catherine","Busy city life. transportation, anxiety.,10,160,20","8"
"18549","","survey-text","235","1771617","0.0-231.0-0.0","A1505ZMMJAAZE1","","","","{""Q0"":""bear is kind of cute, the rest is ugly and confusing""}","","","","","","","","","","","","","","","","","","","","","","",""
"5466.899999976158","","image-slider-response","236","1777086","0.0-232.0","A1505ZMMJAAZE1","","","","","-32","","","","","","","","","","","","","","","","","","","","","",""
"4330","","image-button-response","237","1782089","0.0-233.0","A1505ZMMJAAZE1","img_art/16.jpg","0","","","","","","","","","","","","","","","","","","","","","","","","",""
"991","","image-button-response","238","1783082","0.0-234.0","A1505ZMMJAAZE1","img_art/16.jpg","0","","","","","","","","","","","","","","","","","","","","","","","","",""
"1482","","image-button-response","239","1784566","0.0-235.0-0.0","A1505ZMMJAAZE1","img_art/16.jpg","3","","","","","","","","","","","","","","","","","","","","","","","","",""
"2376","","image-button-response","240","1786944","0.0-236.0-0.0","A1505ZMMJAAZE1","img_art/16.jpg","4","","","","","","","","","","","","","","","","","","","","","","","","",""
"null","","html-keyboard-response","241","1787946","0.0-237.0","A1505ZMMJAAZE1","<p style=""font-size: 48px;"">+</p>","","","","","null","allTrialResponses","1000","1","27","img_art/16.jpg","-32","bear is kind of cute, the rest is ugly and confusing","Catherine,Mary,Monica,Bailey,Kelsey,Sara","A teddybear, gun, crying person does not give a happy reaction. Death, still, no life.,-50,160,20","This is a neat piece. Sort of shocking. I think it's too monochromatic though.,19,180,20","Don't know if there's a meaning but I like how seemingly random objects were stuck together and called art,20,360,20","Creeps me out. Like..really creeps me out.,-48,360,20","its disturbing! what the heck,-27,240,20","This painting is too random,-30,160,20","Catherine","A teddybear, gun, crying person does not give a happy reaction. Death, still, no life.,-50,160,20","Bailey","Creeps me out. Like..really creeps me out.,-48,360,20","Kelsey","its disturbing! what the heck,-27,240,20","8"
"11518","","survey-text","242","1799467","0.0-238.0-0.0","A1505ZMMJAAZE1","","","","{""Q0"":""looks like an evil spirit; don't like it""}","","","","","","","","","","","","","","","","","","","","","","",""
"2971.2000000476837","","image-slider-response","243","1802439","0.0-239.0","A1505ZMMJAAZE1","","","","","-50","","","","","","","","","","","","","","","","","","","","","",""
"null","","image-button-response","244","1807442","0.0-240.0","A1505ZMMJAAZE1","img_art/25.jpg","null","","","","","","","","","","","","","","","","","","","","","","","","",""
"4942","","image-button-response","245","1812386","0.0-241.0","A1505ZMMJAAZE1","img_art/25.jpg","2","","","","","","","","","","","","","","","","","","","","","","","","",""
"1952","","image-button-response","246","1814340","0.0-242.0-0.0","A1505ZMMJAAZE1","img_art/25.jpg","1","","","","","","","","","","","","","","","","","","","","","","","","",""
"1496","","image-button-response","247","1815838","0.0-243.0-0.0","A1505ZMMJAAZE1","img_art/25.jpg","4","","","","","","","","","","","","","","","","","","","","","","","","",""
"null","","html-keyboard-response","248","1816340","0.0-244.0","A1505ZMMJAAZE1","<p style=""font-size: 48px;"">+</p>","","","","","null","allTrialResponses","500","1","28","img_art/25.jpg","-50","looks like an evil spirit; don't like it","Catherine,Alicia,Caroline,Bailey,Kelsey,Haley","culture, tradition. Village people with an honored elder.,40,160,20","death. childish nightmare.,-29,120,20","Makes me think of Baphomet, As above so below and is scary,-50,100,20","I love the background color and it's creepy...but cool.,30,360,20","quite unnerving,-15,240,20","I like the design but the brightness of the color feels almost blinding to me.,-3,220,20","Caroline","Makes me think of Baphomet, As above so below and is scary,-50,100,20","Alicia","death. childish nightmare.,-29,120,20","Kelsey","quite unnerving,-15,240,20","8"
"16490","","survey-text","249","1832837","0.0-245.0-0.0","A1505ZMMJAAZE1","","","","{""Q0"":""weird and very ugly colors: why do people do this""}","","","","","","","","","","","","","","","","","","","","","","",""
"2162.6999999284744","","image-slider-response","250","1835001","0.0-246.0","A1505ZMMJAAZE1","","","","","-50","","","","","","","","","","","","","","","","","","","","","",""
"3364","","image-button-response","251","1840004","0.0-247.0","A1505ZMMJAAZE1","img_art/10.jpg","1","","","","","","","","","","","","","","","","","","","","","","","","",""
"417","","image-button-response","252","1840423","0.0-248.0","A1505ZMMJAAZE1","img_art/10.jpg","1","","","","","","","","","","","","","","","","","","","","","","","","",""
"1891","","image-button-response","253","1842315","0.0-249.0-0.0","A1505ZMMJAAZE1","img_art/10.jpg","4","","","","","","","","","","","","","","","","","","","","","","","","",""
"892","","image-button-response","254","1843209","0.0-250.0-0.0","A1505ZMMJAAZE1","img_art/10.jpg","5","","","","","","","","","","","","","","","","","","","","","","","","",""
"null","","html-keyboard-response","255","1844711","0.0-251.0","A1505ZMMJAAZE1","<p style=""font-size: 48px;"">+</p>","","","","","null","allTrialResponses","1500","1","29","img_art/10.jpg","-50","weird and very ugly colors: why do people do this","Dominique,Alicia,Caroline,Breanna,Kelsey,Erika","A very conversational piece could be of many different ideas,38,400,20","It's art. (for some),7,120,20","This painting made me think of a guitar which made me think of music which envoked happy feelings.,28,100,20","Makes me feel amazed,23,380,20","reminds me of a violin,9,240,20","Good texture, expressive,18,100,20","Alicia","It's art. (for some),7,120,20","Kelsey","reminds me of a violin,9,240,20","Erika","Good texture, expressive,18,100,20","8"
"21981","","survey-text","256","1866695","0.0-252.0-0.0","A1505ZMMJAAZE1","","","","{""Q0"":""a tree with birds but a very ugly and sad one""}","","","","","","","","","","","","","","","","","","","","","","",""
"2107.7999999523163","","image-slider-response","257","1868805","0.0-253.0","A1505ZMMJAAZE1","","","","","-50","","","","","","","","","","","","","","","","","","","","","",""
"2463","","image-button-response","258","1873807","0.0-254.0","A1505ZMMJAAZE1","img_art/15.jpg","3","","","","","","","","","","","","","","","","","","","","","","","","",""
"1337","","image-button-response","259","1875147","0.0-255.0","A1505ZMMJAAZE1","img_art/15.jpg","3","","","","","","","","","","","","","","","","","","","","","","","","",""
"1780","","image-button-response","260","1876929","0.0-256.0-0.0","A1505ZMMJAAZE1","img_art/15.jpg","1","","","","","","","","","","","","","","","","","","","","","","","","",""
"1984","","image-button-response","261","1878915","0.0-257.0-0.0","A1505ZMMJAAZE1","img_art/15.jpg","4","","","","","","","","","","","","","","","","","","","","","","","","",""
"null","","html-keyboard-response","262","1879417","0.0-258.0","A1505ZMMJAAZE1","<p style=""font-size: 48px;"">+</p>","","","","","null","allTrialResponses","500","1","30","img_art/15.jpg","-50","a tree with birds but a very ugly and sad one","Michaela,Alicia,Alexa,Molly,Kelsey,Erika","Reminds me of lilacs,26,260,20","It's ok, it makes me think. That's something I guess.,8,120,20","Although it looks a bit bland in terms of color, I really like the print/pattern,25,40,20","I can't see the meaning of the painting.,-30,340,20","i kinda like this one but wouldnt buy it for myself,17,240,20","I like the dense patterns and the splashes  of blue,38,100,20","Molly","I can't see the meaning of the painting.,-30,340,20","Alicia","It's ok, it makes me think. That's something I guess.,8,120,20","Kelsey","i kinda like this one but wouldnt buy it for myself,17,240,20","8"
"4527","","image-button-response_instructions","263","1883952","0.0-259.0","A1505ZMMJAAZE1","","0","instructions","","","","","","","","","","","","","","","","","","","","","","","",""
"2043","","image-button-response","264","1886001","0.0-260.0","A1505ZMMJAAZE1","","0","","","","","","","","","","","","","","","","","","","","","","","","",""
