"rt","url","trial_type","trial_index","time_elapsed","internal_node_id","participant_id","stimulus","button_pressed","Name","responses","response","key_press","variableName","fixationTime","condition","trial","photo","subjectRating","subjectResponse","agentsNames","agent_1_Response","agent_2_Response","agent_3_Response","agent_4_Response","agent_5_Response","agent_6_Response","kept_1_name","kept_1_response","kept_2_name","kept_2_response","kept_3_name","kept_3_response","errorCounter"
"4631","external_page_harvard.html","external-html","0","4752","0.0-0.0","A15B9VEG75OAPW","","","","","","","","","","","","","","","","","","","","","","","","","","",""
"1646","","image-button-response","1","6399","0.0-1.0","A15B9VEG75OAPW","","0","","","","","","","","","","","","","","","","","","","","","","","","",""
"1164","","image-button-response","2","7567","0.0-2.0-0.0","A15B9VEG75OAPW","","1","phone","","","","","","","","","","","","","","","","","","","","","","","",""
"5287","","survey-text","3","12855","0.0-3.0-0.0","A15B9VEG75OAPW","","","","{""Q0"":""A15B9VEG75OAPW""}","","","","","","","","","","","","","","","","","","","","","","",""
"7783","","image-button-response_instructions","4","20639","0.0-4.0","A15B9VEG75OAPW","","0","instructions","","","","","","","","","","","","","","","","","","","","","","","",""
"8678","","image-button-response_instructions","5","29319","0.0-5.0","A15B9VEG75OAPW","img_art/ins/popularity/ins1.png","0","instructions","","","","","","","","","","","","","","","","","","","","","","","",""
"2575","","image-button-response_instructions","6","31895","0.0-6.0","A15B9VEG75OAPW","img_art/ins/popularity/ins2.png","0","instructions","","","","","","","","","","","","","","","","","","","","","","","",""
"5015","","image-button-response_instructions","7","36911","0.0-7.0","A15B9VEG75OAPW","img_art/ins/popularity/ins2Extreme.png","0","instructions","","","","","","","","","","","","","","","","","","","","","","","",""
"4727","","image-button-response_instructions","8","41639","0.0-8.0","A15B9VEG75OAPW","img_art/ins/popularity/ins3KEEPpop.PNG","0","instructions","","","","","","","","","","","","","","","","","","","","","","","",""
"1335","","image-button-response_instructions","9","42975","0.0-9.0","A15B9VEG75OAPW","img_art/ins/popularity/ins3ANamepop.PNG","0","instructions","","","","","","","","","","","","","","","","","","","","","","","",""
"2063","","image-button-response_instructions","10","45038","0.0-10.0","A15B9VEG75OAPW","img_art/ins/popularity/ins3ARatingpop.png","0","instructions","","","","","","","","","","","","","","","","","","","","","","","",""
"2855","","image-button-response_instructions","11","47895","0.0-11.0","A15B9VEG75OAPW","img_art/ins/popularity/ins3ATextpop.png","0","instructions","","","","","","","","","","","","","","","","","","","","","","","",""
"4295","","image-button-response_instructions","12","52191","0.0-12.0","A15B9VEG75OAPW","img_art/ins/popularity/ins3ALikespop.png","0","instructions","","","","","","","","","","","","","","","","","","","","","","","",""
"7519","","image-button-response_instructions","13","59711","0.0-13.0","A15B9VEG75OAPW","img_art/ins/popularity/ins3KEEPpop.PNG","0","instructions","","","","","","","","","","","","","","","","","","","","","","","",""
"5551","","image-button-response_instructions","14","65263","0.0-14.0","A15B9VEG75OAPW","img_art/ins/popularity/ins3_5RED.png","0","instructions","","","","","","","","","","","","","","","","","","","","","","","",""
"1759","","image-button-response_instructions","15","67023","0.0-15.0","A15B9VEG75OAPW","img_art/ins/popularity/ins3KEEPpop.PNG","0","instructions","","","","","","","","","","","","","","","","","","","","","","","",""
"6527","","image-button-response_instructions","16","73551","0.0-16.0","A15B9VEG75OAPW","img_art/ins/popularity/ins4KEEPpop.PNG","0","instructions","","","","","","","","","","","","","","","","","","","","","","","",""
"3287","","image-button-response_instructions","17","76839","0.0-17.0","A15B9VEG75OAPW","img_art/ins/popularity/ins5KEEPpop.PNG","0","instructions","","","","","","","","","","","","","","","","","","","","","","","",""
"1223","","image-button-response_instructions","18","78063","0.0-18.0","A15B9VEG75OAPW","","0","instructions","","","","","","","","","","","","","","","","","","","","","","","",""
"4617","","survey-text","19","82696","0.0-19.0-0.0","A15B9VEG75OAPW","","","","{""Q0"":""but""}","","","","","","","","","","","","","","","","","","","","","","",""
"11902","","survey-text","20","94600","0.0-20.0-0.0","A15B9VEG75OAPW","","","","{""Q0"":""Calm but chaotic ""}","","","","","","","","","","","","","","","","","","","","","","",""
"5277.5","","image-slider-response","21","99879","0.0-21.0","A15B9VEG75OAPW","","","","","17","","","","","","","","","","","","","","","","","","","","","",""
"4846","","image-button-response","22","104882","0.0-22.0","A15B9VEG75OAPW","img_art/ins/1.jpg","1","","","","","","","","","","","","","","","","","","","","","","","","",""
"1859","","image-button-response","23","106743","0.0-23.0","A15B9VEG75OAPW","img_art/ins/1.jpg","1","","","","","","","","","","","","","","","","","","","","","","","","",""
"3319","","image-button-response","24","110063","0.0-24.0-0.0","A15B9VEG75OAPW","img_art/ins/1.jpg","5","","","","","","","","","","","","","","","","","","","","","","","","",""
"894","","image-button-response","25","110958","0.0-25.0-0.0","A15B9VEG75OAPW","img_art/ins/1.jpg","3","","","","","","","","","","","","","","","","","","","","","","","","",""
"null","","html-keyboard-response","26","112460","0.0-26.0","A15B9VEG75OAPW","<p style=""font-size: 48px;"">+</p>","","","","","null","allTrialResponses","1500","1","-2","img_art/ins/1.jpg","17","Calm but chaotic ","Adam,Alex,Ben,Carl,Daniel,Jack","Seems like doodles,-20,20,20","very creative work.,36,40,20","This color reminds me of poo,-46,60,20","very calming artwork,42,80,20","It looks like a murder scene.,-48,100,20","I like the sophisticated brushwork,40,120,20","Alex","very creative work.,36,40,20","Jack","I like the sophisticated brushwork,40,120,20","Carl","very calming artwork,42,80,20","0"
"8144","","survey-text","27","120607","0.0-27.0-0.0","A15B9VEG75OAPW","","","","{""Q0"":""nice colors, very bold ""}","","","","","","","","","","","","","","","","","","","","","","",""
"2765.7000000476837","","image-slider-response","28","123374","0.0-28.0","A15B9VEG75OAPW","","","","","33","","","","","","","","","","","","","","","","","","","","","",""
"4071","","image-button-response","29","128377","0.0-29.0","A15B9VEG75OAPW","img_art/ins/2.jpg","1","","","","","","","","","","","","","","","","","","","","","","","","",""
"3052","","image-button-response","30","131431","0.0-30.0","A15B9VEG75OAPW","img_art/ins/2.jpg","1","","","","","","","","","","","","","","","","","","","","","","","","",""
"4375","","image-button-response","31","135807","0.0-31.0-0.0","A15B9VEG75OAPW","img_art/ins/2.jpg","4","","","","","","","","","","","","","","","","","","","","","","","","",""
"542","","image-button-response","32","136350","0.0-32.0-0.0","A15B9VEG75OAPW","img_art/ins/2.jpg","3","","","","","","","","","","","","","","","","","","","","","","","","",""
"null","","html-keyboard-response","33","137352","0.0-33.0","A15B9VEG75OAPW","<p style=""font-size: 48px;"">+</p>","","","","","null","allTrialResponses","1000","1","-1","img_art/ins/2.jpg","33","nice colors, very bold ","James,Alex,Kyle,Carl,John,Jack","looks too angry,-50,140,20","I like the blocks of color arrangements,30,40,20","Idk, it is just annoying,-32,180,20","I can feel the artist's passion in it,45,80,20","love the texture of paint,48,160,20","I would never be able to compose a sophisticated pallete like this,48,120,20","Alex","I like the blocks of color arrangements,30,40,20","John","love the texture of paint,48,160,20","Carl","I can feel the artist's passion in it,45,80,20","0"
"12630","","survey-text","34","149983","0.0-34.0-0.0","A15B9VEG75OAPW","","","","{""Q0"":""very chilling, abstract but emotional""}","","","","","","","","","","","","","","","","","","","","","","",""
"3805.7999999523163","","image-slider-response","35","153790","0.0-35.0","A15B9VEG75OAPW","","","","","15","","","","","","","","","","","","","","","","","","","","","",""
"2863","","image-button-response","36","158792","0.0-36.0","A15B9VEG75OAPW","img_art/ins/3.jpg","0","","","","","","","","","","","","","","","","","","","","","","","","",""
"1589","","image-button-response","37","160382","0.0-37.0","A15B9VEG75OAPW","img_art/ins/3.jpg","5","","","","","","","","","","","","","","","","","","","","","","","","",""
"2072","","image-button-response","38","162455","0.0-38.0-0.0","A15B9VEG75OAPW","img_art/ins/3.jpg","4","","","","","","","","","","","","","","","","","","","","","","","","",""
"1239","","image-button-response","39","163695","0.0-39.0-0.0","A15B9VEG75OAPW","img_art/ins/3.jpg","0","","","","","","","","","","","","","","","","","","","","","","","","",""
"null","","html-keyboard-response","40","164696","0.0-40.0","A15B9VEG75OAPW","<p style=""font-size: 48px;"">+</p>","","","","","null","allTrialResponses","1000","1","0","img_art/ins/3.jpg","15","very chilling, abstract but emotional","Mike,Alex,Ron,Carl,John,Sam","enjoy the different shades of blue,22,200,20","calming blue is very nice,36,40,20","It looks depressing,-26,220,20","It's an alright work,15,80,20","I like the overlapping of brushes,41,160,20","I can feel a rainy day from this painting,18,240,20","Sam","I can feel a rainy day from this painting,18,240,20","John","I like the overlapping of brushes,41,160,20","Mike","enjoy the different shades of blue,22,200,20","0"
"4493","","image-button-response_instructions","41","169191","0.0-41.0","A15B9VEG75OAPW","","0","instructions","","","","","","","","","","","","","","","","","","","","","","","",""
"6391","","survey-likert","42","175583","0.0-42.0-0.0","A15B9VEG75OAPW","","","","{""Q0"":"""",""Q1"":0,""Q2"":1}","","","","","","","","","","","","","","","","","","","","","","",""
"3693","","survey-text","43","179280","0.0-43.0-0.0","A15B9VEG75OAPW","","","","{""Q0"":""rock""}","","","","","","","","","","","","","","","","","","","","","","",""
"15384","","survey-text","44","194664","0.0-44.0-0.0","A15B9VEG75OAPW","","","","{""Q0"":""Confusing, very bold but im lost for what is happening""}","","","","","","","","","","","","","","","","","","","","","","",""
"3126","","image-slider-response","45","197791","0.0-45.0","A15B9VEG75OAPW","","","","","-16","","","","","","","","","","","","","","","","","","","","","",""
"2852","","image-button-response","46","202804","0.0-46.0","A15B9VEG75OAPW","img_art/5.jpg","1","","","","","","","","","","","","","","","","","","","","","","","","",""
"1730","","image-button-response","47","204535","0.0-47.0","A15B9VEG75OAPW","img_art/5.jpg","5","","","","","","","","","","","","","","","","","","","","","","","","",""
"3502","","image-button-response","48","208039","0.0-48.0-0.0","A15B9VEG75OAPW","img_art/5.jpg","1","","","","","","","","","","","","","","","","","","","","","","","","",""
"895","","image-button-response","49","208935","0.0-49.0-0.0","A15B9VEG75OAPW","img_art/5.jpg","0","","","","","","","","","","","","","","","","","","","","","","","","",""
"null","","html-keyboard-response","50","209939","0.0-50.0","A15B9VEG75OAPW","<p style=""font-size: 48px;"">+</p>","","","","","null","allTrialResponses","1000","1","1","img_art/5.jpg","-16","Confusing, very bold but im lost for what is happening","Eric,Jack,Blake,Dustin,Nathaniel,Tanner","I'm reminded of a volcano with weird colors.,-5,100,20","it's okay. the colors are eye catching, but that's about it.,3,320,20","puke yellow with nothing but sadness,-35,280,20","I don't get it at all. But, maybe it is the top portion of a piece of fruit.,-50,20,20","Not sure what that even is. Looks like a 2-year old drawing,-40,220,20","sharp, painful yet playful,-5,180,20","Tanner","sharp, painful yet playful,-5,180,20","Jack","it's okay. the colors are eye catching, but that's about it.,3,320,20","Eric","I'm reminded of a volcano with weird colors.,-5,100,20","0"
"11770","","survey-text","51","221712","0.0-51.0-0.0","A15B9VEG75OAPW","","","","{""Q0"":""this is a mess, very ugly""}","","","","","","","","","","","","","","","","","","","","","","",""
"4133.899999976158","","image-slider-response","52","225847","0.0-52.0","A15B9VEG75OAPW","","","","","-47","","","","","","","","","","","","","","","","","","","","","",""
"null","","image-button-response","53","230860","0.0-53.0","A15B9VEG75OAPW","img_art/29.jpg","null","","","","","","","","","","","","","","","","","","","","","","","","",""
"2834","","image-button-response","54","233695","0.0-54.0","A15B9VEG75OAPW","img_art/29.jpg","3","","","","","","","","","","","","","","","","","","","","","","","","",""
"3599","","image-button-response","55","237295","0.0-55.0-0.0","A15B9VEG75OAPW","img_art/29.jpg","0","","","","","","","","","","","","","","","","","","","","","","","","",""
"3006","","image-button-response","56","240303","0.0-56.0-0.0","A15B9VEG75OAPW","img_art/29.jpg","5","","","","","","","","","","","","","","","","","","","","","","","","",""
"null","","html-keyboard-response","57","241318","0.0-57.0","A15B9VEG75OAPW","<p style=""font-size: 48px;"">+</p>","","","","","null","allTrialResponses","1000","1","2","img_art/29.jpg","-47","this is a mess, very ugly","Eric,Jack,Jonathan,Travis,Aaron,Tanner","I like that the colors are toned down even though they're everywhere.,5,100,20","risks well taken. the brush is hilarious. feels like an artist's frustration, which is relatable.,50,320,20","This one feels scary in a good way,30,140,20","Neural...just a blackboard jungle.,3,260,20","I like the texture and colors and how it makes me feel. I like how it's different from other abstract art.,45,20,20","danger, crime scene,,10,180,20","Travis","Neural...just a blackboard jungle.,3,260,20","Eric","I like that the colors are toned down even though they're everywhere.,5,100,20","Tanner","danger, crime scene,,10,180,20","0"
"8784","","survey-text","58","250104","0.0-58.0-0.0","A15B9VEG75OAPW","","","","{""Q0"":""very creative, I like the scene""}","","","","","","","","","","","","","","","","","","","","","","",""
"5181.600000023842","","image-slider-response","59","255287","0.0-59.0","A15B9VEG75OAPW","","","","","-1","","","","","","","","","","","","","","","","","","","","","",""
"3359","","image-button-response","60","260302","0.0-60.0","A15B9VEG75OAPW","img_art/26.jpg","2","","","","","","","","","","","","","","","","","","","","","","","","",""
"1767","","image-button-response","61","262071","0.0-61.0","A15B9VEG75OAPW","img_art/26.jpg","3","","","","","","","","","","","","","","","","","","","","","","","","",""
"615","","image-button-response","62","262687","0.0-62.0-0.0","A15B9VEG75OAPW","img_art/26.jpg","5","","","","","","","","","","","","","","","","","","","","","","","","",""
"3303","","image-button-response","63","265991","0.0-63.0-0.0","A15B9VEG75OAPW","img_art/26.jpg","2","","","","","","","","","","","","","","","","","","","","","","","","",""
"null","","html-keyboard-response","64","266492","0.0-64.0","A15B9VEG75OAPW","<p style=""font-size: 48px;"">+</p>","","","","","null","allTrialResponses","500","1","3","img_art/26.jpg","-1","very creative, I like the scene","Eric,Brendan,Taylor,Travis,Joshua,Tanner","I wish there was more detail, but I really like this simple piece.,35,100,20","cool cozy town vibes,50,340,20","At least it is a bit of scenery.,10,200,20","Neutral...nothing to say.,3,260,20","This is boring.,-15,240,20","happy, park, childhood,9,180,20","Travis","Neutral...nothing to say.,3,260,20","Tanner","happy, park, childhood,9,180,20","Taylor","At least it is a bit of scenery.,10,200,20","0"
"10889","","survey-text","65","277384","0.0-65.0-0.0","A15B9VEG75OAPW","","","","{""Q0"":""I like the boldness and statement of this piece""}","","","","","","","","","","","","","","","","","","","","","","",""
"2981.6999999284744","","image-slider-response","66","280367","0.0-66.0","A15B9VEG75OAPW","","","","","27","","","","","","","","","","","","","","","","","","","","","",""
"null","","image-button-response","67","285377","0.0-67.0","A15B9VEG75OAPW","img_art/16.jpg","null","","","","","","","","","","","","","","","","","","","","","","","","",""
"3557","","image-button-response","68","288935","0.0-68.0","A15B9VEG75OAPW","img_art/16.jpg","3","","","","","","","","","","","","","","","","","","","","","","","","",""
"3886","","image-button-response","69","292823","0.0-69.0-0.0","A15B9VEG75OAPW","img_art/16.jpg","4","","","","","","","","","","","","","","","","","","","","","","","","",""
"9926","","image-button-response","70","302751","0.0-70.0-0.0","A15B9VEG75OAPW","img_art/16.jpg","5","","","","","","","","","","","","","","","","","","","","","","","","",""
"null","","html-keyboard-response","71","303752","0.0-71.0","A15B9VEG75OAPW","<p style=""font-size: 48px;"">+</p>","","","","","null","allTrialResponses","1000","1","4","img_art/16.jpg","27","I like the boldness and statement of this piece","Antonio,Jeremy,Taylor,Travis,Kevin,Tanner","Did not like at all. I think something sinister going on in the background and the bear a diversion,-50,220,20","very disturbed seening a gun in the same picture as a teddy bear,-50,60,20","It is sick to put a teddy bear and a gun on the same piece of canvas.,-40,200,20","I like the teddy bear,but a neutral feeling,5,260,20","Hmm i don't know what going on here.,1,320,20","sad. desth of childhood,-5,180,20","Travis","I like the teddy bear,but a neutral feeling,5,260,20","Kevin","Hmm i don't know what going on here.,1,320,20","Tanner","sad. desth of childhood,-5,180,20","0"
"16861","","survey-text","72","320615","0.0-72.0-0.0","A15B9VEG75OAPW","","","","{""Q0"":""This is just not well done, colors clash in a bad way""}","","","","","","","","","","","","","","","","","","","","","","",""
"2973.7000000476837","","image-slider-response","73","323590","0.0-73.0","A15B9VEG75OAPW","","","","","-36","","","","","","","","","","","","","","","","","","","","","",""
"2775","","image-button-response","74","328592","0.0-74.0","A15B9VEG75OAPW","img_art/30.jpg","4","","","","","","","","","","","","","","","","","","","","","","","","",""
"885","","image-button-response","75","329478","0.0-75.0","A15B9VEG75OAPW","img_art/30.jpg","3","","","","","","","","","","","","","","","","","","","","","","","","",""
"727","","image-button-response","76","330207","0.0-76.0-0.0","A15B9VEG75OAPW","img_art/30.jpg","4","","","","","","","","","","","","","","","","","","","","","","","","",""
"3246","","image-button-response","77","333454","0.0-77.0-0.0","A15B9VEG75OAPW","img_art/30.jpg","0","","","","","","","","","","","","","","","","","","","","","","","","",""
"null","","html-keyboard-response","78","334956","0.0-78.0","A15B9VEG75OAPW","<p style=""font-size: 48px;"">+</p>","","","","","null","allTrialResponses","1500","1","5","img_art/30.jpg","-36","This is just not well done, colors clash in a bad way","Juan,Evan,Jesse,Travis,Kevin,Tanner","I like the red against the blue, but otherwise, it's not really my taste,4,260,20","I really like the broad and colorful strokes,21,140,20","I do like the multi-dimensional aspect of this piece,10,80,20","I didn't like this...it looks like someone just finger painted it.,-10,260,20","Some people dancing.,-7,320,20","makes me think of a tunnel filled with graffiti,19,180,20","Travis","I didn't like this...it looks like someone just finger painted it.,-10,260,20","Kevin","Some people dancing.,-7,320,20","Juan","I like the red against the blue, but otherwise, it's not really my taste,4,260,20","0"
"2656","","survey-text","79","337615","0.0-79.0-0.0","A15B9VEG75OAPW","","","","{""Q0"":""sky""}","","","","","","","","","","","","","","","","","","","","","","",""
"6984","","survey-text","80","344600","0.0-80.0-0.0","A15B9VEG75OAPW","","","","{""Q0"":""This is amazing, very detailed""}","","","","","","","","","","","","","","","","","","","","","","",""
"3277.6999999284744","","image-slider-response","81","347879","0.0-81.0","A15B9VEG75OAPW","","","","","50","","","","","","","","","","","","","","","","","","","","","",""
"3727","","image-button-response","82","352880","0.0-82.0","A15B9VEG75OAPW","img_art/8.jpg","3","","","","","","","","","","","","","","","","","","","","","","","","",""
"198","","image-button-response","83","353079","0.0-83.0","A15B9VEG75OAPW","img_art/8.jpg","4","","","","","","","","","","","","","","","","","","","","","","","","",""
"759","","image-button-response","84","353839","0.0-84.0-0.0","A15B9VEG75OAPW","img_art/8.jpg","3","","","","","","","","","","","","","","","","","","","","","","","","",""
"654","","image-button-response","85","354495","0.0-85.0-0.0","A15B9VEG75OAPW","img_art/8.jpg","5","","","","","","","","","","","","","","","","","","","","","","","","",""
"null","","html-keyboard-response","86","356006","0.0-86.0","A15B9VEG75OAPW","<p style=""font-size: 48px;"">+</p>","","","","","null","allTrialResponses","1500","1","6","img_art/8.jpg","50","This is amazing, very detailed","Juan,Devon,Jacob,Travis,Kevin,Patrick","I don't like the negative emotion this picture makes me feel. It's also too abstract.,-30,260,20","wow - the colors were very well mixed,12,400,20","Very cool! I like this piece,9,340,20","I like the colors and the scene.,24,260,20","Now that one is wild. Looks like maybe mother nature isnt happy.,28,320,20","Very interesting use of blocks,21,280,20","Kevin","Now that one is wild. Looks like maybe mother nature isnt happy.,28,320,20","Travis","I like the colors and the scene.,24,260,20","Patrick","Very interesting use of blocks,21,280,20","0"
"9887","","survey-text","87","365896","0.0-87.0-0.0","A15B9VEG75OAPW","","","","{""Q0"":""I don't understand what this is supposed to be ""}","","","","","","","","","","","","","","","","","","","","","","",""
"2781.8000000715256","","image-slider-response","88","368679","0.0-88.0","A15B9VEG75OAPW","","","","","-2","","","","","","","","","","","","","","","","","","","","","",""
"4454","","image-button-response","89","373682","0.0-89.0","A15B9VEG75OAPW","img_art/4.jpg","5","","","","","","","","","","","","","","","","","","","","","","","","",""
"756","","image-button-response","90","374439","0.0-90.0","A15B9VEG75OAPW","img_art/4.jpg","5","","","","","","","","","","","","","","","","","","","","","","","","",""
"814","","image-button-response","91","375255","0.0-91.0-0.0","A15B9VEG75OAPW","img_art/4.jpg","3","","","","","","","","","","","","","","","","","","","","","","","","",""
"1022","","image-button-response","92","376279","0.0-92.0-0.0","A15B9VEG75OAPW","img_art/4.jpg","0","","","","","","","","","","","","","","","","","","","","","","","","",""
"null","","html-keyboard-response","93","376780","0.0-93.0","A15B9VEG75OAPW","<p style=""font-size: 48px;"">+</p>","","","","","null","allTrialResponses","500","1","7","img_art/4.jpg","-2","I don't understand what this is supposed to be ","William,Carlos,Edward,Travis,Kevin,Patrick","dont like the colors,-31,380,20","Movement. Snakes. Hair. The uncertainty makes my eye return.,21,80,20","It reminds me of something a kid would make for their parents,13,60,20","I don't like this...a mustardy scibble.,-47,260,20","A leaning trophy,-9,320,20","Random swirls again,-30,280,20","Patrick","Random swirls again,-30,280,20","Travis","I don't like this...a mustardy scibble.,-47,260,20","William","dont like the colors,-31,380,20","0"
"6634","","survey-text","94","383416","0.0-94.0-0.0","A15B9VEG75OAPW","","","","{""Q0"":""I like the blocks and colors""}","","","","","","","","","","","","","","","","","","","","","","",""
"2813.8000000715256","","image-slider-response","95","386231","0.0-95.0","A15B9VEG75OAPW","","","","","21","","","","","","","","","","","","","","","","","","","","","",""
"4422","","image-button-response","96","391232","0.0-96.0","A15B9VEG75OAPW","img_art/12.jpg","3","","","","","","","","","","","","","","","","","","","","","","","","",""
"813","","image-button-response","97","392047","0.0-97.0","A15B9VEG75OAPW","img_art/12.jpg","3","","","","","","","","","","","","","","","","","","","","","","","","",""
"543","","image-button-response","98","392591","0.0-98.0-0.0","A15B9VEG75OAPW","img_art/12.jpg","4","","","","","","","","","","","","","","","","","","","","","","","","",""
"1070","","image-button-response","99","393663","0.0-99.0-0.0","A15B9VEG75OAPW","img_art/12.jpg","0","","","","","","","","","","","","","","","","","","","","","","","","",""
"null","","html-keyboard-response","100","395164","0.0-100.0","A15B9VEG75OAPW","<p style=""font-size: 48px;"">+</p>","","","","","null","allTrialResponses","1500","1","8","img_art/12.jpg","21","I like the blocks and colors","William,Richard,Alex,Travis,Anthony,Patrick","to contemporary for me,3,380,20","seems too dark on top and too common on the bottom,-19,340,20","eww hate everything about this, looks like it belongs in a dentist's office,-14,100,20","Neutral...just blocks.,3,260,20","This piece doesn't provoke any kind of reaction,0,200,20","I don't like the blocking,-20,280,20","Travis","Neutral...just blocks.,3,260,20","Anthony","This piece doesn't provoke any kind of reaction,0,200,20","William","to contemporary for me,3,380,20","0"
"10064","","survey-text","101","405232","0.0-101.0-0.0","A15B9VEG75OAPW","","","","{""Q0"":""Very abstract, neutral colors""}","","","","","","","","","","","","","","","","","","","","","","",""
"2117.8000000715256","","image-slider-response","102","407350","0.0-102.0","A15B9VEG75OAPW","","","","","1","","","","","","","","","","","","","","","","","","","","","",""
"4519","","image-button-response","103","412352","0.0-103.0","A15B9VEG75OAPW","img_art/28.jpg","2","","","","","","","","","","","","","","","","","","","","","","","","",""
"741","","image-button-response","104","413095","0.0-104.0","A15B9VEG75OAPW","img_art/28.jpg","2","","","","","","","","","","","","","","","","","","","","","","","","",""
"1582","","image-button-response","105","414679","0.0-105.0-0.0","A15B9VEG75OAPW","img_art/28.jpg","4","","","","","","","","","","","","","","","","","","","","","","","","",""
"943","","image-button-response","106","415623","0.0-106.0-0.0","A15B9VEG75OAPW","img_art/28.jpg","3","","","","","","","","","","","","","","","","","","","","","","","","",""
"null","","html-keyboard-response","107","416124","0.0-107.0","A15B9VEG75OAPW","<p style=""font-size: 48px;"">+</p>","","","","","null","allTrialResponses","500","1","9","img_art/28.jpg","1","Very abstract, neutral colors","William,Miguel,Kyle,Travis,Anthony,Jorge","drab and dreary,-21,380,20","Looks yucky and poor.,-33,160,20","Colors too dull for me,-10,340,20","Hate it...brown and drab,-37,260,20","This picture doesn't really stand out to me,1,200,20","nostalgic from a memory,11,180,20","Kyle","Colors too dull for me,-10,340,20","Anthony","This picture doesn't really stand out to me,1,200,20","Travis","Hate it...brown and drab,-37,260,20","0"
"10921","","survey-text","108","427047","0.0-108.0-0.0","A15B9VEG75OAPW","","","","{""Q0"":""This is very thought provoking, i like the grey tones""}","","","","","","","","","","","","","","","","","","","","","","",""
"3326.0999999046326","","image-slider-response","109","430374","0.0-109.0","A15B9VEG75OAPW","","","","","40","","","","","","","","","","","","","","","","","","","","","",""
"3159","","image-button-response","110","435376","0.0-110.0","A15B9VEG75OAPW","img_art/10.jpg","5","","","","","","","","","","","","","","","","","","","","","","","","",""
"589","","image-button-response","111","435966","0.0-111.0","A15B9VEG75OAPW","img_art/10.jpg","3","","","","","","","","","","","","","","","","","","","","","","","","",""
"711","","image-button-response","112","436679","0.0-112.0-0.0","A15B9VEG75OAPW","img_art/10.jpg","5","","","","","","","","","","","","","","","","","","","","","","","","",""
"3223","","image-button-response","113","439902","0.0-113.0-0.0","A15B9VEG75OAPW","img_art/10.jpg","0","","","","","","","","","","","","","","","","","","","","","","","","",""
"null","","html-keyboard-response","114","441404","0.0-114.0","A15B9VEG75OAPW","<p style=""font-size: 48px;"">+</p>","","","","","null","allTrialResponses","1500","1","10","img_art/10.jpg","40","This is very thought provoking, i like the grey tones","Stephen,Paul,Kyle,Travis,Anthony,Logan","Very nice painting, would like it more with different color choice.,6,140,20","It doesn't look pleasing to the eye, it kind of looks like an animal but a dirty one,-38,300,20","It's okay but not giving me the strongest reaction,6,340,20","I liked it...it looked somewhat like a guitar.,32,260,20","I am neutral towards the artwork,1,200,20","The more I look the more I like. Reminds me of a rollercoaster and a war scene. A lot going on which is unnerving, like a rollercoaster but still fun,22,360,20","Travis","I liked it...it looked somewhat like a guitar.,32,260,20","Logan","The more I look the more I like. Reminds me of a rollercoaster and a war scene. A lot going on which is unnerving, like a rollercoaster but still fun,22,360,20","Stephen","Very nice painting, would like it more with different color choice.,6,140,20","0"
"3255","","survey-text","115","444664","0.0-115.0-0.0","A15B9VEG75OAPW","","","","{""Q0"":""our""}","","","","","","","","","","","","","","","","","","","","","","",""
"22479","","survey-text","116","467143","0.0-116.0-0.0","A15B9VEG75OAPW","","","","{""Q0"":""I do not like the colors, and the noticable strokes""}","","","","","","","","","","","","","","","","","","","","","","",""
"2310","","image-slider-response","117","469455","0.0-117.0","A15B9VEG75OAPW","","","","","-35","","","","","","","","","","","","","","","","","","","","","",""
"4983","","image-button-response","118","474456","0.0-118.0","A15B9VEG75OAPW","img_art/9.jpg","2","","","","","","","","","","","","","","","","","","","","","","","","",""
"2558","","image-button-response","119","477015","0.0-119.0","A15B9VEG75OAPW","img_art/9.jpg","2","","","","","","","","","","","","","","","","","","","","","","","","",""
"1575","","image-button-response","120","478591","0.0-120.0-0.0","A15B9VEG75OAPW","img_art/9.jpg","3","","","","","","","","","","","","","","","","","","","","","","","","",""
"1462","","image-button-response","121","480054","0.0-121.0-0.0","A15B9VEG75OAPW","img_art/9.jpg","1","","","","","","","","","","","","","","","","","","","","","","","","",""
"null","","html-keyboard-response","122","481056","0.0-122.0","A15B9VEG75OAPW","<p style=""font-size: 48px;"">+</p>","","","","","null","allTrialResponses","1000","1","11","img_art/9.jpg","-35","I do not like the colors, and the noticable strokes","Stephen,Peter,Bradley,Travis,Alejandro,Logan","Too much going on, don't know what the focus is,-11,140,20","Looks like a monster's teeth , unsettling,-18,320,20","Yikes. I'm not sure what to make of this one.,-14,300,20","Stuipid looking...dumb,-48,260,20","Evokes triumph of a mountain over powering a drowning sea,24,80,20","is that sleeping beauty,33,360,20","Bradley","Yikes. I'm not sure what to make of this one.,-14,300,20","Travis","Stuipid looking...dumb,-48,260,20","Peter","Looks like a monster's teeth , unsettling,-18,320,20","0"
"8525","","survey-text","123","489584","0.0-123.0-0.0","A15B9VEG75OAPW","","","","{""Q0"":""Very childish ""}","","","","","","","","","","","","","","","","","","","","","","",""
"3462","","image-slider-response","124","493047","0.0-124.0","A15B9VEG75OAPW","","","","","-4","","","","","","","","","","","","","","","","","","","","","",""
"null","","image-button-response","125","498048","0.0-125.0","A15B9VEG75OAPW","img_art/2.jpg","null","","","","","","","","","","","","","","","","","","","","","","","","",""
"2653","","image-button-response","126","500703","0.0-126.0","A15B9VEG75OAPW","img_art/2.jpg","4","","","","","","","","","","","","","","","","","","","","","","","","",""
"1039","","image-button-response","127","501743","0.0-127.0-0.0","A15B9VEG75OAPW","img_art/2.jpg","5","","","","","","","","","","","","","","","","","","","","","","","","",""
"2343","","image-button-response","128","504087","0.0-128.0-0.0","A15B9VEG75OAPW","img_art/2.jpg","2","","","","","","","","","","","","","","","","","","","","","","","","",""
"null","","html-keyboard-response","129","504599","0.0-129.0","A15B9VEG75OAPW","<p style=""font-size: 48px;"">+</p>","","","","","null","allTrialResponses","500","1","12","img_art/2.jpg","-4","Very childish ","Ethan,Peter,Bradley,Travis,Jared,Michael","This looks like a professional abstract drawing. I like the shapes.,7,120,20","I don't feel indifferent,4,320,20","I'm not fond of the colors in this one.,-33,300,20","I didn't like this it looked like a kindergardner painted it and the green was out of place.,-46,260,20","looks like a happy child,15,400,20","Random colors and shapes mashed together. Nothing artistic, but better than some of the other ones.,-37,140,20","Jared","looks like a happy child,15,400,20","Michael","Random colors and shapes mashed together. Nothing artistic, but better than some of the other ones.,-37,140,20","Bradley","I'm not fond of the colors in this one.,-33,300,20","0"
"9150","","survey-text","130","513752","0.0-130.0-0.0","A15B9VEG75OAPW","","","","{""Q0"":""This is very artistic and lovely""}","","","","","","","","","","","","","","","","","","","","","","",""
"3037.7999999523163","","image-slider-response","131","516791","0.0-131.0","A15B9VEG75OAPW","","","","","50","","","","","","","","","","","","","","","","","","","","","",""
"null","","image-button-response","132","521795","0.0-132.0","A15B9VEG75OAPW","img_art/17.jpg","null","","","","","","","","","","","","","","","","","","","","","","","","",""
"899","","image-button-response","133","522695","0.0-133.0","A15B9VEG75OAPW","img_art/17.jpg","1","","","","","","","","","","","","","","","","","","","","","","","","",""
"967","","image-button-response","134","523663","0.0-134.0-0.0","A15B9VEG75OAPW","img_art/17.jpg","4","","","","","","","","","","","","","","","","","","","","","","","","",""
"775","","image-button-response","135","524439","0.0-135.0-0.0","A15B9VEG75OAPW","img_art/17.jpg","5","","","","","","","","","","","","","","","","","","","","","","","","",""
"null","","html-keyboard-response","136","524941","0.0-136.0","A15B9VEG75OAPW","<p style=""font-size: 48px;"">+</p>","","","","","null","allTrialResponses","500","1","13","img_art/17.jpg","50","This is very artistic and lovely","Benjamin,Jeffrey,Bradley,Adam,Jared,Michael","Don't really like pastels.,-10,260,20","Makes me warm and cozy just by looking at it,29,40,20","It kind of pulls you in to float away with it.,9,300,20","Very washed out.,-10,40,20","the colors, the arch and the wall,15,400,20","There is better structure and direction in this one.,19,140,20","Jeffrey","Makes me warm and cozy just by looking at it,29,40,20","Jared","the colors, the arch and the wall,15,400,20","Michael","There is better structure and direction in this one.,19,140,20","0"
"7112","","survey-text","137","532055","0.0-137.0-0.0","A15B9VEG75OAPW","","","","{""Q0"":""I love the water color feel""}","","","","","","","","","","","","","","","","","","","","","","",""
"2406.1999999284744","","image-slider-response","138","534463","0.0-138.0","A15B9VEG75OAPW","","","","","39","","","","","","","","","","","","","","","","","","","","","",""
"null","","image-button-response","139","539464","0.0-139.0","A15B9VEG75OAPW","img_art/21.jpg","null","","","","","","","","","","","","","","","","","","","","","","","","",""
"238","","image-button-response","140","539703","0.0-140.0","A15B9VEG75OAPW","img_art/21.jpg","0","","","","","","","","","","","","","","","","","","","","","","","","",""
"2727","","image-button-response","141","542431","0.0-141.0-0.0","A15B9VEG75OAPW","img_art/21.jpg","0","","","","","","","","","","","","","","","","","","","","","","","","",""
"3231","","image-button-response","142","549047","0.0-141.1-0.1","A15B9VEG75OAPW","img_art/21.jpg","2","","","","","","","","","","","","","","","","","","","","","","","","",""
"1559","","image-button-response","143","550607","0.0-142.0-0.0","A15B9VEG75OAPW","img_art/21.jpg","1","","","","","","","","","","","","","","","","","","","","","","","","",""
"null","","html-keyboard-response","144","551608","0.0-143.0","A15B9VEG75OAPW","<p style=""font-size: 48px;"">+</p>","","","","","null","allTrialResponses","1000","1","14","img_art/21.jpg","39","I love the water color feel","Shawn,Jeffrey,Lucas,Devin,Jared,Michael","Lovely colors and emotive effects. Turner-esque in a not-so derivative way.,44,100,20","Relaxing and easy to look at,27,40,20","Looks like a war. Many things happening on the painting, really enjoy it.,30,380,20","Evokes a strong colorful sense,8,380,20","i like the way the colors divide the canvas.,16,400,20","What's the point?,-30,140,20","Shawn","Lovely colors and emotive effects. Turner-esque in a not-so derivative way.,44,100,20","Lucas","Looks like a war. Many things happening on the painting, really enjoy it.,30,380,20","Jeffrey","Relaxing and easy to look at,27,40,20","2"
"7037","","survey-text","145","558648","0.0-144.0-0.0","A15B9VEG75OAPW","","","","{""Q0"":""Very simple yet captivating ""}","","","","","","","","","","","","","","","","","","","","","","",""
"2397.7000000476837","","image-slider-response","146","561047","0.0-145.0","A15B9VEG75OAPW","","","","","25","","","","","","","","","","","","","","","","","","","","","",""
"null","","image-button-response","147","566048","0.0-146.0","A15B9VEG75OAPW","img_art/3.jpg","null","","","","","","","","","","","","","","","","","","","","","","","","",""
"637","","image-button-response","148","566687","0.0-147.0","A15B9VEG75OAPW","img_art/3.jpg","2","","","","","","","","","","","","","","","","","","","","","","","","",""
"470","","image-button-response","149","567159","0.0-148.0-0.0","A15B9VEG75OAPW","img_art/3.jpg","1","","","","","","","","","","","","","","","","","","","","","","","","",""
"416","","image-button-response","150","567575","0.0-149.0-0.0","A15B9VEG75OAPW","img_art/3.jpg","0","","","","","","","","","","","","","","","","","","","","","","","","",""
"null","","html-keyboard-response","151","568576","0.0-150.0","A15B9VEG75OAPW","<p style=""font-size: 48px;"">+</p>","","","","","null","allTrialResponses","1000","1","15","img_art/3.jpg","25","Very simple yet captivating ","Shawn,Jeffrey,Lucas,Sean,Jason,Elijah","Powerful lines but seems incomplete,-10,100,20","Associates with blood and crime scene,-12,40,20","Mysterious, remarkable.,30,380,20","my response to the picture is a lot of red, danger,,-21,40,20","Too much red; very bland,-26,20,20","Somebody scribbled on a piece of paper,-35,80,20","Lucas","Mysterious, remarkable.,30,380,20","Jeffrey","Associates with blood and crime scene,-12,40,20","Shawn","Powerful lines but seems incomplete,-10,100,20","2"
"2987","","survey-text","152","571568","0.0-151.0-0.0","A15B9VEG75OAPW","","","","{""Q0"":""ccourse""}","","","","","","","","","","","","","","","","","","","","","","",""
"3135","","survey-text","153","577391","0.0-151.1-0.1","A15B9VEG75OAPW","","","","{""Q0"":""course""}","","","","","","","","","","","","","","","","","","","","","","",""
"8327","","survey-text","154","585720","0.0-152.0-0.0","A15B9VEG75OAPW","","","","{""Q0"":""This is very flowy, I like the colors""}","","","","","","","","","","","","","","","","","","","","","","",""
"2789.9000000953674","","image-slider-response","155","588511","0.0-153.0","A15B9VEG75OAPW","","","","","23","","","","","","","","","","","","","","","","","","","","","",""
"null","","image-button-response","156","593513","0.0-154.0","A15B9VEG75OAPW","img_art/20.jpg","null","","","","","","","","","","","","","","","","","","","","","","","","",""
"1956","","image-button-response","157","595471","0.0-155.0","A15B9VEG75OAPW","img_art/20.jpg","4","","","","","","","","","","","","","","","","","","","","","","","","",""
"694","","image-button-response","158","596167","0.0-156.0-0.0","A15B9VEG75OAPW","img_art/20.jpg","3","","","","","","","","","","","","","","","","","","","","","","","","",""
"1534","","image-button-response","159","597703","0.0-157.0-0.0","A15B9VEG75OAPW","img_art/20.jpg","0","","","","","","","","","","","","","","","","","","","","","","","","",""
"null","","html-keyboard-response","160","598704","0.0-158.0","A15B9VEG75OAPW","<p style=""font-size: 48px;"">+</p>","","","","","null","allTrialResponses","1000","1","16","img_art/20.jpg","23","This is very flowy, I like the colors","Shawn,Jeffrey,Lucas,Mark,Matthew,Kenneth","Mood setting if a little dreary,20,100,20","looks like an auto accident,-30,40,20","Phenomenal painting of building.,25,380,20","Reminds me of persistance of time (a favorite of mine).,30,80,20","Painting within a painting, abstract.,32,120,20","I want to like this more, but i wish it was more detailed. It's hard for me to see what it is.,5,300,20","Matthew","Painting within a painting, abstract.,32,120,20","Mark","Reminds me of persistance of time (a favorite of mine).,30,80,20","Shawn","Mood setting if a little dreary,20,100,20","3"
"10958","","survey-text","161","609664","0.0-159.0-0.0","A15B9VEG75OAPW","","","","{""Q0"":""Simple, It is very easy to look at ""}","","","","","","","","","","","","","","","","","","","","","","",""
"2221.8000000715256","","image-slider-response","162","611887","0.0-160.0","A15B9VEG75OAPW","","","","","13","","","","","","","","","","","","","","","","","","","","","",""
"null","","image-button-response","163","616888","0.0-161.0","A15B9VEG75OAPW","img_art/6.jpg","null","","","","","","","","","","","","","","","","","","","","","","","","",""
"677","","image-button-response","164","617567","0.0-162.0","A15B9VEG75OAPW","img_art/6.jpg","3","","","","","","","","","","","","","","","","","","","","","","","","",""
"958","","image-button-response","165","618527","0.0-163.0-0.0","A15B9VEG75OAPW","img_art/6.jpg","0","","","","","","","","","","","","","","","","","","","","","","","","",""
"558","","image-button-response","166","619087","0.0-164.0-0.0","A15B9VEG75OAPW","img_art/6.jpg","1","","","","","","","","","","","","","","","","","","","","","","","","",""
"null","","html-keyboard-response","167","619588","0.0-165.0","A15B9VEG75OAPW","<p style=""font-size: 48px;"">+</p>","","","","","null","allTrialResponses","500","1","17","img_art/6.jpg","13","Simple, It is very easy to look at ","Shawn,Angel,Justin,Mark,Matthew,Nathan","Cute and evocative,11,100,20","This piece feels hopeful, like an oasis in the desert.,20,180,20","It's alright. I imagined the peach from James and the Giant Peach.,1,280,20","So forlorn, and beauty amid desolation.,25,80,20","A lot of people will lvoe this, I do not.,1,120,20","Not a fan of anything in this,-43,200,20","Mark","So forlorn, and beauty amid desolation.,25,80,20","Shawn","Cute and evocative,11,100,20","Angel","This piece feels hopeful, like an oasis in the desert.,20,180,20","3"
"13305","","survey-text","168","632896","0.0-166.0-0.0","A15B9VEG75OAPW","","","","{""Q0"":""Just splotches on paper ""}","","","","","","","","","","","","","","","","","","","","","","",""
"2773.899999976158","","image-slider-response","169","635671","0.0-167.0","A15B9VEG75OAPW","","","","","-17","","","","","","","","","","","","","","","","","","","","","",""
"null","","image-button-response","170","640672","0.0-168.0","A15B9VEG75OAPW","img_art/15.jpg","null","","","","","","","","","","","","","","","","","","","","","","","","",""
"1478","","image-button-response","171","642151","0.0-169.0","A15B9VEG75OAPW","img_art/15.jpg","4","","","","","","","","","","","","","","","","","","","","","","","","",""
"647","","image-button-response","172","642799","0.0-170.0-0.0","A15B9VEG75OAPW","img_art/15.jpg","5","","","","","","","","","","","","","","","","","","","","","","","","",""
"2903","","image-button-response","173","645703","0.0-171.0-0.0","A15B9VEG75OAPW","img_art/15.jpg","3","","","","","","","","","","","","","","","","","","","","","","","","",""
"null","","html-keyboard-response","174","647206","0.0-172.0","A15B9VEG75OAPW","<p style=""font-size: 48px;"">+</p>","","","","","null","allTrialResponses","1500","1","18","img_art/15.jpg","-17","Just splotches on paper ","Shawn,Angel,Ian,Mark,Jake,James","Like the composition and lines,26,100,20","This is looking at a forest from above. I can see water and some pathways throughout. Nature.,20,180,20","This gives a skin crawling feeling. Like something that you could see under a mircoscope,10,260,20","Chameleons on reeds. Nice but doesn't really make me feel anything.,11,80,20","This looks odd and was not well executed.,-3,360,20","No opinion truthfully,1,380,20","Jake","This looks odd and was not well executed.,-3,360,20","James","No opinion truthfully,1,380,20","Mark","Chameleons on reeds. Nice but doesn't really make me feel anything.,11,80,20","3"
"7551","","survey-text","175","654760","0.0-173.0-0.0","A15B9VEG75OAPW","","","","{""Q0"":""very busy""}","","","","","","","","","","","","","","","","","","","","","","",""
"6214","","image-slider-response","176","660975","0.0-174.0","A15B9VEG75OAPW","","","","","2","","","","","","","","","","","","","","","","","","","","","",""
"null","","image-button-response","177","665976","0.0-175.0","A15B9VEG75OAPW","img_art/19.jpg","null","","","","","","","","","","","","","","","","","","","","","","","","",""
"1677","","image-button-response","178","667655","0.0-176.0","A15B9VEG75OAPW","img_art/19.jpg","4","","","","","","","","","","","","","","","","","","","","","","","","",""
"1294","","image-button-response","179","668951","0.0-177.0-0.0","A15B9VEG75OAPW","img_art/19.jpg","5","","","","","","","","","","","","","","","","","","","","","","","","",""
"975","","image-button-response","180","669927","0.0-178.0-0.0","A15B9VEG75OAPW","img_art/19.jpg","1","","","","","","","","","","","","","","","","","","","","","","","","",""
"null","","html-keyboard-response","181","670428","0.0-179.0","A15B9VEG75OAPW","<p style=""font-size: 48px;"">+</p>","","","","","null","allTrialResponses","500","1","19","img_art/19.jpg","2","very busy","Timothy,Victor,Corey,Mark,Jake,James","Something weird is going on in this painting,-20,240,20","too much going on, can't tell what it is,-14,340,20","i think it is ugly and hate the colors,-35,260,20","Feels like a cafe in Paris.,35,80,20","This is like an ugly version of a Basquiat.,-24,360,20","I don't know what's going on, and I realise that I don't like it,-21,380,20","Jake","This is like an ugly version of a Basquiat.,-24,360,20","James","I don't know what's going on, and I realise that I don't like it,-21,380,20","Victor","too much going on, can't tell what it is,-14,340,20","3"
"10160","","survey-text","182","680592","0.0-180.0-0.0","A15B9VEG75OAPW","","","","{""Q0"":""The texture of this is amazing""}","","","","","","","","","","","","","","","","","","","","","","",""
"3638.100000023842","","image-slider-response","183","684231","0.0-181.0","A15B9VEG75OAPW","","","","","13","","","","","","","","","","","","","","","","","","","","","",""
"null","","image-button-response","184","689233","0.0-182.0","A15B9VEG75OAPW","img_art/7.jpg","null","","","","","","","","","","","","","","","","","","","","","","","","",""
"1300","","image-button-response","185","690535","0.0-183.0","A15B9VEG75OAPW","img_art/7.jpg","1","","","","","","","","","","","","","","","","","","","","","","","","",""
"2286","","image-button-response","186","692823","0.0-184.0-0.0","A15B9VEG75OAPW","img_art/7.jpg","4","","","","","","","","","","","","","","","","","","","","","","","","",""
"591","","image-button-response","187","693415","0.0-185.0-0.0","A15B9VEG75OAPW","img_art/7.jpg","3","","","","","","","","","","","","","","","","","","","","","","","","",""
"null","","html-keyboard-response","188","694919","0.0-186.0","A15B9VEG75OAPW","<p style=""font-size: 48px;"">+</p>","","","","","null","allTrialResponses","1500","1","20","img_art/7.jpg","13","The texture of this is amazing","Adrian,Victor,Gregory,Joseph,Jake,James","It's dirty. I don't mind the colors so much as the way they are put together in this dirty-looking pattern.,-41,60,20","I like the texture,12,340,20","Looks like a battle raging on,20,220,20","Dinosaur bones. Death.,-14,220,20","This is vague and ugly.,-3,360,20","Looks plain and dull, sorry.,-31,380,20","Victor","I like the texture,12,340,20","Jake","This is vague and ugly.,-3,360,20","Joseph","Dinosaur bones. Death.,-14,220,20","3"
"3763","","survey-text","189","698687","0.0-187.0-0.0","A15B9VEG75OAPW","","","","{""Q0"":""we""}","","","","","","","","","","","","","","","","","","","","","","",""
"10103","","survey-text","190","708791","0.0-188.0-0.0","A15B9VEG75OAPW","","","","{""Q0"":""Once again very busy, very bold c olors""}","","","","","","","","","","","","","","","","","","","","","","",""
"2589.899999976158","","image-slider-response","191","711382","0.0-189.0","A15B9VEG75OAPW","","","","","-4","","","","","","","","","","","","","","","","","","","","","",""
"null","","image-button-response","192","716383","0.0-190.0","A15B9VEG75OAPW","img_art/23.jpg","null","","","","","","","","","","","","","","","","","","","","","","","","",""
"325","","image-button-response","193","716710","0.0-191.0","A15B9VEG75OAPW","img_art/23.jpg","4","","","","","","","","","","","","","","","","","","","","","","","","",""
"448","","image-button-response","194","717158","0.0-192.0-0.0","A15B9VEG75OAPW","img_art/23.jpg","3","","","","","","","","","","","","","","","","","","","","","","","","",""
"1062","","image-button-response","195","718222","0.0-193.0-0.0","A15B9VEG75OAPW","img_art/23.jpg","0","","","","","","","","","","","","","","","","","","","","","","","","",""
"null","","html-keyboard-response","196","719225","0.0-194.0","A15B9VEG75OAPW","<p style=""font-size: 48px;"">+</p>","","","","","null","allTrialResponses","1000","1","21","img_art/23.jpg","-4","Once again very busy, very bold c olors","Grant,Victor,Austin,Joseph,Jake,Caleb","It reminds me of being in a crowded place.,-10,200,20","I like the colors, the tiny dots, and the contrast between the white and background,28,340,20","Fantastic blend of color and forms,43,240,20","Like a wound that has been sutured. Pain, but also healing.,5,220,20","This looks like hotel room art, it's ugly and odd.,-2,360,20","Very colorful. Nice contrasts.,26,40,20","Jake","This looks like hotel room art, it's ugly and odd.,-2,360,20","Joseph","Like a wound that has been sutured. Pain, but also healing.,5,220,20","Grant","It reminds me of being in a crowded place.,-10,200,20","3"
"11387","","survey-text","197","730615","0.0-195.0-0.0","A15B9VEG75OAPW","","","","{""Q0"":""Abstract, too busy""}","","","","","","","","","","","","","","","","","","","","","","",""
"2237.899999976158","","image-slider-response","198","732854","0.0-196.0","A15B9VEG75OAPW","","","","","-14","","","","","","","","","","","","","","","","","","","","","",""
"null","","image-button-response","199","737855","0.0-197.0","A15B9VEG75OAPW","img_art/18.jpg","null","","","","","","","","","","","","","","","","","","","","","","","","",""
"1045","","image-button-response","200","738902","0.0-198.0","A15B9VEG75OAPW","img_art/18.jpg","3","","","","","","","","","","","","","","","","","","","","","","","","",""
"1367","","image-button-response","201","740270","0.0-199.0-0.0","A15B9VEG75OAPW","img_art/18.jpg","2","","","","","","","","","","","","","","","","","","","","","","","","",""
"967","","image-button-response","202","741238","0.0-200.0-0.0","A15B9VEG75OAPW","img_art/18.jpg","5","","","","","","","","","","","","","","","","","","","","","","","","",""
"null","","html-keyboard-response","203","742247","0.0-201.0","A15B9VEG75OAPW","<p style=""font-size: 48px;"">+</p>","","","","","null","allTrialResponses","1000","1","22","img_art/18.jpg","-14","Abstract, too busy","Grant,Tristan,Tyler,Joseph,Jake,Colton","This is a very energetic painting, and brings to mind scenes of battle.,50,200,20","So much going on. Frightening and tumultous, brave and inspiring. I'd like to spend the rest of my life interpreting it.,30,300,20","Pleasant design and composition, unpleasant theme and focus.,-19,320,20","It's like a ship, but a freaky ship.,-11,220,20","It looks grotesque and violent.,-50,360,20","reminds me of greek mythology,22,220,20","Joseph","It's like a ship, but a freaky ship.,-11,220,20","Tyler","Pleasant design and composition, unpleasant theme and focus.,-19,320,20","Colton","reminds me of greek mythology,22,220,20","3"
"8852","","survey-text","204","751103","0.0-202.0-0.0","A15B9VEG75OAPW","","","","{""Q0"":""Very simplistic yet comprehensive ""}","","","","","","","","","","","","","","","","","","","","","","",""
"2765.899999976158","","image-slider-response","205","753870","0.0-203.0","A15B9VEG75OAPW","","","","","11","","","","","","","","","","","","","","","","","","","","","",""
"null","","image-button-response","206","758873","0.0-204.0","A15B9VEG75OAPW","img_art/22.jpg","null","","","","","","","","","","","","","","","","","","","","","","","","",""
"2917","","image-button-response","207","761790","0.0-205.0","A15B9VEG75OAPW","img_art/22.jpg","5","","","","","","","","","","","","","","","","","","","","","","","","",""
"1022","","image-button-response","208","762814","0.0-206.0-0.0","A15B9VEG75OAPW","img_art/22.jpg","2","","","","","","","","","","","","","","","","","","","","","","","","",""
"438","","image-button-response","209","763254","0.0-207.0-0.0","A15B9VEG75OAPW","img_art/22.jpg","1","","","","","","","","","","","","","","","","","","","","","","","","",""
"null","","html-keyboard-response","210","763755","0.0-208.0","A15B9VEG75OAPW","<p style=""font-size: 48px;"">+</p>","","","","","null","allTrialResponses","500","1","23","img_art/22.jpg","11","Very simplistic yet comprehensive ","Mitchell,Thomas,Tyler,Joseph,Andrew,Colton","Scary monsters lurking causing confusion.,-40,180,20","Beautiful. I love the color contrast and gradients.,50,220,20","Like the colors, and the even blur. The more I look, the more a story forms. A very narrative image.,18,320,20","I don't like that it looks like a person is there upside down.,-16,220,20","Doesn't make me feel anything,-4,160,20","I enjoy the colors used,24,220,20","Colton","I enjoy the colors used,24,220,20","Tyler","Like the colors, and the even blur. The more I look, the more a story forms. A very narrative image.,18,320,20","Thomas","Beautiful. I love the color contrast and gradients.,50,220,20","3"
"11513","","survey-text","211","775271","0.0-209.0-0.0","A15B9VEG75OAPW","","","","{""Q0"":""Looks like a city scape on acid""}","","","","","","","","","","","","","","","","","","","","","","",""
"2965.899999976158","","image-slider-response","212","778238","0.0-210.0","A15B9VEG75OAPW","","","","","5","","","","","","","","","","","","","","","","","","","","","",""
"null","","image-button-response","213","783240","0.0-211.0","A15B9VEG75OAPW","img_art/11.jpg","null","","","","","","","","","","","","","","","","","","","","","","","","",""
"350","","image-button-response","214","783590","0.0-212.0","A15B9VEG75OAPW","img_art/11.jpg","5","","","","","","","","","","","","","","","","","","","","","","","","",""
"831","","image-button-response","215","784422","0.0-213.0-0.0","A15B9VEG75OAPW","img_art/11.jpg","3","","","","","","","","","","","","","","","","","","","","","","","","",""
"1031","","image-button-response","216","785454","0.0-214.0-0.0","A15B9VEG75OAPW","img_art/11.jpg","0","","","","","","","","","","","","","","","","","","","","","","","","",""
"null","","html-keyboard-response","217","786456","0.0-215.0","A15B9VEG75OAPW","<p style=""font-size: 48px;"">+</p>","","","","","null","allTrialResponses","1000","1","24","img_art/11.jpg","5","Looks like a city scape on acid","Robert,Thomas,Tyler,Gabriel,Vincent,Colton","Rainy dreary day in a town.,7,360,20","Lovely. I could look at this for a really long time. I love the details and the composition.,40,220,20","Rainy day at an urban sea port. Portugal?,30,320,20","its like telephone wires, or mountains,-17,160,20","Looks like a familiar area,31,360,20","the wavy lines are nice and pleasing,13,220,20","Colton","the wavy lines are nice and pleasing,13,220,20","Gabriel","its like telephone wires, or mountains,-17,160,20","Robert","Rainy dreary day in a town.,7,360,20","3"
"7421","","survey-text","218","793879","0.0-216.0-0.0","A15B9VEG75OAPW","","","","{""Q0"":""The colors are very pleasing""}","","","","","","","","","","","","","","","","","","","","","","",""
"2197.7999999523163","","image-slider-response","219","796078","0.0-217.0","A15B9VEG75OAPW","","","","","11","","","","","","","","","","","","","","","","","","","","","",""
"null","","image-button-response","220","802039","0.0-218.0","A15B9VEG75OAPW","img_art/27.jpg","null","","","","","","","","","","","","","","","","","","","","","","","","",""
"6335","","image-button-response","221","808375","0.0-219.0","A15B9VEG75OAPW","img_art/27.jpg","4","","","","","","","","","","","","","","","","","","","","","","","","",""
"2678","","image-button-response","222","811054","0.0-220.0-0.0","A15B9VEG75OAPW","img_art/27.jpg","0","","","","","","","","","","","","","","","","","","","","","","","","",""
"3111","","image-button-response","223","814166","0.0-221.0-0.0","A15B9VEG75OAPW","img_art/27.jpg","3","","","","","","","","","","","","","","","","","","","","","","","","",""
"null","","html-keyboard-response","224","815670","0.0-222.0","A15B9VEG75OAPW","<p style=""font-size: 48px;"">+</p>","","","","","null","allTrialResponses","1500","1","25","img_art/27.jpg","11","The colors are very pleasing","Robert,Garrett,Isaac,Gabriel,Dalton,Colton","The black sketchy over the colors doesn't fit.,-4,360,20","This image could do a better job of showing what is going on and it could use more colors.,-42,180,20","The green lines look like a child drew over a painting.,-36,280,20","too messy dont like the color choices either,-17,160,20","looks like a garden in between two storms.,33,300,20","looks like a little kid did it,-30,220,20","Dalton","looks like a garden in between two storms.,33,300,20","Robert","The black sketchy over the colors doesn't fit.,-4,360,20","Gabriel","too messy dont like the color choices either,-17,160,20","3"
"3019","","survey-text","225","818695","0.0-223.0-0.0","A15B9VEG75OAPW","","","","{""Q0"":""table""}","","","","","","","","","","","","","","","","","","","","","","",""
"7350","","survey-text","226","826047","0.0-224.0-0.0","A15B9VEG75OAPW","","","","{""Q0"":""Psychedelic sunset ""}","","","","","","","","","","","","","","","","","","","","","","",""
"2101.399999976158","","image-slider-response","227","828150","0.0-225.0","A15B9VEG75OAPW","","","","","5","","","","","","","","","","","","","","","","","","","","","",""
"null","","image-button-response","228","833151","0.0-226.0","A15B9VEG75OAPW","img_art/1.jpg","null","","","","","","","","","","","","","","","","","","","","","","","","",""
"493","","image-button-response","229","833646","0.0-227.0","A15B9VEG75OAPW","img_art/1.jpg","3","","","","","","","","","","","","","","","","","","","","","","","","",""
"479","","image-button-response","230","834126","0.0-228.0-0.0","A15B9VEG75OAPW","img_art/1.jpg","4","","","","","","","","","","","","","","","","","","","","","","","","",""
"838","","image-button-response","231","834966","0.0-229.0-0.0","A15B9VEG75OAPW","img_art/1.jpg","1","","","","","","","","","","","","","","","","","","","","","","","","",""
"null","","html-keyboard-response","232","835467","0.0-230.0","A15B9VEG75OAPW","<p style=""font-size: 48px;"">+</p>","","","","","null","allTrialResponses","500","1","26","img_art/1.jpg","5","Psychedelic sunset ","Robert,Malik,Spencer,Gabriel,Dalton,Cole","Pretty colors. Fall day in the East Coast of USA.,42,360,20","Vague and directionless,-14,40,20","Pretty intermeshing of colors, happy,32,120,20","this ones alright,10,160,20","the colors are vibrant and beautiful,1,300,20","I like the colors. But it doesnt look like anything,27,200,20","Gabriel","this ones alright,10,160,20","Dalton","the colors are vibrant and beautiful,1,300,20","Malik","Vague and directionless,-14,40,20","3"
"7640","","survey-text","233","843111","0.0-231.0-0.0","A15B9VEG75OAPW","","","","{""Q0"":""I love the spashes of paint""}","","","","","","","","","","","","","","","","","","","","","","",""
"3014.100000023842","","image-slider-response","234","846126","0.0-232.0","A15B9VEG75OAPW","","","","","18","","","","","","","","","","","","","","","","","","","","","",""
"null","","image-button-response","235","851127","0.0-233.0","A15B9VEG75OAPW","img_art/13.jpg","null","","","","","","","","","","","","","","","","","","","","","","","","",""
"885","","image-button-response","236","852014","0.0-234.0","A15B9VEG75OAPW","img_art/13.jpg","1","","","","","","","","","","","","","","","","","","","","","","","","",""
"1775","","image-button-response","237","853790","0.0-235.0-0.0","A15B9VEG75OAPW","img_art/13.jpg","4","","","","","","","","","","","","","","","","","","","","","","","","",""
"415","","image-button-response","238","854206","0.0-236.0-0.0","A15B9VEG75OAPW","img_art/13.jpg","3","","","","","","","","","","","","","","","","","","","","","","","","",""
"null","","html-keyboard-response","239","855208","0.0-237.0","A15B9VEG75OAPW","<p style=""font-size: 48px;"">+</p>","","","","","null","allTrialResponses","1000","1","27","img_art/13.jpg","18","I love the spashes of paint","Alexis,Malik,Isaiah,Gabriel,Dalton,Noah","It looks too common, is a bit boring,-41,140,20","Gorgeous contrast and color choice, very pleasing,50,40,20","The painting makes me feel awe and like I am very little. Like I am alone at the bottom of the ocean.,41,300,20","its like the ocean,24,160,20","rain in blue black and white,1,300,20","evokes a dampening feeling,-9,260,20","Malik","Gorgeous contrast and color choice, very pleasing,50,40,20","Dalton","rain in blue black and white,1,300,20","Gabriel","its like the ocean,24,160,20","3"
"13220","","survey-text","240","868431","0.0-238.0-0.0","A15B9VEG75OAPW","","","","{""Q0"":""Very simple character, I like the green very unsettling""}","","","","","","","","","","","","","","","","","","","","","","",""
"2829.9000000953674","","image-slider-response","241","871262","0.0-239.0","A15B9VEG75OAPW","","","","","9","","","","","","","","","","","","","","","","","","","","","",""
"null","","image-button-response","242","876264","0.0-240.0","A15B9VEG75OAPW","img_art/25.jpg","null","","","","","","","","","","","","","","","","","","","","","","","","",""
"3541","","image-button-response","243","879806","0.0-241.0","A15B9VEG75OAPW","img_art/25.jpg","3","","","","","","","","","","","","","","","","","","","","","","","","",""
"839","","image-button-response","244","880646","0.0-242.0-0.0","A15B9VEG75OAPW","img_art/25.jpg","5","","","","","","","","","","","","","","","","","","","","","","","","",""
"1878","","image-button-response","245","882526","0.0-243.0-0.0","A15B9VEG75OAPW","img_art/25.jpg","1","","","","","","","","","","","","","","","","","","","","","","","","",""
"null","","html-keyboard-response","246","883026","0.0-244.0","A15B9VEG75OAPW","<p style=""font-size: 48px;"">+</p>","","","","","null","allTrialResponses","500","1","28","img_art/25.jpg","9","Very simple character, I like the green very unsettling","Luis,Malik,Seth,Gabriel,Dalton,Brett","New life, rising from your personal battles,50,400,20","Very cryptic and ancient,36,40,20","This piece feels cultural. Like it represents something culturally.,22,60,20","quite unnerving,-15,160,20","This reminds me of royalty and servants.,32,300,20","Egyptian heiroglyphics and painting,15,360,20","Gabriel","quite unnerving,-15,160,20","Brett","Egyptian heiroglyphics and painting,15,360,20","Malik","Very cryptic and ancient,36,40,20","3"
"9537","","survey-text","247","892567","0.0-245.0-0.0","A15B9VEG75OAPW","","","","{""Q0"":""Very beautiful water scape""}","","","","","","","","","","","","","","","","","","","","","","",""
"2373.7999999523163","","image-slider-response","248","894942","0.0-246.0","A15B9VEG75OAPW","","","","","36","","","","","","","","","","","","","","","","","","","","","",""
"null","","image-button-response","249","899944","0.0-247.0","A15B9VEG75OAPW","img_art/24.jpg","null","","","","","","","","","","","","","","","","","","","","","","","","",""
"2654","","image-button-response","250","902598","0.0-248.0","A15B9VEG75OAPW","img_art/24.jpg","1","","","","","","","","","","","","","","","","","","","","","","","","",""
"367","","image-button-response","251","902966","0.0-249.0-0.0","A15B9VEG75OAPW","img_art/24.jpg","0","","","","","","","","","","","","","","","","","","","","","","","","",""
"639","","image-button-response","252","903606","0.0-250.0-0.0","A15B9VEG75OAPW","img_art/24.jpg","2","","","","","","","","","","","","","","","","","","","","","","","","",""
"null","","html-keyboard-response","253","905107","0.0-251.0","A15B9VEG75OAPW","<p style=""font-size: 48px;"">+</p>","","","","","null","allTrialResponses","1500","1","29","img_art/24.jpg","36","Very beautiful water scape","Jose,Malik,Bryan,Gabriel,John,Brett","The combination of nature / realism with abstract colors is unique.,39,200,20","Very nice textures and subject,38,40,20","Abstract falls & nature.,41,400,20","this one is just a bit too harsh,-13,160,20","Beautiful.Nice use of colors and invokes feelings of serene and peace,40,120,20","Forest waterfall,40,360,20","Malik","Very nice textures and subject,38,40,20","Jose","The combination of nature / realism with abstract colors is unique.,39,200,20","Bryan","Abstract falls & nature.,41,400,20","3"
"11665","","survey-text","254","916775","0.0-252.0-0.0","A15B9VEG75OAPW","","","","{""Q0"":""abstract boquet of flowers or a book""}","","","","","","","","","","","","","","","","","","","","","","",""
"2397.7999999523163","","image-slider-response","255","919174","0.0-253.0","A15B9VEG75OAPW","","","","","-2","","","","","","","","","","","","","","","","","","","","","",""
"null","","image-button-response","256","924176","0.0-254.0","A15B9VEG75OAPW","img_art/14.jpg","null","","","","","","","","","","","","","","","","","","","","","","","","",""
"790","","image-button-response","257","924966","0.0-255.0","A15B9VEG75OAPW","img_art/14.jpg","5","","","","","","","","","","","","","","","","","","","","","","","","",""
"1423","","image-button-response","258","926390","0.0-256.0-0.0","A15B9VEG75OAPW","img_art/14.jpg","3","","","","","","","","","","","","","","","","","","","","","","","","",""
"1439","","image-button-response","259","927830","0.0-257.0-0.0","A15B9VEG75OAPW","img_art/14.jpg","2","","","","","","","","","","","","","","","","","","","","","","","","",""
"null","","html-keyboard-response","260","928332","0.0-258.0","A15B9VEG75OAPW","<p style=""font-size: 48px;"">+</p>","","","","","null","allTrialResponses","500","1","30","img_art/14.jpg","-2","abstract boquet of flowers or a book","Jose,Malik,Bryan,Daniel,Dylan,Scott","I don't like the color red,30,200,20","It's alright, something I'd see in a guest bedroom,10,40,20","Like some of the colors but not much else.,1,400,20","Baby's room palette with tree confusion in a more confused substrate.,-15,320,20","Pretty, dainty, unique,22,40,20","its okay nothing special,11,20,20","Scott","its okay nothing special,11,20,20","Daniel","Baby's room palette with tree confusion in a more confused substrate.,-15,320,20","Bryan","Like some of the colors but not much else.,1,400,20","3"
"3183","","image-button-response_instructions","261","931518","0.0-259.0","A15B9VEG75OAPW","","0","instructions","","","","","","","","","","","","","","","","","","","","","","","",""
"1100","","image-button-response","262","932622","0.0-260.0","A15B9VEG75OAPW","","0","","","","","","","","","","","","","","","","","","","","","","","","",""
