"rt","url","trial_type","trial_index","time_elapsed","internal_node_id","participant_id","stimulus","button_pressed","Name","responses","response","key_press","variableName","fixationTime","condition","trial","photo","subjectRating","subjectResponse","agentsNames","agent_1_Response","agent_2_Response","agent_3_Response","agent_4_Response","agent_5_Response","agent_6_Response","kept_1_name","kept_1_response","kept_2_name","kept_2_response","kept_3_name","kept_3_response","errorCounter"
"22486","external_page_harvard.html","external-html","0","22836","0.0-0.0","A169WH54HMYS5Z","","","","","","","","","","","","","","","","","","","","","","","","","","",""
"1748","","image-button-response","1","24592","0.0-1.0","A169WH54HMYS5Z","","1","","","","","","","","","","","","","","","","","","","","","","","","",""
"2714","","image-button-response","2","27335","0.0-2.0-0.0","A169WH54HMYS5Z","","1","phone","","","","","","","","","","","","","","","","","","","","","","","",""
"12409","","survey-text","3","39753","0.0-3.0-0.0","A169WH54HMYS5Z","","","","{""Q0"":""A169WH54HMYS5Z""}","","","","","","","","","","","","","","","","","","","","","","",""
"9082","","image-button-response_instructions","4","48844","0.0-4.0","A169WH54HMYS5Z","","0","instructions","","","","","","","","","","","","","","","","","","","","","","","",""
"23756","","image-button-response_instructions","5","72606","0.0-5.0","A169WH54HMYS5Z","img_art/ins/popularity/ins1.png","0","instructions","","","","","","","","","","","","","","","","","","","","","","","",""
"12070","","image-button-response_instructions","6","84686","0.0-6.0","A169WH54HMYS5Z","img_art/ins/popularity/ins2.png","0","instructions","","","","","","","","","","","","","","","","","","","","","","","",""
"12900","","image-button-response_instructions","7","97592","0.0-7.0","A169WH54HMYS5Z","img_art/ins/popularity/ins2Extreme.png","0","instructions","","","","","","","","","","","","","","","","","","","","","","","",""
"22550","","image-button-response_instructions","8","120148","0.0-8.0","A169WH54HMYS5Z","img_art/ins/popularity/ins3KEEPpop.PNG","0","instructions","","","","","","","","","","","","","","","","","","","","","","","",""
"4340","","image-button-response_instructions","9","124494","0.0-9.0","A169WH54HMYS5Z","img_art/ins/popularity/ins3ANamepop.PNG","0","instructions","","","","","","","","","","","","","","","","","","","","","","","",""
"4912","","image-button-response_instructions","10","129412","0.0-10.0","A169WH54HMYS5Z","img_art/ins/popularity/ins3ARatingpop.png","0","instructions","","","","","","","","","","","","","","","","","","","","","","","",""
"3868","","image-button-response_instructions","11","133286","0.0-11.0","A169WH54HMYS5Z","img_art/ins/popularity/ins3ATextpop.png","0","instructions","","","","","","","","","","","","","","","","","","","","","","","",""
"6370","","image-button-response_instructions","12","139661","0.0-12.0","A169WH54HMYS5Z","img_art/ins/popularity/ins3ALikespop.png","0","instructions","","","","","","","","","","","","","","","","","","","","","","","",""
"9220","","image-button-response_instructions","13","148887","0.0-13.0","A169WH54HMYS5Z","img_art/ins/popularity/ins3KEEPpop.PNG","0","instructions","","","","","","","","","","","","","","","","","","","","","","","",""
"30985","","image-button-response_instructions","14","179879","0.0-14.0","A169WH54HMYS5Z","img_art/ins/popularity/ins3_5RED.png","0","instructions","","","","","","","","","","","","","","","","","","","","","","","",""
"4503","","image-button-response_instructions","15","184392","0.0-15.0","A169WH54HMYS5Z","img_art/ins/popularity/ins3KEEPpop.PNG","0","instructions","","","","","","","","","","","","","","","","","","","","","","","",""
"10016","","image-button-response_instructions","16","194414","0.0-16.0","A169WH54HMYS5Z","img_art/ins/popularity/ins4KEEPpop.PNG","0","instructions","","","","","","","","","","","","","","","","","","","","","","","",""
"4274","","image-button-response_instructions","17","198693","0.0-17.0","A169WH54HMYS5Z","img_art/ins/popularity/ins5KEEPpop.PNG","0","instructions","","","","","","","","","","","","","","","","","","","","","","","",""
"2238","","image-button-response_instructions","18","200940","0.0-18.0","A169WH54HMYS5Z","","0","instructions","","","","","","","","","","","","","","","","","","","","","","","",""
"10086","","survey-text","19","211168","0.0-19.0-0.0","A169WH54HMYS5Z","","","","{""Q0"":""but""}","","","","","","","","","","","","","","","","","","","","","","",""
"14273","","survey-text","20","225449","0.0-20.0-0.0","A169WH54HMYS5Z","","","","{""Q0"":""colorful and fun""}","","","","","","","","","","","","","","","","","","","","","","",""
"6005.4000000059605","","image-slider-response","21","231468","0.0-21.0","A169WH54HMYS5Z","","","","","17","","","","","","","","","","","","","","","","","","","","","",""
"null","","image-button-response","22","236496","0.0-22.0","A169WH54HMYS5Z","img_art/ins/1.jpg","null","","","","","","","","","","","","","","","","","","","","","","","","",""
"1694","","image-button-response","23","238200","0.0-23.0","A169WH54HMYS5Z","img_art/ins/1.jpg","0","","","","","","","","","","","","","","","","","","","","","","","","",""
"5565","","image-button-response","24","243777","0.0-24.0-0.0","A169WH54HMYS5Z","img_art/ins/1.jpg","4","","","","","","","","","","","","","","","","","","","","","","","","",""
"3156","","image-button-response","25","246945","0.0-25.0-0.0","A169WH54HMYS5Z","img_art/ins/1.jpg","5","","","","","","","","","","","","","","","","","","","","","","","","",""
"null","","html-keyboard-response","26","247957","0.0-26.0","A169WH54HMYS5Z","<p style=""font-size: 48px;"">+</p>","","","","","null","allTrialResponses","1000","1","-2","img_art/ins/1.jpg","17","colorful and fun","Allison,Ashley,Beth,Dora,Erika,Jen","looks like a lot of things going on in the mist,20,20,20","I just don't get why these type of art would be popular,-32,40,20","This color reminds me of poo,-46,60,20","looks like what my niece in 3rd grade did this afternoon,-50,80,20","I like the sophisticated brushwork,40,100,20","It reminds me of a candy land dream I had,36,120,20","Allison","looks like a lot of things going on in the mist,20,20,20","Erika","I like the sophisticated brushwork,40,100,20","Jen","It reminds me of a candy land dream I had,36,120,20","0"
"16335","","survey-text","27","264320","0.0-27.0-0.0","A169WH54HMYS5Z","","","","{""Q0"":""gates of Hell""}","","","","","","","","","","","","","","","","","","","","","","",""
"7713.79999999702","","image-slider-response","28","272045","0.0-28.0","A169WH54HMYS5Z","","","","","-15","","","","","","","","","","","","","","","","","","","","","",""
"null","","image-button-response","29","277067","0.0-29.0","A169WH54HMYS5Z","img_art/ins/2.jpg","null","","","","","","","","","","","","","","","","","","","","","","","","",""
"5008","","image-button-response","30","282087","0.0-30.0","A169WH54HMYS5Z","img_art/ins/2.jpg","4","","","","","","","","","","","","","","","","","","","","","","","","",""
"3107","","image-button-response","31","285206","0.0-31.0-0.0","A169WH54HMYS5Z","img_art/ins/2.jpg","5","","","","","","","","","","","","","","","","","","","","","","","","",""
"4034","","image-button-response","32","289253","0.0-32.0-0.0","A169WH54HMYS5Z","img_art/ins/2.jpg","1","","","","","","","","","","","","","","","","","","","","","","","","",""
"null","","html-keyboard-response","33","289761","0.0-33.0","A169WH54HMYS5Z","<p style=""font-size: 48px;"">+</p>","","","","","null","allTrialResponses","500","1","-1","img_art/ins/2.jpg","-15","gates of Hell","Allison,Kara,Katie,Jenna,Erika,Jen","I don't have strong feelings about this,10,20,20","I like the blocks of color arrangements,30,160,20","too much color!,-28,180,20","One of my pet peevs,-48,140,20","I would never be able to compose a sophisticated pallete like this,48,100,20","It reminds me of a fireplace,36,120,20","Erika","I would never be able to compose a sophisticated pallete like this,48,100,20","Jen","It reminds me of a fireplace,36,120,20","Kara","I like the blocks of color arrangements,30,160,20","0"
"24162","","survey-text","34","313942","0.0-34.0-0.0","A169WH54HMYS5Z","","","","{""Q0"":""frosted windows on a cold day""}","","","","","","","","","","","","","","","","","","","","","","",""
"6324.29999999702","","image-slider-response","35","320276","0.0-35.0","A169WH54HMYS5Z","","","","","10","","","","","","","","","","","","","","","","","","","","","",""
"3325","","image-button-response","36","325294","0.0-36.0","A169WH54HMYS5Z","img_art/ins/3.jpg","0","","","","","","","","","","","","","","","","","","","","","","","","",""
"5813","","image-button-response","37","331115","0.0-37.0","A169WH54HMYS5Z","img_art/ins/3.jpg","4","","","","","","","","","","","","","","","","","","","","","","","","",""
"7769","","image-button-response","38","338892","0.0-38.0-0.0","A169WH54HMYS5Z","img_art/ins/3.jpg","1","","","","","","","","","","","","","","","","","","","","","","","","",""
"4639","","image-button-response","39","343543","0.0-39.0-0.0","A169WH54HMYS5Z","img_art/ins/3.jpg","0","","","","","","","","","","","","","","","","","","","","","","","","",""
"null","","html-keyboard-response","40","345052","0.0-40.0","A169WH54HMYS5Z","<p style=""font-size: 48px;"">+</p>","","","","","null","allTrialResponses","1500","1","0","img_art/ins/3.jpg","10","frosted windows on a cold day","Mary,Kara,Rose,Leslie,Erika,Jen","I like the overlapping of brushes,41,220,20","calming blue is very nice,36,160,20","My daily routine, it's depressing,-20,240,20","It's an alright work,15,200,20","I feel connected to the artist,40,100,20","I can feel a rainy day from this painting,18,120,20","Erika","I feel connected to the artist,40,100,20","Kara","calming blue is very nice,36,160,20","Mary","I like the overlapping of brushes,41,220,20","0"
"9875","","image-button-response_instructions","41","354949","0.0-41.0","A169WH54HMYS5Z","","0","instructions","","","","","","","","","","","","","","","","","","","","","","","",""
"18310","","survey-likert","42","373271","0.0-42.0-0.0","A169WH54HMYS5Z","","","","{""Q0"":"""",""Q1"":0,""Q2"":1}","","","","","","","","","","","","","","","","","","","","","","",""
"5471","","survey-text","43","378778","0.0-43.0-0.0","A169WH54HMYS5Z","","","","{""Q0"":""rock""}","","","","","","","","","","","","","","","","","","","","","","",""
"26356","","survey-text","44","405140","0.0-44.0-0.0","A169WH54HMYS5Z","","","","{""Q0"":""an elephant and buzzard in casual conversation""}","","","","","","","","","","","","","","","","","","","","","","",""
"9142.5","","image-slider-response","45","414294","0.0-45.0","A169WH54HMYS5Z","","","","","-7","","","","","","","","","","","","","","","","","","","","","",""
"null","","image-button-response","46","419455","0.0-46.0","A169WH54HMYS5Z","img_art/28.jpg","null","","","","","","","","","","","","","","","","","","","","","","","","",""
"1568","","image-button-response","47","421034","0.0-47.0","A169WH54HMYS5Z","img_art/28.jpg","3","","","","","","","","","","","","","","","","","","","","","","","","",""
"5048","","image-button-response","48","426092","0.0-48.0-0.0","A169WH54HMYS5Z","img_art/28.jpg","2","","","","","","","","","","","","","","","","","","","","","","","","",""
"16165","","image-button-response","49","442267","0.0-49.0-0.0","A169WH54HMYS5Z","img_art/28.jpg","0","","","","","","","","","","","","","","","","","","","","","","","","",""
"null","","html-keyboard-response","50","443778","0.0-50.0","A169WH54HMYS5Z","<p style=""font-size: 48px;"">+</p>","","","","","null","allTrialResponses","1500","1","1","img_art/28.jpg","-7","an elephant and buzzard in casual conversation","Lauren,Morgan,Destiny,Kylie,Rachel,Paige","I feel that the image is invoking a sense of negativity.,-15,340,20","Apartment throw up.,-5,380,20","I wish I knew why I liked it, maybes its the pinky tones,36,360,20","Overpopulated city,35,300,20","Too muted and bland. I like my art to be vivid.,-11,80,20","I just don't like it. It makes no sense to me,1,60,20","Kylie","Overpopulated city,35,300,20","Destiny","I wish I knew why I liked it, maybes its the pinky tones,36,360,20","Lauren","I feel that the image is invoking a sense of negativity.,-15,340,20","0"
"19914","","survey-text","51","463727","0.0-51.0-0.0","A169WH54HMYS5Z","","","","{""Q0"":""reminds me of pirates and a ship""}","","","","","","","","","","","","","","","","","","","","","","",""
"3665.7999999970198","","image-slider-response","52","467400","0.0-52.0","A169WH54HMYS5Z","","","","","-11","","","","","","","","","","","","","","","","","","","","","",""
"4991","","image-button-response","53","472409","0.0-53.0","A169WH54HMYS5Z","img_art/18.jpg","0","","","","","","","","","","","","","","","","","","","","","","","","",""
"10552","","image-button-response","54","482974","0.0-54.0","A169WH54HMYS5Z","img_art/18.jpg","3","","","","","","","","","","","","","","","","","","","","","","","","",""
"3781","","image-button-response","55","486770","0.0-55.0-0.0","A169WH54HMYS5Z","img_art/18.jpg","0","","","","","","","","","","","","","","","","","","","","","","","","",""
"16165","","image-button-response","56","502950","0.0-56.0-0.0","A169WH54HMYS5Z","img_art/18.jpg","5","","","","","","","","","","","","","","","","","","","","","","","","",""
"null","","html-keyboard-response","57","503967","0.0-57.0","A169WH54HMYS5Z","<p style=""font-size: 48px;"">+</p>","","","","","null","allTrialResponses","1000","1","2","img_art/18.jpg","-11","reminds me of pirates and a ship","Lauren,Madeline,Destiny,Kylie,Brooke,Alexis","I like how the image gives off an impression of bravery.,25,340,20","Good concept but then scribbled on a bit?,15,40,20","Can't tell if I love it or hate it. That response warranted more than neutral so I gave it 20 but not sure,21,360,20","Kind of weird in a confusing way,10,300,20","Don't like the color scheme. Or the theme.,-5,60,20","Crusade-feel, but a little too abstract for my taste,23,100,20","Kylie","Kind of weird in a confusing way,10,300,20","Lauren","I like how the image gives off an impression of bravery.,25,340,20","Alexis","Crusade-feel, but a little too abstract for my taste,23,100,20","0"
"36914","","survey-text","58","540915","0.0-58.0-0.0","A169WH54HMYS5Z","","","","{""Q0"":""looks like wasps in a nest  a bit anxious looking""}","","","","","","","","","","","","","","","","","","","","","","",""
"4952.600000008941","","image-slider-response","59","545882","0.0-59.0","A169WH54HMYS5Z","","","","","-21","","","","","","","","","","","","","","","","","","","","","",""
"null","","image-button-response","60","550906","0.0-60.0","A169WH54HMYS5Z","img_art/7.jpg","null","","","","","","","","","","","","","","","","","","","","","","","","",""
"566","","image-button-response","61","551483","0.0-61.0","A169WH54HMYS5Z","img_art/7.jpg","1","","","","","","","","","","","","","","","","","","","","","","","","",""
"4511","","image-button-response","62","556006","0.0-62.0-0.0","A169WH54HMYS5Z","img_art/7.jpg","5","","","","","","","","","","","","","","","","","","","","","","","","",""
"2907","","image-button-response","63","558924","0.0-63.0-0.0","A169WH54HMYS5Z","img_art/7.jpg","2","","","","","","","","","","","","","","","","","","","","","","","","",""
"null","","html-keyboard-response","64","560433","0.0-64.0","A169WH54HMYS5Z","<p style=""font-size: 48px;"">+</p>","","","","","null","allTrialResponses","1500","1","3","img_art/7.jpg","-21","looks like wasps in a nest  a bit anxious looking","Lauren,Sara,Grace,Kylie,Chloe,Alexis","I like how the image has a sense of history, since the style looks like it came from stone.,20,340,20","It feels cold and hard,-40,160,20","Makes me itch - looks like a closeup of an ant colony or something.,-1,180,20","No particular reaction to this,10,300,20","Like the tactile quality,30,220,20","Looks like bad wallpaper,-29,100,20","Sara","It feels cold and hard,-40,160,20","Alexis","Looks like bad wallpaper,-29,100,20","Grace","Makes me itch - looks like a closeup of an ant colony or something.,-1,180,20","0"
"20521","","survey-text","65","580990","0.0-65.0-0.0","A169WH54HMYS5Z","","","","{""Q0"":""happy street scene""}","","","","","","","","","","","","","","","","","","","","","","",""
"5969.0999999940395","","image-slider-response","66","586971","0.0-66.0","A169WH54HMYS5Z","","","","","17","","","","","","","","","","","","","","","","","","","","","",""
"null","","image-button-response","67","591988","0.0-67.0","A169WH54HMYS5Z","img_art/26.jpg","null","","","","","","","","","","","","","","","","","","","","","","","","",""
"379","","image-button-response","68","592377","0.0-68.0","A169WH54HMYS5Z","img_art/26.jpg","1","","","","","","","","","","","","","","","","","","","","","","","","",""
"3507","","image-button-response","69","595900","0.0-69.0-0.0","A169WH54HMYS5Z","img_art/26.jpg","4","","","","","","","","","","","","","","","","","","","","","","","","",""
"3248","","image-button-response","70","599162","0.0-70.0-0.0","A169WH54HMYS5Z","img_art/26.jpg","2","","","","","","","","","","","","","","","","","","","","","","","","",""
"null","","html-keyboard-response","71","599681","0.0-71.0","A169WH54HMYS5Z","<p style=""font-size: 48px;"">+</p>","","","","","null","allTrialResponses","500","1","4","img_art/26.jpg","17","happy street scene","Mary,Sara,Grace,Brittany,Kaylee,Alexis","I can tell it's some sort of outdoor scene. It looks very amateurish.,-9,180,20","I can somewhat city a city in this drawing,11,160,20","Like the muted colors & the scene which seems to be serene.,14,180,20","It looks boring and too rough.,-9,40,20","cool cozy town vibes,50,200,20","Much too simple and without color for my taste,-33,100,20","Sara","I can somewhat city a city in this drawing,11,160,20","Kaylee","cool cozy town vibes,50,200,20","Grace","Like the muted colors & the scene which seems to be serene.,14,180,20","0"
"41047","","survey-text","72","640761","0.0-72.0-0.0","A169WH54HMYS5Z","","","","{""Q0"":""warm soothing colors of woman and a harp""}","","","","","","","","","","","","","","","","","","","","","","",""
"5360.4000000059605","","image-slider-response","73","646129","0.0-73.0","A169WH54HMYS5Z","","","","","-9","","","","","","","","","","","","","","","","","","","","","",""
"null","","image-button-response","74","651154","0.0-74.0","A169WH54HMYS5Z","img_art/25.jpg","null","","","","","","","","","","","","","","","","","","","","","","","","",""
"5249","","image-button-response","75","656413","0.0-75.0","A169WH54HMYS5Z","img_art/25.jpg","4","","","","","","","","","","","","","","","","","","","","","","","","",""
"4990","","image-button-response","76","661412","0.0-76.0-0.0","A169WH54HMYS5Z","img_art/25.jpg","5","","","","","","","","","","","","","","","","","","","","","","","","",""
"2278","","image-button-response","77","663701","0.0-77.0-0.0","A169WH54HMYS5Z","img_art/25.jpg","2","","","","","","","","","","","","","","","","","","","","","","","","",""
"null","","html-keyboard-response","78","664708","0.0-78.0","A169WH54HMYS5Z","<p style=""font-size: 48px;"">+</p>","","","","","null","allTrialResponses","1000","1","5","img_art/25.jpg","-9","warm soothing colors of woman and a harp","Alyssa,Sara,Grace,Natalie,Kaylee,Dominique","Dark silhouette against the murky background Illicites an ominous feeling. Don't really like it.,-20,160,20","Green color is not my thing,-29,160,20","Scary. Something out of a Stephen King book/movie.,-31,180,20","my response to the picture its weird,-9,400,20","is this an ancient woman?,-16,200,20","Iike this picture; it speaks to me on a personal level. But seems to scare the ones around me.,7,400,20","Kaylee","is this an ancient woman?,-16,200,20","Dominique","Iike this picture; it speaks to me on a personal level. But seems to scare the ones around me.,7,400,20","Grace","Scary. Something out of a Stephen King book/movie.,-31,180,20","0"
"4912","","survey-text","79","669667","0.0-79.0-0.0","A169WH54HMYS5Z","","","","{""Q0"":""sky""}","","","","","","","","","","","","","","","","","","","","","","",""
"53691","","survey-text","80","723365","0.0-80.0-0.0","A169WH54HMYS5Z","","","","{""Q0"":""colors denote business and hurry""}","","","","","","","","","","","","","","","","","","","","","","",""
"3574.5999999940395","","image-slider-response","81","726948","0.0-81.0","A169WH54HMYS5Z","","","","","-13","","","","","","","","","","","","","","","","","","","","","",""
"3906","","image-button-response","82","731960","0.0-82.0","A169WH54HMYS5Z","img_art/19.jpg","0","","","","","","","","","","","","","","","","","","","","","","","","",""
"2279","","image-button-response","83","734247","0.0-83.0","A169WH54HMYS5Z","img_art/19.jpg","4","","","","","","","","","","","","","","","","","","","","","","","","",""
"9922","","image-button-response","84","744177","0.0-84.0-0.0","A169WH54HMYS5Z","img_art/19.jpg","5","","","","","","","","","","","","","","","","","","","","","","","","",""
"23046","","image-button-response","85","767235","0.0-85.0-0.0","A169WH54HMYS5Z","img_art/19.jpg","0","","","","","","","","","","","","","","","","","","","","","","","","",""
"null","","html-keyboard-response","86","767764","0.0-86.0","A169WH54HMYS5Z","<p style=""font-size: 48px;"">+</p>","","","","","null","allTrialResponses","500","1","6","img_art/19.jpg","-13","colors denote business and hurry","Sierra,Kathryn,Grace,Michelle,Kaylee,Dominique","green and orange are my favorite colors.  this cityscape feels warm,34,260,20","This one feels pretty neutral. Like a window into someone's life, one person in a bustling metropolis.,0,140,20","Looks like a child's rendering of a city street but not too sure.,0,180,20","I like the water but again, the small lines with no detail are irritating,3,280,20","beautiful old town,37,200,20","I really like the colors and feel of this one and alot of life,41,400,20","Kaylee","beautiful old town,37,200,20","Dominique","I really like the colors and feel of this one and alot of life,41,400,20","Sierra","green and orange are my favorite colors.  this cityscape feels warm,34,260,20","0"
"18916","","survey-text","87","786718","0.0-87.0-0.0","A169WH54HMYS5Z","","","","{""Q0"":""reminds me of fall and outside leaves""}","","","","","","","","","","","","","","","","","","","","","","",""
"4813.9000000059605","","image-slider-response","88","791542","0.0-88.0","A169WH54HMYS5Z","","","","","13","","","","","","","","","","","","","","","","","","","","","",""
"null","","image-button-response","89","796566","0.0-89.0","A169WH54HMYS5Z","img_art/27.jpg","null","","","","","","","","","","","","","","","","","","","","","","","","",""
"8867","","image-button-response","90","805442","0.0-90.0","A169WH54HMYS5Z","img_art/27.jpg","4","","","","","","","","","","","","","","","","","","","","","","","","",""
"6479","","image-button-response","91","811933","0.0-91.0-0.0","A169WH54HMYS5Z","img_art/27.jpg","5","","","","","","","","","","","","","","","","","","","","","","","","",""
"9257","","image-button-response","92","821204","0.0-92.0-0.0","A169WH54HMYS5Z","img_art/27.jpg","3","","","","","","","","","","","","","","","","","","","","","","","","",""
"null","","html-keyboard-response","93","822723","0.0-93.0","A169WH54HMYS5Z","<p style=""font-size: 48px;"">+</p>","","","","","null","allTrialResponses","1500","1","7","img_art/27.jpg","13","reminds me of fall and outside leaves","Sierra,Maria,Kimberly,Haley,Kaylee,Dominique","meh. it is neutral to me.,1,260,20","I generally enjoy the style, but I'm finding the green lines grating,-9,120,20","Nothing stands out,-23,260,20","First thought is again, that this looks like a child's art assignment,-20,220,20","nice firestorm on desert,23,200,20","A beautiful day full of Hope and Inspiritation. The warmth of hot cocoa with the family gathering around,33,400,20","Kaylee","nice firestorm on desert,23,200,20","Dominique","A beautiful day full of Hope and Inspiritation. The warmth of hot cocoa with the family gathering around,33,400,20","Haley","First thought is again, that this looks like a child's art assignment,-20,220,20","0"
"25528","","survey-text","94","848284","0.0-94.0-0.0","A169WH54HMYS5Z","","","","{""Q0"":""music on the side, dark lines, rather depressing""}","","","","","","","","","","","","","","","","","","","","","","",""
"3249.5999999940395","","image-slider-response","95","851543","0.0-95.0","A169WH54HMYS5Z","","","","","-44","","","","","","","","","","","","","","","","","","","","","",""
"2157","","image-button-response","96","856555","0.0-96.0","A169WH54HMYS5Z","img_art/10.jpg","0","","","","","","","","","","","","","","","","","","","","","","","","",""
"11427","","image-button-response","97","867995","0.0-97.0","A169WH54HMYS5Z","img_art/10.jpg","3","","","","","","","","","","","","","","","","","","","","","","","","",""
"2886","","image-button-response","98","870890","0.0-98.0-0.0","A169WH54HMYS5Z","img_art/10.jpg","0","","","","","","","","","","","","","","","","","","","","","","","","",""
"1614","","image-button-response","99","872516","0.0-99.0-0.0","A169WH54HMYS5Z","img_art/10.jpg","5","","","","","","","","","","","","","","","","","","","","","","","","",""
"null","","html-keyboard-response","100","873523","0.0-100.0","A169WH54HMYS5Z","<p style=""font-size: 48px;"">+</p>","","","","","null","allTrialResponses","1000","1","8","img_art/10.jpg","-44","music on the side, dark lines, rather depressing","Angelica,Shannon,Kaitlin,Haley,Kaylee,Dominique","This is odd and ugly.,-9,280,20","I can't tell what this picture is supposed to mean and I think the colors are lacking variety.,-42,220,20","awww... this looks very nice,32,60,20","Makes me want to know more about it, and potentially the artist.,20,220,20","a blue whale on the sea,12,200,20","A very conversational piece could be of many different ideas,38,400,20","Haley","Makes me want to know more about it, and potentially the artist.,20,220,20","Angelica","This is odd and ugly.,-9,280,20","Dominique","A very conversational piece could be of many different ideas,38,400,20","0"
"16601","","survey-text","101","890167","0.0-101.0-0.0","A169WH54HMYS5Z","","","","{""Q0"":""bright and cheerful  like a pear""}","","","","","","","","","","","","","","","","","","","","","","",""
"8640.09999999404","","image-slider-response","102","898818","0.0-102.0","A169WH54HMYS5Z","","","","","33","","","","","","","","","","","","","","","","","","","","","",""
"2562","","image-button-response","103","903829","0.0-103.0","A169WH54HMYS5Z","img_art/5.jpg","0","","","","","","","","","","","","","","","","","","","","","","","","",""
"4111","","image-button-response","104","907954","0.0-104.0","A169WH54HMYS5Z","img_art/5.jpg","4","","","","","","","","","","","","","","","","","","","","","","","","",""
"8446","","image-button-response","105","916414","0.0-105.0-0.0","A169WH54HMYS5Z","img_art/5.jpg","5","","","","","","","","","","","","","","","","","","","","","","","","",""
"4801","","image-button-response","106","921227","0.0-106.0-0.0","A169WH54HMYS5Z","img_art/5.jpg","0","","","","","","","","","","","","","","","","","","","","","","","","",""
"null","","html-keyboard-response","107","922235","0.0-107.0","A169WH54HMYS5Z","<p style=""font-size: 48px;"">+</p>","","","","","null","allTrialResponses","1000","1","9","img_art/5.jpg","33","bright and cheerful  like a pear","Angelica,Autumn,Briana,Haley,Kayla,Dominique","This is interesting and nice.,16,280,20","Appealing but shapeless,24,340,20","It looks like a poorly drawn pear,17,400,20","I'm confused by what I am looking at,-3,220,20","I like that the pyramid is putting off a beacon of light.,11,180,20","It speaks volumes to some. It's also a conversational piece. And very different ideas,34,400,20","Kayla","I like that the pyramid is putting off a beacon of light.,11,180,20","Dominique","It speaks volumes to some. It's also a conversational piece. And very different ideas,34,400,20","Angelica","This is interesting and nice.,16,280,20","0"
"28269","","survey-text","108","950529","0.0-108.0-0.0","A169WH54HMYS5Z","","","","{""Q0"":""looks like a long line of people playing instruments  very chaotic""}","","","","","","","","","","","","","","","","","","","","","","",""
"5027.600000008941","","image-slider-response","109","955566","0.0-109.0","A169WH54HMYS5Z","","","","","-41","","","","","","","","","","","","","","","","","","","","","",""
"3405","","image-button-response","110","960588","0.0-110.0","A169WH54HMYS5Z","img_art/23.jpg","0","","","","","","","","","","","","","","","","","","","","","","","","",""
"4466","","image-button-response","111","965066","0.0-111.0","A169WH54HMYS5Z","img_art/23.jpg","2","","","","","","","","","","","","","","","","","","","","","","","","",""
"9368","","image-button-response","112","974443","0.0-112.0-0.0","A169WH54HMYS5Z","img_art/23.jpg","4","","","","","","","","","","","","","","","","","","","","","","","","",""
"8165","","image-button-response","113","982622","0.0-113.0-0.0","A169WH54HMYS5Z","img_art/23.jpg","5","","","","","","","","","","","","","","","","","","","","","","","","",""
"null","","html-keyboard-response","114","983637","0.0-114.0","A169WH54HMYS5Z","<p style=""font-size: 48px;"">+</p>","","","","","null","allTrialResponses","1000","1","10","img_art/23.jpg","-41","looks like a long line of people playing instruments  very chaotic","Angelica,Allison,Makayla,Cynthia,Kayla,Dominique","This looks like hotel room art, it's ugly and odd.,-2,280,20","I like the color contrast, though I'm unable to tell what the white shapes are.,25,140,20","Reminds me of disco/70's, not my favorite design,-12,80,20","puzzled with curiosity,31,320,20","Like a wound that has been sutured. Pain, but also healing.,5,180,20","Very happy , busy , free, and full of Hope,28,400,20","Makayla","Reminds me of disco/70's, not my favorite design,-12,80,20","Kayla","Like a wound that has been sutured. Pain, but also healing.,5,180,20","Dominique","Very happy , busy , free, and full of Hope,28,400,20","0"
"5251","","survey-text","115","988939","0.0-115.0-0.0","A169WH54HMYS5Z","","","","{""Q0"":""our""}","","","","","","","","","","","","","","","","","","","","","","",""
"24157","","survey-text","116","1013103","0.0-116.0-0.0","A169WH54HMYS5Z","","","","{""Q0"":""looks like a window on a rainy day""}","","","","","","","","","","","","","","","","","","","","","","",""
"5278.600000008941","","image-slider-response","117","1018392","0.0-117.0","A169WH54HMYS5Z","","","","","5","","","","","","","","","","","","","","","","","","","","","",""
"2752","","image-button-response","118","1023400","0.0-118.0","A169WH54HMYS5Z","img_art/13.jpg","0","","","","","","","","","","","","","","","","","","","","","","","","",""
"6606","","image-button-response","119","1030019","0.0-119.0","A169WH54HMYS5Z","img_art/13.jpg","2","","","","","","","","","","","","","","","","","","","","","","","","",""
"2245","","image-button-response","120","1032274","0.0-120.0-0.0","A169WH54HMYS5Z","img_art/13.jpg","0","","","","","","","","","","","","","","","","","","","","","","","","",""
"1224","","image-button-response","121","1033506","0.0-121.0-0.0","A169WH54HMYS5Z","img_art/13.jpg","0","","","","","","","","","","","","","","","","","","","","","","","","",""
"9195","","image-button-response","122","1046752","0.0-121.1-0.1","A169WH54HMYS5Z","img_art/13.jpg","5","","","","","","","","","","","","","","","","","","","","","","","","",""
"null","","html-keyboard-response","123","1048269","0.0-122.0","A169WH54HMYS5Z","<p style=""font-size: 48px;"">+</p>","","","","","null","allTrialResponses","1500","1","11","img_art/13.jpg","5","looks like a window on a rainy day","Vanessa,Miranda,Makayla,Angela,Kayla,Dominique","I love the colors and the contrast between the different blues.,21,380,20","This looks like something that could be made off of windows paint, not a huge fan.,-30,320,20","Reminds me of the aquarium,4,80,20","It's okay. Feels like a blander take on a Jackson Pollack,11,260,20","Pleasing, happy, rainy.,12,180,20","I love the colors reminds me of a rainy day..it's calm and relaxing,32,400,20","Makayla","Reminds me of the aquarium,4,80,20","Vanessa","I love the colors and the contrast between the different blues.,21,380,20","Dominique","I love the colors reminds me of a rainy day..it's calm and relaxing,32,400,20","2"
"21121","","survey-text","124","1069425","0.0-123.0-0.0","A169WH54HMYS5Z","","","","{""Q0"":""reminds me of an opening of the soul""}","","","","","","","","","","","","","","","","","","","","","","",""
"5171.79999999702","","image-slider-response","125","1074609","0.0-124.0","A169WH54HMYS5Z","","","","","26","","","","","","","","","","","","","","","","","","","","","",""
"4965","","image-button-response","126","1079618","0.0-125.0","A169WH54HMYS5Z","img_art/21.jpg","0","","","","","","","","","","","","","","","","","","","","","","","","",""
"2985","","image-button-response","127","1082610","0.0-126.0","A169WH54HMYS5Z","img_art/21.jpg","3","","","","","","","","","","","","","","","","","","","","","","","","",""
"7512","","image-button-response","128","1090131","0.0-127.0-0.0","A169WH54HMYS5Z","img_art/21.jpg","2","","","","","","","","","","","","","","","","","","","","","","","","",""
"3988","","image-button-response","129","1094130","0.0-128.0-0.0","A169WH54HMYS5Z","img_art/21.jpg","0","","","","","","","","","","","","","","","","","","","","","","","","",""
"null","","html-keyboard-response","130","1095148","0.0-129.0","A169WH54HMYS5Z","<p style=""font-size: 48px;"">+</p>","","","","","null","allTrialResponses","1000","1","12","img_art/21.jpg","26","reminds me of an opening of the soul","Vanessa,Kaitlyn,Makayla,Shelby,Marissa,Dominique","The colors and softness work together to make something that's lovely.,42,380,20","The division in the picture is pleasing but the random white dots are distracting,12,80,20","I like the two sides meeting, like a movie scene,15,80,20","Very calming and soft, makes me feel good,31,240,20","I feel confused,-18,160,20","Love the colors have to say this is my favorite above all,37,400,20","Shelby","Very calming and soft, makes me feel good,31,240,20","Makayla","I like the two sides meeting, like a movie scene,15,80,20","Vanessa","The colors and softness work together to make something that's lovely.,42,380,20","2"
"44535","","survey-text","131","1139714","0.0-130.0-0.0","A169WH54HMYS5Z","","","","{""Q0"":""looks like telephone wires strung across a field""}","","","","","","","","","","","","","","","","","","","","","","",""
"4393.399999991059","","image-slider-response","132","1144116","0.0-131.0","A169WH54HMYS5Z","","","","","-9","","","","","","","","","","","","","","","","","","","","","",""
"3879","","image-button-response","133","1149131","0.0-132.0","A169WH54HMYS5Z","img_art/11.jpg","0","","","","","","","","","","","","","","","","","","","","","","","","",""
"2454","","image-button-response","134","1151597","0.0-133.0","A169WH54HMYS5Z","img_art/11.jpg","0","","","","","","","","","","","","","","","","","","","","","","","","",""
"1240","","image-button-response","135","1152845","0.0-134.0-0.0","A169WH54HMYS5Z","img_art/11.jpg","1","","","","","","","","","","","","","","","","","","","","","","","","",""
"8208","","image-button-response","136","1161068","0.0-135.0-0.0","A169WH54HMYS5Z","img_art/11.jpg","4","","","","","","","","","","","","","","","","","","","","","","","","",""
"null","","html-keyboard-response","137","1162076","0.0-136.0","A169WH54HMYS5Z","<p style=""font-size: 48px;"">+</p>","","","","","null","allTrialResponses","1000","1","13","img_art/11.jpg","-9","looks like telephone wires strung across a field","Vanessa,Amber,Makayla,Shelby,Tiffany,Leslie","It makes me think of a rainy day and I like the colors. Also like the wavy lines.,22,380,20","Look like it's in constant movement.,10,200,20","Smoggy, oily, industrial. Don't like,1,80,20","The movement in this one is extremely pleasent,40,240,20","I feel excited, like I'm in the middle of a bustling city.,26,360,20","This elicits no reaction in me.,0,380,20","Vanessa","It makes me think of a rainy day and I like the colors. Also like the wavy lines.,22,380,20","Amber","Look like it's in constant movement.,10,200,20","Tiffany","I feel excited, like I'm in the middle of a bustling city.,26,360,20","2"
"68396","","survey-text","138","1230505","0.0-137.0-0.0","A169WH54HMYS5Z","","","","{""Q0"":""scary piece like a boomerang knife slicing along the way""}","","","","","","","","","","","","","","","","","","","","","","",""
"4787.399999991059","","image-slider-response","139","1235306","0.0-138.0","A169WH54HMYS5Z","","","","","-27","","","","","","","","","","","","","","","","","","","","","",""
"3285","","image-button-response","140","1240319","0.0-139.0","A169WH54HMYS5Z","img_art/3.jpg","0","","","","","","","","","","","","","","","","","","","","","","","","",""
"847","","image-button-response","141","1241183","0.0-140.0","A169WH54HMYS5Z","img_art/3.jpg","1","","","","","","","","","","","","","","","","","","","","","","","","",""
"15099","","image-button-response","142","1256291","0.0-141.0-0.0","A169WH54HMYS5Z","img_art/3.jpg","4","","","","","","","","","","","","","","","","","","","","","","","","",""
"6725","","image-button-response","143","1263029","0.0-142.0-0.0","A169WH54HMYS5Z","img_art/3.jpg","0","","","","","","","","","","","","","","","","","","","","","","","","",""
"null","","html-keyboard-response","144","1264037","0.0-143.0","A169WH54HMYS5Z","<p style=""font-size: 48px;"">+</p>","","","","","null","allTrialResponses","1000","1","14","img_art/3.jpg","-27","scary piece like a boomerang knife slicing along the way","Vanessa,Amber,Hannah,Mackenzie,Tiffany,Sabrina","It makes me think of just an angry scribble. There's no beauty to it for me.,-50,380,20","seems to be a lot of angry scribble.,-20,200,20","Looks like a Basquiat but just not my cup of tea.,-29,240,20","I like the simplicity of it.,20,20,20","I feel uncomfortable, like I am looking at a crime scene.,-17,360,20","I dont really feel anything from this, i cant see or understand any of it,-20,120,20","Amber","seems to be a lot of angry scribble.,-20,200,20","Tiffany","I feel uncomfortable, like I am looking at a crime scene.,-17,360,20","Vanessa","It makes me think of just an angry scribble. There's no beauty to it for me.,-50,380,20","2"
"35746","","survey-text","145","1299825","0.0-144.0-0.0","A169WH54HMYS5Z","","","","{""Q0"":""boy floating up on a balloon, lovely bright colors""}","","","","","","","","","","","","","","","","","","","","","","",""
"5031.29999999702","","image-slider-response","146","1304867","0.0-145.0","A169WH54HMYS5Z","","","","","20","","","","","","","","","","","","","","","","","","","","","",""
"3927","","image-button-response","147","1309877","0.0-146.0","A169WH54HMYS5Z","img_art/22.jpg","1","","","","","","","","","","","","","","","","","","","","","","","","",""
"13642","","image-button-response","148","1323535","0.0-147.0","A169WH54HMYS5Z","img_art/22.jpg","2","","","","","","","","","","","","","","","","","","","","","","","","",""
"6373","","image-button-response","149","1329920","0.0-148.0-0.0","A169WH54HMYS5Z","img_art/22.jpg","1","","","","","","","","","","","","","","","","","","","","","","","","",""
"7918","","image-button-response","150","1337849","0.0-149.0-0.0","A169WH54HMYS5Z","img_art/22.jpg","4","","","","","","","","","","","","","","","","","","","","","","","","",""
"null","","html-keyboard-response","151","1339358","0.0-150.0","A169WH54HMYS5Z","<p style=""font-size: 48px;"">+</p>","","","","","null","allTrialResponses","1500","1","15","img_art/22.jpg","20","boy floating up on a balloon, lovely bright colors","Vanessa,Amber,Madison,Savannah,Tiffany,Andrea","I don't like the colors or the way they've been arranged.,-20,380,20","Colors are bright and cheerful.,5,200,20","Like the colors, and the even blur. The more I look, the more a story forms. A very narrative image.,18,60,20","Seems too simple.,-19,200,20","The painting makes me feel a little sad.,12,360,20","I don't feel much of anything.,0,240,20","Madison","Like the colors, and the even blur. The more I look, the more a story forms. A very narrative image.,18,60,20","Amber","Colors are bright and cheerful.,5,200,20","Tiffany","The painting makes me feel a little sad.,12,360,20","2"
"6011","","survey-text","152","1345427","0.0-151.0-0.0","A169WH54HMYS5Z","","","","{""Q0"":""course""}","","","","","","","","","","","","","","","","","","","","","","",""
"17341","","survey-text","153","1362779","0.0-152.0-0.0","A169WH54HMYS5Z","","","","{""Q0"":""reminds me of a waterfall""}","","","","","","","","","","","","","","","","","","","","","","",""
"5000.29999999702","","image-slider-response","154","1367789","0.0-153.0","A169WH54HMYS5Z","","","","","16","","","","","","","","","","","","","","","","","","","","","",""
"3107","","image-button-response","155","1372804","0.0-154.0","A169WH54HMYS5Z","img_art/30.jpg","1","","","","","","","","","","","","","","","","","","","","","","","","",""
"7010","","image-button-response","156","1379827","0.0-155.0","A169WH54HMYS5Z","img_art/30.jpg","5","","","","","","","","","","","","","","","","","","","","","","","","",""
"3071","","image-button-response","157","1382916","0.0-156.0-0.0","A169WH54HMYS5Z","img_art/30.jpg","4","","","","","","","","","","","","","","","","","","","","","","","","",""
"6744","","image-button-response","158","1389672","0.0-157.0-0.0","A169WH54HMYS5Z","img_art/30.jpg","1","","","","","","","","","","","","","","","","","","","","","","","","",""
"null","","html-keyboard-response","159","1391179","0.0-158.0","A169WH54HMYS5Z","<p style=""font-size: 48px;"">+</p>","","","","","null","allTrialResponses","1500","1","16","img_art/30.jpg","16","reminds me of a waterfall","Jordan,Amber,Madison,Sarah,Tiffany,Rebecca","cant see the meaning behind it,-20,20,20","fresh and bold. outgoing.,15,200,20","Interesting brushstroke work, but not particularly memorable.,21,60,20","looks simple, I can't see a lot of care going into this,-33,180,20","The painting doesn't elicit any response from me.,0,360,20","don't know but it somehow speaks to me,29,100,20","Rebecca","don't know but it somehow speaks to me,29,100,20","Tiffany","The painting doesn't elicit any response from me.,0,360,20","Amber","fresh and bold. outgoing.,15,200,20","2"
"16948","","survey-text","160","1408153","0.0-159.0-0.0","A169WH54HMYS5Z","","","","{""Q0"":""elements of nature""}","","","","","","","","","","","","","","","","","","","","","","",""
"4305.5","","image-slider-response","161","1412467","0.0-160.0","A169WH54HMYS5Z","","","","","14","","","","","","","","","","","","","","","","","","","","","",""
"null","","image-button-response","162","1417482","0.0-161.0","A169WH54HMYS5Z","img_art/6.jpg","null","","","","","","","","","","","","","","","","","","","","","","","","",""
"1231","","image-button-response","163","1418724","0.0-162.0","A169WH54HMYS5Z","img_art/6.jpg","1","","","","","","","","","","","","","","","","","","","","","","","","",""
"3879","","image-button-response","164","1422614","0.0-163.0-0.0","A169WH54HMYS5Z","img_art/6.jpg","2","","","","","","","","","","","","","","","","","","","","","","","","",""
"7252","","image-button-response","165","1429881","0.0-164.0-0.0","A169WH54HMYS5Z","img_art/6.jpg","4","","","","","","","","","","","","","","","","","","","","","","","","",""
"null","","html-keyboard-response","166","1430408","0.0-165.0","A169WH54HMYS5Z","<p style=""font-size: 48px;"">+</p>","","","","","null","allTrialResponses","500","1","17","img_art/6.jpg","14","elements of nature","Nicole,Amber,Sophia,Taylor,Tiffany,Rebecca","The colors and rough brush strokes make me nervous,-10,20,20","Something very simplistic about it. The colors mesh well.,10,200,20","It's okay. It kind of looks like a bird with his head buried in his feathers.,2,280,20","Reminds me of my friend's bird,21,340,20","The painting makes me happy. Like I'm looking at a little bird.,6,360,20","??????? fake floating leaf? headless bird,-28,100,20","Amber","Something very simplistic about it. The colors mesh well.,10,200,20","Sophia","It's okay. It kind of looks like a bird with his head buried in his feathers.,2,280,20","Tiffany","The painting makes me happy. Like I'm looking at a little bird.,6,360,20","2"
"23709","","survey-text","167","1454152","0.0-166.0-0.0","A169WH54HMYS5Z","","","","{""Q0"":""don't like looks like an open mouthed nonster""}","","","","","","","","","","","","","","","","","","","","","","",""
"4473","","image-slider-response","168","1458633","0.0-167.0","A169WH54HMYS5Z","","","","","-47","","","","","","","","","","","","","","","","","","","","","",""
"null","","image-button-response","169","1463660","0.0-168.0","A169WH54HMYS5Z","img_art/9.jpg","null","","","","","","","","","","","","","","","","","","","","","","","","",""
"12183","","image-button-response","170","1475852","0.0-169.0","A169WH54HMYS5Z","img_art/9.jpg","1","","","","","","","","","","","","","","","","","","","","","","","","",""
"3671","","image-button-response","171","1479533","0.0-170.0-0.0","A169WH54HMYS5Z","img_art/9.jpg","3","","","","","","","","","","","","","","","","","","","","","","","","",""
"1747","","image-button-response","172","1481294","0.0-171.0-0.0","A169WH54HMYS5Z","img_art/9.jpg","4","","","","","","","","","","","","","","","","","","","","","","","","",""
"null","","html-keyboard-response","173","1481802","0.0-172.0","A169WH54HMYS5Z","<p style=""font-size: 48px;"">+</p>","","","","","null","allTrialResponses","500","1","18","img_art/9.jpg","-47","don't like looks like an open mouthed nonster","Alexandria,Amber,Sophia,Samantha,Tiffany,Sydney","it makes me feel excited and draws my eye around,24,80,20","looks like sleeping beauty in a garden,10,200,20","Yikes. I'm not sure what to make of this one.,-14,280,20","Some nice colors but i do not like it,-18,140,20","The piece of art makes me happy, it reminds me of a lively carnival.,15,360,20","I see some of my favorite colors which I like, but I don't like what's portrayed.,35,320,20","Amber","looks like sleeping beauty in a garden,10,200,20","Samantha","Some nice colors but i do not like it,-18,140,20","Tiffany","The piece of art makes me happy, it reminds me of a lively carnival.,15,360,20","2"
"16160","","survey-text","174","1497999","0.0-173.0-0.0","A169WH54HMYS5Z","","","","{""Q0"":""stormy fall day""}","","","","","","","","","","","","","","","","","","","","","","",""
"9288.70000000298","","image-slider-response","175","1507298","0.0-174.0","A169WH54HMYS5Z","","","","","16","","","","","","","","","","","","","","","","","","","","","",""
"null","","image-button-response","176","1512329","0.0-175.0","A169WH54HMYS5Z","img_art/17.jpg","null","","","","","","","","","","","","","","","","","","","","","","","","",""
"4715","","image-button-response","177","1517058","0.0-176.0","A169WH54HMYS5Z","img_art/17.jpg","3","","","","","","","","","","","","","","","","","","","","","","","","",""
"1893","","image-button-response","178","1518965","0.0-177.0-0.0","A169WH54HMYS5Z","img_art/17.jpg","4","","","","","","","","","","","","","","","","","","","","","","","","",""
"1899","","image-button-response","179","1520877","0.0-178.0-0.0","A169WH54HMYS5Z","img_art/17.jpg","5","","","","","","","","","","","","","","","","","","","","","","","","",""
"null","","html-keyboard-response","180","1522383","0.0-179.0","A169WH54HMYS5Z","<p style=""font-size: 48px;"">+</p>","","","","","null","allTrialResponses","1500","1","19","img_art/17.jpg","16","stormy fall day","Emily,Amber,Victoria,Samantha,Tiffany,Claire","There is better structure and direction in this one.,19,40,20","Don't really like pastels.,-10,200,20","love the wispyness of it,34,400,20","Nice colors, shapes, flow,31,140,20","The painting makes me feel relaxed, and a bit lonely, like I'm sitting at a park waiting for someone.,30,360,20","its whimsical and light,50,260,20","Samantha","Nice colors, shapes, flow,31,140,20","Tiffany","The painting makes me feel relaxed, and a bit lonely, like I'm sitting at a park waiting for someone.,30,360,20","Claire","its whimsical and light,50,260,20","2"
"19867","","survey-text","181","1542277","0.0-180.0-0.0","A169WH54HMYS5Z","","","","{""Q0"":""dark and a bit sad""}","","","","","","","","","","","","","","","","","","","","","","",""
"7569.79999999702","","image-slider-response","182","1549862","0.0-181.0","A169WH54HMYS5Z","","","","","-40","","","","","","","","","","","","","","","","","","","","","",""
"null","","image-button-response","183","1554882","0.0-182.0","A169WH54HMYS5Z","img_art/15.jpg","null","","","","","","","","","","","","","","","","","","","","","","","","",""
"1279","","image-button-response","184","1556172","0.0-183.0","A169WH54HMYS5Z","img_art/15.jpg","0","","","","","","","","","","","","","","","","","","","","","","","","",""
"5683","","image-button-response","185","1561870","0.0-184.0-0.0","A169WH54HMYS5Z","img_art/15.jpg","3","","","","","","","","","","","","","","","","","","","","","","","","",""
"9758","","image-button-response","186","1571643","0.0-185.0-0.0","A169WH54HMYS5Z","img_art/15.jpg","5","","","","","","","","","","","","","","","","","","","","","","","","",""
"null","","html-keyboard-response","187","1572150","0.0-186.0","A169WH54HMYS5Z","<p style=""font-size: 48px;"">+</p>","","","","","null","allTrialResponses","500","1","20","img_art/15.jpg","-40","dark and a bit sad","Chelsea,Emma,Laura,Samantha,Tiffany,Claire","The colors are too busy.,-39,180,20","Don't love it but it's cute,16,60,20","abrasive, rough, uneven,-31,320,20","Not interesting enough. Boring,-37,140,20","The painting is very relaxing, I'm reminded of sitting in a garden in the evening.,8,360,20","it's alright but a little cluttered,14,260,20","Chelsea","The colors are too busy.,-39,180,20","Samantha","Not interesting enough. Boring,-37,140,20","Claire","it's alright but a little cluttered,14,260,20","2"
"11225","","survey-text","188","1583431","0.0-187.0-0.0","A169WH54HMYS5Z","","","","{""Q0"":""we""}","","","","","","","","","","","","","","","","","","","","","","",""
"17688","","survey-text","189","1601125","0.0-188.0-0.0","A169WH54HMYS5Z","","","","{""Q0"":""looks like a rabbit has it by the foot""}","","","","","","","","","","","","","","","","","","","","","","",""
"19018.60000000894","","image-slider-response","190","1620153","0.0-189.0","A169WH54HMYS5Z","","","","","6","","","","","","","","","","","","","","","","","","","","","",""
"2671","","image-button-response","191","1625178","0.0-190.0","A169WH54HMYS5Z","img_art/24.jpg","0","","","","","","","","","","","","","","","","","","","","","","","","",""
"12717","","image-button-response","192","1637908","0.0-191.0","A169WH54HMYS5Z","img_art/24.jpg","2","","","","","","","","","","","","","","","","","","","","","","","","",""
"2341","","image-button-response","193","1640261","0.0-192.0-0.0","A169WH54HMYS5Z","img_art/24.jpg","0","","","","","","","","","","","","","","","","","","","","","","","","",""
"1002","","image-button-response","194","1641276","0.0-193.0-0.0","A169WH54HMYS5Z","img_art/24.jpg","0","","","","","","","","","","","","","","","","","","","","","","","","",""
"742","","image-button-response","195","1649707","0.0-193.1-0.1","A169WH54HMYS5Z","img_art/24.jpg","4","","","","","","","","","","","","","","","","","","","","","","","","",""
"null","","html-keyboard-response","196","1651218","0.0-194.0","A169WH54HMYS5Z","<p style=""font-size: 48px;"">+</p>","","","","","null","allTrialResponses","1500","1","21","img_art/24.jpg","6","looks like a rabbit has it by the foot","Chelsea,Jasmine,Caroline,Samantha,Heather,Claire","The colors are relaxing and cheerful.,32,180,20","This one is nice because it reminds me of nature,18,340,20","Waterfalls and spring and gives me a sense of renewal,34,100,20","Happy and relaxing bubbling brook,37,140,20","i feel peace and wanting. i love waterfalls,50,260,20","reminds me of a beautiful waterfall,50,260,20","Caroline","Waterfalls and spring and gives me a sense of renewal,34,100,20","Chelsea","The colors are relaxing and cheerful.,32,180,20","Heather","i feel peace and wanting. i love waterfalls,50,260,20","4"
"26167","","survey-text","197","1677425","0.0-195.0-0.0","A169WH54HMYS5Z","","","","{""Q0"":""bright multi faceted""}","","","","","","","","","","","","","","","","","","","","","","",""
"4191.5","","image-slider-response","198","1681625","0.0-196.0","A169WH54HMYS5Z","","","","","15","","","","","","","","","","","","","","","","","","","","","",""
"null","","image-button-response","199","1686641","0.0-197.0","A169WH54HMYS5Z","img_art/12.jpg","null","","","","","","","","","","","","","","","","","","","","","","","","",""
"2975","","image-button-response","200","1689629","0.0-198.0","A169WH54HMYS5Z","img_art/12.jpg","0","","","","","","","","","","","","","","","","","","","","","","","","",""
"25512","","image-button-response","201","1715152","0.0-199.0-0.0","A169WH54HMYS5Z","img_art/12.jpg","3","","","","","","","","","","","","","","","","","","","","","","","","",""
"15439","","image-button-response","202","1730603","0.0-200.0-0.0","A169WH54HMYS5Z","img_art/12.jpg","5","","","","","","","","","","","","","","","","","","","","","","","","",""
"null","","html-keyboard-response","203","1732126","0.0-201.0","A169WH54HMYS5Z","<p style=""font-size: 48px;"">+</p>","","","","","null","allTrialResponses","1500","1","22","img_art/12.jpg","15","bright multi faceted","Chelsea,Michaela,Caroline,Isabella,Heather,Alexa","I like the gradient of little color on the top to colorful on the bottom.,24,180,20","It looks like old lady upholstery,12,260,20","I like the colors in both sections, brights compared to neutrals. Each block has a different view. I think of the future,11,100,20","Something you would see in a government building hallway,3,280,20","beautiful also reminds me of a quilt,1,260,20","I love the pattern and this looks like it took a good deal of effort,35,40,20","Chelsea","I like the gradient of little color on the top to colorful on the bottom.,24,180,20","Isabella","Something you would see in a government building hallway,3,280,20","Alexa","I love the pattern and this looks like it took a good deal of effort,35,40,20","4"
"36262","","survey-text","204","1768423","0.0-202.0-0.0","A169WH54HMYS5Z","","","","{""Q0"":""beautiful intertwining of colors  frog waving HIT!""}","","","","","","","","","","","","","","","","","","","","","","",""
"6274.79999999702","","image-slider-response","205","1774713","0.0-203.0","A169WH54HMYS5Z","","","","","10","","","","","","","","","","","","","","","","","","","","","",""
"null","","image-button-response","206","1779726","0.0-204.0","A169WH54HMYS5Z","img_art/1.jpg","null","","","","","","","","","","","","","","","","","","","","","","","","",""
"4066","","image-button-response","207","1783801","0.0-205.0","A169WH54HMYS5Z","img_art/1.jpg","1","","","","","","","","","","","","","","","","","","","","","","","","",""
"4377","","image-button-response","208","1788191","0.0-206.0-0.0","A169WH54HMYS5Z","img_art/1.jpg","3","","","","","","","","","","","","","","","","","","","","","","","","",""
"3536","","image-button-response","209","1791742","0.0-207.0-0.0","A169WH54HMYS5Z","img_art/1.jpg","5","","","","","","","","","","","","","","","","","","","","","","","","",""
"null","","html-keyboard-response","210","1792250","0.0-208.0","A169WH54HMYS5Z","<p style=""font-size: 48px;"">+</p>","","","","","null","allTrialResponses","500","1","23","img_art/1.jpg","10","beautiful intertwining of colors  frog waving HIT!","Chelsea,Erin,Kelsey,Isabella,Catherine,Alexa","The colors are a little too intense.,1,180,20","Love the coloration and abstract figures,18,120,20","this ones alright,10,240,20","Warmth of the sun,22,280,20","confused,animal like brain fog,0,160,20","The blend of colors are gorgeous and reminds me of fall,32,40,20","Erin","Love the coloration and abstract figures,18,120,20","Isabella","Warmth of the sun,22,280,20","Alexa","The blend of colors are gorgeous and reminds me of fall,32,40,20","4"
"25062","","survey-text","211","1817341","0.0-209.0-0.0","A169WH54HMYS5Z","","","","{""Q0"":""dark, looks like cows fighting""}","","","","","","","","","","","","","","","","","","","","","","",""
"13049.20000000298","","image-slider-response","212","1830399","0.0-210.0","A169WH54HMYS5Z","","","","","-14","","","","","","","","","","","","","","","","","","","","","",""
"null","","image-button-response","213","1835417","0.0-211.0","A169WH54HMYS5Z","img_art/20.jpg","null","","","","","","","","","","","","","","","","","","","","","","","","",""
"4431","","image-button-response","214","1839858","0.0-212.0","A169WH54HMYS5Z","img_art/20.jpg","0","","","","","","","","","","","","","","","","","","","","","","","","",""
"2292","","image-button-response","215","1842161","0.0-213.0-0.0","A169WH54HMYS5Z","img_art/20.jpg","1","","","","","","","","","","","","","","","","","","","","","","","","",""
"17194","","image-button-response","216","1859366","0.0-214.0-0.0","A169WH54HMYS5Z","img_art/20.jpg","4","","","","","","","","","","","","","","","","","","","","","","","","",""
"null","","html-keyboard-response","217","1860374","0.0-215.0","A169WH54HMYS5Z","<p style=""font-size: 48px;"">+</p>","","","","","null","allTrialResponses","1000","1","24","img_art/20.jpg","-14","dark, looks like cows fighting","Erika,Erin,Cassidy,Isabella,Kelly,Alexa","The artist had very strong feelings, bold colors,28,100,20","Dark frame overpowers the image,-6,120,20","sort of pleasant to look at, but can't tell if it's supposed to be something,13,140,20","Feels like a town destroyed,-19,280,20","I want to like this more, but i wish it was more detailed. It's hard for me to see what it is.,5,220,20","I like the calming mood of this painting,35,40,20","Erika","The artist had very strong feelings, bold colors,28,100,20","Erin","Dark frame overpowers the image,-6,120,20","Kelly","I want to like this more, but i wish it was more detailed. It's hard for me to see what it is.,5,220,20","4"
"27492","","survey-text","218","1887911","0.0-216.0-0.0","A169WH54HMYS5Z","","","","{""Q0"":""bad, children and guns""}","","","","","","","","","","","","","","","","","","","","","","",""
"4704.4000000059605","","image-slider-response","219","1892626","0.0-217.0","A169WH54HMYS5Z","","","","","-47","","","","","","","","","","","","","","","","","","","","","",""
"2726","","image-button-response","220","1897644","0.0-218.0","A169WH54HMYS5Z","img_art/16.jpg","0","","","","","","","","","","","","","","","","","","","","","","","","",""
"2073","","image-button-response","221","1899732","0.0-219.0","A169WH54HMYS5Z","img_art/16.jpg","3","","","","","","","","","","","","","","","","","","","","","","","","",""
"4806","","image-button-response","222","1904551","0.0-220.0-0.0","A169WH54HMYS5Z","img_art/16.jpg","4","","","","","","","","","","","","","","","","","","","","","","","","",""
"10555","","image-button-response","223","1915120","0.0-221.0-0.0","A169WH54HMYS5Z","img_art/16.jpg","5","","","","","","","","","","","","","","","","","","","","","","","","",""
"null","","html-keyboard-response","224","1915626","0.0-222.0","A169WH54HMYS5Z","<p style=""font-size: 48px;"">+</p>","","","","","null","allTrialResponses","500","1","25","img_art/16.jpg","-47","bad, children and guns","Erika,Erin,Julia,Danielle,Kelly,Monica","Very emotional,23,100,20","Not original. Bear is odd,-50,120,20","I love the teddy bear,50,40,20","I enjoy how slightly strange this is, while seeming to still have some message,20,340,20","Looks like someone got really high and did a bad photoshop job.,-27,220,20","Don't know if there's a meaning but I like how seemingly random objects were stuck together and called art,20,360,20","Danielle","I enjoy how slightly strange this is, while seeming to still have some message,20,340,20","Kelly","Looks like someone got really high and did a bad photoshop job.,-27,220,20","Monica","Don't know if there's a meaning but I like how seemingly random objects were stuck together and called art,20,360,20","4"
"5584","","survey-text","225","1921269","0.0-223.0-0.0","A169WH54HMYS5Z","","","","{""Q0"":""table""}","","","","","","","","","","","","","","","","","","","","","","",""
"24405","","survey-text","226","1945681","0.0-224.0-0.0","A169WH54HMYS5Z","","","","{""Q0"":""man and woman meet on the street""}","","","","","","","","","","","","","","","","","","","","","","",""
"20337.69999998808","","image-slider-response","227","1966028","0.0-225.0","A169WH54HMYS5Z","","","","","-12","","","","","","","","","","","","","","","","","","","","","",""
"4856","","image-button-response","228","1971040","0.0-226.0","A169WH54HMYS5Z","img_art/2.jpg","0","","","","","","","","","","","","","","","","","","","","","","","","",""
"2288","","image-button-response","229","1973342","0.0-227.0","A169WH54HMYS5Z","img_art/2.jpg","1","","","","","","","","","","","","","","","","","","","","","","","","",""
"10264","","image-button-response","230","1983616","0.0-228.0-0.0","A169WH54HMYS5Z","img_art/2.jpg","4","","","","","","","","","","","","","","","","","","","","","","","","",""
"5042","","image-button-response","231","1988673","0.0-229.0-0.0","A169WH54HMYS5Z","img_art/2.jpg","0","","","","","","","","","","","","","","","","","","","","","","","","",""
"null","","html-keyboard-response","232","1989688","0.0-230.0","A169WH54HMYS5Z","<p style=""font-size: 48px;"">+</p>","","","","","null","allTrialResponses","1000","1","26","img_art/2.jpg","-12","man and woman meet on the street","Jacqueline,Hailey,Katie,Danielle,Kelly,Monica","A bit ugly with the greens.,-20,300,20","ugly green color and makes me sick,-29,200,20","Doesn't look like anything. Just a blob of colors.,1,160,20","Not a fan of this style,-30,340,20","I cant tell whats happening here and that shade of green is just not my thing.,-17,220,20","I like the blue color in the center but that's it, the green is a gross color,-3,360,20","Hailey","ugly green color and makes me sick,-29,200,20","Kelly","I cant tell whats happening here and that shade of green is just not my thing.,-17,220,20","Jacqueline","A bit ugly with the greens.,-20,300,20","4"
"88854","","survey-text","233","2078580","0.0-231.0-0.0","A169WH54HMYS5Z","","","","{""Q0"":""promotes melancholy and duty""}","","","","","","","","","","","","","","","","","","","","","","",""
"6217.5","","image-slider-response","234","2084805","0.0-232.0","A169WH54HMYS5Z","","","","","28","","","","","","","","","","","","","","","","","","","","","",""
"2270","","image-button-response","235","2089829","0.0-233.0","A169WH54HMYS5Z","img_art/29.jpg","3","","","","","","","","","","","","","","","","","","","","","","","","",""
"16004","","image-button-response","236","2105842","0.0-234.0","A169WH54HMYS5Z","img_art/29.jpg","1","","","","","","","","","","","","","","","","","","","","","","","","",""
"2273","","image-button-response","237","2108130","0.0-235.0-0.0","A169WH54HMYS5Z","img_art/29.jpg","3","","","","","","","","","","","","","","","","","","","","","","","","",""
"6152","","image-button-response","238","2114292","0.0-236.0-0.0","A169WH54HMYS5Z","img_art/29.jpg","2","","","","","","","","","","","","","","","","","","","","","","","","",""
"null","","html-keyboard-response","239","2115303","0.0-237.0","A169WH54HMYS5Z","<p style=""font-size: 48px;"">+</p>","","","","","null","allTrialResponses","1000","1","27","img_art/29.jpg","28","promotes melancholy and duty","Jacqueline,Hailey,Katelyn,Jennifer,Kelly,Alicia","This is ugly as fuck,-50,300,20","a hot fireplace with things to burn. warm,12,200,20","Grabs interest but then confuses me,6,100,20","Very interesting composition,41,380,20","Too much going on, and I don't like the colors. It looks like a crime scene.,-50,220,20","easy, too abstract for me, don't get it.,-25,120,20","Hailey","a hot fireplace with things to burn. warm,12,200,20","Jennifer","Very interesting composition,41,380,20","Katelyn","Grabs interest but then confuses me,6,100,20","4"
"37855","","survey-text","240","2153200","0.0-238.0-0.0","A169WH54HMYS5Z","","","","{""Q0"":""bright colors  a but busy""}","","","","","","","","","","","","","","","","","","","","","","",""
"5963.79999999702","","image-slider-response","241","2159191","0.0-239.0","A169WH54HMYS5Z","","","","","-10","","","","","","","","","","","","","","","","","","","","","",""
"3744","","image-button-response","242","2164200","0.0-240.0","A169WH54HMYS5Z","img_art/14.jpg","0","","","","","","","","","","","","","","","","","","","","","","","","",""
"1721","","image-button-response","243","2165932","0.0-241.0","A169WH54HMYS5Z","img_art/14.jpg","0","","","","","","","","","","","","","","","","","","","","","","","","",""
"6342","","image-button-response","244","2172282","0.0-242.0-0.0","A169WH54HMYS5Z","img_art/14.jpg","1","","","","","","","","","","","","","","","","","","","","","","","","",""
"13830","","image-button-response","245","2186128","0.0-243.0-0.0","A169WH54HMYS5Z","img_art/14.jpg","5","","","","","","","","","","","","","","","","","","","","","","","","",""
"null","","html-keyboard-response","246","2187634","0.0-244.0","A169WH54HMYS5Z","<p style=""font-size: 48px;"">+</p>","","","","","null","allTrialResponses","1500","1","28","img_art/14.jpg","-10","bright colors  a but busy","Courtney,Hailey,Katelyn,Jennifer,Breanna,Cheyenne","The pirates ship is sinking.,27,280,20","fuzzy and confused. ok then well,16,200,20","Its cute. Not striking but i would keep it in my home.,10,100,20","This piece is average compared to the others.,1,380,20","Makes me feel good,30,380,20","I'm a fan of the background.,13,200,20","Courtney","The pirates ship is sinking.,27,280,20","Hailey","fuzzy and confused. ok then well,16,200,20","Cheyenne","I'm a fan of the background.,13,200,20","4"
"24462","","survey-text","247","2212143","0.0-245.0-0.0","A169WH54HMYS5Z","","","","{""Q0"":""not fond of the colors""}","","","","","","","","","","","","","","","","","","","","","","",""
"9904.20000000298","","image-slider-response","248","2222058","0.0-246.0","A169WH54HMYS5Z","","","","","-43","","","","","","","","","","","","","","","","","","","","","",""
"null","","image-button-response","249","2227070","0.0-247.0","A169WH54HMYS5Z","img_art/4.jpg","null","","","","","","","","","","","","","","","","","","","","","","","","",""
"2077","","image-button-response","250","2229155","0.0-248.0","A169WH54HMYS5Z","img_art/4.jpg","1","","","","","","","","","","","","","","","","","","","","","","","","",""
"3414","","image-button-response","251","2232580","0.0-249.0-0.0","A169WH54HMYS5Z","img_art/4.jpg","2","","","","","","","","","","","","","","","","","","","","","","","","",""
"6454","","image-button-response","252","2239048","0.0-250.0-0.0","A169WH54HMYS5Z","img_art/4.jpg","5","","","","","","","","","","","","","","","","","","","","","","","","",""
"null","","html-keyboard-response","253","2240057","0.0-251.0","A169WH54HMYS5Z","<p style=""font-size: 48px;"">+</p>","","","","","null","allTrialResponses","1000","1","29","img_art/4.jpg","-43","not fond of the colors","Courtney,Hailey,Caitlin,Alexandra,Mikayla,Cheyenne","A leaning trophy,-9,280,20","ugly puke yellow is cold and dark,-29,200,20","They give out trophies now for fighting with brass knuckles?,-20,80,20","This artwork looks like a child did it,-41,60,20","Not very interesting to look at.,-34,300,20","Just doesn't look nice.,-40,200,20","Hailey","ugly puke yellow is cold and dark,-29,200,20","Caitlin","They give out trophies now for fighting with brass knuckles?,-20,80,20","Cheyenne","Just doesn't look nice.,-40,200,20","4"
"30726","","survey-text","254","2270819","0.0-252.0-0.0","A169WH54HMYS5Z","","","","{""Q0"":""beautiful combo of color and form""}","","","","","","","","","","","","","","","","","","","","","","",""
"4261","","image-slider-response","255","2275088","0.0-253.0","A169WH54HMYS5Z","","","","","39","","","","","","","","","","","","","","","","","","","","","",""
"null","","image-button-response","256","2280099","0.0-254.0","A169WH54HMYS5Z","img_art/8.jpg","null","","","","","","","","","","","","","","","","","","","","","","","","",""
"1264","","image-button-response","257","2281371","0.0-255.0","A169WH54HMYS5Z","img_art/8.jpg","0","","","","","","","","","","","","","","","","","","","","","","","","",""
"8438","","image-button-response","258","2289819","0.0-256.0-0.0","A169WH54HMYS5Z","img_art/8.jpg","1","","","","","","","","","","","","","","","","","","","","","","","","",""
"6532","","image-button-response","259","2296366","0.0-257.0-0.0","A169WH54HMYS5Z","img_art/8.jpg","4","","","","","","","","","","","","","","","","","","","","","","","","",""
"null","","html-keyboard-response","260","2297891","0.0-258.0","A169WH54HMYS5Z","<p style=""font-size: 48px;"">+</p>","","","","","null","allTrialResponses","1500","1","30","img_art/8.jpg","39","beautiful combo of color and form","Stephanie,Hailey,Caitlin,Ashley,Mariah,Cheyenne","I like the colors and geometrical shapes but the face in the sky makes it look scary,-10,300,20","cold city controlled by evil gods,-17,200,20","And I'll huff and I'll puff and I'll blow your town down!!,20,80,20","Escher? Dali? Could be their lovechild?,50,320,20","Clean and stark. The colors are pleasant.,15,140,20","Has nice depth to it.,12,200,20","Stephanie","I like the colors and geometrical shapes but the face in the sky makes it look scary,-10,300,20","Hailey","cold city controlled by evil gods,-17,200,20","Mariah","Clean and stark. The colors are pleasant.,15,140,20","4"
"5860","","image-button-response_instructions","261","2303789","0.0-259.0","A169WH54HMYS5Z","","0","instructions","","","","","","","","","","","","","","","","","","","","","","","",""
"1548","","image-button-response","262","2305365","0.0-260.0","A169WH54HMYS5Z","","0","","","","","","","","","","","","","","","","","","","","","","","","",""
