"rt","url","trial_type","trial_index","time_elapsed","internal_node_id","participant_id","stimulus","button_pressed","Name","responses","response","key_press","variableName","fixationTime","condition","trial","photo","subjectRating","subjectResponse","agentsNames","agent_1_Response","agent_2_Response","agent_3_Response","agent_4_Response","agent_5_Response","agent_6_Response","kept_1_name","kept_1_response","kept_2_name","kept_2_response","kept_3_name","kept_3_response","errorCounter"
"7955","external_page_harvard.html","external-html","0","8450","0.0-0.0","A16A6ZCW538FVS","","","","","","","","","","","","","","","","","","","","","","","","","","",""
"2215","","image-button-response","1","10669","0.0-1.0","A16A6ZCW538FVS","","1","","","","","","","","","","","","","","","","","","","","","","","","",""
"1808","","image-button-response","2","12497","0.0-2.0-0.0","A16A6ZCW538FVS","","1","phone","","","","","","","","","","","","","","","","","","","","","","","",""
"5326","","survey-text","3","17831","0.0-3.0-0.0","A16A6ZCW538FVS","","","","{""Q0"":""A16A6ZCW538FVS""}","","","","","","","","","","","","","","","","","","","","","","",""
"5508","","image-button-response_instructions","4","23344","0.0-4.0","A16A6ZCW538FVS","","0","instructions","","","","","","","","","","","","","","","","","","","","","","","",""
"11081","","image-button-response_instructions","5","34437","0.0-5.0","A16A6ZCW538FVS","img_art/ins/popularity/ins1.png","0","instructions","","","","","","","","","","","","","","","","","","","","","","","",""
"4828","","image-button-response_instructions","6","39272","0.0-6.0","A16A6ZCW538FVS","img_art/ins/popularity/ins2.png","0","instructions","","","","","","","","","","","","","","","","","","","","","","","",""
"2558","","image-button-response_instructions","7","41841","0.0-7.0","A16A6ZCW538FVS","img_art/ins/popularity/ins2Extreme.png","0","instructions","","","","","","","","","","","","","","","","","","","","","","","",""
"7280","","image-button-response_instructions","8","49129","0.0-8.0","A16A6ZCW538FVS","img_art/ins/popularity/ins3KEEPpop.PNG","0","instructions","","","","","","","","","","","","","","","","","","","","","","","",""
"3260","","image-button-response_instructions","9","52392","0.0-9.0","A16A6ZCW538FVS","img_art/ins/popularity/ins3ANamepop.PNG","0","instructions","","","","","","","","","","","","","","","","","","","","","","","",""
"2237","","image-button-response_instructions","10","54650","0.0-10.0","A16A6ZCW538FVS","img_art/ins/popularity/ins3ARatingpop.png","0","instructions","","","","","","","","","","","","","","","","","","","","","","","",""
"3881","","image-button-response_instructions","11","58551","0.0-11.0","A16A6ZCW538FVS","img_art/ins/popularity/ins3ATextpop.png","0","instructions","","","","","","","","","","","","","","","","","","","","","","","",""
"1135","","image-button-response_instructions","12","59690","0.0-12.0","A16A6ZCW538FVS","img_art/ins/popularity/ins3ALikespop.png","0","instructions","","","","","","","","","","","","","","","","","","","","","","","",""
"2000","","image-button-response_instructions","13","61691","0.0-13.0","A16A6ZCW538FVS","img_art/ins/popularity/ins3KEEPpop.PNG","0","instructions","","","","","","","","","","","","","","","","","","","","","","","",""
"4955","","image-button-response_instructions","14","66657","0.0-14.0","A16A6ZCW538FVS","img_art/ins/popularity/ins3_5RED.png","0","instructions","","","","","","","","","","","","","","","","","","","","","","","",""
"3696","","image-button-response_instructions","15","70371","0.0-15.0","A16A6ZCW538FVS","img_art/ins/popularity/ins3KEEPpop.PNG","0","instructions","","","","","","","","","","","","","","","","","","","","","","","",""
"7924","","image-button-response_instructions","16","78297","0.0-16.0","A16A6ZCW538FVS","img_art/ins/popularity/ins4KEEPpop.PNG","0","instructions","","","","","","","","","","","","","","","","","","","","","","","",""
"1662","","image-button-response_instructions","17","79993","0.0-17.0","A16A6ZCW538FVS","img_art/ins/popularity/ins5KEEPpop.PNG","0","instructions","","","","","","","","","","","","","","","","","","","","","","","",""
"1915","","image-button-response_instructions","18","81910","0.0-18.0","A16A6ZCW538FVS","","0","instructions","","","","","","","","","","","","","","","","","","","","","","","",""
"7524","","survey-text","19","89474","0.0-19.0-0.0","A16A6ZCW538FVS","","","","{""Q0"":""BUT""}","","","","","","","","","","","","","","","","","","","","","","",""
"7850","","survey-text","20","112139","0.0-19.1-0.1","A16A6ZCW538FVS","","","","{""Q0"":""but""}","","","","","","","","","","","","","","","","","","","","","","",""
"22560","","survey-text","21","134707","0.0-20.0-0.0","A16A6ZCW538FVS","","","","{""Q0"":""I like the brush art.""}","","","","","","","","","","","","","","","","","","","","","","",""
"3256","","image-slider-response","22","137970","0.0-21.0","A16A6ZCW538FVS","","","","","26","","","","","","","","","","","","","","","","","","","","","",""
"2848","","image-button-response","23","142981","0.0-22.0","A16A6ZCW538FVS","img_art/ins/1.jpg","4","","","","","","","","","","","","","","","","","","","","","","","","",""
"544","","image-button-response","24","143537","0.0-23.0","A16A6ZCW538FVS","img_art/ins/1.jpg","5","","","","","","","","","","","","","","","","","","","","","","","","",""
"1977","","image-button-response","25","145516","0.0-24.0-0.0","A16A6ZCW538FVS","img_art/ins/1.jpg","5","","","","","","","","","","","","","","","","","","","","","","","","",""
"44388","","image-button-response","26","195618","0.0-24.1-0.1","A16A6ZCW538FVS","img_art/ins/1.jpg","5","","","","","","","","","","","","","","","","","","","","","","","","",""
"1617","","image-button-response","27","200551","0.0-24.2-0.2","A16A6ZCW538FVS","img_art/ins/1.jpg","0","","","","","","","","","","","","","","","","","","","","","","","","",""
"3281","","image-button-response","28","203837","0.0-25.0-0.0","A16A6ZCW538FVS","img_art/ins/1.jpg","1","","","","","","","","","","","","","","","","","","","","","","","","",""
"null","","html-keyboard-response","29","204345","0.0-26.0","A16A6ZCW538FVS","<p style=""font-size: 48px;"">+</p>","","","","","null","allTrialResponses","500","1","-2","img_art/ins/1.jpg","26","I like the brush art.","Allison,Ashley,Beth,Dora,Erika,Jen","looks like a lot of things going on in the mist,20,20,20","I just don't get why these type of art would be popular,-32,40,20","This color reminds me of poo,-46,60,20","looks like what my niece in 3rd grade did this afternoon,-50,80,20","I like the sophisticated brushwork,40,100,20","It reminds me of a candy land dream I had,36,120,20","Jen","It reminds me of a candy land dream I had,36,120,20","Allison","looks like a lot of things going on in the mist,20,20,20","Ashley","I just don't get why these type of art would be popular,-32,40,20","5"
"23978","","survey-text","30","228339","0.0-27.0-0.0","A16A6ZCW538FVS","","","","{""Q0"":""Wonder full art the brush.""}","","","","","","","","","","","","","","","","","","","","","","",""
"3358","","image-slider-response","31","231702","0.0-28.0","A16A6ZCW538FVS","","","","","27","","","","","","","","","","","","","","","","","","","","","",""
"3234","","image-button-response","32","236720","0.0-29.0","A16A6ZCW538FVS","img_art/ins/2.jpg","1","","","","","","","","","","","","","","","","","","","","","","","","",""
"13325","","image-button-response","33","250049","0.0-30.0","A16A6ZCW538FVS","img_art/ins/2.jpg","2","","","","","","","","","","","","","","","","","","","","","","","","",""
"1780","","image-button-response","34","251835","0.0-31.0-0.0","A16A6ZCW538FVS","img_art/ins/2.jpg","0","","","","","","","","","","","","","","","","","","","","","","","","",""
"1316","","image-button-response","35","253169","0.0-32.0-0.0","A16A6ZCW538FVS","img_art/ins/2.jpg","3","","","","","","","","","","","","","","","","","","","","","","","","",""
"null","","html-keyboard-response","36","254672","0.0-33.0","A16A6ZCW538FVS","<p style=""font-size: 48px;"">+</p>","","","","","null","allTrialResponses","1500","1","-1","img_art/ins/2.jpg","27","Wonder full art the brush.","Allison,Ashley,Katie,Jenna,Kara,Jen","I don't have strong feelings about this,10,20,20","Idk, it is just annoying,-32,40,20","too much color!,-28,180,20","One of my pet peevs,-48,140,20","I like the blocks of color arrangements,30,160,20","It reminds me of a fireplace,36,120,20","Katie","too much color!,-28,180,20","Allison","I don't have strong feelings about this,10,20,20","Jenna","One of my pet peevs,-48,140,20","5"
"10995","","survey-text","37","265679","0.0-34.0-0.0","A16A6ZCW538FVS","","","","{""Q0"":""the art say something.""}","","","","","","","","","","","","","","","","","","","","","","",""
"104414","","image-slider-response","38","370095","0.0-35.0","A16A6ZCW538FVS","","","","","-11","","","","","","","","","","","","","","","","","","","","","",""
"3043","","image-button-response","39","375112","0.0-36.0","A16A6ZCW538FVS","img_art/ins/3.jpg","3","","","","","","","","","","","","","","","","","","","","","","","","",""
"2464","","image-button-response","40","377581","0.0-37.0","A16A6ZCW538FVS","img_art/ins/3.jpg","4","","","","","","","","","","","","","","","","","","","","","","","","",""
"965","","image-button-response","41","378551","0.0-38.0-0.0","A16A6ZCW538FVS","img_art/ins/3.jpg","3","","","","","","","","","","","","","","","","","","","","","","","","",""
"1354","","image-button-response","42","379912","0.0-39.0-0.0","A16A6ZCW538FVS","img_art/ins/3.jpg","2","","","","","","","","","","","","","","","","","","","","","","","","",""
"null","","html-keyboard-response","43","380916","0.0-40.0","A16A6ZCW538FVS","<p style=""font-size: 48px;"">+</p>","","","","","null","allTrialResponses","1000","1","0","img_art/ins/3.jpg","-11","the art say something.","Allison,Leslie,Katie,Jenna,Mary,Rose","enjoy the different shades of blue,22,20,20","It's an alright work,15,200,20","It looks depressing,-26,180,20","looks like a murder room,-35,140,20","I like the overlapping of brushes,41,220,20","My daily routine, it's depressing,-20,240,20","Mary","I like the overlapping of brushes,41,220,20","Jenna","looks like a murder room,-35,140,20","Katie","It looks depressing,-26,180,20","5"
"3516","","image-button-response_instructions","44","384442","0.0-41.0","A16A6ZCW538FVS","","0","instructions","","","","","","","","","","","","","","","","","","","","","","","",""
"5730","","survey-likert","45","390175","0.0-42.0-0.0","A16A6ZCW538FVS","","","","{""Q0"":"""",""Q1"":1,""Q2"":0}","","","","","","","","","","","","","","","","","","","","","","",""
"3700","","survey-likert","46","397742","0.0-42.1-0.1","A16A6ZCW538FVS","","","","{""Q0"":"""",""Q1"":0,""Q2"":0}","","","","","","","","","","","","","","","","","","","","","","",""
"4057","","survey-likert","47","403137","0.0-42.2-0.2","A16A6ZCW538FVS","","","","{""Q0"":"""",""Q1"":0,""Q2"":1}","","","","","","","","","","","","","","","","","","","","","","",""
"3853","","survey-text","48","407005","0.0-43.0-0.0","A16A6ZCW538FVS","","","","{""Q0"":""rock""}","","","","","","","","","","","","","","","","","","","","","","",""
"29681","","survey-text","49","436690","0.0-44.0-0.0","A16A6ZCW538FVS","","","","{""Q0"":""The art show the high tree""}","","","","","","","","","","","","","","","","","","","","","","",""
"3143","","image-slider-response","50","439838","0.0-45.0","A16A6ZCW538FVS","","","","","-13","","","","","","","","","","","","","","","","","","","","","",""
"2662","","image-button-response","51","444882","0.0-46.0","A16A6ZCW538FVS","img_art/17.jpg","4","","","","","","","","","","","","","","","","","","","","","","","","",""
"1194","","image-button-response","52","446089","0.0-47.0","A16A6ZCW538FVS","img_art/17.jpg","0","","","","","","","","","","","","","","","","","","","","","","","","",""
"1188","","image-button-response","53","447282","0.0-48.0-0.0","A16A6ZCW538FVS","img_art/17.jpg","1","","","","","","","","","","","","","","","","","","","","","","","","",""
"1088","","image-button-response","54","448377","0.0-49.0-0.0","A16A6ZCW538FVS","img_art/17.jpg","2","","","","","","","","","","","","","","","","","","","","","","","","",""
"null","","html-keyboard-response","55","448881","0.0-50.0","A16A6ZCW538FVS","<p style=""font-size: 48px;"">+</p>","","","","","null","allTrialResponses","500","1","1","img_art/17.jpg","-13","The art show the high tree","Alexis,Erika,Katie,Savannah,Erin,Isabella","Love the color and nature motif,36,100,20","I love vague, dreamlike styles,50,100,20","Is it a tree/plant of some sort?  Or, I see hair?  I don't get it. But, the colors are pleasing to me.,1,160,20","Not even abstract to me, very clear meaning.,44,200,20","Windows indoor tree, weird palette,-11,120,20","Pleasant fall to winter day,22,280,20","Alexis","Love the color and nature motif,36,100,20","Erika","I love vague, dreamlike styles,50,100,20","Katie","Is it a tree/plant of some sort?  Or, I see hair?  I don't get it. But, the colors are pleasing to me.,1,160,20","7"
"13011","","survey-text","56","461908","0.0-51.0-0.0","A16A6ZCW538FVS","","","","{""Q0"":""Wow awesome the art.""}","","","","","","","","","","","","","","","","","","","","","","",""
"3025","","image-slider-response","57","464944","0.0-52.0","A16A6ZCW538FVS","","","","","8","","","","","","","","","","","","","","","","","","","","","",""
"3186","","image-button-response","58","469946","0.0-53.0","A16A6ZCW538FVS","img_art/12.jpg","3","","","","","","","","","","","","","","","","","","","","","","","","",""
"1438","","image-button-response","59","471387","0.0-54.0","A16A6ZCW538FVS","img_art/12.jpg","2","","","","","","","","","","","","","","","","","","","","","","","","",""
"1244","","image-button-response","60","472633","0.0-55.0-0.0","A16A6ZCW538FVS","img_art/12.jpg","0","","","","","","","","","","","","","","","","","","","","","","","","",""
"1896","","image-button-response","61","474537","0.0-56.0-0.0","A16A6ZCW538FVS","img_art/12.jpg","5","","","","","","","","","","","","","","","","","","","","","","","","",""
"null","","html-keyboard-response","62","475051","0.0-57.0","A16A6ZCW538FVS","<p style=""font-size: 48px;"">+</p>","","","","","null","allTrialResponses","500","1","2","img_art/12.jpg","8","Wow awesome the art.","Alexis,Erika,Katie,Jennifer,Shelby,Courtney","I like the cubic feel.,11,100,20","I don't like it, but I appreciate the effort and technique,11,100,20","Squares are rigid. I'm ambivalent.,1,160,20","This piece doesn't provoke any kind of reaction,0,380,20","The shapes make me feel a bit uncomfortable,-10,240,20","That is a warn quilt grama made.,11,280,20","Katie","Squares are rigid. I'm ambivalent.,1,160,20","Alexis","I like the cubic feel.,11,100,20","Courtney","That is a warn quilt grama made.,11,280,20","7"
"26569","","survey-text","63","501630","0.0-58.0-0.0","A16A6ZCW538FVS","","","","{""Q0"":""The picture is village""}","","","","","","","","","","","","","","","","","","","","","","",""
"2193","","image-slider-response","64","503829","0.0-59.0","A16A6ZCW538FVS","","","","","1","","","","","","","","","","","","","","","","","","","","","",""
"2475","","image-button-response","65","508844","0.0-60.0","A16A6ZCW538FVS","img_art/9.jpg","5","","","","","","","","","","","","","","","","","","","","","","","","",""
"3578","","image-button-response","66","512425","0.0-61.0","A16A6ZCW538FVS","img_art/9.jpg","1","","","","","","","","","","","","","","","","","","","","","","","","",""
"1294","","image-button-response","67","513721","0.0-62.0-0.0","A16A6ZCW538FVS","img_art/9.jpg","2","","","","","","","","","","","","","","","","","","","","","","","","",""
"2275","","image-button-response","68","515999","0.0-63.0-0.0","A16A6ZCW538FVS","img_art/9.jpg","0","","","","","","","","","","","","","","","","","","","","","","","","",""
"null","","html-keyboard-response","69","517516","0.0-64.0","A16A6ZCW538FVS","<p style=""font-size: 48px;"">+</p>","","","","","null","allTrialResponses","1500","1","3","img_art/9.jpg","1","The picture is village","Alexis,Cassidy,Katie,Angela,Kelly,Courtney","I like the sense of forboding, the green creates a claustrophobic feeling,10,100,20","The colors are okay, but this looks like someone scribbled with a crayon,1,140,20","I like the blues and pinks. The woman lying down communicates relaxation. It is a serene, calming scene,30,160,20","This painting feels too jumbled for me to like it.,-12,260,20","It looks like a child drew it.,-28,220,20","This is a picture of a scary mans head sideways.,-24,280,20","Cassidy","The colors are okay, but this looks like someone scribbled with a crayon,1,140,20","Katie","I like the blues and pinks. The woman lying down communicates relaxation. It is a serene, calming scene,30,160,20","Alexis","I like the sense of forboding, the green creates a claustrophobic feeling,10,100,20","7"
"8555","","survey-text","70","526094","0.0-65.0-0.0","A16A6ZCW538FVS","","","","{""Q0"":""Simple art""}","","","","","","","","","","","","","","","","","","","","","","",""
"2715","","image-slider-response","71","528813","0.0-66.0","A16A6ZCW538FVS","","","","","8","","","","","","","","","","","","","","","","","","","","","",""
"2467","","image-button-response","72","533837","0.0-67.0","A16A6ZCW538FVS","img_art/6.jpg","4","","","","","","","","","","","","","","","","","","","","","","","","",""
"891","","image-button-response","73","534734","0.0-68.0","A16A6ZCW538FVS","img_art/6.jpg","1","","","","","","","","","","","","","","","","","","","","","","","","",""
"2261","","image-button-response","74","537001","0.0-69.0-0.0","A16A6ZCW538FVS","img_art/6.jpg","3","","","","","","","","","","","","","","","","","","","","","","","","",""
"743","","image-button-response","75","537747","0.0-70.0-0.0","A16A6ZCW538FVS","img_art/6.jpg","4","","","","","","","","","","","","","","","","","","","","","","","","",""
"null","","html-keyboard-response","76","538751","0.0-71.0","A16A6ZCW538FVS","<p style=""font-size: 48px;"">+</p>","","","","","null","allTrialResponses","1000","1","4","img_art/6.jpg","8","Simple art","Alexis,Cassidy,Katie,Shannon,Lauren,Haley","The feeling of isolation with so little objects. Great,20,100,20","The background on the upper half is nice. I also like the contrast of the top and bottom halves,5,140,20","I like the warmth of the orange. But, I feel like it's a partial view. I'm frustrated I can't see the entirety.,-20,160,20","I can't tell what this image is, but it's boring because of lack of color variety and nothing in it,-41,220,20","I like the simplicity of the piece.,10,340,20","I like the color and the gradient,10,220,20","Cassidy","The background on the upper half is nice. I also like the contrast of the top and bottom halves,5,140,20","Shannon","I can't tell what this image is, but it's boring because of lack of color variety and nothing in it,-41,220,20","Lauren","I like the simplicity of the piece.,10,340,20","7"
"19317","","survey-text","77","558083","0.0-72.0-0.0","A16A6ZCW538FVS","","","","{""Q0"":""The art is very simple.""}","","","","","","","","","","","","","","","","","","","","","","",""
"3085","","image-slider-response","78","561175","0.0-73.0","A16A6ZCW538FVS","","","","","-8","","","","","","","","","","","","","","","","","","","","","",""
"null","","image-button-response","79","566188","0.0-74.0","A16A6ZCW538FVS","img_art/5.jpg","null","","","","","","","","","","","","","","","","","","","","","","","","",""
"1580","","image-button-response","80","567772","0.0-75.0","A16A6ZCW538FVS","img_art/5.jpg","4","","","","","","","","","","","","","","","","","","","","","","","","",""
"2709","","image-button-response","81","570483","0.0-76.0-0.0","A16A6ZCW538FVS","img_art/5.jpg","1","","","","","","","","","","","","","","","","","","","","","","","","",""
"1590","","image-button-response","82","572107","0.0-77.0-0.0","A16A6ZCW538FVS","img_art/5.jpg","2","","","","","","","","","","","","","","","","","","","","","","","","",""
"null","","html-keyboard-response","83","573609","0.0-78.0","A16A6ZCW538FVS","<p style=""font-size: 48px;"">+</p>","","","","","null","allTrialResponses","1500","1","5","img_art/5.jpg","-8","The art is very simple.","Catherine,Cassidy,Amy,Shannon,Lauren,Allison","Building remnants in the sand.,1,160,20","I like these colors together and the tiny splatters, but what is this?,7,140,20","Nearly white background gives a lack of context. Questionable skills,-45,220,20","I don't know what it's supposed to be and it looks ugly the way the colors are on the yellow cube.,-50,220,20","I like the simplicity of the design, but I can't tell what the image is trying to depict.,10,340,20","Too loud. Dislike the bright yellow.,-5,140,20","Lauren","I like the simplicity of the design, but I can't tell what the image is trying to depict.,10,340,20","Cassidy","I like these colors together and the tiny splatters, but what is this?,7,140,20","Amy","Nearly white background gives a lack of context. Questionable skills,-45,220,20","7"
"4840","","survey-text","84","578478","0.0-79.0-0.0","A16A6ZCW538FVS","","","","{""Q0"":""sky""}","","","","","","","","","","","","","","","","","","","","","","",""
"19703","","survey-text","85","598185","0.0-80.0-0.0","A16A6ZCW538FVS","","","","{""Q0"":""The color of the art is beautiful.""}","","","","","","","","","","","","","","","","","","","","","","",""
"4197","","image-slider-response","86","602385","0.0-81.0","A16A6ZCW538FVS","","","","","35","","","","","","","","","","","","","","","","","","","","","",""
"null","","image-button-response","87","607391","0.0-82.0","A16A6ZCW538FVS","img_art/14.jpg","null","","","","","","","","","","","","","","","","","","","","","","","","",""
"795","","image-button-response","88","608194","0.0-83.0","A16A6ZCW538FVS","img_art/14.jpg","3","","","","","","","","","","","","","","","","","","","","","","","","",""
"1567","","image-button-response","89","609766","0.0-84.0-0.0","A16A6ZCW538FVS","img_art/14.jpg","1","","","","","","","","","","","","","","","","","","","","","","","","",""
"1728","","image-button-response","90","611504","0.0-85.0-0.0","A16A6ZCW538FVS","img_art/14.jpg","4","","","","","","","","","","","","","","","","","","","","","","","","",""
"null","","html-keyboard-response","91","612505","0.0-86.0","A16A6ZCW538FVS","<p style=""font-size: 48px;"">+</p>","","","","","null","allTrialResponses","1000","1","6","img_art/14.jpg","35","The color of the art is beautiful.","Miranda,Cassidy,Amy,Meghan,Lauren,Caroline","This just looks like a kids watercolor painting.,-30,320,20","Meh. Pleasant to look at. Colors are nice,6,140,20","In others I might say the colors are garish. Here it works perfectly. The balance is wondrous and unlimiting.,25,220,20","its okay nothing special,11,220,20","I like how balanced the piece is with its symmetrical design.,20,340,20","Makes me think of trees and spring. A good feeling,26,100,20","Meghan","its okay nothing special,11,220,20","Cassidy","Meh. Pleasant to look at. Colors are nice,6,140,20","Lauren","I like how balanced the piece is with its symmetrical design.,20,340,20","7"
"27764","","survey-text","92","640286","0.0-87.0-0.0","A16A6ZCW538FVS","","","","{""Q0"":""The art showing the plance.""}","","","","","","","","","","","","","","","","","","","","","","",""
"3607","","image-slider-response","93","643897","0.0-88.0","A16A6ZCW538FVS","","","","","26","","","","","","","","","","","","","","","","","","","","","",""
"null","","image-button-response","94","648908","0.0-89.0","A16A6ZCW538FVS","img_art/19.jpg","null","","","","","","","","","","","","","","","","","","","","","","","","",""
"33773","","image-button-response","95","682686","0.0-90.0","A16A6ZCW538FVS","img_art/19.jpg","4","","","","","","","","","","","","","","","","","","","","","","","","",""
"1813","","image-button-response","96","684522","0.0-91.0-0.0","A16A6ZCW538FVS","img_art/19.jpg","0","","","","","","","","","","","","","","","","","","","","","","","","",""
"1064","","image-button-response","97","685594","0.0-92.0-0.0","A16A6ZCW538FVS","img_art/19.jpg","1","","","","","","","","","","","","","","","","","","","","","","","","",""
"null","","html-keyboard-response","98","686095","0.0-93.0","A16A6ZCW538FVS","<p style=""font-size: 48px;"">+</p>","","","","","null","allTrialResponses","500","1","7","img_art/19.jpg","26","The art showing the plance.","Samantha,Cassidy,Destiny,Meghan,Lauren,Lindsey","Intersting but not for me,21,140,20","too much going on, can't tell what it is,-14,140,20","this flow I just really like how everything blends but also doesn't,45,360,20","looks like a shopping center,20,220,20","The image doesn't really invoke any emotions strongly.,0,340,20","Pleasant colors with just enough detail to be recognizable. I can see a scene in it that tells a story.,7,400,20","Lauren","The image doesn't really invoke any emotions strongly.,0,340,20","Samantha","Intersting but not for me,21,140,20","Cassidy","too much going on, can't tell what it is,-14,140,20","7"
"14786","","survey-text","99","700898","0.0-94.0-0.0","A16A6ZCW538FVS","","","","{""Q0"":""What a beautiful art.""}","","","","","","","","","","","","","","","","","","","","","","",""
"4979","","image-slider-response","100","705891","0.0-95.0","A16A6ZCW538FVS","","","","","33","","","","","","","","","","","","","","","","","","","","","",""
"null","","image-button-response","101","710922","0.0-96.0","A16A6ZCW538FVS","img_art/8.jpg","null","","","","","","","","","","","","","","","","","","","","","","","","",""
"23934","","image-button-response","102","734911","0.0-97.0","A16A6ZCW538FVS","img_art/8.jpg","3","","","","","","","","","","","","","","","","","","","","","","","","",""
"1898","","image-button-response","103","736825","0.0-98.0-0.0","A16A6ZCW538FVS","img_art/8.jpg","4","","","","","","","","","","","","","","","","","","","","","","","","",""
"1516","","image-button-response","104","738347","0.0-99.0-0.0","A16A6ZCW538FVS","img_art/8.jpg","1","","","","","","","","","","","","","","","","","","","","","","","","",""
"null","","html-keyboard-response","105","739350","0.0-100.0","A16A6ZCW538FVS","<p style=""font-size: 48px;"">+</p>","","","","","null","allTrialResponses","1000","1","8","img_art/8.jpg","33","What a beautiful art.","Samantha,Cassidy,Leslie,Monica,Lauren,Dominique","The face bothers me,-25,140,20","I like the colors,10,140,20","The stylized faces remind me of German expressionism in a very good way.,40,380,20","The faces in the upper left show agony and contrast with the geometric shapes too much,-31,360,20","I like how the piece is showcasing emotion in relation to something.,25,340,20","This speaks volumes to me and is another favorite I'm sure by many,40,400,20","Monica","The faces in the upper left show agony and contrast with the geometric shapes too much,-31,360,20","Lauren","I like how the piece is showcasing emotion in relation to something.,25,340,20","Cassidy","I like the colors,10,140,20","7"
"4452","","survey-text","106","743828","0.0-101.0-0.0","A16A6ZCW538FVS","","","","{""Q0"":""Nice""}","","","","","","","","","","","","","","","","","","","","","","",""
"4268","","survey-text","107","751597","0.0-101.1-0.1","A16A6ZCW538FVS","","","","{""Q0"":""Awesome""}","","","","","","","","","","","","","","","","","","","","","","",""
"3228","","image-slider-response","108","754843","0.0-102.0","A16A6ZCW538FVS","","","","","4","","","","","","","","","","","","","","","","","","","","","",""
"null","","image-button-response","109","759847","0.0-103.0","A16A6ZCW538FVS","img_art/28.jpg","null","","","","","","","","","","","","","","","","","","","","","","","","",""
"1496","","image-button-response","110","761349","0.0-104.0","A16A6ZCW538FVS","img_art/28.jpg","2","","","","","","","","","","","","","","","","","","","","","","","","",""
"2573","","image-button-response","111","763925","0.0-105.0-0.0","A16A6ZCW538FVS","img_art/28.jpg","0","","","","","","","","","","","","","","","","","","","","","","","","",""
"1494","","image-button-response","112","765428","0.0-106.0-0.0","A16A6ZCW538FVS","img_art/28.jpg","3","","","","","","","","","","","","","","","","","","","","","","","","",""
"null","","html-keyboard-response","113","765932","0.0-107.0","A16A6ZCW538FVS","<p style=""font-size: 48px;"">+</p>","","","","","null","allTrialResponses","500","1","9","img_art/28.jpg","4","Awesome","Leah,Cassidy,Kylie,Monica,Lauren,Brittany","Too me it's a mish mash, true abstract,-37,360,20","Almost looks like child's artwork, sloppy and chaotic,6,140,20","Overpopulated city,35,300,20","The dark colors make it look dirty and the shapes make me uncomfortable,-50,360,20","I feel that the image is invoking a sense of negativity.,-15,340,20","I don't like the colors or the design.,-20,40,20","Kylie","Overpopulated city,35,300,20","Leah","Too me it's a mish mash, true abstract,-37,360,20","Monica","The dark colors make it look dirty and the shapes make me uncomfortable,-50,360,20","7"
"19217","","survey-text","114","785165","0.0-108.0-0.0","A16A6ZCW538FVS","","","","{""Q0"":""The boy sketching the art.""}","","","","","","","","","","","","","","","","","","","","","","",""
"3834","","image-slider-response","115","789018","0.0-109.0","A16A6ZCW538FVS","","","","","-11","","","","","","","","","","","","","","","","","","","","","",""
"null","","image-button-response","116","794049","0.0-110.0","A16A6ZCW538FVS","img_art/3.jpg","null","","","","","","","","","","","","","","","","","","","","","","","","",""
"1715","","image-button-response","117","795771","0.0-111.0","A16A6ZCW538FVS","img_art/3.jpg","3","","","","","","","","","","","","","","","","","","","","","","","","",""
"1274","","image-button-response","118","797054","0.0-112.0-0.0","A16A6ZCW538FVS","img_art/3.jpg","1","","","","","","","","","","","","","","","","","","","","","","","","",""
"507","","image-button-response","119","797579","0.0-113.0-0.0","A16A6ZCW538FVS","img_art/3.jpg","2","","","","","","","","","","","","","","","","","","","","","","","","",""
"null","","html-keyboard-response","120","799814","0.0-114.0","A16A6ZCW538FVS","<p style=""font-size: 48px;"">+</p>","","","","","null","allTrialResponses","1500","1","10","img_art/3.jpg","-11","The boy sketching the art.","Leah,Alyssa,Kylie,Monica,Michelle,Kathryn","Scratchy scrawly all one color, looks like a mistake,-28,360,20","Looks like someone spilled ketchup and forgot to clean it up,-30,160,20","Confusion and mayhem,-10,300,20","It looks like random scribbles by a child and not appealing,-38,360,20","Ok, just a bunch of red lines and a grey smudge. Would pass this right by in a gallery,-12,280,20","This gives me a negative feeling, like someone trying to scratch out their flaws. I see low self-esteem.,-20,140,20","Monica","It looks like random scribbles by a child and not appealing,-38,360,20","Alyssa","Looks like someone spilled ketchup and forgot to clean it up,-30,160,20","Kylie","Confusion and mayhem,-10,300,20","7"
"3818","","survey-text","121","803647","0.0-115.0-0.0","A16A6ZCW538FVS","","","","{""Q0"":""our""}","","","","","","","","","","","","","","","","","","","","","","",""
"15014","","survey-text","122","818668","0.0-116.0-0.0","A16A6ZCW538FVS","","","","{""Q0"":""The art show water falls.""}","","","","","","","","","","","","","","","","","","","","","","",""
"4834","","image-slider-response","123","823507","0.0-117.0","A16A6ZCW538FVS","","","","","24","","","","","","","","","","","","","","","","","","","","","",""
"null","","image-button-response","124","828516","0.0-118.0","A16A6ZCW538FVS","img_art/24.jpg","null","","","","","","","","","","","","","","","","","","","","","","","","",""
"887","","image-button-response","125","829405","0.0-119.0","A16A6ZCW538FVS","img_art/24.jpg","3","","","","","","","","","","","","","","","","","","","","","","","","",""
"1468","","image-button-response","126","830876","0.0-120.0-0.0","A16A6ZCW538FVS","img_art/24.jpg","1","","","","","","","","","","","","","","","","","","","","","","","","",""
"1088","","image-button-response","127","831982","0.0-121.0-0.0","A16A6ZCW538FVS","img_art/24.jpg","0","","","","","","","","","","","","","","","","","","","","","","","","",""
"null","","html-keyboard-response","128","832487","0.0-122.0","A16A6ZCW538FVS","<p style=""font-size: 48px;"">+</p>","","","","","null","allTrialResponses","500","1","11","img_art/24.jpg","24","The art show water falls.","Kaylee,Alyssa,Kylie,Monica,Megan,Olivia","lovely forest vibes,36,200,20","Beautiful.Nice use of colors and invokes feelings of serene and peace,40,160,20","Forest waterfall,40,300,20","It looks alive, like I can hear the water flowing,41,360,20","Classic palette lacks real world 3d construction,19,200,20","tranquility in the stream,34,40,20","Monica","It looks alive, like I can hear the water flowing,41,360,20","Alyssa","Beautiful.Nice use of colors and invokes feelings of serene and peace,40,160,20","Kaylee","lovely forest vibes,36,200,20","7"
"24328","","survey-text","129","856837","0.0-123.0-0.0","A16A6ZCW538FVS","","","","{""Q0"":""The art showing the see and the ship.""}","","","","","","","","","","","","","","","","","","","","","","",""
"4024","","image-slider-response","130","860866","0.0-124.0","A16A6ZCW538FVS","","","","","31","","","","","","","","","","","","","","","","","","","","","",""
"null","","image-button-response","131","865968","0.0-125.0","A16A6ZCW538FVS","img_art/10.jpg","null","","","","","","","","","","","","","","","","","","","","","","","","",""
"1283","","image-button-response","132","867255","0.0-126.0","A16A6ZCW538FVS","img_art/10.jpg","1","","","","","","","","","","","","","","","","","","","","","","","","",""
"1168","","image-button-response","133","868427","0.0-127.0-0.0","A16A6ZCW538FVS","img_art/10.jpg","2","","","","","","","","","","","","","","","","","","","","","","","","",""
"1039","","image-button-response","134","869471","0.0-128.0-0.0","A16A6ZCW538FVS","img_art/10.jpg","3","","","","","","","","","","","","","","","","","","","","","","","","",""
"null","","html-keyboard-response","135","869982","0.0-129.0","A16A6ZCW538FVS","<p style=""font-size: 48px;"">+</p>","","","","","null","allTrialResponses","500","1","12","img_art/10.jpg","31","The art showing the see and the ship.","Kaylee,Alyssa,Gabriela,Monica,Hannah,Kelsey","a blue whale on the sea,12,200,20","Bleak and uninteresting,-10,160,20","It looks like a sea monster overtaking a ship,21,140,20","It doesn't look pleasing to the eye, it kind of looks like an animal but a dirty one,-38,360,20","This one is interesting. I like it.,11,240,20","reminds me of a violin,9,240,20","Alyssa","Bleak and uninteresting,-10,160,20","Gabriela","It looks like a sea monster overtaking a ship,21,140,20","Monica","It doesn't look pleasing to the eye, it kind of looks like an animal but a dirty one,-38,360,20","7"
"21399","","survey-text","136","891392","0.0-130.0-0.0","A16A6ZCW538FVS","","","","{""Q0"":""Very good""}","","","","","","","","","","","","","","","","","","","","","","",""
"2533","","image-slider-response","137","893930","0.0-131.0","A16A6ZCW538FVS","","","","","6","","","","","","","","","","","","","","","","","","","","","",""
"null","","image-button-response","138","898938","0.0-132.0","A16A6ZCW538FVS","img_art/7.jpg","null","","","","","","","","","","","","","","","","","","","","","","","","",""
"1404","","image-button-response","139","900348","0.0-133.0","A16A6ZCW538FVS","img_art/7.jpg","3","","","","","","","","","","","","","","","","","","","","","","","","",""
"1220","","image-button-response","140","901571","0.0-134.0-0.0","A16A6ZCW538FVS","img_art/7.jpg","1","","","","","","","","","","","","","","","","","","","","","","","","",""
"1461","","image-button-response","141","903037","0.0-135.0-0.0","A16A6ZCW538FVS","img_art/7.jpg","4","","","","","","","","","","","","","","","","","","","","","","","","",""
"null","","html-keyboard-response","142","903541","0.0-136.0","A16A6ZCW538FVS","<p style=""font-size: 48px;"">+</p>","","","","","null","allTrialResponses","500","1","13","img_art/7.jpg","6","Very good","Abigail,Alyssa,Gabriela,Monica,Mariah,Paige","Looks like a skin disease,-31,20,20","It looks like someone took a picture of a muddy ground and called it art.,-41,160,20","it looks like an ant farm,12,140,20","It looks like bloody scabs on skin, I don't like it,-42,360,20","The dried bottom of a puddle in July.,-41,140,20","Happy. Looking at the moon,43,60,20","Monica","It looks like bloody scabs on skin, I don't like it,-42,360,20","Alyssa","It looks like someone took a picture of a muddy ground and called it art.,-41,160,20","Mariah","The dried bottom of a puddle in July.,-41,140,20","7"
"46420","","survey-text","143","949981","0.0-137.0-0.0","A16A6ZCW538FVS","","","","{""Q0"":""The paint art is very spider fly.""}","","","","","","","","","","","","","","","","","","","","","","",""
"3682","","image-slider-response","144","953668","0.0-138.0","A16A6ZCW538FVS","","","","","19","","","","","","","","","","","","","","","","","","","","","",""
"null","","image-button-response","145","958696","0.0-139.0","A16A6ZCW538FVS","img_art/13.jpg","null","","","","","","","","","","","","","","","","","","","","","","","","",""
"6336","","image-button-response","146","965034","0.0-140.0","A16A6ZCW538FVS","img_art/13.jpg","3","","","","","","","","","","","","","","","","","","","","","","","","",""
"2022","","image-button-response","147","967061","0.0-141.0-0.0","A16A6ZCW538FVS","img_art/13.jpg","1","","","","","","","","","","","","","","","","","","","","","","","","",""
"745","","image-button-response","148","967813","0.0-142.0-0.0","A16A6ZCW538FVS","img_art/13.jpg","2","","","","","","","","","","","","","","","","","","","","","","","","",""
"null","","html-keyboard-response","149","968318","0.0-143.0","A16A6ZCW538FVS","<p style=""font-size: 48px;"">+</p>","","","","","null","allTrialResponses","500","1","14","img_art/13.jpg","19","The paint art is very spider fly.","Brianna,Alyssa,Taylor,Monica,Mariah,Laura","This is a very cool painting, something an art teacher or professor would own.,22,20,20","Pretty and it reminds me of rain droplets running down a window on a rainy day.,40,160,20","It makes me think of sitting inside on a rainy day while drinking a warm coffee,32,340,20","It's like any other splatter paint art piece, nothing special,1,360,20","Rain on a cold window.,22,140,20","water on my shower curtain - I feel refreshed, renewed,9,320,20","Monica","It's like any other splatter paint art piece, nothing special,1,360,20","Alyssa","Pretty and it reminds me of rain droplets running down a window on a rainy day.,40,160,20","Taylor","It makes me think of sitting inside on a rainy day while drinking a warm coffee,32,340,20","7"
"24262","","survey-text","150","992596","0.0-144.0-0.0","A16A6ZCW538FVS","","","","{""Q0"":""The art is ran of cuth""}","","","","","","","","","","","","","","","","","","","","","","",""
"2138","","image-slider-response","151","994737","0.0-145.0","A16A6ZCW538FVS","","","","","3","","","","","","","","","","","","","","","","","","","","","",""
"null","","image-button-response","152","999766","0.0-146.0","A16A6ZCW538FVS","img_art/18.jpg","null","","","","","","","","","","","","","","","","","","","","","","","","",""
"286","","image-button-response","153","1000076","0.0-147.0","A16A6ZCW538FVS","img_art/18.jpg","3","","","","","","","","","","","","","","","","","","","","","","","","",""
"1250","","image-button-response","154","1001339","0.0-148.0-0.0","A16A6ZCW538FVS","img_art/18.jpg","1","","","","","","","","","","","","","","","","","","","","","","","","",""
"653","","image-button-response","155","1001995","0.0-149.0-0.0","A16A6ZCW538FVS","img_art/18.jpg","2","","","","","","","","","","","","","","","","","","","","","","","","",""
"null","","html-keyboard-response","156","1003500","0.0-150.0","A16A6ZCW538FVS","<p style=""font-size: 48px;"">+</p>","","","","","null","allTrialResponses","1500","1","15","img_art/18.jpg","3","The art is ran of cuth","Jacqueline,Alyssa,Taylor,Monica,Rachel,Molly","Kinda neat, looks like cavalry, or a knight.,15,300,20","There are alot of elements to this painting and a good mix of colors,32,160,20","Another ominous painting,-10,340,20","It doesn't look like much, the colors are dark and it doesn't really make me feel anything.,-2,360,20","This one seems rather ghoulish to me.,-41,80,20","White and yellow look awesome and the picture's dynamics are wonderful.,30,340,20","Monica","It doesn't look like much, the colors are dark and it doesn't really make me feel anything.,-2,360,20","Alyssa","There are alot of elements to this painting and a good mix of colors,32,160,20","Taylor","Another ominous painting,-10,340,20","7"
"3815","","survey-text","157","1007332","0.0-151.0-0.0","A16A6ZCW538FVS","","","","{""Q0"":""course""}","","","","","","","","","","","","","","","","","","","","","","",""
"27414","","survey-text","158","1034756","0.0-152.0-0.0","A16A6ZCW538FVS","","","","{""Q0"":""the art is the arrow.""}","","","","","","","","","","","","","","","","","","","","","","",""
"3410","","image-slider-response","159","1038175","0.0-153.0","A16A6ZCW538FVS","","","","","12","","","","","","","","","","","","","","","","","","","","","",""
"null","","image-button-response","160","1044053","0.0-154.0","A16A6ZCW538FVS","img_art/15.jpg","null","","","","","","","","","","","","","","","","","","","","","","","","",""
"3131","","image-button-response","161","1047187","0.0-155.0","A16A6ZCW538FVS","img_art/15.jpg","3","","","","","","","","","","","","","","","","","","","","","","","","",""
"1025","","image-button-response","162","1048215","0.0-156.0-0.0","A16A6ZCW538FVS","img_art/15.jpg","1","","","","","","","","","","","","","","","","","","","","","","","","",""
"1340","","image-button-response","163","1049558","0.0-157.0-0.0","A16A6ZCW538FVS","img_art/15.jpg","5","","","","","","","","","","","","","","","","","","","","","","","","",""
"null","","html-keyboard-response","164","1051060","0.0-158.0","A16A6ZCW538FVS","<p style=""font-size: 48px;"">+</p>","","","","","null","allTrialResponses","1500","1","16","img_art/15.jpg","12","the art is the arrow.","Christina,Alyssa,Taylor,Monica,Crystal,Vanessa","I really like the colors,14,240,20","Uninteresting and too much black,-30,160,20","The blues are soothing,21,340,20","I don't feel much of anything when looking at this, it's just a random pattern,1,360,20","The blotted black spots create a nice contrast between the brush strokes within the center and sides. I like it.,41,300,20","I don't even know what's going on here. Again, this is too abstract.,-21,380,20","Monica","I don't feel much of anything when looking at this, it's just a random pattern,1,360,20","Alyssa","Uninteresting and too much black,-30,160,20","Vanessa","I don't even know what's going on here. Again, this is too abstract.,-21,380,20","7"
"7955","","survey-text","165","1059029","0.0-159.0-0.0","A16A6ZCW538FVS","","","","{""Q0"":""Awesome""}","","","","","","","","","","","","","","","","","","","","","","",""
"4108","","image-slider-response","166","1063141","0.0-160.0","A16A6ZCW538FVS","","","","","27","","","","","","","","","","","","","","","","","","","","","",""
"null","","image-button-response","167","1070845","0.0-161.0","A16A6ZCW538FVS","img_art/29.jpg","null","","","","","","","","","","","","","","","","","","","","","","","","",""
"83020","","image-button-response","168","1153867","0.0-162.0","A16A6ZCW538FVS","img_art/29.jpg","4","","","","","","","","","","","","","","","","","","","","","","","","",""
"774","","image-button-response","169","1154647","0.0-163.0-0.0","A16A6ZCW538FVS","img_art/29.jpg","1","","","","","","","","","","","","","","","","","","","","","","","","",""
"1169","","image-button-response","170","1155821","0.0-164.0-0.0","A16A6ZCW538FVS","img_art/29.jpg","3","","","","","","","","","","","","","","","","","","","","","","","","",""
"null","","html-keyboard-response","171","1157084","0.0-165.0","A16A6ZCW538FVS","<p style=""font-size: 48px;"">+</p>","","","","","null","allTrialResponses","1000","1","17","img_art/29.jpg","27","Awesome","Kristen,Alyssa,Jessica,Monica,Alexandria,Vanessa","danger, crime scene,,10,280,20","Its interesting although doesnt illicit any strong emotions from me,10,160,20","It looks cool but I don't really get what's going on, it looks too busy,0,400,20","There's too much black and it looks sloppy,-35,360,20","it is difficult to look at but you can't look away,-25,80,20","I hate the red x over everything, hate the black hate how hopeless this is.,-50,380,20","Alexandria","it is difficult to look at but you can't look away,-25,80,20","Alyssa","Its interesting although doesnt illicit any strong emotions from me,10,160,20","Monica","There's too much black and it looks sloppy,-35,360,20","7"
"25673","","survey-text","172","1182843","0.0-166.0-0.0","A16A6ZCW538FVS","","","","{""Q0"":""The art show the queen""}","","","","","","","","","","","","","","","","","","","","","","",""
"2979","","image-slider-response","173","1185827","0.0-167.0","A16A6ZCW538FVS","","","","","27","","","","","","","","","","","","","","","","","","","","","",""
"null","","image-button-response","174","1190948","0.0-168.0","A16A6ZCW538FVS","img_art/25.jpg","null","","","","","","","","","","","","","","","","","","","","","","","","",""
"1675","","image-button-response","175","1192626","0.0-169.0","A16A6ZCW538FVS","img_art/25.jpg","4","","","","","","","","","","","","","","","","","","","","","","","","",""
"808","","image-button-response","176","1193439","0.0-170.0-0.0","A16A6ZCW538FVS","img_art/25.jpg","0","","","","","","","","","","","","","","","","","","","","","","","","",""
"744","","image-button-response","177","1194188","0.0-171.0-0.0","A16A6ZCW538FVS","img_art/25.jpg","1","","","","","","","","","","","","","","","","","","","","","","","","",""
"null","","html-keyboard-response","178","1195404","0.0-172.0","A16A6ZCW538FVS","<p style=""font-size: 48px;"">+</p>","","","","","null","allTrialResponses","1000","1","18","img_art/25.jpg","27","The art show the queen","Julia,Alyssa,Maria,Monica,Alexandria,Michaela","the color is pleasing and draws out the contrast of the lines,10,40,20","Dark silhouette against the murky background Illicites an ominous feeling. Don't really like it.,-20,160,20","I find it enjoyable - mainly because it is not art I ever expected to see,16,120,20","The skeletal figure is a bit scary,-12,360,20","the contrasting colors are very interesting,24,80,20","It looks like people worshipping a statue,33,260,20","Alexandria","the contrasting colors are very interesting,24,80,20","Julia","the color is pleasing and draws out the contrast of the lines,10,40,20","Alyssa","Dark silhouette against the murky background Illicites an ominous feeling. Don't really like it.,-20,160,20","7"
"14758","","survey-text","179","1210171","0.0-173.0-0.0","A16A6ZCW538FVS","","","","{""Q0"":""There are so many way in the life.""}","","","","","","","","","","","","","","","","","","","","","","",""
"3860","","image-slider-response","180","1214035","0.0-174.0","A16A6ZCW538FVS","","","","","33","","","","","","","","","","","","","","","","","","","","","",""
"null","","image-button-response","181","1219038","0.0-175.0","A16A6ZCW538FVS","img_art/11.jpg","null","","","","","","","","","","","","","","","","","","","","","","","","",""
"1065","","image-button-response","182","1220111","0.0-176.0","A16A6ZCW538FVS","img_art/11.jpg","4","","","","","","","","","","","","","","","","","","","","","","","","",""
"1628","","image-button-response","183","1221743","0.0-177.0-0.0","A16A6ZCW538FVS","img_art/11.jpg","0","","","","","","","","","","","","","","","","","","","","","","","","",""
"300","","image-button-response","184","1222046","0.0-178.0-0.0","A16A6ZCW538FVS","img_art/11.jpg","1","","","","","","","","","","","","","","","","","","","","","","","","",""
"null","","html-keyboard-response","185","1223055","0.0-179.0","A16A6ZCW538FVS","<p style=""font-size: 48px;"">+</p>","","","","","null","allTrialResponses","1000","1","19","img_art/11.jpg","33","There are so many way in the life.","Julia,Alyssa,Margaret,Jenna,Alexandria,Sophia","this looks like a beautiful rainy day in a hellish urban mountain city,14,40,20","Its interesting.,20,160,20","dont like the colors. Its a gloomy day in london and this is the transit system,-26,100,20","makes me think of city highways & bridges on a rainy, foggy day. I like the melancholy it evokes.,43,360,20","it reminds me of music,43,80,20","WOW!  I love how the ships and the seas become one in this piece.,50,280,20","Alexandria","it reminds me of music,43,80,20","Julia","this looks like a beautiful rainy day in a hellish urban mountain city,14,40,20","Alyssa","Its interesting.,20,160,20","7"
"6864","","survey-text","186","1229933","0.0-180.0-0.0","A16A6ZCW538FVS","","","","{""Q0"":""Teddy bear""}","","","","","","","","","","","","","","","","","","","","","","",""
"1986","","image-slider-response","187","1231922","0.0-181.0","A16A6ZCW538FVS","","","","","4","","","","","","","","","","","","","","","","","","","","","",""
"null","","image-button-response","188","1236938","0.0-182.0","A16A6ZCW538FVS","img_art/16.jpg","null","","","","","","","","","","","","","","","","","","","","","","","","",""
"6192","","image-button-response","189","1243147","0.0-183.0","A16A6ZCW538FVS","img_art/16.jpg","5","","","","","","","","","","","","","","","","","","","","","","","","",""
"2972","","image-button-response","190","1246125","0.0-184.0-0.0","A16A6ZCW538FVS","img_art/16.jpg","0","","","","","","","","","","","","","","","","","","","","","","","","",""
"2903","","image-button-response","191","1249034","0.0-185.0-0.0","A16A6ZCW538FVS","img_art/16.jpg","4","","","","","","","","","","","","","","","","","","","","","","","","",""
"null","","html-keyboard-response","192","1250563","0.0-186.0","A16A6ZCW538FVS","<p style=""font-size: 48px;"">+</p>","","","","","null","allTrialResponses","1500","1","20","img_art/16.jpg","4","Teddy bear","Julia,Alyssa,Angelica,Mackenzie,Alexandria,Ashley","I love the teddy bear,50,40,20","It creeps me out.,-50,160,20","This is creepy and puerile.,-45,280,20","I like the mixture of images,23,20,20","while simple, it seems to have a deeper meaning on childhood,33,80,20","A lot fo these could abstract or childrens work.,23,320,20","Ashley","A lot fo these could abstract or childrens work.,23,320,20","Julia","I love the teddy bear,50,40,20","Alexandria","while simple, it seems to have a deeper meaning on childhood,33,80,20","7"
"3502","","survey-text","193","1254110","0.0-187.0-0.0","A16A6ZCW538FVS","","","","{""Q0"":""we""}","","","","","","","","","","","","","","","","","","","","","","",""
"6539","","survey-text","194","1260653","0.0-188.0-0.0","A16A6ZCW538FVS","","","","{""Q0"":""smudging art""}","","","","","","","","","","","","","","","","","","","","","","",""
"1434","","image-slider-response","195","1262092","0.0-189.0","A16A6ZCW538FVS","","","","","2","","","","","","","","","","","","","","","","","","","","","",""
"4522","","image-button-response","196","1267335","0.0-190.0","A16A6ZCW538FVS","img_art/2.jpg","0","","","","","","","","","","","","","","","","","","","","","","","","",""
"1195","","image-button-response","197","1268532","0.0-191.0","A16A6ZCW538FVS","img_art/2.jpg","0","","","","","","","","","","","","","","","","","","","","","","","","",""
"1172","","image-button-response","198","1269709","0.0-192.0-0.0","A16A6ZCW538FVS","img_art/2.jpg","4","","","","","","","","","","","","","","","","","","","","","","","","",""
"706","","image-button-response","199","1270420","0.0-193.0-0.0","A16A6ZCW538FVS","img_art/2.jpg","2","","","","","","","","","","","","","","","","","","","","","","","","",""
"null","","html-keyboard-response","200","1272008","0.0-194.0","A16A6ZCW538FVS","<p style=""font-size: 48px;"">+</p>","","","","","null","allTrialResponses","1500","1","21","img_art/2.jpg","2","smudging art","Julia,Katelyn,Kimberly,Cassandra,Alexandria,Ashley","I like how it looks like a cute smiling face,43,40,20","Looks childish and i dont like the texture,-25,100,20","I like the green,13,260,20","I didn't like this it looked like a kindergardner painted it and the green was out of place.,-46,120,20","too abstract and confusing,-19,80,20","I think I can make out a face in there.,25,320,20","Julia","I like how it looks like a cute smiling face,43,40,20","Alexandria","too abstract and confusing,-19,80,20","Kimberly","I like the green,13,260,20","7"
"8754","","survey-text","201","1280772","0.0-195.0-0.0","A16A6ZCW538FVS","","","","{""Q0"":""Brush art ""}","","","","","","","","","","","","","","","","","","","","","","",""
"2671","","image-slider-response","202","1283446","0.0-196.0","A16A6ZCW538FVS","","","","","8","","","","","","","","","","","","","","","","","","","","","",""
"null","","image-button-response","203","1288450","0.0-197.0","A16A6ZCW538FVS","img_art/27.jpg","null","","","","","","","","","","","","","","","","","","","","","","","","",""
"1112","","image-button-response","204","1289565","0.0-198.0","A16A6ZCW538FVS","img_art/27.jpg","1","","","","","","","","","","","","","","","","","","","","","","","","",""
"1718","","image-button-response","205","1291287","0.0-199.0-0.0","A16A6ZCW538FVS","img_art/27.jpg","3","","","","","","","","","","","","","","","","","","","","","","","","",""
"1129","","image-button-response","206","1292420","0.0-200.0-0.0","A16A6ZCW538FVS","img_art/27.jpg","2","","","","","","","","","","","","","","","","","","","","","","","","",""
"null","","html-keyboard-response","207","1292924","0.0-201.0","A16A6ZCW538FVS","<p style=""font-size: 48px;"">+</p>","","","","","null","allTrialResponses","500","1","22","img_art/27.jpg","8","Brush art ","Julia,Kaitlyn,Kimberly,Hailey,Alexandria,Mikayla","Colors could be more pleasing, but I really like the thinner lines superimposed over the background,25,40,20","The variation of orange is nice,9,80,20","Nothing stands out,-23,260,20","fruity and sweet. warm and juicy,10,200,20","it looks very simple and childlike,-31,80,20","It kinda reminds me of sushi.,16,300,20","Kaitlyn","The variation of orange is nice,9,80,20","Hailey","fruity and sweet. warm and juicy,10,200,20","Kimberly","Nothing stands out,-23,260,20","7"
"55647","","survey-text","208","1348583","0.0-202.0-0.0","A16A6ZCW538FVS","","","","{""Q0"":""Blurred picture""}","","","","","","","","","","","","","","","","","","","","","","",""
"3056","","image-slider-response","209","1351647","0.0-203.0","A16A6ZCW538FVS","","","","","19","","","","","","","","","","","","","","","","","","","","","",""
"null","","image-button-response","210","1357069","0.0-204.0","A16A6ZCW538FVS","img_art/22.jpg","null","","","","","","","","","","","","","","","","","","","","","","","","",""
"2619","","image-button-response","211","1359691","0.0-205.0","A16A6ZCW538FVS","img_art/22.jpg","4","","","","","","","","","","","","","","","","","","","","","","","","",""
"1150","","image-button-response","212","1360843","0.0-206.0-0.0","A16A6ZCW538FVS","img_art/22.jpg","2","","","","","","","","","","","","","","","","","","","","","","","","",""
"1366","","image-button-response","213","1362215","0.0-207.0-0.0","A16A6ZCW538FVS","img_art/22.jpg","5","","","","","","","","","","","","","","","","","","","","","","","","",""
"null","","html-keyboard-response","214","1363718","0.0-208.0","A16A6ZCW538FVS","<p style=""font-size: 48px;"">+</p>","","","","","null","allTrialResponses","1500","1","23","img_art/22.jpg","19","Blurred picture","Gabrielle,Kaitlyn,Kimberly,Hailey,Cheyenne,Kayla","another OK work, mostly because of the blend of colors,12,160,20","Would be better if random black object was not present,11,80,20","I like the key near the sphere in the center,19,260,20","a lost balloon in outer space,12,200,20","Didn't illicit any reaction,1,200,20","I don't like that it looks like a person is there upside down.,-16,180,20","Cheyenne","Didn't illicit any reaction,1,200,20","Kimberly","I like the key near the sphere in the center,19,260,20","Kayla","I don't like that it looks like a person is there upside down.,-16,180,20","7"
"19303","","survey-text","215","1383044","0.0-209.0-0.0","A16A6ZCW538FVS","","","","{""Q0"":""The art near the river.""}","","","","","","","","","","","","","","","","","","","","","","",""
"1954","","image-slider-response","216","1385016","0.0-210.0","A16A6ZCW538FVS","","","","","4","","","","","","","","","","","","","","","","","","","","","",""
"null","","image-button-response","217","1390036","0.0-211.0","A16A6ZCW538FVS","img_art/20.jpg","null","","","","","","","","","","","","","","","","","","","","","","","","",""
"93591","","image-button-response","218","1483631","0.0-212.0","A16A6ZCW538FVS","img_art/20.jpg","4","","","","","","","","","","","","","","","","","","","","","","","","",""
"1072","","image-button-response","219","1484706","0.0-213.0-0.0","A16A6ZCW538FVS","img_art/20.jpg","2","","","","","","","","","","","","","","","","","","","","","","","","",""
"1166","","image-button-response","220","1485876","0.0-214.0-0.0","A16A6ZCW538FVS","img_art/20.jpg","5","","","","","","","","","","","","","","","","","","","","","","","","",""
"null","","html-keyboard-response","221","1487056","0.0-215.0","A16A6ZCW538FVS","<p style=""font-size: 48px;"">+</p>","","","","","null","allTrialResponses","1000","1","24","img_art/20.jpg","4","The art near the river.","Cynthia,Katherine,Kimberly,Stephanie,Cheyenne,Kayla","Curious about what lies here,10,320,20","More dark colors and blurry objects.,13,120,20","Something bad has happened TO reality,-23,260,20","Looks like an old gold mining down now deserted.,11,300,20","Liked the background,15,200,20","Something fell over and is burning, but it's kinda dope, you know?,14,180,20","Cheyenne","Liked the background,15,200,20","Kimberly","Something bad has happened TO reality,-23,260,20","Kayla","Something fell over and is burning, but it's kinda dope, you know?,14,180,20","7"
"19300","","survey-text","222","1506372","0.0-216.0-0.0","A16A6ZCW538FVS","","","","{""Q0"":""This art is feel space.""}","","","","","","","","","","","","","","","","","","","","","","",""
"1814","","image-slider-response","223","1508193","0.0-217.0","A16A6ZCW538FVS","","","","","4","","","","","","","","","","","","","","","","","","","","","",""
"null","","image-button-response","224","1513197","0.0-218.0","A16A6ZCW538FVS","img_art/1.jpg","null","","","","","","","","","","","","","","","","","","","","","","","","",""
"1309","","image-button-response","225","1514511","0.0-219.0","A16A6ZCW538FVS","img_art/1.jpg","2","","","","","","","","","","","","","","","","","","","","","","","","",""
"1055","","image-button-response","226","1515576","0.0-220.0-0.0","A16A6ZCW538FVS","img_art/1.jpg","1","","","","","","","","","","","","","","","","","","","","","","","","",""
"882","","image-button-response","227","1516465","0.0-221.0-0.0","A16A6ZCW538FVS","img_art/1.jpg","4","","","","","","","","","","","","","","","","","","","","","","","","",""
"null","","html-keyboard-response","228","1517467","0.0-222.0","A16A6ZCW538FVS","<p style=""font-size: 48px;"">+</p>","","","","","null","allTrialResponses","1000","1","25","img_art/1.jpg","4","This art is feel space.","Chelsea,Anna,Kimberly,Elizabeth,Cheyenne,Kayla","The colors are a little too intense.,1,180,20","The colors are nice but that's all it is,21,300,20","It's like being out on a psychedelic lake,32,260,20","Absolutely love this painting,50,20,20","Nothing really going on but good color choices.,-3,200,20","Happy! Reminds me of hiking in tennesee.,18,180,20","Kimberly","It's like being out on a psychedelic lake,32,260,20","Anna","The colors are nice but that's all it is,21,300,20","Cheyenne","Nothing really going on but good color choices.,-3,200,20","7"
"3910","","survey-text","229","1521416","0.0-223.0-0.0","A16A6ZCW538FVS","","","","{""Q0"":""table""}","","","","","","","","","","","","","","","","","","","","","","",""
"9105","","survey-text","230","1530522","0.0-224.0-0.0","A16A6ZCW538FVS","","","","{""Q0"":""Its the nature of the art""}","","","","","","","","","","","","","","","","","","","","","","",""
"2145","","image-slider-response","231","1532671","0.0-225.0","A16A6ZCW538FVS","","","","","22","","","","","","","","","","","","","","","","","","","","","",""
"null","","image-button-response","232","1538048","0.0-226.0","A16A6ZCW538FVS","img_art/21.jpg","null","","","","","","","","","","","","","","","","","","","","","","","","",""
"122378","","image-button-response","233","1660430","0.0-227.0","A16A6ZCW538FVS","img_art/21.jpg","4","","","","","","","","","","","","","","","","","","","","","","","","",""
"759","","image-button-response","234","1661192","0.0-228.0-0.0","A16A6ZCW538FVS","img_art/21.jpg","2","","","","","","","","","","","","","","","","","","","","","","","","",""
"695","","image-button-response","235","1661892","0.0-229.0-0.0","A16A6ZCW538FVS","img_art/21.jpg","1","","","","","","","","","","","","","","","","","","","","","","","","",""
"null","","html-keyboard-response","236","1662894","0.0-230.0","A16A6ZCW538FVS","<p style=""font-size: 48px;"">+</p>","","","","","null","allTrialResponses","1000","1","26","img_art/21.jpg","22","Its the nature of the art","Melissa,Anna,Kimberly,Morgan,Cheyenne,Sara","feels like a harbor scene,11,240,20","I love the colors and the differences between the left and right sides.,22,300,20","Another swathe of ocean,31,260,20","Survivable storm on the open sea.,27,380,20","Don't see anything special about it,-21,200,20","It looks confusing,-21,160,20","Cheyenne","Don't see anything special about it,-21,200,20","Kimberly","Another swathe of ocean,31,260,20","Anna","I love the colors and the differences between the left and right sides.,22,300,20","7"
"11805","","survey-text","237","1674744","0.0-231.0-0.0","A16A6ZCW538FVS","","","","{""Q0"":""Something write the art""}","","","","","","","","","","","","","","","","","","","","","","",""
"2798","","image-slider-response","238","1677551","0.0-232.0","A16A6ZCW538FVS","","","","","22","","","","","","","","","","","","","","","","","","","","","",""
"null","","image-button-response","239","1683596","0.0-233.0","A16A6ZCW538FVS","img_art/23.jpg","null","","","","","","","","","","","","","","","","","","","","","","","","",""
"12179","","image-button-response","240","1695821","0.0-234.0","A16A6ZCW538FVS","img_art/23.jpg","4","","","","","","","","","","","","","","","","","","","","","","","","",""
"630","","image-button-response","241","1696464","0.0-235.0-0.0","A16A6ZCW538FVS","img_art/23.jpg","5","","","","","","","","","","","","","","","","","","","","","","","","",""
"688","","image-button-response","242","1697163","0.0-236.0-0.0","A16A6ZCW538FVS","img_art/23.jpg","2","","","","","","","","","","","","","","","","","","","","","","","","",""
"null","","html-keyboard-response","243","1698167","0.0-237.0","A16A6ZCW538FVS","<p style=""font-size: 48px;"">+</p>","","","","","null","allTrialResponses","1000","1","27","img_art/23.jpg","22","Something write the art","Briana,Anna,Kimberly,Grace,Cheyenne,Heather","White in the middle look like people dancing naked,19,400,20","I love the colors and the contrast.,50,300,20","Look at all the dancers,26,260,20","Looks like fireworks.,21,180,20","Solid colors but the white throws it off for me.,4,200,20","illegible wording with a graffiti background,1,260,20","Cheyenne","Solid colors but the white throws it off for me.,4,200,20","Heather","illegible wording with a graffiti background,1,260,20","Kimberly","Look at all the dancers,26,260,20","7"
"13028","","survey-text","244","1711221","0.0-238.0-0.0","A16A6ZCW538FVS","","","","{""Q0"":""Its show the roof""}","","","","","","","","","","","","","","","","","","","","","","",""
"1693","","image-slider-response","245","1712918","0.0-239.0","A16A6ZCW538FVS","","","","","3","","","","","","","","","","","","","","","","","","","","","",""
"null","","image-button-response","246","1717926","0.0-240.0","A16A6ZCW538FVS","img_art/4.jpg","null","","","","","","","","","","","","","","","","","","","","","","","","",""
"1496","","image-button-response","247","1719427","0.0-241.0","A16A6ZCW538FVS","img_art/4.jpg","4","","","","","","","","","","","","","","","","","","","","","","","","",""
"1351","","image-button-response","248","1720781","0.0-242.0-0.0","A16A6ZCW538FVS","img_art/4.jpg","2","","","","","","","","","","","","","","","","","","","","","","","","",""
"1405","","image-button-response","249","1722190","0.0-243.0-0.0","A16A6ZCW538FVS","img_art/4.jpg","1","","","","","","","","","","","","","","","","","","","","","","","","",""
"null","","html-keyboard-response","250","1723192","0.0-244.0","A16A6ZCW538FVS","<p style=""font-size: 48px;"">+</p>","","","","","null","allTrialResponses","1000","1","28","img_art/4.jpg","3","Its show the roof","Bailey,Diana,Kimberly,Alicia,Cheyenne,Heather","Boring and tasteless. Almost reminds me of when an art gallery called a banana 'art',-42,360,20","Odd but intriguing. I feel emotion from this. Like a woman bent over carrying these emotions on her back.,33,380,20","It's ok, theres nothing that draws me away from it I guess,0,260,20","ordinary, bland. unmoving.,-6,120,20","Just doesn't look nice.,-40,200,20","looks like an award from an award show.,22,260,20","Cheyenne","Just doesn't look nice.,-40,200,20","Kimberly","It's ok, theres nothing that draws me away from it I guess,0,260,20","Diana","Odd but intriguing. I feel emotion from this. Like a woman bent over carrying these emotions on her back.,33,380,20","7"
"13500","","survey-text","251","1736720","0.0-245.0-0.0","A16A6ZCW538FVS","","","","{""Q0"":""Its like the bus""}","","","","","","","","","","","","","","","","","","","","","","",""
"1916","","image-slider-response","252","1738641","0.0-246.0","A16A6ZCW538FVS","","","","","3","","","","","","","","","","","","","","","","","","","","","",""
"null","","image-button-response","253","1743656","0.0-247.0","A16A6ZCW538FVS","img_art/26.jpg","null","","","","","","","","","","","","","","","","","","","","","","","","",""
"903","","image-button-response","254","1744575","0.0-248.0","A16A6ZCW538FVS","img_art/26.jpg","2","","","","","","","","","","","","","","","","","","","","","","","","",""
"1038","","image-button-response","255","1745616","0.0-249.0-0.0","A16A6ZCW538FVS","img_art/26.jpg","4","","","","","","","","","","","","","","","","","","","","","","","","",""
"833","","image-button-response","256","1746454","0.0-250.0-0.0","A16A6ZCW538FVS","img_art/26.jpg","3","","","","","","","","","","","","","","","","","","","","","","","","",""
"null","","html-keyboard-response","257","1746960","0.0-251.0","A16A6ZCW538FVS","<p style=""font-size: 48px;"">+</p>","","","","","null","allTrialResponses","500","1","29","img_art/26.jpg","3","Its like the bus","Caitlin,Diana,Kimberly,Jamie,Cheyenne,Danielle","At least it is a bit of scenery.,10,80,20","I'm not sure if this is the image of a furniture store or not.,-20,380,20","It looks like I'm staring out of the window of a nice house, but the house is mine,20,260,20","Street corner on a sunny day,5,320,20","No strong reaction but the color scheme is nice,10,200,20","It's a little too yellow-y for me, I'm not a huge fan of the color schemes or setting it portrays.,-20,340,20","Kimberly","It looks like I'm staring out of the window of a nice house, but the house is mine,20,260,20","Cheyenne","No strong reaction but the color scheme is nice,10,200,20","Jamie","Street corner on a sunny day,5,320,20","7"
"13287","","survey-text","258","1760274","0.0-252.0-0.0","A16A6ZCW538FVS","","","","{""Q0"":""There are so may way in the picute.""}","","","","","","","","","","","","","","","","","","","","","","",""
"1565","","image-slider-response","259","1761851","0.0-253.0","A16A6ZCW538FVS","","","","","2","","","","","","","","","","","","","","","","","","","","","",""
"null","","image-button-response","260","1766853","0.0-254.0","A16A6ZCW538FVS","img_art/30.jpg","null","","","","","","","","","","","","","","","","","","","","","","","","",""
"1024","","image-button-response","261","1767880","0.0-255.0","A16A6ZCW538FVS","img_art/30.jpg","4","","","","","","","","","","","","","","","","","","","","","","","","",""
"1203","","image-button-response","262","1769088","0.0-256.0-0.0","A16A6ZCW538FVS","img_art/30.jpg","3","","","","","","","","","","","","","","","","","","","","","","","","",""
"751","","image-button-response","263","1769842","0.0-257.0-0.0","A16A6ZCW538FVS","img_art/30.jpg","0","","","","","","","","","","","","","","","","","","","","","","","","",""
"null","","html-keyboard-response","264","1770858","0.0-258.0","A16A6ZCW538FVS","<p style=""font-size: 48px;"">+</p>","","","","","null","allTrialResponses","1000","1","30","img_art/30.jpg","2","There are so may way in the picute.","Breanna,Kaitlin,Kimberly,Jamie,Cheyenne,Alexandra","Paint scribbled on canvas,-25,380,20","the different roads to take in life,10,60,20","looks like eels,-20,260,20","Cool design and contrast of colors,30,320,20","A bit too dark for my liking,-10,200,20","I really love the pastel colors and the 3D design in this,43,60,20","Cheyenne","A bit too dark for my liking,-10,200,20","Jamie","Cool design and contrast of colors,30,320,20","Breanna","Paint scribbled on canvas,-25,380,20","7"
"17532","","image-button-response_instructions","265","1788407","0.0-259.0","A16A6ZCW538FVS","","0","instructions","","","","","","","","","","","","","","","","","","","","","","","",""
