"rt","url","trial_type","trial_index","time_elapsed","internal_node_id","participant_id","stimulus","button_pressed","Name","responses","response","key_press","variableName","fixationTime","condition","trial","photo","subjectRating","subjectResponse","agentsNames","agent_1_Response","agent_2_Response","agent_3_Response","agent_4_Response","agent_5_Response","agent_6_Response","kept_1_name","kept_1_response","kept_2_name","kept_2_response","kept_3_name","kept_3_response","errorCounter"
"4938","external_page_harvard.html","external-html","0","5082","0.0-0.0","A16K7X677N4WN6","","","","","","","","","","","","","","","","","","","","","","","","","","",""
"1310","","image-button-response","1","6394","0.0-1.0","A16K7X677N4WN6","","0","","","","","","","","","","","","","","","","","","","","","","","","",""
"3215","","image-button-response","2","9626","0.0-2.0-0.0","A16K7X677N4WN6","","1","phone","","","","","","","","","","","","","","","","","","","","","","","",""
"7798","","survey-text","3","17431","0.0-3.0-0.0","A16K7X677N4WN6","","","","{""Q0"":""A16K7X677N4WN6""}","","","","","","","","","","","","","","","","","","","","","","",""
"6950","","image-button-response_instructions","4","24388","0.0-4.0","A16K7X677N4WN6","","0","instructions","","","","","","","","","","","","","","","","","","","","","","","",""
"9344","","image-button-response_instructions","5","33738","0.0-5.0","A16K7X677N4WN6","img_art/ins/popularity/ins1.png","0","instructions","","","","","","","","","","","","","","","","","","","","","","","",""
"4942","","image-button-response_instructions","6","38684","0.0-6.0","A16K7X677N4WN6","img_art/ins/popularity/ins2.png","0","instructions","","","","","","","","","","","","","","","","","","","","","","","",""
"5352","","image-button-response_instructions","7","44042","0.0-7.0","A16K7X677N4WN6","img_art/ins/popularity/ins2Extreme.png","0","instructions","","","","","","","","","","","","","","","","","","","","","","","",""
"59011","","image-button-response_instructions","8","103055","0.0-8.0","A16K7X677N4WN6","img_art/ins/popularity/ins3KEEPpop.PNG","0","instructions","","","","","","","","","","","","","","","","","","","","","","","",""
"5655","","image-button-response_instructions","9","108716","0.0-9.0","A16K7X677N4WN6","img_art/ins/popularity/ins3ANamepop.PNG","0","instructions","","","","","","","","","","","","","","","","","","","","","","","",""
"7286","","image-button-response_instructions","10","116006","0.0-10.0","A16K7X677N4WN6","img_art/ins/popularity/ins3ARatingpop.png","0","instructions","","","","","","","","","","","","","","","","","","","","","","","",""
"3953","","image-button-response_instructions","11","119967","0.0-11.0","A16K7X677N4WN6","img_art/ins/popularity/ins3ATextpop.png","0","instructions","","","","","","","","","","","","","","","","","","","","","","","",""
"4640","","image-button-response_instructions","12","124614","0.0-12.0","A16K7X677N4WN6","img_art/ins/popularity/ins3ALikespop.png","0","instructions","","","","","","","","","","","","","","","","","","","","","","","",""
"9975","","image-button-response_instructions","13","134593","0.0-13.0","A16K7X677N4WN6","img_art/ins/popularity/ins3KEEPpop.PNG","0","instructions","","","","","","","","","","","","","","","","","","","","","","","",""
"11296","","image-button-response_instructions","14","145893","0.0-14.0","A16K7X677N4WN6","img_art/ins/popularity/ins3_5RED.png","0","instructions","","","","","","","","","","","","","","","","","","","","","","","",""
"5148","","image-button-response_instructions","15","151045","0.0-15.0","A16K7X677N4WN6","img_art/ins/popularity/ins3KEEPpop.PNG","0","instructions","","","","","","","","","","","","","","","","","","","","","","","",""
"7186","","image-button-response_instructions","16","158234","0.0-16.0","A16K7X677N4WN6","img_art/ins/popularity/ins4KEEPpop.PNG","0","instructions","","","","","","","","","","","","","","","","","","","","","","","",""
"4730","","image-button-response_instructions","17","162967","0.0-17.0","A16K7X677N4WN6","img_art/ins/popularity/ins5KEEPpop.PNG","0","instructions","","","","","","","","","","","","","","","","","","","","","","","",""
"1742","","image-button-response_instructions","18","164713","0.0-18.0","A16K7X677N4WN6","","0","instructions","","","","","","","","","","","","","","","","","","","","","","","",""
"7180","","survey-text","19","171954","0.0-19.0-0.0","A16K7X677N4WN6","","","","{""Q0"":""but""}","","","","","","","","","","","","","","","","","","","","","","",""
"23206","","survey-text","20","195165","0.0-20.0-0.0","A16K7X677N4WN6","","","","{""Q0"":""I like the colorful artwork and disorganized lines in this art piece.""}","","","","","","","","","","","","","","","","","","","","","","",""
"5145","","image-slider-response","21","200311","0.0-21.0","A16K7X677N4WN6","","","","","29","","","","","","","","","","","","","","","","","","","","","",""
"null","","image-button-response","22","205314","0.0-22.0","A16K7X677N4WN6","img_art/ins/1.jpg","null","","","","","","","","","","","","","","","","","","","","","","","","",""
"2398","","image-button-response","23","207714","0.0-23.0","A16K7X677N4WN6","img_art/ins/1.jpg","5","","","","","","","","","","","","","","","","","","","","","","","","",""
"5611","","image-button-response","24","213331","0.0-24.0-0.0","A16K7X677N4WN6","img_art/ins/1.jpg","1","","","","","","","","","","","","","","","","","","","","","","","","",""
"888","","image-button-response","25","214227","0.0-25.0-0.0","A16K7X677N4WN6","img_art/ins/1.jpg","3","","","","","","","","","","","","","","","","","","","","","","","","",""
"null","","html-keyboard-response","26","214735","0.0-26.0","A16K7X677N4WN6","<p style=""font-size: 48px;"">+</p>","","","","","null","allTrialResponses","500","1","-2","img_art/ins/1.jpg","29","I like the colorful artwork and disorganized lines in this art piece.","Adam,Alex,Ben,Carl,Daniel,Jack","Seems like doodles,-20,20,20","very creative work.,36,40,20","This color reminds me of poo,-46,60,20","very calming artwork,42,80,20","It looks like a murder scene.,-48,100,20","I like the sophisticated brushwork,40,120,20","Jack","I like the sophisticated brushwork,40,120,20","Alex","very creative work.,36,40,20","Carl","very calming artwork,42,80,20","0"
"27638","","survey-text","27","242386","0.0-27.0-0.0","A16K7X677N4WN6","","","","{""Q0"":""I like the red buffalo shape in the middle of this art piece and the texture of this artwork.""}","","","","","","","","","","","","","","","","","","","","","","",""
"3158","","image-slider-response","28","245553","0.0-28.0","A16K7X677N4WN6","","","","","33","","","","","","","","","","","","","","","","","","","","","",""
"null","","image-button-response","29","250557","0.0-29.0","A16K7X677N4WN6","img_art/ins/2.jpg","null","","","","","","","","","","","","","","","","","","","","","","","","",""
"1636","","image-button-response","30","252196","0.0-30.0","A16K7X677N4WN6","img_art/ins/2.jpg","4","","","","","","","","","","","","","","","","","","","","","","","","",""
"6186","","image-button-response","31","258387","0.0-31.0-0.0","A16K7X677N4WN6","img_art/ins/2.jpg","3","","","","","","","","","","","","","","","","","","","","","","","","",""
"4165","","image-button-response","32","262557","0.0-32.0-0.0","A16K7X677N4WN6","img_art/ins/2.jpg","5","","","","","","","","","","","","","","","","","","","","","","","","",""
"null","","html-keyboard-response","33","263063","0.0-33.0","A16K7X677N4WN6","<p style=""font-size: 48px;"">+</p>","","","","","null","allTrialResponses","500","1","-1","img_art/ins/2.jpg","33","I like the red buffalo shape in the middle of this art piece and the texture of this artwork.","James,Alex,Kyle,Carl,John,Jack","looks too angry,-50,140,20","I like the blocks of color arrangements,30,40,20","Idk, it is just annoying,-32,180,20","I can feel the artist's passion in it,45,80,20","love the texture of paint,48,160,20","I would never be able to compose a sophisticated pallete like this,48,120,20","John","love the texture of paint,48,160,20","Carl","I can feel the artist's passion in it,45,80,20","Jack","I would never be able to compose a sophisticated pallete like this,48,120,20","0"
"23159","","survey-text","34","286249","0.0-34.0-0.0","A16K7X677N4WN6","","","","{""Q0"":""I like the blue colors and random striations on this artwork.""}","","","","","","","","","","","","","","","","","","","","","","",""
"2165","","image-slider-response","35","288420","0.0-35.0","A16K7X677N4WN6","","","","","34","","","","","","","","","","","","","","","","","","","","","",""
"null","","image-button-response","36","293428","0.0-36.0","A16K7X677N4WN6","img_art/ins/3.jpg","null","","","","","","","","","","","","","","","","","","","","","","","","",""
"1004","","image-button-response","37","294438","0.0-37.0","A16K7X677N4WN6","img_art/ins/3.jpg","5","","","","","","","","","","","","","","","","","","","","","","","","",""
"525","","image-button-response","38","294971","0.0-38.0-0.0","A16K7X677N4WN6","img_art/ins/3.jpg","4","","","","","","","","","","","","","","","","","","","","","","","","",""
"2244","","image-button-response","39","297222","0.0-39.0-0.0","A16K7X677N4WN6","img_art/ins/3.jpg","0","","","","","","","","","","","","","","","","","","","","","","","","",""
"null","","html-keyboard-response","40","298227","0.0-40.0","A16K7X677N4WN6","<p style=""font-size: 48px;"">+</p>","","","","","null","allTrialResponses","1000","1","0","img_art/ins/3.jpg","34","I like the blue colors and random striations on this artwork.","Mike,Sam,Ron,Carl,John,Jack","enjoy the different shades of blue,22,200,20","I can feel a rainy day from this painting,18,240,20","It looks depressing,-26,220,20","It's an alright work,15,80,20","I like the overlapping of brushes,41,160,20","I feel connected to the artist,40,120,20","Jack","I feel connected to the artist,40,120,20","John","I like the overlapping of brushes,41,160,20","Mike","enjoy the different shades of blue,22,200,20","0"
"5137","","image-button-response_instructions","41","303394","0.0-41.0","A16K7X677N4WN6","","0","instructions","","","","","","","","","","","","","","","","","","","","","","","",""
"17507","","survey-likert","42","320907","0.0-42.0-0.0","A16K7X677N4WN6","","","","{""Q0"":"""",""Q1"":0,""Q2"":1}","","","","","","","","","","","","","","","","","","","","","","",""
"4349","","survey-text","43","325277","0.0-43.0-0.0","A16K7X677N4WN6","","","","{""Q0"":""rock""}","","","","","","","","","","","","","","","","","","","","","","",""
"13835","","survey-text","44","339117","0.0-44.0-0.0","A16K7X677N4WN6","","","","{""Q0"":""I like the colors and shape of the figures in this image""}","","","","","","","","","","","","","","","","","","","","","","",""
"2482","","image-slider-response","45","341606","0.0-45.0","A16K7X677N4WN6","","","","","23","","","","","","","","","","","","","","","","","","","","","",""
"2884","","image-button-response","46","346649","0.0-46.0","A16K7X677N4WN6","img_art/21.jpg","4","","","","","","","","","","","","","","","","","","","","","","","","",""
"1893","","image-button-response","47","348545","0.0-47.0","A16K7X677N4WN6","img_art/21.jpg","4","","","","","","","","","","","","","","","","","","","","","","","","",""
"1063","","image-button-response","48","349613","0.0-48.0-0.0","A16K7X677N4WN6","img_art/21.jpg","3","","","","","","","","","","","","","","","","","","","","","","","","",""
"2646","","image-button-response","49","352265","0.0-49.0-0.0","A16K7X677N4WN6","img_art/21.jpg","1","","","","","","","","","","","","","","","","","","","","","","","","",""
"null","","html-keyboard-response","50","353773","0.0-50.0","A16K7X677N4WN6","<p style=""font-size: 48px;"">+</p>","","","","","null","allTrialResponses","1500","1","1","img_art/21.jpg","23","I like the colors and shape of the figures in this image","Alexis,Matthew,Bradley,Ryan,Grant,Alejandro","It makes me feel mellow or ""chill"". It makes me have a positive and calm mood,42,140,20","Disturbing, land meets ocean, lvoely really.,43,120,20","Indifferent toward this one.,6,300,20","Very calming and nice to look at,30,380,20","The colors make me think of a perilous scene at sea, and are pretty interesting.,15,200,20","Feels like a clash between land and sea,31,80,20","Grant","The colors make me think of a perilous scene at sea, and are pretty interesting.,15,200,20","Ryan","Very calming and nice to look at,30,380,20","Matthew","Disturbing, land meets ocean, lvoely really.,43,120,20","0"
"18185","","survey-text","51","371997","0.0-51.0-0.0","A16K7X677N4WN6","","","","{""Q0"":""I like the brook and water flowing down this green hill""}","","","","","","","","","","","","","","","","","","","","","","",""
"2241","","image-slider-response","52","374250","0.0-52.0","A16K7X677N4WN6","","","","","27","","","","","","","","","","","","","","","","","","","","","",""
"null","","image-button-response","53","379261","0.0-53.0","A16K7X677N4WN6","img_art/24.jpg","null","","","","","","","","","","","","","","","","","","","","","","","","",""
"2185","","image-button-response","54","381450","0.0-54.0","A16K7X677N4WN6","img_art/24.jpg","2","","","","","","","","","","","","","","","","","","","","","","","","",""
"4221","","image-button-response","55","385678","0.0-55.0-0.0","A16K7X677N4WN6","img_art/24.jpg","1","","","","","","","","","","","","","","","","","","","","","","","","",""
"5591","","image-button-response","56","391277","0.0-56.0-0.0","A16K7X677N4WN6","img_art/24.jpg","3","","","","","","","","","","","","","","","","","","","","","","","","",""
"null","","html-keyboard-response","57","391782","0.0-57.0","A16K7X677N4WN6","<p style=""font-size: 48px;"">+</p>","","","","","null","allTrialResponses","500","1","2","img_art/24.jpg","27","I like the brook and water flowing down this green hill","Gregory,Matthew,Antonio,Ryan,Grant,Brian","Beautiful waterfall with nice colors,40,220,20","NOt quite Bob Ross, but still good.,30,120,20","Waterfalls and spring and gives me a sense of renewal,34,220,20","Beautiful,  peaceful,50,380,20","The colors look nice, but the painting bores me.,-20,200,20","it's a nice stream, but I don't care for plain nature,-15,380,20","Antonio","Waterfalls and spring and gives me a sense of renewal,34,220,20","Matthew","NOt quite Bob Ross, but still good.,30,120,20","Ryan","Beautiful,  peaceful,50,380,20","0"
"14141","","survey-text","58","405957","0.0-58.0-0.0","A16K7X677N4WN6","","","","{""Q0"":""I like the sandy structure and footprints""}","","","","","","","","","","","","","","","","","","","","","","",""
"1850","","image-slider-response","59","407814","0.0-59.0","A16K7X677N4WN6","","","","","17","","","","","","","","","","","","","","","","","","","","","",""
"null","","image-button-response","60","412820","0.0-60.0","A16K7X677N4WN6","img_art/7.jpg","null","","","","","","","","","","","","","","","","","","","","","","","","",""
"373","","image-button-response","61","413196","0.0-61.0","A16K7X677N4WN6","img_art/7.jpg","4","","","","","","","","","","","","","","","","","","","","","","","","",""
"12946","","image-button-response","62","426148","0.0-62.0-0.0","A16K7X677N4WN6","img_art/7.jpg","5","","","","","","","","","","","","","","","","","","","","","","","","",""
"5326","","image-button-response","63","431480","0.0-63.0-0.0","A16K7X677N4WN6","img_art/7.jpg","0","","","","","","","","","","","","","","","","","","","","","","","","",""
"null","","html-keyboard-response","64","431984","0.0-64.0","A16K7X677N4WN6","<p style=""font-size: 48px;"">+</p>","","","","","null","allTrialResponses","500","1","3","img_art/7.jpg","17","I like the sandy structure and footprints","Kenneth,Matthew,Antonio,Ryan,Malik,Noah","My firs thought was ""gross""...not sure what this is and I dont think i want to know.,-19,300,20","landscape of amrs, yawn.,-25,120,20","Looks like dirt on the ground. Makes me feel unclean,-37,220,20","I hate everything about this painting from the cors to it looking like a war,-50,380,20","Detail oriented, like cracked paint wall,15,40,20","elicits no real response,0,260,20","Malik","Detail oriented, like cracked paint wall,15,40,20","Noah","elicits no real response,0,260,20","Kenneth","My firs thought was ""gross""...not sure what this is and I dont think i want to know.,-19,300,20","0"
"11083","","survey-text","65","443102","0.0-65.0-0.0","A16K7X677N4WN6","","","","{""Q0"":""I like the racecar track and shape of this artwork""}","","","","","","","","","","","","","","","","","","","","","","",""
"2635","","image-slider-response","66","445745","0.0-66.0","A16K7X677N4WN6","","","","","24","","","","","","","","","","","","","","","","","","","","","",""
"null","","image-button-response","67","450751","0.0-67.0","A16K7X677N4WN6","img_art/10.jpg","null","","","","","","","","","","","","","","","","","","","","","","","","",""
"654","","image-button-response","68","451408","0.0-68.0","A16K7X677N4WN6","img_art/10.jpg","3","","","","","","","","","","","","","","","","","","","","","","","","",""
"3300","","image-button-response","69","454714","0.0-69.0-0.0","A16K7X677N4WN6","img_art/10.jpg","0","","","","","","","","","","","","","","","","","","","","","","","","",""
"828","","image-button-response","70","455548","0.0-70.0-0.0","A16K7X677N4WN6","img_art/10.jpg","4","","","","","","","","","","","","","","","","","","","","","","","","",""
"null","","html-keyboard-response","71","457052","0.0-71.0","A16K7X677N4WN6","<p style=""font-size: 48px;"">+</p>","","","","","null","allTrialResponses","1500","1","4","img_art/10.jpg","24","I like the racecar track and shape of this artwork","Kenneth,Jake,Charles,Marcus,Malik,Noah","I cant tell what this is supposed to be, but I enjoy the simplicity of it.,28,300,20","This is odd and ugly.,-9,360,20","Also too all over the place, I don't see any pattern or anything that's supposed to stand out,-19,100,20","This makes me think of a city, specifically London.,20,60,20","Good texture, expressive,18,40,20","not sure what to make of this one,0,260,20","Marcus","This makes me think of a city, specifically London.,20,60,20","Kenneth","I cant tell what this is supposed to be, but I enjoy the simplicity of it.,28,300,20","Malik","Good texture, expressive,18,40,20","0"
"17128","","survey-text","72","474185","0.0-72.0-0.0","A16K7X677N4WN6","","","","{""Q0"":""I like the colorful patterns and rectangles and circles""}","","","","","","","","","","","","","","","","","","","","","","",""
"2129","","image-slider-response","73","476321","0.0-73.0","A16K7X677N4WN6","","","","","25","","","","","","","","","","","","","","","","","","","","","",""
"null","","image-button-response","74","481327","0.0-74.0","A16K7X677N4WN6","img_art/22.jpg","null","","","","","","","","","","","","","","","","","","","","","","","","",""
"50386","","image-button-response","75","531715","0.0-75.0","A16K7X677N4WN6","img_art/22.jpg","0","","","","","","","","","","","","","","","","","","","","","","","","",""
"5850","","image-button-response","76","537575","0.0-76.0-0.0","A16K7X677N4WN6","img_art/22.jpg","3","","","","","","","","","","","","","","","","","","","","","","","","",""
"748","","image-button-response","77","538333","0.0-77.0-0.0","A16K7X677N4WN6","img_art/22.jpg","4","","","","","","","","","","","","","","","","","","","","","","","","",""
"null","","html-keyboard-response","78","539840","0.0-78.0","A16K7X677N4WN6","<p style=""font-size: 48px;"">+</p>","","","","","null","allTrialResponses","1500","1","5","img_art/22.jpg","25","I like the colorful patterns and rectangles and circles","Kenneth,Joseph,Jonathan,Marcus,Malik,Jesse","I really enjoy the blended colors.,20,300,20","I don't like that it looks like a person is there upside down.,-16,220,20","The warm and color colors together in this way feels exciting,39,140,20","Like the colors. I enjoy looking at this one.,15,60,20","Beautiful forms, using color to define shape,14,40,20","I usually dont like blurry pieces but the colors are amazing in this,14,80,20","Kenneth","I really enjoy the blended colors.,20,300,20","Marcus","Like the colors. I enjoy looking at this one.,15,60,20","Malik","Beautiful forms, using color to define shape,14,40,20","0"
"4796","","survey-text","79","544692","0.0-79.0-0.0","A16K7X677N4WN6","","","","{""Q0"":""sky""}","","","","","","","","","","","","","","","","","","","","","","",""
"12051","","survey-text","80","556749","0.0-80.0-0.0","A16K7X677N4WN6","","","","{""Q0"":""I like the shape of the patterns in this colorful artwork""}","","","","","","","","","","","","","","","","","","","","","","",""
"1718","","image-slider-response","81","558480","0.0-81.0","A16K7X677N4WN6","","","","","19","","","","","","","","","","","","","","","","","","","","","",""
"null","","image-button-response","82","563490","0.0-82.0","A16K7X677N4WN6","img_art/2.jpg","null","","","","","","","","","","","","","","","","","","","","","","","","",""
"5000","","image-button-response","83","568493","0.0-83.0","A16K7X677N4WN6","img_art/2.jpg","5","","","","","","","","","","","","","","","","","","","","","","","","",""
"3145","","image-button-response","84","571645","0.0-84.0-0.0","A16K7X677N4WN6","img_art/2.jpg","1","","","","","","","","","","","","","","","","","","","","","","","","",""
"2480","","image-button-response","85","574134","0.0-85.0-0.0","A16K7X677N4WN6","img_art/2.jpg","3","","","","","","","","","","","","","","","","","","","","","","","","",""
"null","","html-keyboard-response","86","575139","0.0-86.0","A16K7X677N4WN6","<p style=""font-size: 48px;"">+</p>","","","","","null","allTrialResponses","1000","1","6","img_art/2.jpg","19","I like the shape of the patterns in this colorful artwork","Kenneth,Devin,Tristan,Marcus,Malik,Tanner","I cant tell whats happening here and that shade of green is just not my thing.,-17,300,20","I don't really like this style,-5,380,20","The color palette of this painting is for me displeasing and immature.,-30,300,20","Only like the blues and teals in this. The rest is unappealing.,-15,60,20","Indistinct and too bright,-21,40,20","smilely face, soulful,11,180,20","Tanner","smilely face, soulful,11,180,20","Devin","I don't really like this style,-5,380,20","Marcus","Only like the blues and teals in this. The rest is unappealing.,-15,60,20","0"
"12586","","survey-text","87","587734","0.0-87.0-0.0","A16K7X677N4WN6","","","","{""Q0"":""I like the detailed colors shown in the trees and the buildings""}","","","","","","","","","","","","","","","","","","","","","","",""
"1911","","image-slider-response","88","589652","0.0-88.0","A16K7X677N4WN6","","","","","26","","","","","","","","","","","","","","","","","","","","","",""
"null","","image-button-response","89","594657","0.0-89.0","A16K7X677N4WN6","img_art/26.jpg","null","","","","","","","","","","","","","","","","","","","","","","","","",""
"5639","","image-button-response","90","600299","0.0-90.0","A16K7X677N4WN6","img_art/26.jpg","5","","","","","","","","","","","","","","","","","","","","","","","","",""
"2198","","image-button-response","91","602501","0.0-91.0-0.0","A16K7X677N4WN6","img_art/26.jpg","3","","","","","","","","","","","","","","","","","","","","","","","","",""
"3008","","image-button-response","92","605515","0.0-92.0-0.0","A16K7X677N4WN6","img_art/26.jpg","1","","","","","","","","","","","","","","","","","","","","","","","","",""
"null","","html-keyboard-response","93","607020","0.0-93.0","A16K7X677N4WN6","<p style=""font-size: 48px;"">+</p>","","","","","null","allTrialResponses","1500","1","7","img_art/26.jpg","26","I like the detailed colors shown in the trees and the buildings","Cody,Devin,Caleb,Marcus,Alex,Tanner","Looks unfinished,-31,180,20","I like the shapes but needs more detail i think,3,380,20","Appears childish and unfinished.,-20,40,20","Nice, but not very interesting. I do like the blue tree though.,6,60,20","I can make out a street view and I am a fan of watercolors but still too boring,15,100,20","happy, park, childhood,9,180,20","Tanner","happy, park, childhood,9,180,20","Marcus","Nice, but not very interesting. I do like the blue tree though.,6,60,20","Devin","I like the shapes but needs more detail i think,3,380,20","0"
"26755","","survey-text","94","633799","0.0-94.0-0.0","A16K7X677N4WN6","","","","{""Q0"":""It looks like she is standing on the sun with her hair blowing in the solar wind""}","","","","","","","","","","","","","","","","","","","","","","",""
"2141","","image-slider-response","95","635949","0.0-95.0","A16K7X677N4WN6","","","","","40","","","","","","","","","","","","","","","","","","","","","",""
"null","","image-button-response","96","640958","0.0-96.0","A16K7X677N4WN6","img_art/6.jpg","null","","","","","","","","","","","","","","","","","","","","","","","","",""
"765","","image-button-response","97","641725","0.0-97.0","A16K7X677N4WN6","img_art/6.jpg","0","","","","","","","","","","","","","","","","","","","","","","","","",""
"1258","","image-button-response","98","642989","0.0-98.0-0.0","A16K7X677N4WN6","img_art/6.jpg","3","","","","","","","","","","","","","","","","","","","","","","","","",""
"1151","","image-button-response","99","644150","0.0-99.0-0.0","A16K7X677N4WN6","img_art/6.jpg","4","","","","","","","","","","","","","","","","","","","","","","","","",""
"null","","html-keyboard-response","100","644656","0.0-100.0","A16K7X677N4WN6","<p style=""font-size: 48px;"">+</p>","","","","","null","allTrialResponses","500","1","8","img_art/6.jpg","40","It looks like she is standing on the sun with her hair blowing in the solar wind","Trevor,Devin,Dakota,Marcus,Samuel,Tanner","i like the simplicity of the tree and the colors,50,280,20","Looks a bit like a pickle or something?,-16,380,20","graceful and light,35,280,20","I like the orange color, and I don't know why but I like this piece.,22,60,20","surviving the dryness of life,30,400,20","loneliness, fragile, forever alone, a girl who's been there for eternity, only think tracking time is the length of her hair,9,180,20","Trevor","i like the simplicity of the tree and the colors,50,280,20","Marcus","I like the orange color, and I don't know why but I like this piece.,22,60,20","Samuel","surviving the dryness of life,30,400,20","0"
"20487","","survey-text","101","665176","0.0-101.0-0.0","A16K7X677N4WN6","","","","{""Q0"":""I like the extension of the hand and red sleeve and shape of the lines""}","","","","","","","","","","","","","","","","","","","","","","",""
"1621","","image-slider-response","102","666803","0.0-102.0","A16K7X677N4WN6","","","","","19","","","","","","","","","","","","","","","","","","","","","",""
"null","","image-button-response","103","671809","0.0-103.0","A16K7X677N4WN6","img_art/4.jpg","null","","","","","","","","","","","","","","","","","","","","","","","","",""
"1557","","image-button-response","104","673369","0.0-104.0","A16K7X677N4WN6","img_art/4.jpg","3","","","","","","","","","","","","","","","","","","","","","","","","",""
"1928","","image-button-response","105","675301","0.0-105.0-0.0","A16K7X677N4WN6","img_art/4.jpg","0","","","","","","","","","","","","","","","","","","","","","","","","",""
"601","","image-button-response","106","675909","0.0-106.0-0.0","A16K7X677N4WN6","img_art/4.jpg","4","","","","","","","","","","","","","","","","","","","","","","","","",""
"null","","html-keyboard-response","107","676413","0.0-107.0","A16K7X677N4WN6","<p style=""font-size: 48px;"">+</p>","","","","","null","allTrialResponses","500","1","9","img_art/4.jpg","19","I like the extension of the hand and red sleeve and shape of the lines","Trevor,Isaac,Daniel,Marcus,Samuel,Paul","not enough color and too yellow for me. Not my favorite colors,-10,280,20","The colors remind me of McDonalds.,-41,280,20","Better version of a 7 year old who got lucky,-23,320,20","Really like the colors, but don't like the object/squiggle in darker gold and black,4,60,20","The muted tones,-11,400,20","The dark yellow color makes me think of mustard, which I dislike,-27,300,20","Marcus","Really like the colors, but don't like the object/squiggle in darker gold and black,4,60,20","Trevor","not enough color and too yellow for me. Not my favorite colors,-10,280,20","Samuel","The muted tones,-11,400,20","0"
"15709","","survey-text","108","692145","0.0-108.0-0.0","A16K7X677N4WN6","","","","{""Q0"":""I love the detailed artwork of this city and mountains and river in the background""}","","","","","","","","","","","","","","","","","","","","","","",""
"1527","","image-slider-response","109","693684","0.0-109.0","A16K7X677N4WN6","","","","","28","","","","","","","","","","","","","","","","","","","","","",""
"null","","image-button-response","110","698694","0.0-110.0","A16K7X677N4WN6","img_art/19.jpg","null","","","","","","","","","","","","","","","","","","","","","","","","",""
"508","","image-button-response","111","699205","0.0-111.0","A16K7X677N4WN6","img_art/19.jpg","5","","","","","","","","","","","","","","","","","","","","","","","","",""
"867","","image-button-response","112","700080","0.0-112.0-0.0","A16K7X677N4WN6","img_art/19.jpg","4","","","","","","","","","","","","","","","","","","","","","","","","",""
"997","","image-button-response","113","701085","0.0-113.0-0.0","A16K7X677N4WN6","img_art/19.jpg","0","","","","","","","","","","","","","","","","","","","","","","","","",""
"null","","html-keyboard-response","114","702591","0.0-114.0","A16K7X677N4WN6","<p style=""font-size: 48px;"">+</p>","","","","","null","allTrialResponses","1500","1","10","img_art/19.jpg","28","I love the detailed artwork of this city and mountains and river in the background","Trevor,Bryan,Miguel,Marcus,Samuel,Spencer","i like the colors and the way it looks like an actual scene,18,280,20","Looks like a child's rendering of a city street but not too sure.,0,400,20","Messy and kid like.,-36,160,20","I like the colors but the scene itself feels too jumbled and cluttered,9,60,20","city life energy,8,400,20","Very abstract but I like it, it's busy, lots of colors,43,120,20","Spencer","Very abstract but I like it, it's busy, lots of colors,43,120,20","Samuel","city life energy,8,400,20","Trevor","i like the colors and the way it looks like an actual scene,18,280,20","0"
"2935","","survey-text","115","705577","0.0-115.0-0.0","A16K7X677N4WN6","","","","{""Q0"":""our""}","","","","","","","","","","","","","","","","","","","","","","",""
"19557","","survey-text","116","725137","0.0-116.0-0.0","A16K7X677N4WN6","","","","{""Q0"":""I like the splatter of colors and the teal blue colors and the white cylinder""}","","","","","","","","","","","","","","","","","","","","","","",""
"1692","","image-slider-response","117","726831","0.0-117.0","A16K7X677N4WN6","","","","","14","","","","","","","","","","","","","","","","","","","","","",""
"null","","image-button-response","118","731838","0.0-118.0","A16K7X677N4WN6","img_art/13.jpg","null","","","","","","","","","","","","","","","","","","","","","","","","",""
"1523","","image-button-response","119","733364","0.0-119.0","A16K7X677N4WN6","img_art/13.jpg","2","","","","","","","","","","","","","","","","","","","","","","","","",""
"2302","","image-button-response","120","735671","0.0-120.0-0.0","A16K7X677N4WN6","img_art/13.jpg","0","","","","","","","","","","","","","","","","","","","","","","","","",""
"1277","","image-button-response","121","736950","0.0-121.0-0.0","A16K7X677N4WN6","img_art/13.jpg","3","","","","","","","","","","","","","","","","","","","","","","","","",""
"null","","html-keyboard-response","122","738456","0.0-122.0","A16K7X677N4WN6","<p style=""font-size: 48px;"">+</p>","","","","","null","allTrialResponses","1500","1","11","img_art/13.jpg","14","I like the splatter of colors and the teal blue colors and the white cylinder","Trevor,Angel,Stephen,Shane,Samuel,Spencer","i like the colors but it looks like something that would hang in a hotel,18,280,20","Reminds me of depression anxiety, but negativity is dampened by motion. It's trying to release itself through expression.,-10,180,20","Like how realistic it looks.,33,140,20","Rain drops on a window,35,80,20","eighties here we come,7,400,20","Like it a lot, reminds me of rainy day on glass,43,120,20","Stephen","Like how realistic it looks.,33,140,20","Trevor","i like the colors but it looks like something that would hang in a hotel,18,280,20","Shane","Rain drops on a window,35,80,20","0"
"32941","","survey-text","123","771419","0.0-123.0-0.0","A16K7X677N4WN6","","","","{""Q0"":""I dislike the gun shown in the lower right corner of this image but I like the teddy bear""}","","","","","","","","","","","","","","","","","","","","","","",""
"1737","","image-slider-response","124","773169","0.0-124.0","A16K7X677N4WN6","","","","","-16","","","","","","","","","","","","","","","","","","","","","",""
"null","","image-button-response","125","778177","0.0-125.0","A16K7X677N4WN6","img_art/16.jpg","null","","","","","","","","","","","","","","","","","","","","","","","","",""
"1171","","image-button-response","126","779352","0.0-126.0","A16K7X677N4WN6","img_art/16.jpg","0","","","","","","","","","","","","","","","","","","","","","","","","",""
"7967","","image-button-response","127","787328","0.0-127.0-0.0","A16K7X677N4WN6","img_art/16.jpg","5","","","","","","","","","","","","","","","","","","","","","","","","",""
"1631","","image-button-response","128","788966","0.0-128.0-0.0","A16K7X677N4WN6","img_art/16.jpg","3","","","","","","","","","","","","","","","","","","","","","","","","",""
"null","","html-keyboard-response","129","790472","0.0-129.0","A16K7X677N4WN6","<p style=""font-size: 48px;"">+</p>","","","","","null","allTrialResponses","1500","1","12","img_art/16.jpg","-16","I dislike the gun shown in the lower right corner of this image but I like the teddy bear","Trevor,Jorge,Stephen,Shane,Shawn,Logan","very creepy with a bear and a gun,-50,280,20","Dreamy and chaotic,-9,180,20","Cute but there's a lot going on.,7,140,20","This looks chaotic,-25,80,20","Fun but a little cheesy,15,100,20","what is this doing for anyone. If you connect with this you're literally lying to yourself. pretentious,-50,360,20","Trevor","very creepy with a bear and a gun,-50,280,20","Logan","what is this doing for anyone. If you connect with this you're literally lying to yourself. pretentious,-50,360,20","Shane","This looks chaotic,-25,80,20","0"
"10188","","survey-text","130","800699","0.0-130.0-0.0","A16K7X677N4WN6","","","","{""Q0"":""I love the starscape shape of the background and the white lines""}","","","","","","","","","","","","","","","","","","","","","","",""
"1545","","image-slider-response","131","802249","0.0-131.0","A16K7X677N4WN6","","","","","19","","","","","","","","","","","","","","","","","","","","","",""
"null","","image-button-response","132","807257","0.0-132.0","A16K7X677N4WN6","img_art/23.jpg","null","","","","","","","","","","","","","","","","","","","","","","","","",""
"3044","","image-button-response","133","810310","0.0-133.0","A16K7X677N4WN6","img_art/23.jpg","3","","","","","","","","","","","","","","","","","","","","","","","","",""
"1827","","image-button-response","134","812145","0.0-134.0-0.0","A16K7X677N4WN6","img_art/23.jpg","2","","","","","","","","","","","","","","","","","","","","","","","","",""
"1406","","image-button-response","135","813560","0.0-135.0-0.0","A16K7X677N4WN6","img_art/23.jpg","1","","","","","","","","","","","","","","","","","","","","","","","","",""
"null","","html-keyboard-response","136","814067","0.0-136.0","A16K7X677N4WN6","<p style=""font-size: 48px;"">+</p>","","","","","null","allTrialResponses","500","1","13","img_art/23.jpg","19","I love the starscape shape of the background and the white lines","Trevor,Andrew,Dylan,Shane,Taylor,Logan","nice bright colors but looks like it's from the 90's,6,280,20","The color contrast makes me happy,40,160,20","This is my favorite of them all. I love the colors.,41,40,20","Love the line in the middle separating the two dark sides,50,80,20","SOME thought was put into this one.,5,200,20","This looks like the cover art for a scene band,-29,360,20","Shane","Love the line in the middle separating the two dark sides,50,80,20","Dylan","This is my favorite of them all. I love the colors.,41,40,20","Andrew","The color contrast makes me happy,40,160,20","0"
"15744","","survey-text","137","829848","0.0-137.0-0.0","A16K7X677N4WN6","","","","{""Q0"":""The shape of the border and the paintbrush look cool""}","","","","","","","","","","","","","","","","","","","","","","",""
"1711","","image-slider-response","138","831566","0.0-138.0","A16K7X677N4WN6","","","","","9","","","","","","","","","","","","","","","","","","","","","",""
"null","","image-button-response","139","836572","0.0-139.0","A16K7X677N4WN6","img_art/29.jpg","null","","","","","","","","","","","","","","","","","","","","","","","","",""
"2055","","image-button-response","140","838628","0.0-140.0","A16K7X677N4WN6","img_art/29.jpg","0","","","","","","","","","","","","","","","","","","","","","","","","",""
"2337","","image-button-response","141","840971","0.0-141.0-0.0","A16K7X677N4WN6","img_art/29.jpg","4","","","","","","","","","","","","","","","","","","","","","","","","",""
"1091","","image-button-response","142","842070","0.0-142.0-0.0","A16K7X677N4WN6","img_art/29.jpg","1","","","","","","","","","","","","","","","","","","","","","","","","",""
"null","","html-keyboard-response","143","843075","0.0-143.0","A16K7X677N4WN6","<p style=""font-size: 48px;"">+</p>","","","","","null","allTrialResponses","1000","1","14","img_art/29.jpg","9","The shape of the border and the paintbrush look cool","Kyle,Andrew,Dylan,Shane,Peter,Adam","I like the usage of blacks and greys in this,8,340,20","It seems like there's anger in the painting.,-20,160,20","I don't like this. It is ugly and dark,-29,40,20","Darkness and torment,-50,80,20","Looks like a jail cell,-15,320,20","Flash is too strong. Dislike the colors,-5,40,20","Kyle","I like the usage of blacks and greys in this,8,340,20","Peter","Looks like a jail cell,-15,320,20","Andrew","It seems like there's anger in the painting.,-20,160,20","0"
"16834","","survey-text","144","859938","0.0-144.0-0.0","A16K7X677N4WN6","","","","{""Q0"":""I like the colors and red volcano in the background""}","","","","","","","","","","","","","","","","","","","","","","",""
"1576","","image-slider-response","145","861520","0.0-145.0","A16K7X677N4WN6","","","","","15","","","","","","","","","","","","","","","","","","","","","",""
"null","","image-button-response","146","866527","0.0-146.0","A16K7X677N4WN6","img_art/9.jpg","null","","","","","","","","","","","","","","","","","","","","","","","","",""
"1804","","image-button-response","147","868334","0.0-147.0","A16K7X677N4WN6","img_art/9.jpg","3","","","","","","","","","","","","","","","","","","","","","","","","",""
"589","","image-button-response","148","868929","0.0-148.0-0.0","A16K7X677N4WN6","img_art/9.jpg","0","","","","","","","","","","","","","","","","","","","","","","","","",""
"1498","","image-button-response","149","870432","0.0-149.0-0.0","A16K7X677N4WN6","img_art/9.jpg","5","","","","","","","","","","","","","","","","","","","","","","","","",""
"null","","html-keyboard-response","150","871436","0.0-150.0","A16K7X677N4WN6","<p style=""font-size: 48px;"">+</p>","","","","","null","allTrialResponses","1000","1","15","img_art/9.jpg","15","I like the colors and red volcano in the background","Kyle,Andrew,Seth,James,Peter,Ethan","I like abstract art that looks that there is more than random brush strokes. This one looks the former,10,340,20","The peacock theme gives me negative connotations of my ex-sister-in-law,-10,160,20","I think it's sleeping beauty but I'm not sure. I didn't care for this piece.,-30,60,20","This has some of my favorite colors, and I like it,21,380,20","Looks like a monster's teeth , unsettling,-18,320,20","How neat is this piece?  I love the angry expressive lines. Emotion is captured in it.,26,120,20","James","This has some of my favorite colors, and I like it,21,380,20","Kyle","I like abstract art that looks that there is more than random brush strokes. This one looks the former,10,340,20","Ethan","How neat is this piece?  I love the angry expressive lines. Emotion is captured in it.,26,120,20","0"
"4927","","survey-text","151","876402","0.0-151.0-0.0","A16K7X677N4WN6","","","","{""Q0"":""course""}","","","","","","","","","","","","","","","","","","","","","","",""
"11983","","survey-text","152","888387","0.0-152.0-0.0","A16K7X677N4WN6","","","","{""Q0"":""I love the escher style painting and colors in this piece""}","","","","","","","","","","","","","","","","","","","","","","",""
"2555","","image-slider-response","153","890950","0.0-153.0","A16K7X677N4WN6","","","","","18","","","","","","","","","","","","","","","","","","","","","",""
"null","","image-button-response","154","895955","0.0-154.0","A16K7X677N4WN6","img_art/8.jpg","null","","","","","","","","","","","","","","","","","","","","","","","","",""
"2147","","image-button-response","155","898103","0.0-155.0","A16K7X677N4WN6","img_art/8.jpg","1","","","","","","","","","","","","","","","","","","","","","","","","",""
"2412","","image-button-response","156","900519","0.0-156.0-0.0","A16K7X677N4WN6","img_art/8.jpg","5","","","","","","","","","","","","","","","","","","","","","","","","",""
"1939","","image-button-response","157","902460","0.0-157.0-0.0","A16K7X677N4WN6","img_art/8.jpg","0","","","","","","","","","","","","","","","","","","","","","","","","",""
"null","","html-keyboard-response","158","902964","0.0-158.0","A16K7X677N4WN6","<p style=""font-size: 48px;"">+</p>","","","","","null","allTrialResponses","500","1","16","img_art/8.jpg","18","I love the escher style painting and colors in this piece","Kyle,Aaron,Alexander,James,Corey,Ethan","Not too bad despite the chaos.,16,340,20","The shapes and colors work well together.,40,20,20","Falling into a city's heart.,10,120,20","It's very odd and I don't really like it,-30,380,20","its pretty exciting to look at, there is alot going on,15,260,20","Very inspiring piece. I love how it's at angle. It gives it character.,23,120,20","Aaron","The shapes and colors work well together.,40,20,20","Ethan","Very inspiring piece. I love how it's at angle. It gives it character.,23,120,20","Kyle","Not too bad despite the chaos.,16,340,20","0"
"20954","","survey-text","159","923938","0.0-159.0-0.0","A16K7X677N4WN6","","","","{""Q0"":""I like the white and orange clouds and green people and trees in this image""}","","","","","","","","","","","","","","","","","","","","","","",""
"2071","","image-slider-response","160","926016","0.0-160.0","A16K7X677N4WN6","","","","","9","","","","","","","","","","","","","","","","","","","","","",""
"null","","image-button-response","161","931021","0.0-161.0","A16K7X677N4WN6","img_art/27.jpg","null","","","","","","","","","","","","","","","","","","","","","","","","",""
"2732","","image-button-response","162","933757","0.0-162.0","A16K7X677N4WN6","img_art/27.jpg","3","","","","","","","","","","","","","","","","","","","","","","","","",""
"488","","image-button-response","163","934249","0.0-163.0-0.0","A16K7X677N4WN6","img_art/27.jpg","5","","","","","","","","","","","","","","","","","","","","","","","","",""
"1753","","image-button-response","164","936009","0.0-164.0-0.0","A16K7X677N4WN6","img_art/27.jpg","0","","","","","","","","","","","","","","","","","","","","","","","","",""
"null","","html-keyboard-response","165","937513","0.0-165.0","A16K7X677N4WN6","<p style=""font-size: 48px;"">+</p>","","","","","null","allTrialResponses","1500","1","17","img_art/27.jpg","9","I like the white and orange clouds and green people and trees in this image","Kyle,Aaron,Michael,Nicholas,Scott,Ethan","I have no strong reactions to this,-1,340,20","It looks like when my little sister took magic markers to the wall.,-11,20,20","Anyone could do that.,-31,140,20","I like all it has going but i wouldnt put it in my house unless my child did it,25,240,20","again looks like childrens artwork,-40,20,20","I like the layer upon layer of different mediums used here.,21,120,20","Nicholas","I like all it has going but i wouldnt put it in my house unless my child did it,25,240,20","Ethan","I like the layer upon layer of different mediums used here.,21,120,20","Kyle","I have no strong reactions to this,-1,340,20","0"
"12087","","survey-text","166","949619","0.0-166.0-0.0","A16K7X677N4WN6","","","","{""Q0"":""I like the wavy lines and the black somber look of this painting""}","","","","","","","","","","","","","","","","","","","","","","",""
"1728","","image-slider-response","167","951353","0.0-167.0","A16K7X677N4WN6","","","","","13","","","","","","","","","","","","","","","","","","","","","",""
"null","","image-button-response","168","956359","0.0-168.0","A16K7X677N4WN6","img_art/11.jpg","null","","","","","","","","","","","","","","","","","","","","","","","","",""
"2773","","image-button-response","169","959134","0.0-169.0","A16K7X677N4WN6","img_art/11.jpg","3","","","","","","","","","","","","","","","","","","","","","","","","",""
"324","","image-button-response","170","959463","0.0-170.0-0.0","A16K7X677N4WN6","img_art/11.jpg","4","","","","","","","","","","","","","","","","","","","","","","","","",""
"1341","","image-button-response","171","960810","0.0-171.0-0.0","A16K7X677N4WN6","img_art/11.jpg","0","","","","","","","","","","","","","","","","","","","","","","","","",""
"null","","html-keyboard-response","172","962314","0.0-172.0","A16K7X677N4WN6","<p style=""font-size: 48px;"">+</p>","","","","","null","allTrialResponses","1500","1","18","img_art/11.jpg","13","I like the wavy lines and the black somber look of this painting","Kyle,John,Brandon,Nicholas,Patrick,Ethan","Reminds me of a city on a grey/rainy winter's day,25,340,20","Its interesting.,20,120,20","Don't like cityscapes, which this picture reminds me of,-29,320,20","Love the colors and flow,50,240,20","Looks sad but clean,31,280,20","I don't care for the color combo. The wavy lines give dimension though.,-13,120,20","Nicholas","Love the colors and flow,50,240,20","Patrick","Looks sad but clean,31,280,20","Kyle","Reminds me of a city on a grey/rainy winter's day,25,340,20","0"
"14290","","survey-text","173","976623","0.0-173.0-0.0","A16K7X677N4WN6","","","","{""Q0"":""I like the red lines and random line art""}","","","","","","","","","","","","","","","","","","","","","","",""
"1355","","image-slider-response","174","977984","0.0-174.0","A16K7X677N4WN6","","","","","16","","","","","","","","","","","","","","","","","","","","","",""
"null","","image-button-response","175","982990","0.0-175.0","A16K7X677N4WN6","img_art/3.jpg","null","","","","","","","","","","","","","","","","","","","","","","","","",""
"368","","image-button-response","176","983360","0.0-176.0","A16K7X677N4WN6","img_art/3.jpg","1","","","","","","","","","","","","","","","","","","","","","","","","",""
"442","","image-button-response","177","983807","0.0-177.0-0.0","A16K7X677N4WN6","img_art/3.jpg","0","","","","","","","","","","","","","","","","","","","","","","","","",""
"2850","","image-button-response","178","986662","0.0-178.0-0.0","A16K7X677N4WN6","img_art/3.jpg","5","","","","","","","","","","","","","","","","","","","","","","","","",""
"null","","html-keyboard-response","179","987166","0.0-179.0","A16K7X677N4WN6","<p style=""font-size: 48px;"">+</p>","","","","","null","allTrialResponses","500","1","19","img_art/3.jpg","16","I like the red lines and random line art","Kyle,Devon,Luke,Nicholas,Patrick,Tyler","I don't really have a strong reaction to this one,0,340,20","good choice of color,12,400,20","it makes me feel really angry,-20,20,20","Too angry and scribbly,-43,240,20","Random use of red and looks scary,-50,280,20","This doesn't grab me. Perhaps the red is meant to be provocative; I find it gimmicky.,-9,320,20","Devon","good choice of color,12,400,20","Kyle","I don't really have a strong reaction to this one,0,340,20","Tyler","This doesn't grab me. Perhaps the red is meant to be provocative; I find it gimmicky.,-9,320,20","0"
"12176","","survey-text","180","999360","0.0-180.0-0.0","A16K7X677N4WN6","","","","{""Q0"":""I love the smooth brush strokes and detailed colors""}","","","","","","","","","","","","","","","","","","","","","","",""
"1761","","image-slider-response","181","1001127","0.0-181.0","A16K7X677N4WN6","","","","","22","","","","","","","","","","","","","","","","","","","","","",""
"null","","image-button-response","182","1006133","0.0-182.0","A16K7X677N4WN6","img_art/30.jpg","null","","","","","","","","","","","","","","","","","","","","","","","","",""
"865","","image-button-response","183","1007001","0.0-183.0","A16K7X677N4WN6","img_art/30.jpg","5","","","","","","","","","","","","","","","","","","","","","","","","",""
"758","","image-button-response","184","1007763","0.0-184.0-0.0","A16K7X677N4WN6","img_art/30.jpg","1","","","","","","","","","","","","","","","","","","","","","","","","",""
"720","","image-button-response","185","1008489","0.0-185.0-0.0","A16K7X677N4WN6","img_art/30.jpg","2","","","","","","","","","","","","","","","","","","","","","","","","",""
"null","","html-keyboard-response","186","1009993","0.0-186.0","A16K7X677N4WN6","<p style=""font-size: 48px;"">+</p>","","","","","null","allTrialResponses","1500","1","20","img_art/30.jpg","22","I love the smooth brush strokes and detailed colors","Kyle,Devon,Jeffrey,Garrett,Jacob,Tyler","Pretty neutral about this one,0,340,20","the different roads to take in life,10,400,20","calming and relaxing,14,40,20","I feel like the colors are too repetitive and not very eyecatching.,-20,180,20","Looks cool , but no meaning,1,340,20","Interesting brushstroke work, but not particularly memorable.,21,320,20","Tyler","Interesting brushstroke work, but not particularly memorable.,21,320,20","Devon","the different roads to take in life,10,400,20","Jeffrey","calming and relaxing,14,40,20","0"
"4208","","survey-text","187","1014235","0.0-187.0-0.0","A16K7X677N4WN6","","","","{""Q0"":""we""}","","","","","","","","","","","","","","","","","","","","","","",""
"13540","","survey-text","188","1027778","0.0-188.0-0.0","A16K7X677N4WN6","","","","{""Q0"":""I like the statue of liberty shape of this alien artwork""}","","","","","","","","","","","","","","","","","","","","","","",""
"2074","","image-slider-response","189","1029858","0.0-189.0","A16K7X677N4WN6","","","","","16","","","","","","","","","","","","","","","","","","","","","",""
"null","","image-button-response","190","1034864","0.0-190.0","A16K7X677N4WN6","img_art/25.jpg","null","","","","","","","","","","","","","","","","","","","","","","","","",""
"517","","image-button-response","191","1035383","0.0-191.0","A16K7X677N4WN6","img_art/25.jpg","0","","","","","","","","","","","","","","","","","","","","","","","","",""
"1596","","image-button-response","192","1036982","0.0-192.0-0.0","A16K7X677N4WN6","img_art/25.jpg","3","","","","","","","","","","","","","","","","","","","","","","","","",""
"1889","","image-button-response","193","1038876","0.0-193.0-0.0","A16K7X677N4WN6","img_art/25.jpg","4","","","","","","","","","","","","","","","","","","","","","","","","",""
"null","","html-keyboard-response","194","1040380","0.0-194.0","A16K7X677N4WN6","<p style=""font-size: 48px;"">+</p>","","","","","null","allTrialResponses","1500","1","21","img_art/25.jpg","16","I like the statue of liberty shape of this alien artwork","Jose,Devon,Jeffrey,Nathaniel,Cameron,Tyler","That's pretty awesome. I love the green and black combo, reminds me of one of those cartoon creepy movies,47,200,20","i feel a bit dull, a bit scared,-20,400,20","reminds me of a demon,-25,40,20","I love the background color and it's creepy...but cool.,30,220,20","Like the color, but what is that thing.,-10,60,20","Meh. Hardly abstract, though.,-40,320,20","Jose","That's pretty awesome. I love the green and black combo, reminds me of one of those cartoon creepy movies,47,200,20","Nathaniel","I love the background color and it's creepy...but cool.,30,220,20","Cameron","Like the color, but what is that thing.,-10,60,20","0"
"8461","","survey-text","195","1048861","0.0-195.0-0.0","A16K7X677N4WN6","","","","{""Q0"":""I love the painting within a painting and colors used here""}","","","","","","","","","","","","","","","","","","","","","","",""
"2299","","image-slider-response","196","1051163","0.0-196.0","A16K7X677N4WN6","","","","","18","","","","","","","","","","","","","","","","","","","","","",""
"null","","image-button-response","197","1056168","0.0-197.0","A16K7X677N4WN6","img_art/20.jpg","null","","","","","","","","","","","","","","","","","","","","","","","","",""
"966","","image-button-response","198","1057137","0.0-198.0","A16K7X677N4WN6","img_art/20.jpg","5","","","","","","","","","","","","","","","","","","","","","","","","",""
"1476","","image-button-response","199","1058618","0.0-199.0-0.0","A16K7X677N4WN6","img_art/20.jpg","1","","","","","","","","","","","","","","","","","","","","","","","","",""
"868","","image-button-response","200","1059491","0.0-200.0-0.0","A16K7X677N4WN6","img_art/20.jpg","2","","","","","","","","","","","","","","","","","","","","","","","","",""
"null","","html-keyboard-response","201","1060495","0.0-201.0","A16K7X677N4WN6","<p style=""font-size: 48px;"">+</p>","","","","","null","allTrialResponses","1000","1","22","img_art/20.jpg","18","I love the painting within a painting and colors used here","Jose,Vincent,Travis,Nathaniel,Cameron,Austin","More dark colors and blurry objects.,13,200,20","I love the colors and coukd spend alot of time with the picture,33,360,20","I liked this...I liked the blue and the black and I liked the smoothness to it.,31,260,20","A bit hectic, but it does have a bit of coolness to it,6,220,20","Dinosaur skill and some dark shadow above,-30,60,20","This painting would make a great display art,50,240,20","Austin","This painting would make a great display art,50,240,20","Vincent","I love the colors and coukd spend alot of time with the picture,33,360,20","Travis","I liked this...I liked the blue and the black and I liked the smoothness to it.,31,260,20","0"
"11337","","survey-text","202","1071849","0.0-202.0-0.0","A16K7X677N4WN6","","","","{""Q0"":""I like the patterns and tesselation of colors seen here""}","","","","","","","","","","","","","","","","","","","","","","",""
"1594","","image-slider-response","203","1073448","0.0-203.0","A16K7X677N4WN6","","","","","19","","","","","","","","","","","","","","","","","","","","","",""
"null","","image-button-response","204","1078451","0.0-204.0","A16K7X677N4WN6","img_art/12.jpg","null","","","","","","","","","","","","","","","","","","","","","","","","",""
"408","","image-button-response","205","1078863","0.0-205.0","A16K7X677N4WN6","img_art/12.jpg","5","","","","","","","","","","","","","","","","","","","","","","","","",""
"2863","","image-button-response","206","1081730","0.0-206.0-0.0","A16K7X677N4WN6","img_art/12.jpg","1","","","","","","","","","","","","","","","","","","","","","","","","",""
"3194","","image-button-response","207","1084929","0.0-207.0-0.0","A16K7X677N4WN6","img_art/12.jpg","0","","","","","","","","","","","","","","","","","","","","","","","","",""
"null","","html-keyboard-response","208","1085432","0.0-208.0","A16K7X677N4WN6","<p style=""font-size: 48px;"">+</p>","","","","","null","allTrialResponses","500","1","23","img_art/12.jpg","19","I like the patterns and tesselation of colors seen here","Connor,Vincent,Travis,Mitchell,Christopher,Austin","City scape but palette is odd,4,240,20","I have seen some like this before very popular and full of life,42,360,20","Neutral...just blocks.,3,260,20","confused. stages of a persons life from beginning positive to ending negative.,-10,180,20","i think it's a good piece but it doesn't appeal to me,-18,160,20","Explosion of texture,31,240,20","Austin","Explosion of texture,31,240,20","Vincent","I have seen some like this before very popular and full of life,42,360,20","Connor","City scape but palette is odd,4,240,20","0"
"21627","","survey-text","209","1107077","0.0-209.0-0.0","A16K7X677N4WN6","","","","{""Q0"":""I do not like the sparse color choices in this image""}","","","","","","","","","","","","","","","","","","","","","","",""
"1678","","image-slider-response","210","1108760","0.0-210.0","A16K7X677N4WN6","","","","","-25","","","","","","","","","","","","","","","","","","","","","",""
"null","","image-button-response","211","1113765","0.0-211.0","A16K7X677N4WN6","img_art/15.jpg","null","","","","","","","","","","","","","","","","","","","","","","","","",""
"740","","image-button-response","212","1114507","0.0-212.0","A16K7X677N4WN6","img_art/15.jpg","2","","","","","","","","","","","","","","","","","","","","","","","","",""
"887","","image-button-response","213","1115397","0.0-213.0-0.0","A16K7X677N4WN6","img_art/15.jpg","1","","","","","","","","","","","","","","","","","","","","","","","","",""
"3814","","image-button-response","214","1119217","0.0-214.0-0.0","A16K7X677N4WN6","img_art/15.jpg","0","","","","","","","","","","","","","","","","","","","","","","","","",""
"null","","html-keyboard-response","215","1120221","0.0-215.0","A16K7X677N4WN6","<p style=""font-size: 48px;"">+</p>","","","","","null","allTrialResponses","1000","1","24","img_art/15.jpg","-25","I do not like the sparse color choices in this image","Connor,Vincent,Jeremy,Gabriel,William,Austin","Neat to explore meaning, blue is interesting,11,240,20","I like the colors and the different style This brings,7,360,20","I feel nothing when looking at this,1,60,20","i kinda like this one but wouldnt buy it for myself,17,160,20","makes me feel calm,40,380,20","Perfect Abstract painting,50,240,20","Jeremy","I feel nothing when looking at this,1,60,20","Vincent","I like the colors and the different style This brings,7,360,20","Connor","Neat to explore meaning, blue is interesting,11,240,20","0"
"14406","","survey-text","216","1134647","0.0-216.0-0.0","A16K7X677N4WN6","","","","{""Q0"":""I like the sketch of the tree in the building and the ghostly look of it""}","","","","","","","","","","","","","","","","","","","","","","",""
"1633","","image-slider-response","217","1136286","0.0-217.0","A16K7X677N4WN6","","","","","15","","","","","","","","","","","","","","","","","","","","","",""
"null","","image-button-response","218","1141288","0.0-218.0","A16K7X677N4WN6","img_art/17.jpg","null","","","","","","","","","","","","","","","","","","","","","","","","",""
"336","","image-button-response","219","1141624","0.0-219.0","A16K7X677N4WN6","img_art/17.jpg","4","","","","","","","","","","","","","","","","","","","","","","","","",""
"689","","image-button-response","220","1142319","0.0-220.0-0.0","A16K7X677N4WN6","img_art/17.jpg","1","","","","","","","","","","","","","","","","","","","","","","","","",""
"259","","image-button-response","221","1142585","0.0-221.0-0.0","A16K7X677N4WN6","img_art/17.jpg","2","","","","","","","","","","","","","","","","","","","","","","","","",""
"null","","html-keyboard-response","222","1144089","0.0-222.0","A16K7X677N4WN6","<p style=""font-size: 48px;"">+</p>","","","","","null","allTrialResponses","1500","1","25","img_art/17.jpg","15","I like the sketch of the tree in the building and the ghostly look of it","Connor,Vincent,Jeremy,Nathan,Thomas,Cole","Windows indoor tree, weird palette,-11,240,20","Another favorite a relaxing day with nature a day to take it all In,34,360,20","very pretty. Makes me happy,45,60,20","It's alright, nothing I particularly like but it's just fine,-10,200,20","Colors and composition are beautiful. I would hang this in my home.,50,220,20","It looks unfinished,-7,200,20","Thomas","Colors and composition are beautiful. I would hang this in my home.,50,220,20","Vincent","Another favorite a relaxing day with nature a day to take it all In,34,360,20","Jeremy","very pretty. Makes me happy,45,60,20","0"
"3807","","survey-text","223","1147931","0.0-223.0-0.0","A16K7X677N4WN6","","","","{""Q0"":""table""}","","","","","","","","","","","","","","","","","","","","","","",""
"10177","","survey-text","224","1158111","0.0-224.0-0.0","A16K7X677N4WN6","","","","{""Q0"":""I like the red and blue and yellow colors in this image and the shapes used""}","","","","","","","","","","","","","","","","","","","","","","",""
"1255","","image-slider-response","225","1159370","0.0-225.0","A16K7X677N4WN6","","","","","14","","","","","","","","","","","","","","","","","","","","","",""
"null","","image-button-response","226","1164379","0.0-226.0","A16K7X677N4WN6","img_art/1.jpg","null","","","","","","","","","","","","","","","","","","","","","","","","",""
"363","","image-button-response","227","1164745","0.0-227.0","A16K7X677N4WN6","img_art/1.jpg","1","","","","","","","","","","","","","","","","","","","","","","","","",""
"1140","","image-button-response","228","1165889","0.0-228.0-0.0","A16K7X677N4WN6","img_art/1.jpg","3","","","","","","","","","","","","","","","","","","","","","","","","",""
"559","","image-button-response","229","1166451","0.0-229.0-0.0","A16K7X677N4WN6","img_art/1.jpg","5","","","","","","","","","","","","","","","","","","","","","","","","",""
"null","","html-keyboard-response","230","1167954","0.0-230.0","A16K7X677N4WN6","<p style=""font-size: 48px;"">+</p>","","","","","null","allTrialResponses","1500","1","26","img_art/1.jpg","14","I like the red and blue and yellow colors in this image and the shapes used","Ian,Vincent,Jeremy,Timothy,Thomas,Isaiah","Someone painted a landscape and decided they didn't like it so they covered it up.,13,260,20","I love the detail and colors like a beautiful autumn day,35,360,20","fearful. Makes me think of fire,-10,60,20","This one has a pleasent energy,15,240,20","Pleasant, but a tad too monochromatic in some areas for my taste,7,220,20","I feel relaxed, like I'm watching the leaves change color.,17,300,20","Vincent","I love the detail and colors like a beautiful autumn day,35,360,20","Timothy","This one has a pleasent energy,15,240,20","Isaiah","I feel relaxed, like I'm watching the leaves change color.,17,300,20","0"
"7951","","survey-text","231","1175929","0.0-231.0-0.0","A16K7X677N4WN6","","","","{""Q0"":""I like the relaxing colors and shape of this tree""}","","","","","","","","","","","","","","","","","","","","","","",""
"1235","","image-slider-response","232","1177170","0.0-232.0","A16K7X677N4WN6","","","","","28","","","","","","","","","","","","","","","","","","","","","",""
"null","","image-button-response","233","1182175","0.0-233.0","A16K7X677N4WN6","img_art/14.jpg","null","","","","","","","","","","","","","","","","","","","","","","","","",""
"485","","image-button-response","234","1182663","0.0-234.0","A16K7X677N4WN6","img_art/14.jpg","4","","","","","","","","","","","","","","","","","","","","","","","","",""
"601","","image-button-response","235","1183268","0.0-235.0-0.0","A16K7X677N4WN6","img_art/14.jpg","1","","","","","","","","","","","","","","","","","","","","","","","","",""
"266","","image-button-response","236","1183537","0.0-236.0-0.0","A16K7X677N4WN6","img_art/14.jpg","0","","","","","","","","","","","","","","","","","","","","","","","","",""
"null","","html-keyboard-response","237","1184041","0.0-237.0","A16K7X677N4WN6","<p style=""font-size: 48px;"">+</p>","","","","","null","allTrialResponses","500","1","27","img_art/14.jpg","28","I like the relaxing colors and shape of this tree","Benjamin,Vincent,Adrian,Timothy,Evan,Isaiah","Reminds me of the outdoors.,12,260,20","Reminds me of the old days with my family and my grandma,41,360,20","Warm, positive, growth.,8,60,20","Something about the cahotic imagery makes me uncomfortable,-15,240,20","I like the sharpness of the lines,20,140,20","I feel uncomfortable looking at this painting, it is a mess that needs to be cleaned up.,-16,300,20","Evan","I like the sharpness of the lines,20,140,20","Vincent","Reminds me of the old days with my family and my grandma,41,360,20","Benjamin","Reminds me of the outdoors.,12,260,20","0"
"13353","","survey-text","238","1197415","0.0-238.0-0.0","A16K7X677N4WN6","","","","{""Q0"":""I do not like the yellow trash bag and pink lines in this image""}","","","","","","","","","","","","","","","","","","","","","","",""
"1469","","image-slider-response","239","1198890","0.0-239.0","A16K7X677N4WN6","","","","","-17","","","","","","","","","","","","","","","","","","","","","",""
"null","","image-button-response","240","1203896","0.0-240.0","A16K7X677N4WN6","img_art/5.jpg","null","","","","","","","","","","","","","","","","","","","","","","","","",""
"891","","image-button-response","241","1204789","0.0-241.0","A16K7X677N4WN6","img_art/5.jpg","5","","","","","","","","","","","","","","","","","","","","","","","","",""
"394","","image-button-response","242","1205187","0.0-242.0-0.0","A16K7X677N4WN6","img_art/5.jpg","4","","","","","","","","","","","","","","","","","","","","","","","","",""
"1726","","image-button-response","243","1206918","0.0-243.0-0.0","A16K7X677N4WN6","img_art/5.jpg","3","","","","","","","","","","","","","","","","","","","","","","","","",""
"null","","html-keyboard-response","244","1208421","0.0-244.0","A16K7X677N4WN6","<p style=""font-size: 48px;"">+</p>","","","","","null","allTrialResponses","1500","1","28","img_art/5.jpg","-17","I do not like the yellow trash bag and pink lines in this image","Benjamin,Vincent,Colton,Chase,Evan,Richard","Missing something,-5,260,20","It speaks volumes to some. It's also a conversational piece. And very different ideas,34,360,20","I like the strokes and colors used,20,220,20","Seems very basic and uninteresting.,-15,120,20","I am confused as to what I am seeing is it a handbag, duck foot, bell?,-18,140,20","looks like a 2nd grader did it,-50,340,20","Richard","looks like a 2nd grader did it,-50,340,20","Evan","I am confused as to what I am seeing is it a handbag, duck foot, bell?,-18,140,20","Chase","Seems very basic and uninteresting.,-15,120,20","0"
"10185","","survey-text","245","1218612","0.0-245.0-0.0","A16K7X677N4WN6","","","","{""Q0"":""I love the detailed anime artwork and line art in this image""}","","","","","","","","","","","","","","","","","","","","","","",""
"1488","","image-slider-response","246","1220106","0.0-246.0","A16K7X677N4WN6","","","","","21","","","","","","","","","","","","","","","","","","","","","",""
"null","","image-button-response","247","1225110","0.0-247.0","A16K7X677N4WN6","img_art/18.jpg","null","","","","","","","","","","","","","","","","","","","","","","","","",""
"1942","","image-button-response","248","1227056","0.0-248.0","A16K7X677N4WN6","img_art/18.jpg","3","","","","","","","","","","","","","","","","","","","","","","","","",""
"510","","image-button-response","249","1227570","0.0-249.0-0.0","A16K7X677N4WN6","img_art/18.jpg","5","","","","","","","","","","","","","","","","","","","","","","","","",""
"704","","image-button-response","250","1228277","0.0-250.0-0.0","A16K7X677N4WN6","img_art/18.jpg","4","","","","","","","","","","","","","","","","","","","","","","","","",""
"null","","html-keyboard-response","251","1229780","0.0-251.0","A16K7X677N4WN6","<p style=""font-size: 48px;"">+</p>","","","","","null","allTrialResponses","1500","1","29","img_art/18.jpg","21","I love the detailed anime artwork and line art in this image","Christian,Zachary,Carlos,Chase,Evan,Richard","reminds me of the little prince, with the color scheme and all,16,140,20","This one seems rather ghoulish to me.,-41,400,20","It is too busy, but the colors are pleasant.,15,80,20","Kinda neat, looks like cavalry, or a knight.,15,120,20","This brings to mind the four horsemen of the apocalypse,8,140,20","interesting piece, I like the horse and people inserted in spots,22,340,20","Chase","Kinda neat, looks like cavalry, or a knight.,15,120,20","Richard","interesting piece, I like the horse and people inserted in spots,22,340,20","Evan","This brings to mind the four horsemen of the apocalypse,8,140,20","0"
"13716","","survey-text","252","1243519","0.0-252.0-0.0","A16K7X677N4WN6","","","","{""Q0"":""I like the shape of the people and buildings and pastel colors""}","","","","","","","","","","","","","","","","","","","","","","",""
"1833","","image-slider-response","253","1245359","0.0-253.0","A16K7X677N4WN6","","","","","14","","","","","","","","","","","","","","","","","","","","","",""
"null","","image-button-response","254","1250366","0.0-254.0","A16K7X677N4WN6","img_art/28.jpg","null","","","","","","","","","","","","","","","","","","","","","","","","",""
"619","","image-button-response","255","1250987","0.0-255.0","A16K7X677N4WN6","img_art/28.jpg","1","","","","","","","","","","","","","","","","","","","","","","","","",""
"385","","image-button-response","256","1251377","0.0-256.0-0.0","A16K7X677N4WN6","img_art/28.jpg","2","","","","","","","","","","","","","","","","","","","","","","","","",""
"1044","","image-button-response","257","1252428","0.0-257.0-0.0","A16K7X677N4WN6","img_art/28.jpg","5","","","","","","","","","","","","","","","","","","","","","","","","",""
"null","","html-keyboard-response","258","1253932","0.0-258.0","A16K7X677N4WN6","<p style=""font-size: 48px;"">+</p>","","","","","null","allTrialResponses","1500","1","30","img_art/28.jpg","14","I like the shape of the people and buildings and pastel colors","Bryce,Victor,Kevin,Chase,Evan,Richard","It gives me weird vibes.,-25,20,20","Almost looks like child's artwork, sloppy and chaotic,6,340,20","Looks like some guys in s band playing at a busy park.,18,320,20","I don't like the washed out colors.,-15,120,20","It feels very blah,-10,140,20","bland coloring but pattern interesting,2,340,20","Victor","Almost looks like child's artwork, sloppy and chaotic,6,340,20","Kevin","Looks like some guys in s band playing at a busy park.,18,320,20","Richard","bland coloring but pattern interesting,2,340,20","0"
"5126","","image-button-response_instructions","259","1259079","0.0-259.0","A16K7X677N4WN6","","0","instructions","","","","","","","","","","","","","","","","","","","","","","","",""
