"rt","url","trial_type","trial_index","time_elapsed","internal_node_id","participant_id","stimulus","button_pressed","Name","responses","response","key_press","variableName","fixationTime","condition","trial","photo","subjectRating","subjectResponse","agentsNames","agent_1_Response","agent_2_Response","agent_3_Response","agent_4_Response","agent_5_Response","agent_6_Response","kept_1_name","kept_1_response","kept_2_name","kept_2_response","kept_3_name","kept_3_response","errorCounter"
"10013","external_page_harvard.html","external-html","0","10094","0.0-0.0","A1710X6OIQP62Q","","","","","","","","","","","","","","","","","","","","","","","","","","",""
"1285","","image-button-response","1","11381","0.0-1.0","A1710X6OIQP62Q","","1","","","","","","","","","","","","","","","","","","","","","","","","",""
"1387","","image-button-response","2","12772","0.0-2.0-0.0","A1710X6OIQP62Q","","1","phone","","","","","","","","","","","","","","","","","","","","","","","",""
"6563","","survey-text","3","19336","0.0-3.0-0.0","A1710X6OIQP62Q","","","","{""Q0"":""A1710X6OIQP62Q""}","","","","","","","","","","","","","","","","","","","","","","",""
"9651","","image-button-response_instructions","4","28988","0.0-4.0","A1710X6OIQP62Q","","0","instructions","","","","","","","","","","","","","","","","","","","","","","","",""
"139859","","image-button-response_instructions","5","168848","0.0-5.0","A1710X6OIQP62Q","img_art/ins/popularity/ins1.png","0","instructions","","","","","","","","","","","","","","","","","","","","","","","",""
"295753","","image-button-response_instructions","6","464602","0.0-6.0","A1710X6OIQP62Q","img_art/ins/popularity/ins2.png","0","instructions","","","","","","","","","","","","","","","","","","","","","","","",""
"1993","","image-button-response_instructions","7","466596","0.0-7.0","A1710X6OIQP62Q","img_art/ins/popularity/ins2Extreme.png","0","instructions","","","","","","","","","","","","","","","","","","","","","","","",""
"3939","","image-button-response_instructions","8","470536","0.0-8.0","A1710X6OIQP62Q","img_art/ins/popularity/ins3KEEPpop.PNG","0","instructions","","","","","","","","","","","","","","","","","","","","","","","",""
"3924","","image-button-response_instructions","9","474462","0.0-9.0","A1710X6OIQP62Q","img_art/ins/popularity/ins3ANamepop.PNG","0","instructions","","","","","","","","","","","","","","","","","","","","","","","",""
"1456","","image-button-response_instructions","10","475920","0.0-10.0","A1710X6OIQP62Q","img_art/ins/popularity/ins3ARatingpop.png","0","instructions","","","","","","","","","","","","","","","","","","","","","","","",""
"1359","","image-button-response_instructions","11","477280","0.0-11.0","A1710X6OIQP62Q","img_art/ins/popularity/ins3ATextpop.png","0","instructions","","","","","","","","","","","","","","","","","","","","","","","",""
"1341","","image-button-response_instructions","12","478621","0.0-12.0","A1710X6OIQP62Q","img_art/ins/popularity/ins3ALikespop.png","0","instructions","","","","","","","","","","","","","","","","","","","","","","","",""
"1857","","image-button-response_instructions","13","480480","0.0-13.0","A1710X6OIQP62Q","img_art/ins/popularity/ins3KEEPpop.PNG","0","instructions","","","","","","","","","","","","","","","","","","","","","","","",""
"1647","","image-button-response_instructions","14","482128","0.0-14.0","A1710X6OIQP62Q","img_art/ins/popularity/ins3_5RED.png","0","instructions","","","","","","","","","","","","","","","","","","","","","","","",""
"695","","image-button-response_instructions","15","482824","0.0-15.0","A1710X6OIQP62Q","img_art/ins/popularity/ins3KEEPpop.PNG","0","instructions","","","","","","","","","","","","","","","","","","","","","","","",""
"681","","image-button-response_instructions","16","483506","0.0-16.0","A1710X6OIQP62Q","img_art/ins/popularity/ins4KEEPpop.PNG","0","instructions","","","","","","","","","","","","","","","","","","","","","","","",""
"991","","image-button-response_instructions","17","484498","0.0-17.0","A1710X6OIQP62Q","img_art/ins/popularity/ins5KEEPpop.PNG","0","instructions","","","","","","","","","","","","","","","","","","","","","","","",""
"1210","","image-button-response_instructions","18","485710","0.0-18.0","A1710X6OIQP62Q","","0","instructions","","","","","","","","","","","","","","","","","","","","","","","",""
"3978","","survey-text","19","489704","0.0-19.0-0.0","A1710X6OIQP62Q","","","","{""Q0"":""but""}","","","","","","","","","","","","","","","","","","","","","","",""
"14638","","survey-text","20","504344","0.0-20.0-0.0","A1710X6OIQP62Q","","","","{""Q0"":""dull and sloppy""}","","","","","","","","","","","","","","","","","","","","","","",""
"2763.600000023842","","image-slider-response","21","507110","0.0-21.0","A1710X6OIQP62Q","","","","","-43","","","","","","","","","","","","","","","","","","","","","",""
"null","","image-button-response","22","512113","0.0-22.0","A1710X6OIQP62Q","img_art/ins/1.jpg","null","","","","","","","","","","","","","","","","","","","","","","","","",""
"7035","","image-button-response","23","519150","0.0-23.0","A1710X6OIQP62Q","img_art/ins/1.jpg","1","","","","","","","","","","","","","","","","","","","","","","","","",""
"1939","","image-button-response","24","521092","0.0-24.0-0.0","A1710X6OIQP62Q","img_art/ins/1.jpg","2","","","","","","","","","","","","","","","","","","","","","","","","",""
"1681","","image-button-response","25","522776","0.0-25.0-0.0","A1710X6OIQP62Q","img_art/ins/1.jpg","3","","","","","","","","","","","","","","","","","","","","","","","","",""
"null","","html-keyboard-response","26","523277","0.0-26.0","A1710X6OIQP62Q","<p style=""font-size: 48px;"">+</p>","","","","","null","allTrialResponses","500","1","-2","img_art/ins/1.jpg","-43","dull and sloppy","Allison,Ashley,Beth,Dora,Erika,Jen","looks like a lot of things going on in the mist,20,20,20","I just don't get why these type of art would be popular,-32,40,20","This color reminds me of poo,-46,60,20","looks like what my niece in 3rd grade did this afternoon,-50,80,20","I like the sophisticated brushwork,40,100,20","It reminds me of a candy land dream I had,36,120,20","Ashley","I just don't get why these type of art would be popular,-32,40,20","Beth","This color reminds me of poo,-46,60,20","Dora","looks like what my niece in 3rd grade did this afternoon,-50,80,20","0"
"12068","","survey-text","27","535352","0.0-27.0-0.0","A1710X6OIQP62Q","","","","{""Q0"":""textured and interesting""}","","","","","","","","","","","","","","","","","","","","","","",""
"3112.5","","image-slider-response","28","538466","0.0-28.0","A1710X6OIQP62Q","","","","","4","","","","","","","","","","","","","","","","","","","","","",""
"null","","image-button-response","29","543489","0.0-29.0","A1710X6OIQP62Q","img_art/ins/2.jpg","null","","","","","","","","","","","","","","","","","","","","","","","","",""
"17892","","image-button-response","30","561384","0.0-30.0","A1710X6OIQP62Q","img_art/ins/2.jpg","2","","","","","","","","","","","","","","","","","","","","","","","","",""
"181080","","image-button-response","31","742466","0.0-31.0-0.0","A1710X6OIQP62Q","img_art/ins/2.jpg","1","","","","","","","","","","","","","","","","","","","","","","","","",""
"7516","","image-button-response","32","749985","0.0-32.0-0.0","A1710X6OIQP62Q","img_art/ins/2.jpg","4","","","","","","","","","","","","","","","","","","","","","","","","",""
"null","","html-keyboard-response","33","750486","0.0-33.0","A1710X6OIQP62Q","<p style=""font-size: 48px;"">+</p>","","","","","null","allTrialResponses","500","1","-1","img_art/ins/2.jpg","4","textured and interesting","Jenna,Ashley,Beth,Dora,Kara,Katie","One of my pet peevs,-48,140,20","Idk, it is just annoying,-32,40,20","meaningless painting,-45,60,20","looks too angry,-50,80,20","I like the blocks of color arrangements,30,160,20","too much color!,-28,180,20","Beth","meaningless painting,-45,60,20","Ashley","Idk, it is just annoying,-32,40,20","Kara","I like the blocks of color arrangements,30,160,20","0"
"8967","","survey-text","34","759460","0.0-34.0-0.0","A1710X6OIQP62Q","","","","{""Q0"":""I love blue""}","","","","","","","","","","","","","","","","","","","","","","",""
"3036.7000000178814","","image-slider-response","35","762498","0.0-35.0","A1710X6OIQP62Q","","","","","14","","","","","","","","","","","","","","","","","","","","","",""
"3216","","image-button-response","36","767501","0.0-36.0","A1710X6OIQP62Q","img_art/ins/3.jpg","0","","","","","","","","","","","","","","","","","","","","","","","","",""
"554","","image-button-response","37","768058","0.0-37.0","A1710X6OIQP62Q","img_art/ins/3.jpg","4","","","","","","","","","","","","","","","","","","","","","","","","",""
"1244","","image-button-response","38","769304","0.0-38.0-0.0","A1710X6OIQP62Q","img_art/ins/3.jpg","3","","","","","","","","","","","","","","","","","","","","","","","","",""
"4402","","image-button-response","39","773708","0.0-39.0-0.0","A1710X6OIQP62Q","img_art/ins/3.jpg","0","","","","","","","","","","","","","","","","","","","","","","","","",""
"null","","html-keyboard-response","40","774209","0.0-40.0","A1710X6OIQP62Q","<p style=""font-size: 48px;"">+</p>","","","","","null","allTrialResponses","500","1","0","img_art/ins/3.jpg","14","I love blue","Mary,Ashley,Beth,Leslie,Kara,Rose","I like the overlapping of brushes,41,220,20","It looks like a playground for bats,-36,40,20","This thing gives me anxiety,-41,60,20","It's an alright work,15,200,20","calming blue is very nice,36,160,20","My daily routine, it's depressing,-20,240,20","Kara","calming blue is very nice,36,160,20","Leslie","It's an alright work,15,200,20","Mary","I like the overlapping of brushes,41,220,20","0"
"7227","","image-button-response_instructions","41","781442","0.0-41.0","A1710X6OIQP62Q","","0","instructions","","","","","","","","","","","","","","","","","","","","","","","",""
"8183","","survey-likert","42","789626","0.0-42.0-0.0","A1710X6OIQP62Q","","","","{""Q0"":"""",""Q1"":0,""Q2"":1}","","","","","","","","","","","","","","","","","","","","","","",""
"3583","","survey-text","43","793214","0.0-43.0-0.0","A1710X6OIQP62Q","","","","{""Q0"":""rock""}","","","","","","","","","","","","","","","","","","","","","","",""
"7645","","survey-text","44","800860","0.0-44.0-0.0","A1710X6OIQP62Q","","","","{""Q0"":""looks old""}","","","","","","","","","","","","","","","","","","","","","","",""
"2057.899999976158","","image-slider-response","45","802919","0.0-45.0","A1710X6OIQP62Q","","","","","-41","","","","","","","","","","","","","","","","","","","","","",""
"null","","image-button-response","46","807951","0.0-46.0","A1710X6OIQP62Q","img_art/12.jpg","null","","","","","","","","","","","","","","","","","","","","","","","","",""
"1802","","image-button-response","47","809755","0.0-47.0","A1710X6OIQP62Q","img_art/12.jpg","2","","","","","","","","","","","","","","","","","","","","","","","","",""
"3177","","image-button-response","48","812934","0.0-48.0-0.0","A1710X6OIQP62Q","img_art/12.jpg","4","","","","","","","","","","","","","","","","","","","","","","","","",""
"3336","","image-button-response","49","816272","0.0-49.0-0.0","A1710X6OIQP62Q","img_art/12.jpg","3","","","","","","","","","","","","","","","","","","","","","","","","",""
"null","","html-keyboard-response","50","817276","0.0-50.0","A1710X6OIQP62Q","<p style=""font-size: 48px;"">+</p>","","","","","null","allTrialResponses","1000","1","1","img_art/12.jpg","-41","looks old","Leah,Ashley,Monica,Catherine,Mariah,Kylie","Looks like a puzzle I want to put together, but not hang in my den,2,360,20","It's boxy, cubist immpressionism? Very ncie.,32,320,20","Reminds me of collages we made in elementary school. I like the contrast of the colors from top to bottom,43,360,20","confused. stages of a persons life from beginning positive to ending negative.,-10,160,20","It is very bland and the colors are not cohesive.,-20,140,20","Night and day, light and dark,35,300,20","Monica","Reminds me of collages we made in elementary school. I like the contrast of the colors from top to bottom,43,360,20","Mariah","It is very bland and the colors are not cohesive.,-20,140,20","Catherine","confused. stages of a persons life from beginning positive to ending negative.,-10,160,20","0"
"15543","","survey-text","51","832826","0.0-51.0-0.0","A1710X6OIQP62Q","","","","{""Q0"":""just too much.  Not even sure what it is""}","","","","","","","","","","","","","","","","","","","","","","",""
"2364.2000000178814","","image-slider-response","52","835191","0.0-52.0","A1710X6OIQP62Q","","","","","-48","","","","","","","","","","","","","","","","","","","","","",""
"null","","image-button-response","53","840196","0.0-53.0","A1710X6OIQP62Q","img_art/9.jpg","null","","","","","","","","","","","","","","","","","","","","","","","","",""
"953","","image-button-response","54","841152","0.0-54.0","A1710X6OIQP62Q","img_art/9.jpg","0","","","","","","","","","","","","","","","","","","","","","","","","",""
"3025","","image-button-response","55","844178","0.0-55.0-0.0","A1710X6OIQP62Q","img_art/9.jpg","5","","","","","","","","","","","","","","","","","","","","","","","","",""
"15406","","image-button-response","56","859585","0.0-56.0-0.0","A1710X6OIQP62Q","img_art/9.jpg","1","","","","","","","","","","","","","","","","","","","","","","","","",""
"null","","html-keyboard-response","57","861100","0.0-57.0","A1710X6OIQP62Q","<p style=""font-size: 48px;"">+</p>","","","","","null","allTrialResponses","1500","1","2","img_art/9.jpg","-48","just too much.  Not even sure what it is","Emily,Caroline,Monica,Catherine,Mariah,Angela","Looks like a young child drew it.,-45,40,20","Stirs up emotions of watching someone sleep which is relaxing,11,100,20","I like the greens and blues around the sides and the person reclining in the center makes me feel relaxed,24,360,20","Cozy, In her own world. feminine .,30,160,20","Pleasant in all ways.,27,140,20","This painting feels too jumbled for me to like it.,-12,260,20","Emily","Looks like a young child drew it.,-45,40,20","Angela","This painting feels too jumbled for me to like it.,-12,260,20","Caroline","Stirs up emotions of watching someone sleep which is relaxing,11,100,20","0"
"12054","","survey-text","58","873159","0.0-58.0-0.0","A1710X6OIQP62Q","","","","{""Q0"":""peaceful and relaxing""}","","","","","","","","","","","","","","","","","","","","","","",""
"2308.2000000178814","","image-slider-response","59","875469","0.0-59.0","A1710X6OIQP62Q","","","","","22","","","","","","","","","","","","","","","","","","","","","",""
"4069","","image-button-response","60","880484","0.0-60.0","A1710X6OIQP62Q","img_art/24.jpg","2","","","","","","","","","","","","","","","","","","","","","","","","",""
"618","","image-button-response","61","881104","0.0-61.0","A1710X6OIQP62Q","img_art/24.jpg","1","","","","","","","","","","","","","","","","","","","","","","","","",""
"558","","image-button-response","62","881663","0.0-62.0-0.0","A1710X6OIQP62Q","img_art/24.jpg","2","","","","","","","","","","","","","","","","","","","","","","","","",""
"3727","","image-button-response","63","885391","0.0-63.0-0.0","A1710X6OIQP62Q","img_art/24.jpg","5","","","","","","","","","","","","","","","","","","","","","","","","",""
"null","","html-keyboard-response","64","886393","0.0-64.0","A1710X6OIQP62Q","<p style=""font-size: 48px;"">+</p>","","","","","null","allTrialResponses","1000","1","3","img_art/24.jpg","22","peaceful and relaxing","Emily,Caroline,Alexandria,Sydney,Madison,Angela","It's not super high uality  but there is some skill and talent in it I see.,15,40,20","Waterfalls and spring and gives me a sense of renewal,34,100,20","very colorful and intricate and makes me feel at peace,50,80,20","I'm reminded of a waterfall, but I feel like it could've been better portrayed.,5,320,20","Exceedingly garish,-19,60,20","Love the colors in this work, and the sense of motion in the water,36,260,20","Caroline","Waterfalls and spring and gives me a sense of renewal,34,100,20","Alexandria","very colorful and intricate and makes me feel at peace,50,80,20","Angela","Love the colors in this work, and the sense of motion in the water,36,260,20","0"
"77465","","survey-text","65","963861","0.0-65.0-0.0","A1710X6OIQP62Q","","","","{""Q0"":""makes me think of old times and underdeveloped places""}","","","","","","","","","","","","","","","","","","","","","","",""
"2500.5999999940395","","image-slider-response","66","966364","0.0-66.0","A1710X6OIQP62Q","","","","","-27","","","","","","","","","","","","","","","","","","","","","",""
"null","","image-button-response","67","972309","0.0-67.0","A1710X6OIQP62Q","img_art/19.jpg","null","","","","","","","","","","","","","","","","","","","","","","","","",""
"15788","","image-button-response","68","988099","0.0-68.0","A1710X6OIQP62Q","img_art/19.jpg","4","","","","","","","","","","","","","","","","","","","","","","","","",""
"3404","","image-button-response","69","991506","0.0-69.0-0.0","A1710X6OIQP62Q","img_art/19.jpg","1","","","","","","","","","","","","","","","","","","","","","","","","",""
"986","","image-button-response","70","992493","0.0-70.0-0.0","A1710X6OIQP62Q","img_art/19.jpg","5","","","","","","","","","","","","","","","","","","","","","","","","",""
"null","","html-keyboard-response","71","993495","0.0-71.0","A1710X6OIQP62Q","<p style=""font-size: 48px;"">+</p>","","","","","null","allTrialResponses","1000","1","4","img_art/19.jpg","-27","makes me think of old times and underdeveloped places","Cheyenne,Caroline,Alexandria,Angelica,Leslie,Angela","Solid use of colors but wished it looked more realistic.,12,200,20","Chaotic. Too much going on in the picture,14,100,20","it draws my eye and my mind fills in the spaces,14,80,20","This is like an ugly version of a Basquiat.,-24,280,20","It's a cute city scene, but nothing special.,10,380,20","I like the colors but the scene itself feels too jumbled and cluttered,9,260,20","Leslie","It's a cute city scene, but nothing special.,10,380,20","Caroline","Chaotic. Too much going on in the picture,14,100,20","Angela","I like the colors but the scene itself feels too jumbled and cluttered,9,260,20","0"
"62986","","survey-text","72","1056487","0.0-72.0-0.0","A1710X6OIQP62Q","","","","{""Q0"":""so dark""}","","","","","","","","","","","","","","","","","","","","","","",""
"3160.9000000059605","","image-slider-response","73","1059649","0.0-73.0","A1710X6OIQP62Q","","","","","-22","","","","","","","","","","","","","","","","","","","","","",""
"1926","","image-button-response","74","1064666","0.0-74.0","A1710X6OIQP62Q","img_art/15.jpg","0","","","","","","","","","","","","","","","","","","","","","","","","",""
"521","","image-button-response","75","1065190","0.0-75.0","A1710X6OIQP62Q","img_art/15.jpg","4","","","","","","","","","","","","","","","","","","","","","","","","",""
"583","","image-button-response","76","1065774","0.0-76.0-0.0","A1710X6OIQP62Q","img_art/15.jpg","3","","","","","","","","","","","","","","","","","","","","","","","","",""
"1386","","image-button-response","77","1067162","0.0-77.0-0.0","A1710X6OIQP62Q","img_art/15.jpg","5","","","","","","","","","","","","","","","","","","","","","","","","",""
"null","","html-keyboard-response","78","1068163","0.0-78.0","A1710X6OIQP62Q","<p style=""font-size: 48px;"">+</p>","","","","","null","allTrialResponses","1000","1","5","img_art/15.jpg","-22","so dark","Sara,Caroline,Tiffany,Gabrielle,Leslie,Angela","I don't like the black dots,-19,160,20","Makes me think of a bush and flowers and spring and happy warm times,25,100,20","The painting is very relaxing, I'm reminded of sitting in a garden in the evening.,8,360,20","dark and provoking,-50,160,20","This elicits no reaction in me.,0,380,20","Interesting, but don't really like it. Gloomy.,-10,260,20","Leslie","This elicits no reaction in me.,0,380,20","Gabrielle","dark and provoking,-50,160,20","Angela","Interesting, but don't really like it. Gloomy.,-10,260,20","0"
"2989","","survey-text","79","1071161","0.0-79.0-0.0","A1710X6OIQP62Q","","","","{""Q0"":""sky""}","","","","","","","","","","","","","","","","","","","","","","",""
"22003","","survey-text","80","1093165","0.0-80.0-0.0","A1710X6OIQP62Q","","","","{""Q0"":""smeared colors.  Very loud""}","","","","","","","","","","","","","","","","","","","","","","",""
"2546.199999988079","","image-slider-response","81","1095713","0.0-81.0","A1710X6OIQP62Q","","","","","-41","","","","","","","","","","","","","","","","","","","","","",""
"null","","image-button-response","82","1101301","0.0-82.0","A1710X6OIQP62Q","img_art/1.jpg","null","","","","","","","","","","","","","","","","","","","","","","","","",""
"10940","","image-button-response","83","1112243","0.0-83.0","A1710X6OIQP62Q","img_art/1.jpg","2","","","","","","","","","","","","","","","","","","","","","","","","",""
"7900","","image-button-response","84","1120145","0.0-84.0-0.0","A1710X6OIQP62Q","img_art/1.jpg","1","","","","","","","","","","","","","","","","","","","","","","","","",""
"1742","","image-button-response","85","1121889","0.0-85.0-0.0","A1710X6OIQP62Q","img_art/1.jpg","0","","","","","","","","","","","","","","","","","","","","","","","","",""
"null","","html-keyboard-response","86","1123390","0.0-86.0","A1710X6OIQP62Q","<p style=""font-size: 48px;"">+</p>","","","","","null","allTrialResponses","1500","1","6","img_art/1.jpg","-41","smeared colors.  Very loud","Amanda,Nicole,Courtney,Gabrielle,Leslie,Angela","Seems like one i previously saw in this survey,27,180,20","I love the colors but it's too intense sometimes,22,20,20","I cant make anything of this one.,-7,280,20","nice piece, fall like,31,160,20","The use of reds, blues, and yellows together reminds me of fire. Very interesting to look at.,40,380,20","Like the colors very much, and this piece makes me feel peaceful.,29,260,20","Courtney","I cant make anything of this one.,-7,280,20","Nicole","I love the colors but it's too intense sometimes,22,20,20","Amanda","Seems like one i previously saw in this survey,27,180,20","0"
"10182","","survey-text","87","1133579","0.0-87.0-0.0","A1710X6OIQP62Q","","","","{""Q0"":""looks like a busy city""}","","","","","","","","","","","","","","","","","","","","","","",""
"2178.2999999821186","","image-slider-response","88","1135759","0.0-88.0","A1710X6OIQP62Q","","","","","18","","","","","","","","","","","","","","","","","","","","","",""
"4877","","image-button-response","89","1140772","0.0-89.0","A1710X6OIQP62Q","img_art/11.jpg","2","","","","","","","","","","","","","","","","","","","","","","","","",""
"2365","","image-button-response","90","1143139","0.0-90.0","A1710X6OIQP62Q","img_art/11.jpg","3","","","","","","","","","","","","","","","","","","","","","","","","",""
"2086","","image-button-response","91","1145227","0.0-91.0-0.0","A1710X6OIQP62Q","img_art/11.jpg","5","","","","","","","","","","","","","","","","","","","","","","","","",""
"1531","","image-button-response","92","1146759","0.0-92.0-0.0","A1710X6OIQP62Q","img_art/11.jpg","2","","","","","","","","","","","","","","","","","","","","","","","","",""
"null","","html-keyboard-response","93","1147763","0.0-93.0","A1710X6OIQP62Q","<p style=""font-size: 48px;"">+</p>","","","","","null","allTrialResponses","1000","1","7","img_art/11.jpg","18","looks like a busy city","Amanda,Nicole,Courtney,Jordan,Briana,Jasmine","It makes me feel angry and overwhelmed,-29,180,20","Those vertical strokes are to die for and I love these colors !!!,50,20,20","Thats a creepy old rollercoasters abandoned,-2,280,20","Oh, I love this one, it says to me that life is very busy,50,20,20","Grays arent my thing,-25,400,20","Reminds me of a city on a grey/rainy winter's day,25,340,20","Jordan","Oh, I love this one, it says to me that life is very busy,50,20,20","Jasmine","Reminds me of a city on a grey/rainy winter's day,25,340,20","Courtney","Thats a creepy old rollercoasters abandoned,-2,280,20","0"
"19553","","survey-text","94","1167321","0.0-94.0-0.0","A1710X6OIQP62Q","","","","{""Q0"":""something to do with a hand""}","","","","","","","","","","","","","","","","","","","","","","",""
"2696.5","","image-slider-response","95","1170019","0.0-95.0","A1710X6OIQP62Q","","","","","-45","","","","","","","","","","","","","","","","","","","","","",""
"2941","","image-button-response","96","1175030","0.0-96.0","A1710X6OIQP62Q","img_art/4.jpg","0","","","","","","","","","","","","","","","","","","","","","","","","",""
"713","","image-button-response","97","1175746","0.0-97.0","A1710X6OIQP62Q","img_art/4.jpg","0","","","","","","","","","","","","","","","","","","","","","","","","",""
"12637","","image-button-response","98","1188384","0.0-98.0-0.0","A1710X6OIQP62Q","img_art/4.jpg","5","","","","","","","","","","","","","","","","","","","","","","","","",""
"2834","","image-button-response","99","1191220","0.0-99.0-0.0","A1710X6OIQP62Q","img_art/4.jpg","2","","","","","","","","","","","","","","","","","","","","","","","","",""
"null","","html-keyboard-response","100","1192221","0.0-100.0","A1710X6OIQP62Q","<p style=""font-size: 48px;"">+</p>","","","","","null","allTrialResponses","1000","1","8","img_art/4.jpg","-45","something to do with a hand","Vanessa,Erika,Courtney,Jordan,Caitlin,Jasmine","Again, this is too abstract and I really don't like the colors.,-21,380,20","Reminds me of late night frustrated paintings of my own made of coffee,12,100,20","A leaning trophy,-9,280,20","The colors remind me of mcdonalds,-33,20,20","They give out trophies now for fighting with brass knuckles?,-20,80,20","It's quite meh to me,0,340,20","Vanessa","Again, this is too abstract and I really don't like the colors.,-21,380,20","Jasmine","It's quite meh to me,0,340,20","Courtney","A leaning trophy,-9,280,20","0"
"22436","","survey-text","101","1214663","0.0-101.0-0.0","A1710X6OIQP62Q","","","","{""Q0"":""a cliff over the water""}","","","","","","","","","","","","","","","","","","","","","","",""
"2298.7999999821186","","image-slider-response","102","1216963","0.0-102.0","A1710X6OIQP62Q","","","","","-31","","","","","","","","","","","","","","","","","","","","","",""
"null","","image-button-response","103","1221976","0.0-103.0","A1710X6OIQP62Q","img_art/21.jpg","null","","","","","","","","","","","","","","","","","","","","","","","","",""
"3182","","image-button-response","104","1225160","0.0-104.0","A1710X6OIQP62Q","img_art/21.jpg","1","","","","","","","","","","","","","","","","","","","","","","","","",""
"3368","","image-button-response","105","1228529","0.0-105.0-0.0","A1710X6OIQP62Q","img_art/21.jpg","3","","","","","","","","","","","","","","","","","","","","","","","","",""
"8994","","image-button-response","106","1237525","0.0-106.0-0.0","A1710X6OIQP62Q","img_art/21.jpg","5","","","","","","","","","","","","","","","","","","","","","","","","",""
"null","","html-keyboard-response","107","1238027","0.0-107.0","A1710X6OIQP62Q","<p style=""font-size: 48px;"">+</p>","","","","","null","allTrialResponses","500","1","9","img_art/21.jpg","-31","a cliff over the water","Vanessa,Shannon,Courtney,Natalie,Stephanie,Jasmine","The colors and softness work together to make something that's lovely.,42,380,20","I like the sky a little bit the way the colors look for the sky, the cliff side looks a little weird though.,10,220,20","Another ship on fire.,-10,280,20","my response to the picture is what is going on?,-13,400,20","A battle at sea, the red is a bomb exploding.,-31,300,20","The blues make me feel sadder as my mood is already not the best right now,-10,340,20","Shannon","I like the sky a little bit the way the colors look for the sky, the cliff side looks a little weird though.,10,220,20","Natalie","my response to the picture is what is going on?,-13,400,20","Jasmine","The blues make me feel sadder as my mood is already not the best right now,-10,340,20","0"
"16442","","survey-text","108","1254473","0.0-108.0-0.0","A1710X6OIQP62Q","","","","{""Q0"":""a large billowing tree""}","","","","","","","","","","","","","","","","","","","","","","",""
"2424.5999999940395","","image-slider-response","109","1256899","0.0-109.0","A1710X6OIQP62Q","","","","","11","","","","","","","","","","","","","","","","","","","","","",""
"null","","image-button-response","110","1261901","0.0-110.0","A1710X6OIQP62Q","img_art/17.jpg","null","","","","","","","","","","","","","","","","","","","","","","","","",""
"1266","","image-button-response","111","1263169","0.0-111.0","A1710X6OIQP62Q","img_art/17.jpg","4","","","","","","","","","","","","","","","","","","","","","","","","",""
"784","","image-button-response","112","1263955","0.0-112.0-0.0","A1710X6OIQP62Q","img_art/17.jpg","3","","","","","","","","","","","","","","","","","","","","","","","","",""
"1204","","image-button-response","113","1265161","0.0-113.0-0.0","A1710X6OIQP62Q","img_art/17.jpg","2","","","","","","","","","","","","","","","","","","","","","","","","",""
"null","","html-keyboard-response","114","1266675","0.0-114.0","A1710X6OIQP62Q","<p style=""font-size: 48px;"">+</p>","","","","","null","allTrialResponses","1500","1","10","img_art/17.jpg","11","a large billowing tree","Emma,Shannon,Claire,Natalie,Michaela,Jasmine","Love the colors and the movement,46,60,20","I like the way the colors were used behind the tree. Makes the image colorful and interesting.,30,220,20","its whimsical and light,50,260,20","my response to the picture is that it looks beautiful,27,400,20","I love how soft it is,35,260,20","I like the use of color in this and how you can actually see shapes form. Seems thoughtful,22,340,20","Michaela","I love how soft it is,35,260,20","Natalie","my response to the picture is that it looks beautiful,27,400,20","Claire","its whimsical and light,50,260,20","0"
"3016","","survey-text","115","1269699","0.0-115.0-0.0","A1710X6OIQP62Q","","","","{""Q0"":""our""}","","","","","","","","","","","","","","","","","","","","","","",""
"18866","","survey-text","116","1288567","0.0-116.0-0.0","A1710X6OIQP62Q","","","","{""Q0"":""love the splatter of colors""}","","","","","","","","","","","","","","","","","","","","","","",""
"2784.699999988079","","image-slider-response","117","1291353","0.0-117.0","A1710X6OIQP62Q","","","","","32","","","","","","","","","","","","","","","","","","","","","",""
"null","","image-button-response","118","1296356","0.0-118.0","A1710X6OIQP62Q","img_art/13.jpg","null","","","","","","","","","","","","","","","","","","","","","","","","",""
"1118","","image-button-response","119","1297476","0.0-119.0","A1710X6OIQP62Q","img_art/13.jpg","2","","","","","","","","","","","","","","","","","","","","","","","","",""
"2736","","image-button-response","120","1300214","0.0-120.0-0.0","A1710X6OIQP62Q","img_art/13.jpg","3","","","","","","","","","","","","","","","","","","","","","","","","",""
"560","","image-button-response","121","1300775","0.0-121.0-0.0","A1710X6OIQP62Q","img_art/13.jpg","4","","","","","","","","","","","","","","","","","","","","","","","","",""
"null","","html-keyboard-response","122","1302294","0.0-122.0","A1710X6OIQP62Q","<p style=""font-size: 48px;"">+</p>","","","","","null","allTrialResponses","1500","1","11","img_art/13.jpg","32","love the splatter of colors","Christina,Danielle,Claire,Natalie,Michaela,Cassandra","i like the colors but it looks like something that would hang in a hotel,18,240,20","While it is a bit basic and doesn't speak to me much, I like the feeling it gives,40,340,20","love the colors and splatters,44,260,20","I like the colors,7,400,20","The colors are really pretty together,39,260,20","I love the colors and the texture,37,120,20","Claire","love the colors and splatters,44,260,20","Natalie","I like the colors,7,400,20","Michaela","The colors are really pretty together,39,260,20","0"
"31692","","survey-text","123","1333991","0.0-123.0-0.0","A1710X6OIQP62Q","","","","{""Q0"":""looks like a chinese letter""}","","","","","","","","","","","","","","","","","","","","","","",""
"1850.300000011921","","image-slider-response","124","1335843","0.0-124.0","A1710X6OIQP62Q","","","","","-24","","","","","","","","","","","","","","","","","","","","","",""
"4483","","image-button-response","125","1340845","0.0-125.0","A1710X6OIQP62Q","img_art/30.jpg","2","","","","","","","","","","","","","","","","","","","","","","","","",""
"1429","","image-button-response","126","1342278","0.0-126.0","A1710X6OIQP62Q","img_art/30.jpg","4","","","","","","","","","","","","","","","","","","","","","","","","",""
"1967","","image-button-response","127","1344245","0.0-127.0-0.0","A1710X6OIQP62Q","img_art/30.jpg","2","","","","","","","","","","","","","","","","","","","","","","","","",""
"845","","image-button-response","128","1345091","0.0-128.0-0.0","A1710X6OIQP62Q","img_art/30.jpg","0","","","","","","","","","","","","","","","","","","","","","","","","",""
"null","","html-keyboard-response","129","1345594","0.0-129.0","A1710X6OIQP62Q","<p style=""font-size: 48px;"">+</p>","","","","","null","allTrialResponses","500","1","12","img_art/30.jpg","-24","looks like a chinese letter","Melissa,Olivia,Claire,Natalie,Michaela,Heather","muddy, feels unintentional,-50,240,20","perceiving greatness,20,40,20","too segmented, looks sloppy,-37,260,20","the colors look nice,19,400,20","My son made me a painting that looked like this,26,260,20","beautiful paint brush strokes,1,260,20","Michaela","My son made me a painting that looked like this,26,260,20","Claire","too segmented, looks sloppy,-37,260,20","Melissa","muddy, feels unintentional,-50,240,20","0"
"327656","","survey-text","130","1673256","0.0-130.0-0.0","A1710X6OIQP62Q","","","","{""Q0"":""egyptian""}","","","","","","","","","","","","","","","","","","","","","","",""
"2648.0999999940395","","image-slider-response","131","1675905","0.0-131.0","A1710X6OIQP62Q","","","","","7","","","","","","","","","","","","","","","","","","","","","",""
"3532","","image-button-response","132","1680908","0.0-132.0","A1710X6OIQP62Q","img_art/25.jpg","2","","","","","","","","","","","","","","","","","","","","","","","","",""
"635","","image-button-response","133","1681546","0.0-133.0","A1710X6OIQP62Q","img_art/25.jpg","4","","","","","","","","","","","","","","","","","","","","","","","","",""
"1068","","image-button-response","134","1682616","0.0-134.0-0.0","A1710X6OIQP62Q","img_art/25.jpg","5","","","","","","","","","","","","","","","","","","","","","","","","",""
"970","","image-button-response","135","1683588","0.0-135.0-0.0","A1710X6OIQP62Q","img_art/25.jpg","2","","","","","","","","","","","","","","","","","","","","","","","","",""
"null","","html-keyboard-response","136","1685102","0.0-136.0","A1710X6OIQP62Q","<p style=""font-size: 48px;"">+</p>","","","","","null","allTrialResponses","1500","1","13","img_art/25.jpg","7","egyptian","Melissa,Mikayla,Claire,Brittany,Michaela,Alexis","do not like that color of green,-11,240,20","I LOVE fhe scary skeleton.,28,300,20","the colors are pretty,11,260,20","It's a rather intriguing design,12,40,20","It looks like people worshipping a statue,33,260,20","Reminds me of cave drawings,21,100,20","Michaela","It looks like people worshipping a statue,33,260,20","Alexis","Reminds me of cave drawings,21,100,20","Claire","the colors are pretty,11,260,20","0"
"44063","","survey-text","137","1729174","0.0-137.0-0.0","A1710X6OIQP62Q","","","","{""Q0"":""I'm not sure.  All I see is a brush.""}","","","","","","","","","","","","","","","","","","","","","","",""
"2596.300000011921","","image-slider-response","138","1731772","0.0-138.0","A1710X6OIQP62Q","","","","","-42","","","","","","","","","","","","","","","","","","","","","",""
"null","","image-button-response","139","1736781","0.0-139.0","A1710X6OIQP62Q","img_art/29.jpg","null","","","","","","","","","","","","","","","","","","","","","","","","",""
"1077","","image-button-response","140","1737861","0.0-140.0","A1710X6OIQP62Q","img_art/29.jpg","0","","","","","","","","","","","","","","","","","","","","","","","","",""
"5361","","image-button-response","141","1743223","0.0-141.0-0.0","A1710X6OIQP62Q","img_art/29.jpg","4","","","","","","","","","","","","","","","","","","","","","","","","",""
"1766","","image-button-response","142","1744991","0.0-142.0-0.0","A1710X6OIQP62Q","img_art/29.jpg","5","","","","","","","","","","","","","","","","","","","","","","","","",""
"null","","html-keyboard-response","143","1746493","0.0-143.0","A1710X6OIQP62Q","<p style=""font-size: 48px;"">+</p>","","","","","null","allTrialResponses","1500","1","14","img_art/29.jpg","-42","I'm not sure.  All I see is a brush.","Diana,Kaylee,Claire,Kimberly,Michaela,Alexis","I rated it lower because it looked like a crime scene. It didn't make me feel good.,-44,380,20","it looks like a prison,-33,200,20","interesting, but I wouldn't put it on my wall,8,260,20","I like the usage of a physical object,33,260,20","Like a crime scene. It's neat and different,30,260,20","The black color is great, but I'm really not a fan of this hectic style,-40,100,20","Diana","I rated it lower because it looked like a crime scene. It didn't make me feel good.,-44,380,20","Michaela","Like a crime scene. It's neat and different,30,260,20","Alexis","The black color is great, but I'm really not a fan of this hectic style,-40,100,20","0"
"9461","","survey-text","144","1755961","0.0-144.0-0.0","A1710X6OIQP62Q","","","","{""Q0"":""cold winter""}","","","","","","","","","","","","","","","","","","","","","","",""
"2068.699999988079","","image-slider-response","145","1758031","0.0-145.0","A1710X6OIQP62Q","","","","","-45","","","","","","","","","","","","","","","","","","","","","",""
"null","","image-button-response","146","1763048","0.0-146.0","A1710X6OIQP62Q","img_art/14.jpg","null","","","","","","","","","","","","","","","","","","","","","","","","",""
"2439","","image-button-response","147","1765489","0.0-147.0","A1710X6OIQP62Q","img_art/14.jpg","5","","","","","","","","","","","","","","","","","","","","","","","","",""
"5970","","image-button-response","148","1771461","0.0-148.0-0.0","A1710X6OIQP62Q","img_art/14.jpg","0","","","","","","","","","","","","","","","","","","","","","","","","",""
"1731","","image-button-response","149","1773195","0.0-149.0-0.0","A1710X6OIQP62Q","img_art/14.jpg","2","","","","","","","","","","","","","","","","","","","","","","","","",""
"null","","html-keyboard-response","150","1773696","0.0-150.0","A1710X6OIQP62Q","<p style=""font-size: 48px;"">+</p>","","","","","null","allTrialResponses","500","1","15","img_art/14.jpg","-45","cold winter","Diana,Maria,Lauren,Makayla,Michaela,Alexis","This piece feels inviting. It's like opening up the pages of your favorite book for the first time.,26,380,20","I enjoy what comes across as a playful take on nature themes,26,120,20","I like how balanced the piece is with its symmetrical design.,20,340,20","I like that it's like a snippet of a field in the desert,21,80,20","I just really like light and wispy things,33,260,20","Don't like the colors on this. Too simple,-20,100,20","Alexis","Don't like the colors on this. Too simple,-20,100,20","Diana","This piece feels inviting. It's like opening up the pages of your favorite book for the first time.,26,380,20","Lauren","I like how balanced the piece is with its symmetrical design.,20,340,20","0"
"3609","","survey-text","151","1777314","0.0-151.0-0.0","A1710X6OIQP62Q","","","","{""Q0"":""course""}","","","","","","","","","","","","","","","","","","","","","","",""
"12691","","survey-text","152","1790006","0.0-152.0-0.0","A1710X6OIQP62Q","","","","{""Q0"":""childrens art""}","","","","","","","","","","","","","","","","","","","","","","",""
"2152.5999999940395","","image-slider-response","153","1792160","0.0-153.0","A1710X6OIQP62Q","","","","","-25","","","","","","","","","","","","","","","","","","","","","",""
"1430","","image-button-response","154","1797162","0.0-154.0","A1710X6OIQP62Q","img_art/2.jpg","1","","","","","","","","","","","","","","","","","","","","","","","","",""
"871","","image-button-response","155","1798035","0.0-155.0","A1710X6OIQP62Q","img_art/2.jpg","4","","","","","","","","","","","","","","","","","","","","","","","","",""
"568","","image-button-response","156","1798605","0.0-156.0-0.0","A1710X6OIQP62Q","img_art/2.jpg","5","","","","","","","","","","","","","","","","","","","","","","","","",""
"750","","image-button-response","157","1799356","0.0-157.0-0.0","A1710X6OIQP62Q","img_art/2.jpg","1","","","","","","","","","","","","","","","","","","","","","","","","",""
"null","","html-keyboard-response","158","1800858","0.0-158.0","A1710X6OIQP62Q","<p style=""font-size: 48px;"">+</p>","","","","","null","allTrialResponses","1500","1","16","img_art/2.jpg","-25","childrens art","Diana,Margaret,Lauren,Marissa,Grace,Alexis","I think I see people sitting in lawn chairs in a circle watching an event. Not really sure so I rated it lower.,-35,380,20","doesn't do anything for me,-7,100,20","I feel that its too abstract for me to understand what I'm looking at.,-15,340,20","I feel bothered by the dark and dingy choice of colors,-22,160,20","Like the colors but reminds me of a kids show done in cubism.,0,180,20","Do not like this type of abstract work,-50,100,20","Grace","Like the colors but reminds me of a kids show done in cubism.,0,180,20","Alexis","Do not like this type of abstract work,-50,100,20","Margaret","doesn't do anything for me,-7,100,20","0"
"14175","","survey-text","159","1815038","0.0-159.0-0.0","A1710X6OIQP62Q","","","","{""Q0"":""just red lines and squiggles""}","","","","","","","","","","","","","","","","","","","","","","",""
"2096.199999988079","","image-slider-response","160","1817136","0.0-160.0","A1710X6OIQP62Q","","","","","-48","","","","","","","","","","","","","","","","","","","","","",""
"null","","image-button-response","161","1822287","0.0-161.0","A1710X6OIQP62Q","img_art/3.jpg","null","","","","","","","","","","","","","","","","","","","","","","","","",""
"34555","","image-button-response","162","1856844","0.0-162.0","A1710X6OIQP62Q","img_art/3.jpg","0","","","","","","","","","","","","","","","","","","","","","","","","",""
"1115","","image-button-response","163","1857961","0.0-163.0-0.0","A1710X6OIQP62Q","img_art/3.jpg","1","","","","","","","","","","","","","","","","","","","","","","","","",""
"1836","","image-button-response","164","1859799","0.0-164.0-0.0","A1710X6OIQP62Q","img_art/3.jpg","2","","","","","","","","","","","","","","","","","","","","","","","","",""
"null","","html-keyboard-response","165","1861300","0.0-165.0","A1710X6OIQP62Q","<p style=""font-size: 48px;"">+</p>","","","","","null","allTrialResponses","1500","1","17","img_art/3.jpg","-48","just red lines and squiggles","Amber,Margaret,Katie,Kaitlyn,Grace,Alexis","seems to be a lot of angry scribble.,-20,200,20","seems distressing. a blood scene,-3,100,20","Messy. Looks like a children's drawing being passed off as expensive art. Too much red.,-50,160,20","Too much red; very bland,-26,80,20","Just no. I love red but this looks like blood splatter on a wall from a horrific killing.,-45,180,20","Just scribbles. Not a fan.,-40,100,20","Amber","seems to be a lot of angry scribble.,-20,200,20","Margaret","seems distressing. a blood scene,-3,100,20","Katie","Messy. Looks like a children's drawing being passed off as expensive art. Too much red.,-50,160,20","0"
"269387","","survey-text","166","2130694","0.0-166.0-0.0","A1710X6OIQP62Q","","","","{""Q0"":""shapes of color""}","","","","","","","","","","","","","","","","","","","","","","",""
"3290","","image-slider-response","167","2133986","0.0-167.0","A1710X6OIQP62Q","","","","","-22","","","","","","","","","","","","","","","","","","","","","",""
"null","","image-button-response","168","2139292","0.0-168.0","A1710X6OIQP62Q","img_art/22.jpg","null","","","","","","","","","","","","","","","","","","","","","","","","",""
"118413","","image-button-response","169","2257708","0.0-169.0","A1710X6OIQP62Q","img_art/22.jpg","2","","","","","","","","","","","","","","","","","","","","","","","","",""
"2526","","image-button-response","170","2260236","0.0-170.0-0.0","A1710X6OIQP62Q","img_art/22.jpg","4","","","","","","","","","","","","","","","","","","","","","","","","",""
"1616","","image-button-response","171","2261854","0.0-171.0-0.0","A1710X6OIQP62Q","img_art/22.jpg","5","","","","","","","","","","","","","","","","","","","","","","","","",""
"null","","html-keyboard-response","172","2262855","0.0-172.0","A1710X6OIQP62Q","<p style=""font-size: 48px;"">+</p>","","","","","null","allTrialResponses","1000","1","18","img_art/22.jpg","-22","shapes of color","Amber,Margaret,Katie,Isabella,Hailey,Alicia","Colors are bright and cheerful.,5,200,20","i feel like this is a a basic art piece that a school would have on the wall,-24,100,20","Too much red. The red/yellow/orange make me think of heat/fire, which makes me anxious.,-10,160,20","Sunsets at the beach,42,280,20","a lost balloon in outer space,12,200,20","Could be interpreted so many ways, bold. I like it.,29,120,20","Katie","Too much red. The red/yellow/orange make me think of heat/fire, which makes me anxious.,-10,160,20","Hailey","a lost balloon in outer space,12,200,20","Alicia","Could be interpreted so many ways, bold. I like it.,29,120,20","0"
"17509","","survey-text","173","2280372","0.0-173.0-0.0","A1710X6OIQP62Q","","","","{""Q0"":""a vehicle that hit a cow""}","","","","","","","","","","","","","","","","","","","","","","",""
"2638.400000035763","","image-slider-response","174","2283012","0.0-174.0","A1710X6OIQP62Q","","","","","6","","","","","","","","","","","","","","","","","","","","","",""
"4454","","image-button-response","175","2288015","0.0-175.0","A1710X6OIQP62Q","img_art/20.jpg","2","","","","","","","","","","","","","","","","","","","","","","","","",""
"1974","","image-button-response","176","2289992","0.0-176.0","A1710X6OIQP62Q","img_art/20.jpg","4","","","","","","","","","","","","","","","","","","","","","","","","",""
"892","","image-button-response","177","2290886","0.0-177.0-0.0","A1710X6OIQP62Q","img_art/20.jpg","5","","","","","","","","","","","","","","","","","","","","","","","","",""
"1072","","image-button-response","178","2291960","0.0-178.0-0.0","A1710X6OIQP62Q","img_art/20.jpg","2","","","","","","","","","","","","","","","","","","","","","","","","",""
"null","","html-keyboard-response","179","2292970","0.0-179.0","A1710X6OIQP62Q","<p style=""font-size: 48px;"">+</p>","","","","","null","allTrialResponses","1000","1","19","img_art/20.jpg","6","a vehicle that hit a cow","Morgan,Kelsey,Katie,Kathryn,Hailey,Alicia","The beach and industry.,12,380,20","i almost feel like i can recognize what this is,-6,240,20","I don't like it. Dark sky and black figures. White objects remind me of bones.,-30,160,20","This looks like a ruin of what was once a thriving city.,-9,140,20","reminds me of a dead animal in the west. ugly,-25,200,20","Very cool, and calming (again) Love it.,47,120,20","Hailey","reminds me of a dead animal in the west. ugly,-25,200,20","Alicia","Very cool, and calming (again) Love it.,47,120,20","Katie","I don't like it. Dark sky and black figures. White objects remind me of bones.,-30,160,20","0"
"62495","","survey-text","180","2355473","0.0-180.0-0.0","A1710X6OIQP62Q","","","","{""Q0"":""random items""}","","","","","","","","","","","","","","","","","","","","","","",""
"3272.5","","image-slider-response","181","2358747","0.0-181.0","A1710X6OIQP62Q","","","","","7","","","","","","","","","","","","","","","","","","","","","",""
"null","","image-button-response","182","2364294","0.0-182.0","A1710X6OIQP62Q","img_art/16.jpg","null","","","","","","","","","","","","","","","","","","","","","","","","",""
"15874","","image-button-response","183","2380171","0.0-183.0","A1710X6OIQP62Q","img_art/16.jpg","4","","","","","","","","","","","","","","","","","","","","","","","","",""
"4992","","image-button-response","184","2385165","0.0-184.0-0.0","A1710X6OIQP62Q","img_art/16.jpg","0","","","","","","","","","","","","","","","","","","","","","","","","",""
"1028","","image-button-response","185","2386195","0.0-185.0-0.0","A1710X6OIQP62Q","img_art/16.jpg","3","","","","","","","","","","","","","","","","","","","","","","","","",""
"null","","html-keyboard-response","186","2387206","0.0-186.0","A1710X6OIQP62Q","<p style=""font-size: 48px;"">+</p>","","","","","null","allTrialResponses","1000","1","20","img_art/16.jpg","7","random items","Jenna,Amy,Katie,Jamie,Hailey,Alicia","very bizarre and confusing, but that feels purposeful, so i don't completely hate it.,-25,360,20","visceral and a little disturbing.,10,220,20","Upsetting and disturbing. Random bear and indistinguishable objects. None of it goes together. Too chaotic and random,-50,160,20","Weird and funny,40,320,20","cute and warm. i like the bear,15,200,20","Don't get it. Hate it. ugly.,-44,120,20","Hailey","cute and warm. i like the bear,15,200,20","Jenna","very bizarre and confusing, but that feels purposeful, so i don't completely hate it.,-25,360,20","Jamie","Weird and funny,40,320,20","0"
"2877","","survey-text","187","2390093","0.0-187.0-0.0","A1710X6OIQP62Q","","","","{""Q0"":""we""}","","","","","","","","","","","","","","","","","","","","","","",""
"21469","","survey-text","188","2411563","0.0-188.0-0.0","A1710X6OIQP62Q","","","","{""Q0"":""reminds me of christmas lights""}","","","","","","","","","","","","","","","","","","","","","","",""
"3126.300000011921","","image-slider-response","189","2414691","0.0-189.0","A1710X6OIQP62Q","","","","","16","","","","","","","","","","","","","","","","","","","","","",""
"3565","","image-button-response","190","2419693","0.0-190.0","A1710X6OIQP62Q","img_art/23.jpg","2","","","","","","","","","","","","","","","","","","","","","","","","",""
"670","","image-button-response","191","2420365","0.0-191.0","A1710X6OIQP62Q","img_art/23.jpg","0","","","","","","","","","","","","","","","","","","","","","","","","",""
"559","","image-button-response","192","2420925","0.0-192.0-0.0","A1710X6OIQP62Q","img_art/23.jpg","2","","","","","","","","","","","","","","","","","","","","","","","","",""
"1321","","image-button-response","193","2422247","0.0-193.0-0.0","A1710X6OIQP62Q","img_art/23.jpg","0","","","","","","","","","","","","","","","","","","","","","","","","",""
"2875","","image-button-response","194","2428094","0.0-193.1-0.1","A1710X6OIQP62Q","img_art/23.jpg","5","","","","","","","","","","","","","","","","","","","","","","","","",""
"null","","html-keyboard-response","195","2428596","0.0-194.0","A1710X6OIQP62Q","<p style=""font-size: 48px;"">+</p>","","","","","null","allTrialResponses","500","1","21","img_art/23.jpg","16","reminds me of christmas lights","Jenna,Katherine,Anna,Jamie,Hailey,Kristen","awesome colors. love the white drawing the eye to the center. oddly comforting.,50,360,20","This one is awesome, kinda looks like a cake with sprinkles but in a different universe,50,120,20","I love the colors and the contrast.,50,300,20","Reminds me of outer space and the stars,30,320,20","cold and dark feeling,-27,200,20","fsiries, happy, spiritual,16,280,20","Jenna","awesome colors. love the white drawing the eye to the center. oddly comforting.,50,360,20","Anna","I love the colors and the contrast.,50,300,20","Kristen","fsiries, happy, spiritual,16,280,20","2"
"84304","","survey-text","196","2512907","0.0-195.0-0.0","A1710X6OIQP62Q","","","","{""Q0"":""a pen in a holder""}","","","","","","","","","","","","","","","","","","","","","","",""
"2158.2000000476837","","image-slider-response","197","2515067","0.0-196.0","A1710X6OIQP62Q","","","","","-32","","","","","","","","","","","","","","","","","","","","","",""
"2797","","image-button-response","198","2520081","0.0-197.0","A1710X6OIQP62Q","img_art/5.jpg","2","","","","","","","","","","","","","","","","","","","","","","","","",""
"537","","image-button-response","199","2520620","0.0-198.0","A1710X6OIQP62Q","img_art/5.jpg","4","","","","","","","","","","","","","","","","","","","","","","","","",""
"529","","image-button-response","200","2521150","0.0-199.0-0.0","A1710X6OIQP62Q","img_art/5.jpg","5","","","","","","","","","","","","","","","","","","","","","","","","",""
"1706","","image-button-response","201","2522858","0.0-200.0-0.0","A1710X6OIQP62Q","img_art/5.jpg","2","","","","","","","","","","","","","","","","","","","","","","","","",""
"null","","html-keyboard-response","202","2523360","0.0-201.0","A1710X6OIQP62Q","<p style=""font-size: 48px;"">+</p>","","","","","null","allTrialResponses","500","1","22","img_art/5.jpg","-32","a pen in a holder","Jenna,Kayla,Anna,Michelle,Sarah,Kristen","it's okay. the colors are eye catching, but that's about it.,3,360,20","I like that the pyramid is putting off a beacon of light.,11,180,20","It's kind of boring.,-20,300,20","What is this? It looks like no effort was put into this work,-2,280,20","looks very childish,-35,180,20","sharp, painful yet playful,-5,280,20","Sarah","looks very childish,-35,180,20","Kristen","sharp, painful yet playful,-5,280,20","Anna","It's kind of boring.,-20,300,20","2"
"28742","","survey-text","203","2552110","0.0-202.0-0.0","A1710X6OIQP62Q","","","","{""Q0"":""fossils in dried clay""}","","","","","","","","","","","","","","","","","","","","","","",""
"2268.300000011921","","image-slider-response","204","2554379","0.0-203.0","A1710X6OIQP62Q","","","","","-14","","","","","","","","","","","","","","","","","","","","","",""
"3133","","image-button-response","205","2559382","0.0-204.0","A1710X6OIQP62Q","img_art/7.jpg","0","","","","","","","","","","","","","","","","","","","","","","","","",""
"757","","image-button-response","206","2560142","0.0-205.0","A1710X6OIQP62Q","img_art/7.jpg","2","","","","","","","","","","","","","","","","","","","","","","","","",""
"2493","","image-button-response","207","2562636","0.0-206.0-0.0","A1710X6OIQP62Q","img_art/7.jpg","4","","","","","","","","","","","","","","","","","","","","","","","","",""
"1888","","image-button-response","208","2564526","0.0-207.0-0.0","A1710X6OIQP62Q","img_art/7.jpg","0","","","","","","","","","","","","","","","","","","","","","","","","",""
"null","","html-keyboard-response","209","2565027","0.0-208.0","A1710X6OIQP62Q","<p style=""font-size: 48px;"">+</p>","","","","","null","allTrialResponses","500","1","23","img_art/7.jpg","-14","fossils in dried clay","Sierra,Sabrina,Anna,Cassidy,Sarah,Kristen","it looks like a dog ran through some wet cement,-22,260,20","Not getting the vibe i would like from this,-30,120,20","It's kind of ugly but I like the texture.,10,300,20","I like the texture,12,140,20","i kind of like this, it looks like a photo of a planet's surface,16,180,20","sand, beach, tranquil,10,280,20","Anna","It's kind of ugly but I like the texture.,10,300,20","Sarah","i kind of like this, it looks like a photo of a planet's surface,16,180,20","Sierra","it looks like a dog ran through some wet cement,-22,260,20","2"
"1642350","","survey-text","210","4207384","0.0-209.0-0.0","A1710X6OIQP62Q","","","","{""Q0"":""dull and light""}","","","","","","","","","","","","","","","","","","","","","","",""
"1942.800000011921","","image-slider-response","211","4209329","0.0-210.0","A1710X6OIQP62Q","","","","","-36","","","","","","","","","","","","","","","","","","","","","",""
"4278","","image-button-response","212","4214332","0.0-211.0","A1710X6OIQP62Q","img_art/26.jpg","2","","","","","","","","","","","","","","","","","","","","","","","","",""
"641","","image-button-response","213","4214975","0.0-212.0","A1710X6OIQP62Q","img_art/26.jpg","1","","","","","","","","","","","","","","","","","","","","","","","","",""
"429","","image-button-response","214","4215405","0.0-213.0-0.0","A1710X6OIQP62Q","img_art/26.jpg","2","","","","","","","","","","","","","","","","","","","","","","","","",""
"3402","","image-button-response","215","4218809","0.0-214.0-0.0","A1710X6OIQP62Q","img_art/26.jpg","4","","","","","","","","","","","","","","","","","","","","","","","","",""
"null","","html-keyboard-response","216","4219812","0.0-215.0","A1710X6OIQP62Q","<p style=""font-size: 48px;"">+</p>","","","","","null","allTrialResponses","1000","1","24","img_art/26.jpg","-36","dull and light","Sierra,Cynthia,Anna,Mackenzie,Sarah,Dominique","soothing and subtle,1,260,20","dull and boring,-6,320,20","It looks like a watercolor I did when I was 6.,-30,300,20","Very interesting to look at, I like the shapes, textures and colors.,30,20,20","too hard to figure out if it's meant to be actual objects or impressions,-36,180,20","Small town and home feel on A nice day.,28,400,20","Cynthia","dull and boring,-6,320,20","Anna","It looks like a watercolor I did when I was 6.,-30,300,20","Sarah","too hard to figure out if it's meant to be actual objects or impressions,-36,180,20","2"
"6446","","survey-text","217","4226268","0.0-216.0-0.0","A1710X6OIQP62Q","","","","{""Q0"":""messy""}","","","","","","","","","","","","","","","","","","","","","","",""
"15343","","survey-text","218","4243647","0.0-216.1-0.1","A1710X6OIQP62Q","","","","{""Q0"":""messy.  Looks like cotton""}","","","","","","","","","","","","","","","","","","","","","","",""
"2426.300000011921","","image-slider-response","219","4246075","0.0-217.0","A1710X6OIQP62Q","","","","","-47","","","","","","","","","","","","","","","","","","","","","",""
"4191","","image-button-response","220","4251084","0.0-218.0","A1710X6OIQP62Q","img_art/27.jpg","1","","","","","","","","","","","","","","","","","","","","","","","","",""
"1093","","image-button-response","221","4252179","0.0-219.0","A1710X6OIQP62Q","img_art/27.jpg","1","","","","","","","","","","","","","","","","","","","","","","","","",""
"2007","","image-button-response","222","4254187","0.0-220.0-0.0","A1710X6OIQP62Q","img_art/27.jpg","5","","","","","","","","","","","","","","","","","","","","","","","","",""
"1195","","image-button-response","223","4255383","0.0-221.0-0.0","A1710X6OIQP62Q","img_art/27.jpg","4","","","","","","","","","","","","","","","","","","","","","","","","",""
"null","","html-keyboard-response","224","4256385","0.0-222.0","A1710X6OIQP62Q","<p style=""font-size: 48px;"">+</p>","","","","","null","allTrialResponses","1000","1","25","img_art/27.jpg","-47","messy.  Looks like cotton","Haley,Cynthia,Anna,Sophia,Sarah,Alexandra","First thought is again, that this looks like a child's art assignment,-20,220,20","dirty and misunderstood,-47,320,20","It looks like when my little sister took magic markers to the wall.,-11,300,20","Yikes. I think I made this in kindergarten.,-20,280,20","i don't think i should like this one because it's a little chaotic and simple but I do,6,180,20","This is ugly and looks like a child did this,-36,60,20","Cynthia","dirty and misunderstood,-47,320,20","Alexandra","This is ugly and looks like a child did this,-36,60,20","Sarah","i don't think i should like this one because it's a little chaotic and simple but I do,6,180,20","2"
"2886","","survey-text","225","4259281","0.0-223.0-0.0","A1710X6OIQP62Q","","","","{""Q0"":""table""}","","","","","","","","","","","","","","","","","","","","","","",""
"16841","","survey-text","226","4276123","0.0-224.0-0.0","A1710X6OIQP62Q","","","","{""Q0"":""a bird on sand""}","","","","","","","","","","","","","","","","","","","","","","",""
"2532.600000023842","","image-slider-response","227","4278657","0.0-225.0","A1710X6OIQP62Q","","","","","-23","","","","","","","","","","","","","","","","","","","","","",""
"4451","","image-button-response","228","4283671","0.0-226.0","A1710X6OIQP62Q","img_art/6.jpg","3","","","","","","","","","","","","","","","","","","","","","","","","",""
"950","","image-button-response","229","4284623","0.0-227.0","A1710X6OIQP62Q","img_art/6.jpg","5","","","","","","","","","","","","","","","","","","","","","","","","",""
"678","","image-button-response","230","4285303","0.0-228.0-0.0","A1710X6OIQP62Q","img_art/6.jpg","3","","","","","","","","","","","","","","","","","","","","","","","","",""
"717","","image-button-response","231","4286021","0.0-229.0-0.0","A1710X6OIQP62Q","img_art/6.jpg","2","","","","","","","","","","","","","","","","","","","","","","","","",""
"null","","html-keyboard-response","232","4286523","0.0-230.0","A1710X6OIQP62Q","<p style=""font-size: 48px;"">+</p>","","","","","null","allTrialResponses","500","1","26","img_art/6.jpg","-23","a bird on sand","Crystal,Cynthia,Kelly,Autumn,Sarah,Alexandra","Gives me a feeling of solitude and nothingness,11,300,20","seeds of change,11,320,20","Simple and pretty.,18,220,20","Bird? It's a bird.,23,340,20","it's interesting but I don't love it,10,180,20","this is interesting and unique,11,60,20","Alexandra","this is interesting and unique,11,60,20","Autumn","Bird? It's a bird.,23,340,20","Kelly","Simple and pretty.,18,220,20","2"
"8712","","survey-text","233","4295243","0.0-231.0-0.0","A1710X6OIQP62Q","","","","{""Q0"":""lines and swirls""}","","","","","","","","","","","","","","","","","","","","","","",""
"2314.100000023842","","image-slider-response","234","4297559","0.0-232.0","A1710X6OIQP62Q","","","","","-9","","","","","","","","","","","","","","","","","","","","","",""
"3262","","image-button-response","235","4302562","0.0-233.0","A1710X6OIQP62Q","img_art/18.jpg","1","","","","","","","","","","","","","","","","","","","","","","","","",""
"1900","","image-button-response","236","4304465","0.0-234.0","A1710X6OIQP62Q","img_art/18.jpg","4","","","","","","","","","","","","","","","","","","","","","","","","",""
"655","","image-button-response","237","4305121","0.0-235.0-0.0","A1710X6OIQP62Q","img_art/18.jpg","5","","","","","","","","","","","","","","","","","","","","","","","","",""
"927","","image-button-response","238","4306049","0.0-236.0-0.0","A1710X6OIQP62Q","img_art/18.jpg","1","","","","","","","","","","","","","","","","","","","","","","","","",""
"null","","html-keyboard-response","239","4306551","0.0-237.0","A1710X6OIQP62Q","<p style=""font-size: 48px;"">+</p>","","","","","null","allTrialResponses","500","1","27","img_art/18.jpg","-9","lines and swirls","Rachel,Brooke,Kelly,Autumn,Meghan,Alexandra","This one seems rather ghoulish to me.,-41,80,20","Don't like the color scheme. Or the theme.,-5,60,20","It's interesting. I'm not sure how I feel about it, but i enjoy the ghostly apparitions.,10,220,20","This looks amazing.,40,340,20","reminds me of sailors on a boat,17,220,20","Ugly, too much is going on,-40,60,20","Meghan","reminds me of sailors on a boat,17,220,20","Alexandra","Ugly, too much is going on,-40,60,20","Brooke","Don't like the color scheme. Or the theme.,-5,60,20","2"
"14530","","survey-text","240","4321085","0.0-238.0-0.0","A1710X6OIQP62Q","","","","{""Q0"":""tiles that form a building""}","","","","","","","","","","","","","","","","","","","","","","",""
"2422","","image-slider-response","241","4323508","0.0-239.0","A1710X6OIQP62Q","","","","","4","","","","","","","","","","","","","","","","","","","","","",""
"null","","image-button-response","242","4328803","0.0-240.0","A1710X6OIQP62Q","img_art/8.jpg","null","","","","","","","","","","","","","","","","","","","","","","","","",""
"4493","","image-button-response","243","4333298","0.0-241.0","A1710X6OIQP62Q","img_art/8.jpg","1","","","","","","","","","","","","","","","","","","","","","","","","",""
"3249","","image-button-response","244","4336549","0.0-242.0-0.0","A1710X6OIQP62Q","img_art/8.jpg","4","","","","","","","","","","","","","","","","","","","","","","","","",""
"2004","","image-button-response","245","4338555","0.0-243.0-0.0","A1710X6OIQP62Q","img_art/8.jpg","5","","","","","","","","","","","","","","","","","","","","","","","","",""
"null","","html-keyboard-response","246","4339057","0.0-244.0","A1710X6OIQP62Q","<p style=""font-size: 48px;"">+</p>","","","","","null","allTrialResponses","500","1","28","img_art/8.jpg","4","tiles that form a building","Katelyn,Brooke,Lindsey,Alexa,Meghan,Alexandra","I like the definition and the strong lines. It makes me think of someone watching over the world,24,100,20","what's going on here. looks like scary town.,-25,60,20","Pleasant colors, lots of interest. Not sure what's going on but I like it.,20,400,20","It's simply gorgeous. This artist is very talented,50,40,20","the face is creepy,-49,220,20","The colors are nice but the big face in the sky is creepy,-11,60,20","Brooke","what's going on here. looks like scary town.,-25,60,20","Meghan","the face is creepy,-49,220,20","Alexandra","The colors are nice but the big face in the sky is creepy,-11,60,20","2"
"5357","","survey-text","247","4344422","0.0-245.0-0.0","A1710X6OIQP62Q","","","","{""Q0"":""a guitar""}","","","","","","","","","","","","","","","","","","","","","","",""
"2644.400000035763","","image-slider-response","248","4347068","0.0-246.0","A1710X6OIQP62Q","","","","","10","","","","","","","","","","","","","","","","","","","","","",""
"2547","","image-button-response","249","4352079","0.0-247.0","A1710X6OIQP62Q","img_art/10.jpg","2","","","","","","","","","","","","","","","","","","","","","","","","",""
"504","","image-button-response","250","4352587","0.0-248.0","A1710X6OIQP62Q","img_art/10.jpg","1","","","","","","","","","","","","","","","","","","","","","","","","",""
"398","","image-button-response","251","4352986","0.0-249.0-0.0","A1710X6OIQP62Q","img_art/10.jpg","2","","","","","","","","","","","","","","","","","","","","","","","","",""
"3367","","image-button-response","252","4356355","0.0-250.0-0.0","A1710X6OIQP62Q","img_art/10.jpg","5","","","","","","","","","","","","","","","","","","","","","","","","",""
"null","","html-keyboard-response","253","4356856","0.0-251.0","A1710X6OIQP62Q","<p style=""font-size: 48px;"">+</p>","","","","","null","allTrialResponses","500","1","29","img_art/10.jpg","10","a guitar","Rebecca,Brooke,Allison,Andrea,Meghan,Alexandra","gives a sense of a roller coaster unit splashed in water. it's not but i love it nevertheless,44,100,20","artistic cello piece?,30,60,20","I like the contrast,10,140,20","Kraken, and I love it.,39,240,20","kind of reminds me of a map,1,220,20","The longer I looked at this, the more I liked it,33,60,20","Brooke","artistic cello piece?,30,60,20","Allison","I like the contrast,10,140,20","Alexandra","The longer I looked at this, the more I liked it,33,60,20","2"
"23225","","survey-text","254","4380091","0.0-252.0-0.0","A1710X6OIQP62Q","","","","{""Q0"":""dark colors, a bicycle""}","","","","","","","","","","","","","","","","","","","","","","",""
"2834.199999988079","","image-slider-response","255","4382927","0.0-253.0","A1710X6OIQP62Q","","","","","-46","","","","","","","","","","","","","","","","","","","","","",""
"null","","image-button-response","256","4388295","0.0-254.0","A1710X6OIQP62Q","img_art/28.jpg","null","","","","","","","","","","","","","","","","","","","","","","","","",""
"17978","","image-button-response","257","4406275","0.0-255.0","A1710X6OIQP62Q","img_art/28.jpg","0","","","","","","","","","","","","","","","","","","","","","","","","",""
"1108","","image-button-response","258","4407385","0.0-256.0-0.0","A1710X6OIQP62Q","img_art/28.jpg","2","","","","","","","","","","","","","","","","","","","","","","","","",""
"1502","","image-button-response","259","4408889","0.0-257.0-0.0","A1710X6OIQP62Q","img_art/28.jpg","4","","","","","","","","","","","","","","","","","","","","","","","","",""
"null","","html-keyboard-response","260","4409391","0.0-258.0","A1710X6OIQP62Q","<p style=""font-size: 48px;"">+</p>","","","","","null","allTrialResponses","500","1","30","img_art/28.jpg","-46","dark colors, a bicycle","Erica,Brooke,Allison,Elizabeth,Victoria,Alexandra","Nothing calls my attention,15,80,20","dislike the colors. it looks like a bike, but misshapen wheels like it was wrecked.,-10,60,20","Dislike the colors.,-20,140,20","Not really exciting,23,20,20","drab and dreary,-21,400,20","Boring, looks like it belongs in a coffee shop,-20,60,20","Erica","Nothing calls my attention,15,80,20","Allison","Dislike the colors.,-20,140,20","Victoria","drab and dreary,-21,400,20","2"
"7461","","image-button-response_instructions","261","4416861","0.0-259.0","A1710X6OIQP62Q","","0","instructions","","","","","","","","","","","","","","","","","","","","","","","",""
"1185","","image-button-response","262","4418051","0.0-260.0","A1710X6OIQP62Q","","0","","","","","","","","","","","","","","","","","","","","","","","","",""
