"rt","url","trial_type","trial_index","time_elapsed","internal_node_id","participant_id","stimulus","button_pressed","Name","responses","response","key_press","variableName","fixationTime","condition","trial","photo","subjectRating","subjectResponse","agentsNames","agent_1_Response","agent_2_Response","agent_3_Response","agent_4_Response","agent_5_Response","agent_6_Response","kept_1_name","kept_1_response","kept_2_name","kept_2_response","kept_3_name","kept_3_response","errorCounter"
"40551","external_page_harvard.html","external-html","0","40603","0.0-0.0","A18366ZPVL8FNG","","","","","","","","","","","","","","","","","","","","","","","","","","",""
"1549","","image-button-response","1","42154","0.0-1.0","A18366ZPVL8FNG","","1","","","","","","","","","","","","","","","","","","","","","","","","",""
"2726","","image-button-response","2","44885","0.0-2.0-0.0","A18366ZPVL8FNG","","1","phone","","","","","","","","","","","","","","","","","","","","","","","",""
"3983","","survey-text","3","48870","0.0-3.0-0.0","A18366ZPVL8FNG","","","","{""Q0"":""A18366ZPVL8FNG""}","","","","","","","","","","","","","","","","","","","","","","",""
"20386","","image-button-response_instructions","4","69258","0.0-4.0","A18366ZPVL8FNG","","0","instructions","","","","","","","","","","","","","","","","","","","","","","","",""
"15263","","image-button-response_instructions","5","84522","0.0-5.0","A18366ZPVL8FNG","img_art/ins/popularity/ins1.png","0","instructions","","","","","","","","","","","","","","","","","","","","","","","",""
"5998","","image-button-response_instructions","6","90522","0.0-6.0","A18366ZPVL8FNG","img_art/ins/popularity/ins2.png","0","instructions","","","","","","","","","","","","","","","","","","","","","","","",""
"17815","","image-button-response_instructions","7","108338","0.0-7.0","A18366ZPVL8FNG","img_art/ins/popularity/ins2Extreme.png","0","instructions","","","","","","","","","","","","","","","","","","","","","","","",""
"28279","","image-button-response_instructions","8","136618","0.0-8.0","A18366ZPVL8FNG","img_art/ins/popularity/ins3KEEPpop.PNG","0","instructions","","","","","","","","","","","","","","","","","","","","","","","",""
"6878","","image-button-response_instructions","9","143498","0.0-9.0","A18366ZPVL8FNG","img_art/ins/popularity/ins3ANamepop.PNG","0","instructions","","","","","","","","","","","","","","","","","","","","","","","",""
"3559","","image-button-response_instructions","10","147059","0.0-10.0","A18366ZPVL8FNG","img_art/ins/popularity/ins3ARatingpop.png","0","instructions","","","","","","","","","","","","","","","","","","","","","","","",""
"3787","","image-button-response_instructions","11","150847","0.0-11.0","A18366ZPVL8FNG","img_art/ins/popularity/ins3ATextpop.png","0","instructions","","","","","","","","","","","","","","","","","","","","","","","",""
"7594","","image-button-response_instructions","12","158442","0.0-12.0","A18366ZPVL8FNG","img_art/ins/popularity/ins3ALikespop.png","0","instructions","","","","","","","","","","","","","","","","","","","","","","","",""
"13812","","image-button-response_instructions","13","172254","0.0-13.0","A18366ZPVL8FNG","img_art/ins/popularity/ins3KEEPpop.PNG","0","instructions","","","","","","","","","","","","","","","","","","","","","","","",""
"11039","","image-button-response_instructions","14","183294","0.0-14.0","A18366ZPVL8FNG","img_art/ins/popularity/ins3_5RED.png","0","instructions","","","","","","","","","","","","","","","","","","","","","","","",""
"4726","","image-button-response_instructions","15","188022","0.0-15.0","A18366ZPVL8FNG","img_art/ins/popularity/ins3KEEPpop.PNG","0","instructions","","","","","","","","","","","","","","","","","","","","","","","",""
"10032","","image-button-response_instructions","16","198054","0.0-16.0","A18366ZPVL8FNG","img_art/ins/popularity/ins4KEEPpop.PNG","0","instructions","","","","","","","","","","","","","","","","","","","","","","","",""
"6447","","image-button-response_instructions","17","204502","0.0-17.0","A18366ZPVL8FNG","img_art/ins/popularity/ins5KEEPpop.PNG","0","instructions","","","","","","","","","","","","","","","","","","","","","","","",""
"1954","","image-button-response_instructions","18","206458","0.0-18.0","A18366ZPVL8FNG","","0","instructions","","","","","","","","","","","","","","","","","","","","","","","",""
"10455","","survey-text","19","216935","0.0-19.0-0.0","A18366ZPVL8FNG","","","","{""Q0"":""but""}","","","","","","","","","","","","","","","","","","","","","","",""
"18993","","survey-text","20","235930","0.0-20.0-0.0","A18366ZPVL8FNG","","","","{""Q0"":""whimsical and colorful""}","","","","","","","","","","","","","","","","","","","","","","",""
"5541.299999952316","","image-slider-response","21","241475","0.0-21.0","A18366ZPVL8FNG","","","","","39","","","","","","","","","","","","","","","","","","","","","",""
"null","","image-button-response","22","246483","0.0-22.0","A18366ZPVL8FNG","img_art/ins/1.jpg","null","","","","","","","","","","","","","","","","","","","","","","","","",""
"2722","","image-button-response","23","249207","0.0-23.0","A18366ZPVL8FNG","img_art/ins/1.jpg","5","","","","","","","","","","","","","","","","","","","","","","","","",""
"10693","","image-button-response","24","259903","0.0-24.0-0.0","A18366ZPVL8FNG","img_art/ins/1.jpg","4","","","","","","","","","","","","","","","","","","","","","","","","",""
"8149","","image-button-response","25","268054","0.0-25.0-0.0","A18366ZPVL8FNG","img_art/ins/1.jpg","0","","","","","","","","","","","","","","","","","","","","","","","","",""
"null","","html-keyboard-response","26","269572","0.0-26.0","A18366ZPVL8FNG","<p style=""font-size: 48px;"">+</p>","","","","","null","allTrialResponses","1500","1","-2","img_art/ins/1.jpg","39","whimsical and colorful","Allison,Ashley,Beth,Dora,Erika,Jen","looks like a lot of things going on in the mist,20,20,20","I just don't get why these type of art would be popular,-32,40,20","This color reminds me of poo,-46,60,20","looks like what my niece in 3rd grade did this afternoon,-50,80,20","I like the sophisticated brushwork,40,100,20","It reminds me of a candy land dream I had,36,120,20","Jen","It reminds me of a candy land dream I had,36,120,20","Erika","I like the sophisticated brushwork,40,100,20","Allison","looks like a lot of things going on in the mist,20,20,20","0"
"59152","","survey-text","27","328730","0.0-27.0-0.0","A18366ZPVL8FNG","","","","{""Q0"":""Not the best choice of colors and brush-strokes look haphazard""}","","","","","","","","","","","","","","","","","","","","","","",""
"4681.799999952316","","image-slider-response","28","333414","0.0-28.0","A18366ZPVL8FNG","","","","","-33","","","","","","","","","","","","","","","","","","","","","",""
"4533","","image-button-response","29","338417","0.0-29.0","A18366ZPVL8FNG","img_art/ins/2.jpg","0","","","","","","","","","","","","","","","","","","","","","","","","",""
"10915","","image-button-response","30","349335","0.0-30.0","A18366ZPVL8FNG","img_art/ins/2.jpg","4","","","","","","","","","","","","","","","","","","","","","","","","",""
"11605","","image-button-response","31","360942","0.0-31.0-0.0","A18366ZPVL8FNG","img_art/ins/2.jpg","3","","","","","","","","","","","","","","","","","","","","","","","","",""
"2083","","image-button-response","32","363027","0.0-32.0-0.0","A18366ZPVL8FNG","img_art/ins/2.jpg","5","","","","","","","","","","","","","","","","","","","","","","","","",""
"null","","html-keyboard-response","33","364037","0.0-33.0","A18366ZPVL8FNG","<p style=""font-size: 48px;"">+</p>","","","","","null","allTrialResponses","1000","1","-1","img_art/ins/2.jpg","-33","Not the best choice of colors and brush-strokes look haphazard","Allison,Kara,Katie,Jenna,Erika,Jen","I don't have strong feelings about this,10,20,20","I like the blocks of color arrangements,30,160,20","too much color!,-28,180,20","One of my pet peevs,-48,140,20","I would never be able to compose a sophisticated pallete like this,48,100,20","It reminds me of a fireplace,36,120,20","Erika","I would never be able to compose a sophisticated pallete like this,48,100,20","Jenna","One of my pet peevs,-48,140,20","Jen","It reminds me of a fireplace,36,120,20","0"
"23811","","survey-text","34","387854","0.0-34.0-0.0","A18366ZPVL8FNG","","","","{""Q0"":""love the different shades of blue ""}","","","","","","","","","","","","","","","","","","","","","","",""
"5733.399999976158","","image-slider-response","35","393590","0.0-35.0","A18366ZPVL8FNG","","","","","48","","","","","","","","","","","","","","","","","","","","","",""
"null","","image-button-response","36","398592","0.0-36.0","A18366ZPVL8FNG","img_art/ins/3.jpg","null","","","","","","","","","","","","","","","","","","","","","","","","",""
"4700","","image-button-response","37","403294","0.0-37.0","A18366ZPVL8FNG","img_art/ins/3.jpg","0","","","","","","","","","","","","","","","","","","","","","","","","",""
"2827","","image-button-response","38","406123","0.0-38.0-0.0","A18366ZPVL8FNG","img_art/ins/3.jpg","0","","","","","","","","","","","","","","","","","","","","","","","","",""
"2395","","image-button-response","39","412900","0.0-38.1-0.1","A18366ZPVL8FNG","img_art/ins/3.jpg","4","","","","","","","","","","","","","","","","","","","","","","","","",""
"8556","","image-button-response","40","421458","0.0-39.0-0.0","A18366ZPVL8FNG","img_art/ins/3.jpg","2","","","","","","","","","","","","","","","","","","","","","","","","",""
"null","","html-keyboard-response","41","422969","0.0-40.0","A18366ZPVL8FNG","<p style=""font-size: 48px;"">+</p>","","","","","null","allTrialResponses","1500","1","0","img_art/ins/3.jpg","48","love the different shades of blue ","Mary,Rose,Leslie,Jenna,Erika,Jen","I like the overlapping of brushes,41,220,20","My daily routine, it's depressing,-20,240,20","It's an alright work,15,200,20","looks like a murder room,-35,140,20","I feel connected to the artist,40,100,20","I can feel a rainy day from this painting,18,120,20","Mary","I like the overlapping of brushes,41,220,20","Erika","I feel connected to the artist,40,100,20","Leslie","It's an alright work,15,200,20","2"
"4956","","image-button-response_instructions","42","427930","0.0-41.0","A18366ZPVL8FNG","","0","instructions","","","","","","","","","","","","","","","","","","","","","","","",""
"12132","","survey-likert","43","440063","0.0-42.0-0.0","A18366ZPVL8FNG","","","","{""Q0"":"""",""Q1"":0,""Q2"":1}","","","","","","","","","","","","","","","","","","","","","","",""
"5330","","survey-text","44","445399","0.0-43.0-0.0","A18366ZPVL8FNG","","","","{""Q0"":""rock""}","","","","","","","","","","","","","","","","","","","","","","",""
"19647","","survey-text","45","465047","0.0-44.0-0.0","A18366ZPVL8FNG","","","","{""Q0"":""looks like a child painted this""}","","","","","","","","","","","","","","","","","","","","","","",""
"2968.899999976158","","image-slider-response","46","468019","0.0-45.0","A18366ZPVL8FNG","","","","","-27","","","","","","","","","","","","","","","","","","","","","",""
"null","","image-button-response","47","473047","0.0-46.0","A18366ZPVL8FNG","img_art/27.jpg","null","","","","","","","","","","","","","","","","","","","","","","","","",""
"1870","","image-button-response","48","474920","0.0-47.0","A18366ZPVL8FNG","img_art/27.jpg","3","","","","","","","","","","","","","","","","","","","","","","","","",""
"1873","","image-button-response","49","476795","0.0-48.0-0.0","A18366ZPVL8FNG","img_art/27.jpg","4","","","","","","","","","","","","","","","","","","","","","","","","",""
"2037","","image-button-response","50","478834","0.0-49.0-0.0","A18366ZPVL8FNG","img_art/27.jpg","5","","","","","","","","","","","","","","","","","","","","","","","","",""
"null","","html-keyboard-response","51","480347","0.0-50.0","A18366ZPVL8FNG","<p style=""font-size: 48px;"">+</p>","","","","","null","allTrialResponses","1500","1","1","img_art/27.jpg","-27","looks like a child painted this","Brianna,Gabriela,Ashley,Sara,Chelsea,Abigail","This painting is very unique,21,20,20","I like hoe it looks like a fall day in a city,45,140,20","Lots of activity, layers, imagination at work here.,29,320,20","Not cohesive design,-31,160,20","The green lines look like a child drew over a painting.,-36,180,20","Looks like a little kids drawing,20,20,20","Sara","Not cohesive design,-31,160,20","Chelsea","The green lines look like a child drew over a painting.,-36,180,20","Abigail","Looks like a little kids drawing,20,20,20","2"
"69345","","survey-text","52","549698","0.0-51.0-0.0","A18366ZPVL8FNG","","","","{""Q0"":""Not liking the color scheme in this""}","","","","","","","","","","","","","","","","","","","","","","",""
"4810.5","","image-slider-response","53","554510","0.0-52.0","A18366ZPVL8FNG","","","","","-31","","","","","","","","","","","","","","","","","","","","","",""
"3654","","image-button-response","54","559513","0.0-53.0","A18366ZPVL8FNG","img_art/2.jpg","0","","","","","","","","","","","","","","","","","","","","","","","","",""
"4786","","image-button-response","55","564302","0.0-54.0","A18366ZPVL8FNG","img_art/2.jpg","3","","","","","","","","","","","","","","","","","","","","","","","","",""
"6818","","image-button-response","56","571123","0.0-55.0-0.0","A18366ZPVL8FNG","img_art/2.jpg","5","","","","","","","","","","","","","","","","","","","","","","","","",""
"1606","","image-button-response","57","572730","0.0-56.0-0.0","A18366ZPVL8FNG","img_art/2.jpg","4","","","","","","","","","","","","","","","","","","","","","","","","",""
"null","","html-keyboard-response","58","573232","0.0-57.0","A18366ZPVL8FNG","<p style=""font-size: 48px;"">+</p>","","","","","null","allTrialResponses","500","1","2","img_art/2.jpg","-31","Not liking the color scheme in this","Maria,Andrea,Julia,Sara,Chelsea,Abigail","again, I struggle to see the art and I dislike the green in particular.,-31,120,20","It feels like a party and Moulin Rouge.,20,240,20","I like how it looks like a cute smiling face,43,40,20","Dark tone feels sad,-30,160,20","Not sure what is happening. I'm not a big fan of the colors but they don't bother me either.,1,180,20","Reminds me of my baby brother,11,20,20","Sara","Dark tone feels sad,-30,160,20","Abigail","Reminds me of my baby brother,11,20,20","Chelsea","Not sure what is happening. I'm not a big fan of the colors but they don't bother me either.,1,180,20","2"
"26470","","survey-text","59","599706","0.0-58.0-0.0","A18366ZPVL8FNG","","","","{""Q0"":""i like the colors""}","","","","","","","","","","","","","","","","","","","","","","",""
"3778","","image-slider-response","60","603487","0.0-59.0","A18366ZPVL8FNG","","","","","13","","","","","","","","","","","","","","","","","","","","","",""
"4469","","image-button-response","61","608490","0.0-60.0","A18366ZPVL8FNG","img_art/5.jpg","4","","","","","","","","","","","","","","","","","","","","","","","","",""
"1536","","image-button-response","62","610027","0.0-61.0","A18366ZPVL8FNG","img_art/5.jpg","5","","","","","","","","","","","","","","","","","","","","","","","","",""
"1678","","image-button-response","63","611706","0.0-62.0-0.0","A18366ZPVL8FNG","img_art/5.jpg","3","","","","","","","","","","","","","","","","","","","","","","","","",""
"4438","","image-button-response","64","616147","0.0-63.0-0.0","A18366ZPVL8FNG","img_art/5.jpg","0","","","","","","","","","","","","","","","","","","","","","","","","",""
"null","","html-keyboard-response","65","617156","0.0-64.0","A18366ZPVL8FNG","<p style=""font-size: 48px;"">+</p>","","","","","null","allTrialResponses","1000","1","3","img_art/5.jpg","13","i like the colors","Catherine,Elizabeth,Destiny,Sara,Chelsea,Abigail","Building remnants in the sand.,1,160,20","Perfect for art exhibition,39,20,20","Just doesn't do a whole lot for me. I see Cinderellas broom,-11,360,20","It looks random,-10,160,20","I'm not sure what is going on here.,-46,180,20","Reminds me of a broken umbrella,-9,20,20","Abigail","Reminds me of a broken umbrella,-9,20,20","Sara","It looks random,-10,160,20","Catherine","Building remnants in the sand.,1,160,20","2"
"20961","","survey-text","66","638122","0.0-65.0-0.0","A18366ZPVL8FNG","","","","{""Q0"":""many dimensions and beautiful brush strokes""}","","","","","","","","","","","","","","","","","","","","","","",""
"3682.5","","image-slider-response","67","641806","0.0-66.0","A18366ZPVL8FNG","","","","","47","","","","","","","","","","","","","","","","","","","","","",""
"null","","image-button-response","68","646818","0.0-67.0","A18366ZPVL8FNG","img_art/19.jpg","null","","","","","","","","","","","","","","","","","","","","","","","","",""
"1477","","image-button-response","69","648298","0.0-68.0","A18366ZPVL8FNG","img_art/19.jpg","0","","","","","","","","","","","","","","","","","","","","","","","","",""
"4290","","image-button-response","70","652590","0.0-69.0-0.0","A18366ZPVL8FNG","img_art/19.jpg","3","","","","","","","","","","","","","","","","","","","","","","","","",""
"4981","","image-button-response","71","657574","0.0-70.0-0.0","A18366ZPVL8FNG","img_art/19.jpg","1","","","","","","","","","","","","","","","","","","","","","","","","",""
"null","","html-keyboard-response","72","659089","0.0-71.0","A18366ZPVL8FNG","<p style=""font-size: 48px;"">+</p>","","","","","null","allTrialResponses","1500","1","4","img_art/19.jpg","47","many dimensions and beautiful brush strokes","Catherine,Hannah,Victoria,Sara,Vanessa,Abigail","Higher power looking down at its creation with a half smile and some hurt.,45,160,20","Just don't like this one.,-9,240,20","to much going on,-22,400,20","I like the vibrant color blocks,13,160,20","Again, this is too abstract.,-10,380,20","I dont like the gray shadows, ruins it,-7,20,20","Catherine","Higher power looking down at its creation with a half smile and some hurt.,45,160,20","Sara","I like the vibrant color blocks,13,160,20","Hannah","Just don't like this one.,-9,240,20","2"
"12321","","survey-text","73","671414","0.0-72.0-0.0","A18366ZPVL8FNG","","","","{""Q0"":""dark and depressing""}","","","","","","","","","","","","","","","","","","","","","","",""
"2601.7000000476837","","image-slider-response","74","674018","0.0-73.0","A18366ZPVL8FNG","","","","","-41","","","","","","","","","","","","","","","","","","","","","",""
"2402","","image-button-response","75","679033","0.0-74.0","A18366ZPVL8FNG","img_art/11.jpg","2","","","","","","","","","","","","","","","","","","","","","","","","",""
"1623","","image-button-response","76","680659","0.0-75.0","A18366ZPVL8FNG","img_art/11.jpg","3","","","","","","","","","","","","","","","","","","","","","","","","",""
"4534","","image-button-response","77","685195","0.0-76.0-0.0","A18366ZPVL8FNG","img_art/11.jpg","5","","","","","","","","","","","","","","","","","","","","","","","","",""
"1810","","image-button-response","78","687007","0.0-77.0-0.0","A18366ZPVL8FNG","img_art/11.jpg","4","","","","","","","","","","","","","","","","","","","","","","","","",""
"null","","html-keyboard-response","79","688509","0.0-78.0","A18366ZPVL8FNG","<p style=""font-size: 48px;"">+</p>","","","","","null","allTrialResponses","1500","1","5","img_art/11.jpg","-41","dark and depressing","Catherine,Hannah,Katie,Sara,Angela,Kathryn","Busy city life. transportation, anxiety.,10,160,20","Is interesting. Wouldn't bother me to have this hanging where I'd see it every day.,11,240,20","Dark and dreary. Makes me think of rain/water. I see grey clouds and high waves. Looks unsettling.,-20,160,20","Looks sad but clean,31,160,20","I like this one very much, especially the shades of gray.,30,260,20","This is disorienting, like motion sickness.,-20,140,20","Sara","Looks sad but clean,31,160,20","Kathryn","This is disorienting, like motion sickness.,-20,140,20","Angela","I like this one very much, especially the shades of gray.,30,260,20","2"
"4193","","survey-text","80","692711","0.0-79.0-0.0","A18366ZPVL8FNG","","","","{""Q0"":""sky""}","","","","","","","","","","","","","","","","","","","","","","",""
"23874","","survey-text","81","716587","0.0-80.0-0.0","A18366ZPVL8FNG","","","","{""Q0"":""like the colors and that's about it.""}","","","","","","","","","","","","","","","","","","","","","","",""
"6157.5","","image-slider-response","82","722746","0.0-81.0","A18366ZPVL8FNG","","","","","-3","","","","","","","","","","","","","","","","","","","","","",""
"2143","","image-button-response","83","727760","0.0-82.0","A18366ZPVL8FNG","img_art/4.jpg","0","","","","","","","","","","","","","","","","","","","","","","","","",""
"1825","","image-button-response","84","729587","0.0-83.0","A18366ZPVL8FNG","img_art/4.jpg","2","","","","","","","","","","","","","","","","","","","","","","","","",""
"3762","","image-button-response","85","733351","0.0-84.0-0.0","A18366ZPVL8FNG","img_art/4.jpg","5","","","","","","","","","","","","","","","","","","","","","","","","",""
"2857","","image-button-response","86","736211","0.0-85.0-0.0","A18366ZPVL8FNG","img_art/4.jpg","3","","","","","","","","","","","","","","","","","","","","","","","","",""
"null","","html-keyboard-response","87","737717","0.0-86.0","A18366ZPVL8FNG","<p style=""font-size: 48px;"">+</p>","","","","","null","allTrialResponses","1500","1","6","img_art/4.jpg","-3","like the colors and that's about it.","Haley,Lauren,Bailey,Sara,Angela,Kathryn","This image doesn't invoke anything in me,-9,220,20","I like the design. It can be interpreted in various ways, such as a hand of horror or still piece.,15,340,20","Boring and tasteless. Almost reminds me of when an art gallery called a banana 'art',-42,360,20","Random swirls again,-30,160,20","Really like the colors, but don't like the object/squiggle in darker gold and black,4,260,20","I feel kind of guilty looking at this, like I'm receiving a reward I don't I deserve.,-10,140,20","Bailey","Boring and tasteless. Almost reminds me of when an art gallery called a banana 'art',-42,360,20","Kathryn","I feel kind of guilty looking at this, like I'm receiving a reward I don't I deserve.,-10,140,20","Sara","Random swirls again,-30,160,20","2"
"35881","","survey-text","88","773602","0.0-87.0-0.0","A18366ZPVL8FNG","","","","{""Q0"":""beautiful colors.  It reminds me of a tree growing inside of a building.""}","","","","","","","","","","","","","","","","","","","","","","",""
"5158.299999952316","","image-slider-response","89","778763","0.0-88.0","A18366ZPVL8FNG","","","","","50","","","","","","","","","","","","","","","","","","","","","",""
"2311","","image-button-response","90","783767","0.0-89.0","A18366ZPVL8FNG","img_art/17.jpg","0","","","","","","","","","","","","","","","","","","","","","","","","",""
"2104","","image-button-response","91","785873","0.0-90.0","A18366ZPVL8FNG","img_art/17.jpg","3","","","","","","","","","","","","","","","","","","","","","","","","",""
"1724","","image-button-response","92","787599","0.0-91.0-0.0","A18366ZPVL8FNG","img_art/17.jpg","4","","","","","","","","","","","","","","","","","","","","","","","","",""
"4614","","image-button-response","93","792215","0.0-92.0-0.0","A18366ZPVL8FNG","img_art/17.jpg","5","","","","","","","","","","","","","","","","","","","","","","","","",""
"null","","html-keyboard-response","94","792725","0.0-93.0","A18366ZPVL8FNG","<p style=""font-size: 48px;"">+</p>","","","","","null","allTrialResponses","500","1","7","img_art/17.jpg","50","beautiful colors.  It reminds me of a tree growing inside of a building.","Kaylee,Rebecca,Bailey,Sara,Gabrielle,Kathryn","colorful tree really cool,27,200,20","tree sprouting out of a box (house) the invasion of nature?,39,100,20","I like the artistic sketching pattern.,24,360,20","Beautiful patterns but evokes sad emotions in me due to the color shades,31,160,20","nice composition and colors, fairy land,28,160,20","Reminds me of the modern art museum in Rome. I didn't ""get"" many pieces, but had a positive cultural experience overall.,20,140,20","Sara","Beautiful patterns but evokes sad emotions in me due to the color shades,31,160,20","Gabrielle","nice composition and colors, fairy land,28,160,20","Kathryn","Reminds me of the modern art museum in Rome. I didn't ""get"" many pieces, but had a positive cultural experience overall.,20,140,20","2"
"23438","","survey-text","95","816169","0.0-94.0-0.0","A18366ZPVL8FNG","","","","{""Q0"":""nice colors.  reminds me of someone's living room.""}","","","","","","","","","","","","","","","","","","","","","","",""
"2095.100000023842","","image-slider-response","96","818266","0.0-95.0","A18366ZPVL8FNG","","","","","19","","","","","","","","","","","","","","","","","","","","","",""
"null","","image-button-response","97","823268","0.0-96.0","A18366ZPVL8FNG","img_art/26.jpg","null","","","","","","","","","","","","","","","","","","","","","","","","",""
"1673","","image-button-response","98","824943","0.0-97.0","A18366ZPVL8FNG","img_art/26.jpg","0","","","","","","","","","","","","","","","","","","","","","","","","",""
"4686","","image-button-response","99","829630","0.0-98.0-0.0","A18366ZPVL8FNG","img_art/26.jpg","3","","","","","","","","","","","","","","","","","","","","","","","","",""
"1574","","image-button-response","100","831206","0.0-99.0-0.0","A18366ZPVL8FNG","img_art/26.jpg","4","","","","","","","","","","","","","","","","","","","","","","","","",""
"null","","html-keyboard-response","101","831709","0.0-100.0","A18366ZPVL8FNG","<p style=""font-size: 48px;"">+</p>","","","","","null","allTrialResponses","500","1","8","img_art/26.jpg","19","nice colors.  reminds me of someone's living room.","Tiffany,Cassidy,Kelly,Sara,Gabrielle,Kathryn","It is very relaxing to look at, almost a relief.,21,360,20","the trees are cool,1,140,20","Very subdued, but wouldn't give it a 2nd notice.,4,220,20","I can somewhat city a city in this drawing,11,160,20","subtle use of colors, city street view?,8,160,20","This piece feels pretty chill like it's just a normal day in the city.,10,140,20","Tiffany","It is very relaxing to look at, almost a relief.,21,360,20","Sara","I can somewhat city a city in this drawing,11,160,20","Gabrielle","subtle use of colors, city street view?,8,160,20","2"
"33208","","survey-text","102","864921","0.0-101.0-0.0","A18366ZPVL8FNG","","","","{""Q0"":""haphazard and depressing""}","","","","","","","","","","","","","","","","","","","","","","",""
"3239.100000023842","","image-slider-response","103","868163","0.0-102.0","A18366ZPVL8FNG","","","","","-46","","","","","","","","","","","","","","","","","","","","","",""
"4194","","image-button-response","104","873166","0.0-103.0","A18366ZPVL8FNG","img_art/29.jpg","0","","","","","","","","","","","","","","","","","","","","","","","","",""
"1306","","image-button-response","105","874475","0.0-104.0","A18366ZPVL8FNG","img_art/29.jpg","3","","","","","","","","","","","","","","","","","","","","","","","","",""
"2110","","image-button-response","106","876587","0.0-105.0-0.0","A18366ZPVL8FNG","img_art/29.jpg","5","","","","","","","","","","","","","","","","","","","","","","","","",""
"12950","","image-button-response","107","889539","0.0-106.0-0.0","A18366ZPVL8FNG","img_art/29.jpg","0","","","","","","","","","","","","","","","","","","","","","","","","",""
"null","","html-keyboard-response","108","890041","0.0-107.0","A18366ZPVL8FNG","<p style=""font-size: 48px;"">+</p>","","","","","null","allTrialResponses","500","1","9","img_art/29.jpg","-46","haphazard and depressing","Tiffany,Marissa,Samantha,Sara,Gabrielle,Mikayla","I feel a little disgust. There is something off-putting about the smooth shapes and dark colors.,-43,360,20","It makes me feel as though the artist put in a lot of time and effort and then gave up,10,160,20","I love this things almost hidden in it like paint brush and other details,50,140,20","I don't like the black,-50,160,20","it's OK, no clue to what's going on but good use of light and dark,4,160,20","Its kinda scary,-35,300,20","Sara","I don't like the black,-50,160,20","Mikayla","Its kinda scary,-35,300,20","Tiffany","I feel a little disgust. There is something off-putting about the smooth shapes and dark colors.,-43,360,20","2"
"27817","","survey-text","109","917863","0.0-108.0-0.0","A18366ZPVL8FNG","","","","{""Q0"":""loving the colors in this one. looks like a woman sleeping.""}","","","","","","","","","","","","","","","","","","","","","","",""
"3130","","image-slider-response","110","920995","0.0-109.0","A18366ZPVL8FNG","","","","","36","","","","","","","","","","","","","","","","","","","","","",""
"null","","image-button-response","111","925997","0.0-110.0","A18366ZPVL8FNG","img_art/9.jpg","null","","","","","","","","","","","","","","","","","","","","","","","","",""
"1308","","image-button-response","112","927307","0.0-111.0","A18366ZPVL8FNG","img_art/9.jpg","0","","","","","","","","","","","","","","","","","","","","","","","","",""
"2018","","image-button-response","113","929327","0.0-112.0-0.0","A18366ZPVL8FNG","img_art/9.jpg","2","","","","","","","","","","","","","","","","","","","","","","","","",""
"3753","","image-button-response","114","933082","0.0-113.0-0.0","A18366ZPVL8FNG","img_art/9.jpg","4","","","","","","","","","","","","","","","","","","","","","","","","",""
"null","","html-keyboard-response","115","934094","0.0-114.0","A18366ZPVL8FNG","<p style=""font-size: 48px;"">+</p>","","","","","null","allTrialResponses","1000","1","10","img_art/9.jpg","36","loving the colors in this one. looks like a woman sleeping.","Tiffany,Emily,Nicole,Sara,Crystal,Mikayla","The piece of art makes me happy, it reminds me of a lively carnival.,15,360,20","Looks like a young child drew it.,-45,40,20","It's peaceful and relaxing,24,20,20","Spiral patterns are not my thing,-30,160,20","Evokes triumph of a mountain over powering a drowning sea,24,300,20","Looks like a crayon drawing.,21,300,20","Tiffany","The piece of art makes me happy, it reminds me of a lively carnival.,15,360,20","Nicole","It's peaceful and relaxing,24,20,20","Crystal","Evokes triumph of a mountain over powering a drowning sea,24,300,20","2"
"5007","","survey-text","116","939111","0.0-115.0-0.0","A18366ZPVL8FNG","","","","{""Q0"":""our""}","","","","","","","","","","","","","","","","","","","","","","",""
"41473","","survey-text","117","980586","0.0-116.0-0.0","A18366ZPVL8FNG","","","","{""Q0"":""gorgeous colors.  it looks like a waterfall over some rocks.""}","","","","","","","","","","","","","","","","","","","","","","",""
"3686.600000023842","","image-slider-response","118","984274","0.0-117.0","A18366ZPVL8FNG","","","","","39","","","","","","","","","","","","","","","","","","","","","",""
"2753","","image-button-response","119","989283","0.0-118.0","A18366ZPVL8FNG","img_art/24.jpg","5","","","","","","","","","","","","","","","","","","","","","","","","",""
"1518","","image-button-response","120","990803","0.0-119.0","A18366ZPVL8FNG","img_art/24.jpg","3","","","","","","","","","","","","","","","","","","","","","","","","",""
"1793","","image-button-response","121","992598","0.0-120.0-0.0","A18366ZPVL8FNG","img_art/24.jpg","5","","","","","","","","","","","","","","","","","","","","","","","","",""
"4594","","image-button-response","122","997195","0.0-121.0-0.0","A18366ZPVL8FNG","img_art/24.jpg","0","","","","","","","","","","","","","","","","","","","","","","","","",""
"null","","html-keyboard-response","123","997698","0.0-122.0","A18366ZPVL8FNG","<p style=""font-size: 48px;"">+</p>","","","","","null","allTrialResponses","500","1","11","img_art/24.jpg","39","gorgeous colors.  it looks like a waterfall over some rocks.","Tiffany,Sophia,Nicole,Caroline,Crystal,Jessica","I feel relaxed and happy, looking at the stream, but it feels hollow, like something is fake.,5,360,20","Hmm. Don't know what to make of this one.,1,280,20","The colors and brush strokes make it feel adventurous,20,20,20","Waterfalls and spring and gives me a sense of renewal,34,100,20","I don't like this painting because of its blottedness. It lacks conviction, direction and purpose.,-31,300,20","Vibrant, beautiful depiction.,50,400,20","Caroline","Waterfalls and spring and gives me a sense of renewal,34,100,20","Jessica","Vibrant, beautiful depiction.,50,400,20","Tiffany","I feel relaxed and happy, looking at the stream, but it feels hollow, like something is fake.,5,360,20","2"
"35583","","survey-text","124","1033287","0.0-123.0-0.0","A18366ZPVL8FNG","","","","{""Q0"":""nice use of black and grey.  looks like a guitar or violin.""}","","","","","","","","","","","","","","","","","","","","","","",""
"2157.3000000715256","","image-slider-response","125","1035446","0.0-124.0","A18366ZPVL8FNG","","","","","36","","","","","","","","","","","","","","","","","","","","","",""
"3421","","image-button-response","126","1040448","0.0-125.0","A18366ZPVL8FNG","img_art/10.jpg","5","","","","","","","","","","","","","","","","","","","","","","","","",""
"1376","","image-button-response","127","1041826","0.0-126.0","A18366ZPVL8FNG","img_art/10.jpg","5","","","","","","","","","","","","","","","","","","","","","","","","",""
"2675","","image-button-response","128","1044502","0.0-127.0-0.0","A18366ZPVL8FNG","img_art/10.jpg","4","","","","","","","","","","","","","","","","","","","","","","","","",""
"2457","","image-button-response","129","1046962","0.0-128.0-0.0","A18366ZPVL8FNG","img_art/10.jpg","3","","","","","","","","","","","","","","","","","","","","","","","","",""
"null","","html-keyboard-response","130","1048477","0.0-129.0","A18366ZPVL8FNG","<p style=""font-size: 48px;"">+</p>","","","","","null","allTrialResponses","1500","1","12","img_art/10.jpg","36","nice use of black and grey.  looks like a guitar or violin.","Tiffany,Kylie,Sarah,Caroline,Breanna,Jessica","I feel little to no emotion looking at this painting.,0,360,20","Musical guitar whimsy,45,300,20","i like this, the mix of brush textures is cool,24,180,20","This painting made me think of a guitar which made me think of music which envoked happy feelings.,28,100,20","Makes me feel amazed,23,380,20","I feel like this has a cool concept behind it.,11,400,20","Jessica","I feel like this has a cool concept behind it.,11,400,20","Breanna","Makes me feel amazed,23,380,20","Caroline","This painting made me think of a guitar which made me think of music which envoked happy feelings.,28,100,20","2"
"43173","","survey-text","131","1091655","0.0-130.0-0.0","A18366ZPVL8FNG","","","","{""Q0"":""looks like a child painted this. i do not like this one.""}","","","","","","","","","","","","","","","","","","","","","","",""
"2417.2000000476837","","image-slider-response","132","1094075","0.0-131.0","A18366ZPVL8FNG","","","","","-46","","","","","","","","","","","","","","","","","","","","","",""
"null","","image-button-response","133","1099078","0.0-132.0","A18366ZPVL8FNG","img_art/1.jpg","null","","","","","","","","","","","","","","","","","","","","","","","","",""
"1211","","image-button-response","134","1100291","0.0-133.0","A18366ZPVL8FNG","img_art/1.jpg","3","","","","","","","","","","","","","","","","","","","","","","","","",""
"1862","","image-button-response","135","1102155","0.0-134.0-0.0","A18366ZPVL8FNG","img_art/1.jpg","4","","","","","","","","","","","","","","","","","","","","","","","","",""
"2681","","image-button-response","136","1104839","0.0-135.0-0.0","A18366ZPVL8FNG","img_art/1.jpg","5","","","","","","","","","","","","","","","","","","","","","","","","",""
"null","","html-keyboard-response","137","1105849","0.0-136.0","A18366ZPVL8FNG","<p style=""font-size: 48px;"">+</p>","","","","","null","allTrialResponses","1000","1","13","img_art/1.jpg","-46","looks like a child painted this. i do not like this one.","Emma,Jennifer,Jenna,Caroline,Breanna,Jessica","Pretty, nice use of color,40,60,20","Bright and colorful without being overpowering,32,380,20","beautiful colors and brush strokes,47,360,20","Felt nothing in response to this painting,3,100,20","Makes me feel confused,-6,380,20","Looks like the same thing as the last piece shown to me,10,400,20","Caroline","Felt nothing in response to this painting,3,100,20","Breanna","Makes me feel confused,-6,380,20","Jessica","Looks like the same thing as the last piece shown to me,10,400,20","2"
"29264","","survey-text","138","1135119","0.0-137.0-0.0","A18366ZPVL8FNG","","","","{""Q0"":""mysterious and intense.  I like the colors in this one.""}","","","","","","","","","","","","","","","","","","","","","","",""
"2305.2000000476837","","image-slider-response","139","1137426","0.0-138.0","A18366ZPVL8FNG","","","","","36","","","","","","","","","","","","","","","","","","","","","",""
"null","","image-button-response","140","1142443","0.0-139.0","A18366ZPVL8FNG","img_art/20.jpg","null","","","","","","","","","","","","","","","","","","","","","","","","",""
"2362","","image-button-response","141","1144807","0.0-140.0","A18366ZPVL8FNG","img_art/20.jpg","0","","","","","","","","","","","","","","","","","","","","","","","","",""
"4853","","image-button-response","142","1149662","0.0-141.0-0.0","A18366ZPVL8FNG","img_art/20.jpg","2","","","","","","","","","","","","","","","","","","","","","","","","",""
"2707","","image-button-response","143","1152371","0.0-142.0-0.0","A18366ZPVL8FNG","img_art/20.jpg","0","","","","","","","","","","","","","","","","","","","","","","","","",""
"1858","","image-button-response","144","1159491","0.0-142.1-0.1","A18366ZPVL8FNG","img_art/20.jpg","3","","","","","","","","","","","","","","","","","","","","","","","","",""
"null","","html-keyboard-response","145","1160006","0.0-143.0","A18366ZPVL8FNG","<p style=""font-size: 48px;"">+</p>","","","","","null","allTrialResponses","500","1","14","img_art/20.jpg","36","mysterious and intense.  I like the colors in this one.","Cassandra,Erin,Stephanie,Caroline,Breanna,Jessica","I liked this...I liked the blue and the black and I liked the smoothness to it.,31,120,20","Dark frame overpowers the image,-6,120,20","Looks like an old gold mining down now deserted.,11,300,20","Makes me feel weary,21,100,20","Makes me feel impressed,9,380,20","It looks painted really nicely.,5,400,20","Cassandra","I liked this...I liked the blue and the black and I liked the smoothness to it.,31,120,20","Stephanie","Looks like an old gold mining down now deserted.,11,300,20","Caroline","Makes me feel weary,21,100,20","4"
"33555","","survey-text","146","1193566","0.0-144.0-0.0","A18366ZPVL8FNG","","","","{""Q0"":""this looks like a child painted this.""}","","","","","","","","","","","","","","","","","","","","","","",""
"4494","","image-slider-response","147","1198063","0.0-145.0","A18366ZPVL8FNG","","","","","-40","","","","","","","","","","","","","","","","","","","","","",""
"null","","image-button-response","148","1203066","0.0-146.0","A18366ZPVL8FNG","img_art/3.jpg","null","","","","","","","","","","","","","","","","","","","","","","","","",""
"634","","image-button-response","149","1203702","0.0-147.0","A18366ZPVL8FNG","img_art/3.jpg","2","","","","","","","","","","","","","","","","","","","","","","","","",""
"1727","","image-button-response","150","1205431","0.0-148.0-0.0","A18366ZPVL8FNG","img_art/3.jpg","5","","","","","","","","","","","","","","","","","","","","","","","","",""
"2082","","image-button-response","151","1207515","0.0-149.0-0.0","A18366ZPVL8FNG","img_art/3.jpg","4","","","","","","","","","","","","","","","","","","","","","","","","",""
"null","","html-keyboard-response","152","1209017","0.0-150.0","A18366ZPVL8FNG","<p style=""font-size: 48px;"">+</p>","","","","","null","allTrialResponses","1500","1","15","img_art/3.jpg","-40","this looks like a child painted this.","Cassandra,Natalie,Stephanie,Caroline,Anna,Kayla","I hate this...just a scribble of red.,-50,120,20","my response to the picture is a lot of red, danger,,-21,400,20","I think of an angry child,-50,300,20","The red makes me think of blood which makes me think of pain,-50,100,20","Definition of mediocre abstract art,-12,300,20","Really have no idea what I'm looking at.,1,180,20","Stephanie","I think of an angry child,-50,300,20","Kayla","Really have no idea what I'm looking at.,1,180,20","Anna","Definition of mediocre abstract art,-12,300,20","4"
"5072","","survey-text","153","1214098","0.0-151.0-0.0","A18366ZPVL8FNG","","","","{""Q0"":""course""}","","","","","","","","","","","","","","","","","","","","","","",""
"24645","","survey-text","154","1238746","0.0-152.0-0.0","A18366ZPVL8FNG","","","","{""Q0"":""beautiful colors.  I like the block shapes.""}","","","","","","","","","","","","","","","","","","","","","","",""
"4115.299999952316","","image-slider-response","155","1242863","0.0-153.0","A18366ZPVL8FNG","","","","","45","","","","","","","","","","","","","","","","","","","","","",""
"null","","image-button-response","156","1247875","0.0-154.0","A18366ZPVL8FNG","img_art/12.jpg","null","","","","","","","","","","","","","","","","","","","","","","","","",""
"4009","","image-button-response","157","1251886","0.0-155.0","A18366ZPVL8FNG","img_art/12.jpg","4","","","","","","","","","","","","","","","","","","","","","","","","",""
"3042","","image-button-response","158","1254930","0.0-156.0-0.0","A18366ZPVL8FNG","img_art/12.jpg","2","","","","","","","","","","","","","","","","","","","","","","","","",""
"2554","","image-button-response","159","1257487","0.0-157.0-0.0","A18366ZPVL8FNG","img_art/12.jpg","0","","","","","","","","","","","","","","","","","","","","","","","","",""
"null","","html-keyboard-response","160","1258990","0.0-158.0","A18366ZPVL8FNG","<p style=""font-size: 48px;"">+</p>","","","","","null","allTrialResponses","1500","1","16","img_art/12.jpg","45","beautiful colors.  I like the block shapes.","Danielle,Mariah,Stephanie,Miranda,Anna,Kayla","Kind of interesting, seems almost nostalgic in a way to me.,10,340,20","It is very bland and the colors are not cohesive.,-20,140,20","I like the pattern to it.,31,300,20","This is like going to a really old mcdoanlds in a tiny town and it's never been renovated so it's breaking down,-31,320,20","Therapist wall art.,10,300,20","Yay! Lots of people, lots of lives.,25,180,20","Anna","Therapist wall art.,10,300,20","Stephanie","I like the pattern to it.,31,300,20","Danielle","Kind of interesting, seems almost nostalgic in a way to me.,10,340,20","4"
"28746","","survey-text","161","1287742","0.0-159.0-0.0","A18366ZPVL8FNG","","","","{""Q0"":""love the use of black and blue colors.""}","","","","","","","","","","","","","","","","","","","","","","",""
"3026.0999999046326","","image-slider-response","162","1290770","0.0-160.0","A18366ZPVL8FNG","","","","","48","","","","","","","","","","","","","","","","","","","","","",""
"2514","","image-button-response","163","1295772","0.0-161.0","A18366ZPVL8FNG","img_art/15.jpg","4","","","","","","","","","","","","","","","","","","","","","","","","",""
"1211","","image-button-response","164","1296985","0.0-162.0","A18366ZPVL8FNG","img_art/15.jpg","5","","","","","","","","","","","","","","","","","","","","","","","","",""
"999","","image-button-response","165","1297986","0.0-163.0-0.0","A18366ZPVL8FNG","img_art/15.jpg","4","","","","","","","","","","","","","","","","","","","","","","","","",""
"9574","","image-button-response","166","1307562","0.0-164.0-0.0","A18366ZPVL8FNG","img_art/15.jpg","0","","","","","","","","","","","","","","","","","","","","","","","","",""
"null","","html-keyboard-response","167","1309068","0.0-165.0","A18366ZPVL8FNG","<p style=""font-size: 48px;"">+</p>","","","","","null","allTrialResponses","1500","1","17","img_art/15.jpg","48","love the use of black and blue colors.","Danielle,Alicia,Stephanie,Grace,Anna,Jasmine","This is pretty nice, reminds me of dark peacock feathers, or perhaps a bush with berries in it?,15,340,20","It's ok, it makes me think. That's something I guess.,8,120,20","This piece is too dark,-42,300,20","Interesting. Reminds me of a biopsy slide.,21,180,20","I like how it's simple but beautiful.,40,300,20","I like it as the colors complement each other well,21,340,20","Jasmine","I like it as the colors complement each other well,21,340,20","Anna","I like how it's simple but beautiful.,40,300,20","Danielle","This is pretty nice, reminds me of dark peacock feathers, or perhaps a bush with berries in it?,15,340,20","4"
"13653","","survey-text","168","1322726","0.0-166.0-0.0","A18366ZPVL8FNG","","","","{""Q0"":""cool brush-strokes.  like the colors.""}","","","","","","","","","","","","","","","","","","","","","","",""
"5217.900000095367","","image-slider-response","169","1327946","0.0-167.0","A18366ZPVL8FNG","","","","","32","","","","","","","","","","","","","","","","","","","","","",""
"null","","image-button-response","170","1332965","0.0-168.0","A18366ZPVL8FNG","img_art/30.jpg","null","","","","","","","","","","","","","","","","","","","","","","","","",""
"8327","","image-button-response","171","1341294","0.0-169.0","A18366ZPVL8FNG","img_art/30.jpg","2","","","","","","","","","","","","","","","","","","","","","","","","",""
"3559","","image-button-response","172","1344855","0.0-170.0-0.0","A18366ZPVL8FNG","img_art/30.jpg","4","","","","","","","","","","","","","","","","","","","","","","","","",""
"1510","","image-button-response","173","1346367","0.0-171.0-0.0","A18366ZPVL8FNG","img_art/30.jpg","5","","","","","","","","","","","","","","","","","","","","","","","","",""
"null","","html-keyboard-response","174","1347879","0.0-172.0","A18366ZPVL8FNG","<p style=""font-size: 48px;"">+</p>","","","","","null","allTrialResponses","1500","1","18","img_art/30.jpg","32","cool brush-strokes.  like the colors.","Danielle,Kimberly,Michaela,Courtney,Anna,Jasmine","It's okay. It should either have stuck to the grey-blue, or added more red. Seems unorganized (maybe that's the point?),-9,340,20","looks like eels,-20,260,20","My son made me a painting that looked like this,26,260,20","Some people dancing.,-7,280,20","It looks like a pretty but unremarkable painting in a doctors office,15,300,20","Pretty neutral about this one,0,340,20","Michaela","My son made me a painting that looked like this,26,260,20","Anna","It looks like a pretty but unremarkable painting in a doctors office,15,300,20","Jasmine","Pretty neutral about this one,0,340,20","4"
"29875","","survey-text","175","1377762","0.0-173.0-0.0","A18366ZPVL8FNG","","","","{""Q0"":""either a bird, or a plant, or a very thin girl with long hair.  i don't get it.""}","","","","","","","","","","","","","","","","","","","","","","",""
"3474.2000000476837","","image-slider-response","176","1381238","0.0-174.0","A18366ZPVL8FNG","","","","","-34","","","","","","","","","","","","","","","","","","","","","",""
"null","","image-button-response","177","1386251","0.0-175.0","A18366ZPVL8FNG","img_art/6.jpg","null","","","","","","","","","","","","","","","","","","","","","","","","",""
"2102","","image-button-response","178","1388355","0.0-176.0","A18366ZPVL8FNG","img_art/6.jpg","2","","","","","","","","","","","","","","","","","","","","","","","","",""
"6211","","image-button-response","179","1394567","0.0-177.0-0.0","A18366ZPVL8FNG","img_art/6.jpg","3","","","","","","","","","","","","","","","","","","","","","","","","",""
"1453","","image-button-response","180","1396023","0.0-178.0-0.0","A18366ZPVL8FNG","img_art/6.jpg","0","","","","","","","","","","","","","","","","","","","","","","","","",""
"null","","html-keyboard-response","181","1397033","0.0-179.0","A18366ZPVL8FNG","<p style=""font-size: 48px;"">+</p>","","","","","null","allTrialResponses","1000","1","19","img_art/6.jpg","-34","either a bird, or a plant, or a very thin girl with long hair.  i don't get it.","Molly,Alexa,Michaela,Amanda,Anna,Jasmine","Nothing special.,-20,340,20","Too basic for me,-20,40,20","It looks like a bird looking away,32,260,20","Makes me feel lonely,-22,180,20","It reminds me of a simplistic bird. I like the colors used.,40,300,20","Simple and clean,11,340,20","Michaela","It looks like a bird looking away,32,260,20","Amanda","Makes me feel lonely,-22,180,20","Molly","Nothing special.,-20,340,20","4"
"32639","","survey-text","182","1429679","0.0-180.0-0.0","A18366ZPVL8FNG","","","","{""Q0"":""Nice colors.  Interesting brush work.""}","","","","","","","","","","","","","","","","","","","","","","",""
"2873.2999999523163","","image-slider-response","183","1432554","0.0-181.0","A18366ZPVL8FNG","","","","","30","","","","","","","","","","","","","","","","","","","","","",""
"null","","image-button-response","184","1437567","0.0-182.0","A18366ZPVL8FNG","img_art/28.jpg","null","","","","","","","","","","","","","","","","","","","","","","","","",""
"3590","","image-button-response","185","1441159","0.0-183.0","A18366ZPVL8FNG","img_art/28.jpg","2","","","","","","","","","","","","","","","","","","","","","","","","",""
"2738","","image-button-response","186","1443898","0.0-184.0-0.0","A18366ZPVL8FNG","img_art/28.jpg","0","","","","","","","","","","","","","","","","","","","","","","","","",""
"5478","","image-button-response","187","1449379","0.0-185.0-0.0","A18366ZPVL8FNG","img_art/28.jpg","5","","","","","","","","","","","","","","","","","","","","","","","","",""
"null","","html-keyboard-response","188","1450885","0.0-186.0","A18366ZPVL8FNG","<p style=""font-size: 48px;"">+</p>","","","","","null","allTrialResponses","1500","1","20","img_art/28.jpg","30","Nice colors.  Interesting brush work.","Molly,Shelby,Michaela,Amanda,Cheyenne,Sierra","This painting is mysterious, it makes me curious.,5,340,20","This one gives me an uneasy feeling,-10,240,20","Salvador Dali called and he thinks this looks pretty good,27,260,20","Colors look too muddy for my liking,-33,180,20","Good use of shapes.,7,200,20","i like the colors and the shapes look like people,20,260,20","Michaela","Salvador Dali called and he thinks this looks pretty good,27,260,20","Molly","This painting is mysterious, it makes me curious.,5,340,20","Sierra","i like the colors and the shapes look like people,20,260,20","4"
"3649","","survey-text","189","1454547","0.0-187.0-0.0","A18366ZPVL8FNG","","","","{""Q0"":""we""}","","","","","","","","","","","","","","","","","","","","","","",""
"20546","","survey-text","190","1475094","0.0-188.0-0.0","A18366ZPVL8FNG","","","","{""Q0"":""Beautiful use of colors.  Whimsical.""}","","","","","","","","","","","","","","","","","","","","","","",""
"6858.100000023842","","image-slider-response","191","1481955","0.0-189.0","A18366ZPVL8FNG","","","","","42","","","","","","","","","","","","","","","","","","","","","",""
"null","","image-button-response","192","1486962","0.0-190.0","A18366ZPVL8FNG","img_art/14.jpg","null","","","","","","","","","","","","","","","","","","","","","","","","",""
"1295","","image-button-response","193","1488259","0.0-191.0","A18366ZPVL8FNG","img_art/14.jpg","2","","","","","","","","","","","","","","","","","","","","","","","","",""
"5678","","image-button-response","194","1493938","0.0-192.0-0.0","A18366ZPVL8FNG","img_art/14.jpg","0","","","","","","","","","","","","","","","","","","","","","","","","",""
"5590","","image-button-response","195","1499531","0.0-193.0-0.0","A18366ZPVL8FNG","img_art/14.jpg","4","","","","","","","","","","","","","","","","","","","","","","","","",""
"null","","html-keyboard-response","196","1500543","0.0-194.0","A18366ZPVL8FNG","<p style=""font-size: 48px;"">+</p>","","","","","null","allTrialResponses","1000","1","21","img_art/14.jpg","42","Beautiful use of colors.  Whimsical.","Molly,Caitlin,Michaela,Briana,Dominique,Sierra","In my opinion it's spectacular.,35,340,20","Are they blowing up a tree?,-5,80,20","I just really like light and wispy things,33,260,20","Simplistic. Looks like a child did it,14,400,20","Reminds me of the old days with my family and my grandma,41,400,20","it put me on edge.,-11,260,20","Michaela","I just really like light and wispy things,33,260,20","Molly","In my opinion it's spectacular.,35,340,20","Dominique","Reminds me of the old days with my family and my grandma,41,400,20","4"
"43759","","survey-text","197","1544307","0.0-195.0-0.0","A18366ZPVL8FNG","","","","{""Q0"":""Gorgeous colors.  I would hang this in my living room.""}","","","","","","","","","","","","","","","","","","","","","","",""
"2801.100000023842","","image-slider-response","198","1547110","0.0-196.0","A18366ZPVL8FNG","","","","","50","","","","","","","","","","","","","","","","","","","","","",""
"null","","image-button-response","199","1552116","0.0-197.0","A18366ZPVL8FNG","img_art/22.jpg","null","","","","","","","","","","","","","","","","","","","","","","","","",""
"1528","","image-button-response","200","1553647","0.0-198.0","A18366ZPVL8FNG","img_art/22.jpg","4","","","","","","","","","","","","","","","","","","","","","","","","",""
"1946","","image-button-response","201","1555595","0.0-199.0-0.0","A18366ZPVL8FNG","img_art/22.jpg","3","","","","","","","","","","","","","","","","","","","","","","","","",""
"6300","","image-button-response","202","1561898","0.0-200.0-0.0","A18366ZPVL8FNG","img_art/22.jpg","2","","","","","","","","","","","","","","","","","","","","","","","","",""
"null","","html-keyboard-response","203","1562913","0.0-201.0","A18366ZPVL8FNG","<p style=""font-size: 48px;"">+</p>","","","","","null","allTrialResponses","1000","1","22","img_art/22.jpg","50","Gorgeous colors.  I would hang this in my living room.","Molly,Chloe,Michaela,Monica,Dominique,Alyssa","Unfortunately, I can't see anything special in this painting.,-20,340,20","Still like the colors but not the most interesting composition,17,220,20","I like the use of primary colors in an interesting way,29,260,20","I really like the bright colors and sunset feel,31,360,20","Can fit with anyone. And in any home a great piece of art,35,400,20","Its okay,it doesnt make me feel any sort of strong emotion,1,160,20","Dominique","Can fit with anyone. And in any home a great piece of art,35,400,20","Monica","I really like the bright colors and sunset feel,31,360,20","Michaela","I like the use of primary colors in an interesting way,29,260,20","4"
"34364","","survey-text","204","1597282","0.0-202.0-0.0","A18366ZPVL8FNG","","","","{""Q0"":""This looks like the surface of another planet.  Very bland to me. ""}","","","","","","","","","","","","","","","","","","","","","","",""
"2594","","image-slider-response","205","1599878","0.0-203.0","A18366ZPVL8FNG","","","","","-38","","","","","","","","","","","","","","","","","","","","","",""
"null","","image-button-response","206","1604889","0.0-204.0","A18366ZPVL8FNG","img_art/7.jpg","null","","","","","","","","","","","","","","","","","","","","","","","","",""
"2591","","image-button-response","207","1607482","0.0-205.0","A18366ZPVL8FNG","img_art/7.jpg","3","","","","","","","","","","","","","","","","","","","","","","","","",""
"3058","","image-button-response","208","1610543","0.0-206.0-0.0","A18366ZPVL8FNG","img_art/7.jpg","5","","","","","","","","","","","","","","","","","","","","","","","","",""
"4065","","image-button-response","209","1614609","0.0-207.0-0.0","A18366ZPVL8FNG","img_art/7.jpg","2","","","","","","","","","","","","","","","","","","","","","","","","",""
"null","","html-keyboard-response","210","1615112","0.0-208.0","A18366ZPVL8FNG","<p style=""font-size: 48px;"">+</p>","","","","","null","allTrialResponses","500","1","23","img_art/7.jpg","-38","This looks like the surface of another planet.  Very bland to me. ","Megan,Sydney,Michaela,Monica,Dominique,Alexandria","Great portrayal of solid surface,19,200,20","This piece is really simple but the colors and texture work well together.,20,320,20","It looks like maybe some seeds?,14,260,20","It looks like bloody scabs on skin, I don't like it,-42,360,20","One I would love to own . Calm relaxing spiritual and full of love,41,400,20","reminds me of the desert,-20,80,20","Monica","It looks like bloody scabs on skin, I don't like it,-42,360,20","Alexandria","reminds me of the desert,-20,80,20","Michaela","It looks like maybe some seeds?,14,260,20","4"
"33002","","survey-text","211","1648123","0.0-209.0-0.0","A18366ZPVL8FNG","","","","{""Q0"":""This looks like the inside of a funnel cloud.  Cool colors though.""}","","","","","","","","","","","","","","","","","","","","","","",""
"2633.4000000953674","","image-slider-response","212","1650758","0.0-210.0","A18366ZPVL8FNG","","","","","18","","","","","","","","","","","","","","","","","","","","","",""
"null","","image-button-response","213","1655764","0.0-211.0","A18366ZPVL8FNG","img_art/21.jpg","null","","","","","","","","","","","","","","","","","","","","","","","","",""
"1000","","image-button-response","214","1656766","0.0-212.0","A18366ZPVL8FNG","img_art/21.jpg","0","","","","","","","","","","","","","","","","","","","","","","","","",""
"1630","","image-button-response","215","1658398","0.0-213.0-0.0","A18366ZPVL8FNG","img_art/21.jpg","1","","","","","","","","","","","","","","","","","","","","","","","","",""
"2723","","image-button-response","216","1661123","0.0-214.0-0.0","A18366ZPVL8FNG","img_art/21.jpg","2","","","","","","","","","","","","","","","","","","","","","","","","",""
"null","","html-keyboard-response","217","1662124","0.0-215.0","A18366ZPVL8FNG","<p style=""font-size: 48px;"">+</p>","","","","","null","allTrialResponses","1000","1","24","img_art/21.jpg","18","This looks like the inside of a funnel cloud.  Cool colors though.","Diana,Kelsey,Michaela,Monica,Madeline,Alexandria","Makes me feel light and airy. Like I've gone back in time to 1700th century France.,43,380,20","i like watercolor,22,240,20","I love how vague it is but how you can imagine a story anyway, like clouds,45,260,20","I like the dark blue in the lower right which reminds me of a storm but the orange is ugly,12,360,20","Evokes a strong colorful sense,8,40,20","the vast colors make me happy,15,80,20","Diana","Makes me feel light and airy. Like I've gone back in time to 1700th century France.,43,380,20","Kelsey","i like watercolor,22,240,20","Michaela","I love how vague it is but how you can imagine a story anyway, like clouds,45,260,20","4"
"38929","","survey-text","218","1701059","0.0-216.0-0.0","A18366ZPVL8FNG","","","","{""Q0"":""Love the teddy bear, but not sure what's going on in the rest of the painting.""}","","","","","","","","","","","","","","","","","","","","","","",""
"4485.399999976158","","image-slider-response","219","1705547","0.0-217.0","A18366ZPVL8FNG","","","","","6","","","","","","","","","","","","","","","","","","","","","",""
"null","","image-button-response","220","1710565","0.0-218.0","A18366ZPVL8FNG","img_art/16.jpg","null","","","","","","","","","","","","","","","","","","","","","","","","",""
"867","","image-button-response","221","1711435","0.0-219.0","A18366ZPVL8FNG","img_art/16.jpg","5","","","","","","","","","","","","","","","","","","","","","","","","",""
"7581","","image-button-response","222","1719019","0.0-220.0-0.0","A18366ZPVL8FNG","img_art/16.jpg","1","","","","","","","","","","","","","","","","","","","","","","","","",""
"4749","","image-button-response","223","1723771","0.0-221.0-0.0","A18366ZPVL8FNG","img_art/16.jpg","2","","","","","","","","","","","","","","","","","","","","","","","","",""
"null","","html-keyboard-response","224","1725274","0.0-222.0","A18366ZPVL8FNG","<p style=""font-size: 48px;"">+</p>","","","","","null","allTrialResponses","1500","1","25","img_art/16.jpg","6","Love the teddy bear, but not sure what's going on in the rest of the painting.","Diana,Kelsey,Michaela,Kaitlyn,Morgan,Margaret","This one isn't for me. It came off as strange but not in a good way.,-44,380,20","its disturbing! what the heck,-27,240,20","It feels lazily done,-9,260,20","The bear is a weird choice,-22,80,20","Strange and bleak.,-20,380,20","i like how it incorporates mixed visual art with the photo of the bear and the drawings,30,100,20","Margaret","i like how it incorporates mixed visual art with the photo of the bear and the drawings,30,100,20","Kelsey","its disturbing! what the heck,-27,240,20","Michaela","It feels lazily done,-9,260,20","4"
"4856","","survey-text","225","1730143","0.0-223.0-0.0","A18366ZPVL8FNG","","","","{""Q0"":""table""}","","","","","","","","","","","","","","","","","","","","","","",""
"29105","","survey-text","226","1759250","0.0-224.0-0.0","A18366ZPVL8FNG","","","","{""Q0"":""This is very dark and weird. I don't like this one.""}","","","","","","","","","","","","","","","","","","","","","","",""
"2617.7999999523163","","image-slider-response","227","1761871","0.0-225.0","A18366ZPVL8FNG","","","","","-43","","","","","","","","","","","","","","","","","","","","","",""
"null","","image-button-response","228","1766873","0.0-226.0","A18366ZPVL8FNG","img_art/18.jpg","null","","","","","","","","","","","","","","","","","","","","","","","","",""
"1515","","image-button-response","229","1768391","0.0-227.0","A18366ZPVL8FNG","img_art/18.jpg","1","","","","","","","","","","","","","","","","","","","","","","","","",""
"2745","","image-button-response","230","1771139","0.0-228.0-0.0","A18366ZPVL8FNG","img_art/18.jpg","0","","","","","","","","","","","","","","","","","","","","","","","","",""
"4017","","image-button-response","231","1775158","0.0-229.0-0.0","A18366ZPVL8FNG","img_art/18.jpg","0","","","","","","","","","","","","","","","","","","","","","","","","",""
"2067","","image-button-response","232","1782275","0.0-229.1-0.1","A18366ZPVL8FNG","img_art/18.jpg","4","","","","","","","","","","","","","","","","","","","","","","","","",""
"null","","html-keyboard-response","233","1783277","0.0-230.0","A18366ZPVL8FNG","<p style=""font-size: 48px;"">+</p>","","","","","null","allTrialResponses","1000","1","26","img_art/18.jpg","-43","This is very dark and weird. I don't like this one.","Rachel,Kelsey,Michaela,Melissa,Amber,Margaret","This one seems rather ghoulish to me.,-41,80,20","its messy, it seems angry,-21,240,20","Reminds me of the four horsemen of the apocalypse,29,260,20","creamy color, feels like organized chaos,23,240,20","ugly and lots of movement,-6,200,20","reminds me of dying at sea in the 1700s,-8,100,20","Kelsey","its messy, it seems angry,-21,240,20","Rachel","This one seems rather ghoulish to me.,-41,80,20","Amber","ugly and lots of movement,-6,200,20","6"
"34971","","survey-text","234","1818255","0.0-231.0-0.0","A18366ZPVL8FNG","","","","{""Q0"":""This is very dark and scary.  I do like the colors though.""}","","","","","","","","","","","","","","","","","","","","","","",""
"2077.0999999046326","","image-slider-response","235","1820334","0.0-232.0","A18366ZPVL8FNG","","","","","9","","","","","","","","","","","","","","","","","","","","","",""
"null","","image-button-response","236","1825335","0.0-233.0","A18366ZPVL8FNG","img_art/8.jpg","null","","","","","","","","","","","","","","","","","","","","","","","","",""
"3297","","image-button-response","237","1828634","0.0-234.0","A18366ZPVL8FNG","img_art/8.jpg","3","","","","","","","","","","","","","","","","","","","","","","","","",""
"4463","","image-button-response","238","1833099","0.0-235.0-0.0","A18366ZPVL8FNG","img_art/8.jpg","4","","","","","","","","","","","","","","","","","","","","","","","","",""
"2850","","image-button-response","239","1835951","0.0-236.0-0.0","A18366ZPVL8FNG","img_art/8.jpg","1","","","","","","","","","","","","","","","","","","","","","","","","",""
"null","","html-keyboard-response","240","1836967","0.0-237.0","A18366ZPVL8FNG","<p style=""font-size: 48px;"">+</p>","","","","","null","allTrialResponses","1000","1","27","img_art/8.jpg","9","This is very dark and scary.  I do like the colors though.","Rachel,Kelsey,Angelica,Kaitlin,Amber,Madison","I like all of the faces that can be found in this piece. Interesting.,35,80,20","i like all the different faces,19,240,20","It's a poor rendition of an MC Escher inspired piece.,-25,280,20","wow - the colors were very well mixed,12,60,20","Very colorful. Looks like the hustle and bustle of a city.,11,200,20","The composition is striking, and some of the images are quite dramatic,11,60,20","Kaitlin","wow - the colors were very well mixed,12,60,20","Amber","Very colorful. Looks like the hustle and bustle of a city.,11,200,20","Kelsey","i like all the different faces,19,240,20","6"
"20231","","survey-text","241","1857207","0.0-238.0-0.0","A18366ZPVL8FNG","","","","{""Q0"":""Nice use of colors.  Interesting white brush-strokes.""}","","","","","","","","","","","","","","","","","","","","","","",""
"3113.4000000953674","","image-slider-response","242","1860322","0.0-239.0","A18366ZPVL8FNG","","","","","18","","","","","","","","","","","","","","","","","","","","","",""
"null","","image-button-response","243","1865325","0.0-240.0","A18366ZPVL8FNG","img_art/23.jpg","null","","","","","","","","","","","","","","","","","","","","","","","","",""
"1084","","image-button-response","244","1866411","0.0-241.0","A18366ZPVL8FNG","img_art/23.jpg","0","","","","","","","","","","","","","","","","","","","","","","","","",""
"4185","","image-button-response","245","1870598","0.0-242.0-0.0","A18366ZPVL8FNG","img_art/23.jpg","5","","","","","","","","","","","","","","","","","","","","","","","","",""
"4655","","image-button-response","246","1875255","0.0-243.0-0.0","A18366ZPVL8FNG","img_art/23.jpg","1","","","","","","","","","","","","","","","","","","","","","","","","",""
"null","","html-keyboard-response","247","1876767","0.0-244.0","A18366ZPVL8FNG","<p style=""font-size: 48px;"">+</p>","","","","","null","allTrialResponses","1500","1","28","img_art/23.jpg","18","Nice use of colors.  Interesting white brush-strokes.","Allison,Kelsey,Jordan,Kaitlin,Amber,Alexis","I like the color contrast, though I'm unable to tell what the white shapes are.,25,140,20","i think this ones okay,10,240,20","NO, I don't get it,-50,20,20","i cannot breath in this,-10,60,20","The background colors seem too dark and the middle images take away from it.,4,200,20","Pretty cool. I love the white, reminds me of people lined up.,28,100,20","Allison","I like the color contrast, though I'm unable to tell what the white shapes are.,25,140,20","Alexis","Pretty cool. I love the white, reminds me of people lined up.,28,100,20","Kelsey","i think this ones okay,10,240,20","6"
"34824","","survey-text","248","1911599","0.0-245.0-0.0","A18366ZPVL8FNG","","","","{""Q0"":""I don't get this one.  It looks thrown together like a ham and cheese sandwich.""}","","","","","","","","","","","","","","","","","","","","","","",""
"3901.2999999523163","","image-slider-response","249","1915502","0.0-246.0","A18366ZPVL8FNG","","","","","-44","","","","","","","","","","","","","","","","","","","","","",""
"null","","image-button-response","250","1920523","0.0-247.0","A18366ZPVL8FNG","img_art/13.jpg","null","","","","","","","","","","","","","","","","","","","","","","","","",""
"1541","","image-button-response","251","1922067","0.0-248.0","A18366ZPVL8FNG","img_art/13.jpg","3","","","","","","","","","","","","","","","","","","","","","","","","",""
"4622","","image-button-response","252","1926691","0.0-249.0-0.0","A18366ZPVL8FNG","img_art/13.jpg","1","","","","","","","","","","","","","","","","","","","","","","","","",""
"4526","","image-button-response","253","1931219","0.0-250.0-0.0","A18366ZPVL8FNG","img_art/13.jpg","5","","","","","","","","","","","","","","","","","","","","","","","","",""
"null","","html-keyboard-response","254","1932721","0.0-251.0","A18366ZPVL8FNG","<p style=""font-size: 48px;"">+</p>","","","","","null","allTrialResponses","1500","1","29","img_art/13.jpg","-44","I don't get this one.  It looks thrown together like a ham and cheese sandwich.","Allison,Kelsey,Sabrina,Amy,Laura,Alexis","Generic mix of colors. Cool and messy.,10,140,20","its like the ocean,24,240,20","I love the edgy nature,50,120,20","I recognize the beauty of this but FOR ME its large degree of abstraction diminishes my emotional interaction.,-10,220,20","water on my shower curtain - I feel refreshed, renewed,9,320,20","Simple, but pleasing. The blue gradient is a favorite of mine,32,100,20","Amy","I recognize the beauty of this but FOR ME its large degree of abstraction diminishes my emotional interaction.,-10,220,20","Kelsey","its like the ocean,24,240,20","Alexis","Simple, but pleasing. The blue gradient is a favorite of mine,32,100,20","6"
"37442","","survey-text","255","1970175","0.0-252.0-0.0","A18366ZPVL8FNG","","","","{""Q0"":""I love the green colors.  I like the black brush-strokes.""}","","","","","","","","","","","","","","","","","","","","","","",""
"4009.8000000715256","","image-slider-response","256","1974187","0.0-253.0","A18366ZPVL8FNG","","","","","28","","","","","","","","","","","","","","","","","","","","","",""
"null","","image-button-response","257","1979201","0.0-254.0","A18366ZPVL8FNG","img_art/25.jpg","null","","","","","","","","","","","","","","","","","","","","","","","","",""
"1966","","image-button-response","258","1981170","0.0-255.0","A18366ZPVL8FNG","img_art/25.jpg","5","","","","","","","","","","","","","","","","","","","","","","","","",""
"1994","","image-button-response","259","1983166","0.0-256.0-0.0","A18366ZPVL8FNG","img_art/25.jpg","4","","","","","","","","","","","","","","","","","","","","","","","","",""
"4941","","image-button-response","260","1988110","0.0-257.0-0.0","A18366ZPVL8FNG","img_art/25.jpg","3","","","","","","","","","","","","","","","","","","","","","","","","",""
"null","","html-keyboard-response","261","1988613","0.0-258.0","A18366ZPVL8FNG","<p style=""font-size: 48px;"">+</p>","","","","","null","allTrialResponses","500","1","30","img_art/25.jpg","28","I love the green colors.  I like the black brush-strokes.","Erika,Kelsey,Cynthia,Amy,Meghan,Alexis","Very cryptic and ancient,36,100,20","quite unnerving,-15,240,20","Somewhat feel protected by a messenger,33,320,20","The limited palette make this figure mysterious and interpret-able.,20,220,20","reminds me of a zombie,-36,220,20","Reminds me of cave drawings,21,100,20","Alexis","Reminds me of cave drawings,21,100,20","Meghan","reminds me of a zombie,-36,220,20","Amy","The limited palette make this figure mysterious and interpret-able.,20,220,20","6"
"3843","","image-button-response_instructions","262","1992462","0.0-259.0","A18366ZPVL8FNG","","0","instructions","","","","","","","","","","","","","","","","","","","","","","","",""
"1370","","image-button-response","263","1993838","0.0-260.0","A18366ZPVL8FNG","","0","","","","","","","","","","","","","","","","","","","","","","","","",""
