"rt","url","trial_type","trial_index","time_elapsed","internal_node_id","participant_id","stimulus","button_pressed","Name","responses","response","key_press","variableName","fixationTime","condition","trial","photo","subjectRating","subjectResponse","agentsNames","agent_1_Response","agent_2_Response","agent_3_Response","agent_4_Response","agent_5_Response","agent_6_Response","kept_1_name","kept_1_response","kept_2_name","kept_2_response","kept_3_name","kept_3_response","errorCounter"
"13448","external_page_harvard.html","external-html","0","13588","0.0-0.0","A19H6QRCGKBOUH","","","","","","","","","","","","","","","","","","","","","","","","","","",""
"1829","","image-button-response","1","15425","0.0-1.0","A19H6QRCGKBOUH","","0","","","","","","","","","","","","","","","","","","","","","","","","",""
"2592","","image-button-response","2","18038","0.0-2.0-0.0","A19H6QRCGKBOUH","","1","phone","","","","","","","","","","","","","","","","","","","","","","","",""
"12670","","survey-text","3","30716","0.0-3.0-0.0","A19H6QRCGKBOUH","","","","{""Q0"":""A19H6QRCGKBOUH""}","","","","","","","","","","","","","","","","","","","","","","",""
"9943","","image-button-response_instructions","4","40663","0.0-4.0","A19H6QRCGKBOUH","","0","instructions","","","","","","","","","","","","","","","","","","","","","","","",""
"22971","","image-button-response_instructions","5","63637","0.0-5.0","A19H6QRCGKBOUH","img_art/ins/popularity/ins1.png","0","instructions","","","","","","","","","","","","","","","","","","","","","","","",""
"7150","","image-button-response_instructions","6","70790","0.0-6.0","A19H6QRCGKBOUH","img_art/ins/popularity/ins2.png","0","instructions","","","","","","","","","","","","","","","","","","","","","","","",""
"9623","","image-button-response_instructions","7","80418","0.0-7.0","A19H6QRCGKBOUH","img_art/ins/popularity/ins2Extreme.png","0","instructions","","","","","","","","","","","","","","","","","","","","","","","",""
"11715","","image-button-response_instructions","8","92138","0.0-8.0","A19H6QRCGKBOUH","img_art/ins/popularity/ins3KEEPpop.PNG","0","instructions","","","","","","","","","","","","","","","","","","","","","","","",""
"3834","","image-button-response_instructions","9","95976","0.0-9.0","A19H6QRCGKBOUH","img_art/ins/popularity/ins3ANamepop.PNG","0","instructions","","","","","","","","","","","","","","","","","","","","","","","",""
"6379","","image-button-response_instructions","10","102360","0.0-10.0","A19H6QRCGKBOUH","img_art/ins/popularity/ins3ARatingpop.png","0","instructions","","","","","","","","","","","","","","","","","","","","","","","",""
"4601","","image-button-response_instructions","11","106966","0.0-11.0","A19H6QRCGKBOUH","img_art/ins/popularity/ins3ATextpop.png","0","instructions","","","","","","","","","","","","","","","","","","","","","","","",""
"4198","","image-button-response_instructions","12","111169","0.0-12.0","A19H6QRCGKBOUH","img_art/ins/popularity/ins3ALikespop.png","0","instructions","","","","","","","","","","","","","","","","","","","","","","","",""
"4313","","image-button-response_instructions","13","115489","0.0-13.0","A19H6QRCGKBOUH","img_art/ins/popularity/ins3KEEPpop.PNG","0","instructions","","","","","","","","","","","","","","","","","","","","","","","",""
"2347","","image-button-response_instructions","14","117844","0.0-14.0","A19H6QRCGKBOUH","img_art/ins/popularity/ins3_5RED.png","0","instructions","","","","","","","","","","","","","","","","","","","","","","","",""
"3718","","image-button-response_instructions","15","121569","0.0-15.0","A19H6QRCGKBOUH","img_art/ins/popularity/ins3KEEPpop.PNG","0","instructions","","","","","","","","","","","","","","","","","","","","","","","",""
"7319","","image-button-response_instructions","16","128891","0.0-16.0","A19H6QRCGKBOUH","img_art/ins/popularity/ins4KEEPpop.PNG","0","instructions","","","","","","","","","","","","","","","","","","","","","","","",""
"3613","","image-button-response_instructions","17","132509","0.0-17.0","A19H6QRCGKBOUH","img_art/ins/popularity/ins5KEEPpop.PNG","0","instructions","","","","","","","","","","","","","","","","","","","","","","","",""
"1723","","image-button-response_instructions","18","134237","0.0-18.0","A19H6QRCGKBOUH","","0","instructions","","","","","","","","","","","","","","","","","","","","","","","",""
"4838","","survey-text","19","139119","0.0-19.0-0.0","A19H6QRCGKBOUH","","","","{""Q0"":""but""}","","","","","","","","","","","","","","","","","","","","","","",""
"12234","","survey-text","20","151361","0.0-20.0-0.0","A19H6QRCGKBOUH","","","","{""Q0"":""what the heck is this supposed to be?""}","","","","","","","","","","","","","","","","","","","","","","",""
"6050.899999976158","","image-slider-response","21","157418","0.0-21.0","A19H6QRCGKBOUH","","","","","-50","","","","","","","","","","","","","","","","","","","","","",""
"null","","image-button-response","22","162446","0.0-22.0","A19H6QRCGKBOUH","img_art/ins/1.jpg","null","","","","","","","","","","","","","","","","","","","","","","","","",""
"385","","image-button-response","23","162834","0.0-23.0","A19H6QRCGKBOUH","img_art/ins/1.jpg","0","","","","","","","","","","","","","","","","","","","","","","","","",""
"1523","","image-button-response","24","164367","0.0-24.0-0.0","A19H6QRCGKBOUH","img_art/ins/1.jpg","4","","","","","","","","","","","","","","","","","","","","","","","","",""
"5631","","image-button-response","25","170009","0.0-25.0-0.0","A19H6QRCGKBOUH","img_art/ins/1.jpg","0","","","","","","","","","","","","","","","","","","","","","","","","",""
"3959","","image-button-response","26","177716","0.0-25.1-0.1","A19H6QRCGKBOUH","img_art/ins/1.jpg","2","","","","","","","","","","","","","","","","","","","","","","","","",""
"null","","html-keyboard-response","27","178231","0.0-26.0","A19H6QRCGKBOUH","<p style=""font-size: 48px;"">+</p>","","","","","null","allTrialResponses","500","1","-2","img_art/ins/1.jpg","-50","what the heck is this supposed to be?","Adam,Alex,Ben,Carl,Daniel,Jack","Seems like doodles,-20,20,20","very creative work.,36,40,20","This color reminds me of poo,-46,60,20","very calming artwork,42,80,20","It looks like a murder scene.,-48,100,20","I like the sophisticated brushwork,40,120,20","Adam","Seems like doodles,-20,20,20","Daniel","It looks like a murder scene.,-48,100,20","Ben","This color reminds me of poo,-46,60,20","2"
"25025","","survey-text","28","203276","0.0-27.0-0.0","A19H6QRCGKBOUH","","","","{""Q0"":""somebody spilled paint and made a mess""}","","","","","","","","","","","","","","","","","","","","","","",""
"10061.5","","image-slider-response","29","213346","0.0-28.0","A19H6QRCGKBOUH","","","","","-50","","","","","","","","","","","","","","","","","","","","","",""
"null","","image-button-response","30","218357","0.0-29.0","A19H6QRCGKBOUH","img_art/ins/2.jpg","null","","","","","","","","","","","","","","","","","","","","","","","","",""
"1023","","image-button-response","31","219388","0.0-30.0","A19H6QRCGKBOUH","img_art/ins/2.jpg","4","","","","","","","","","","","","","","","","","","","","","","","","",""
"3072","","image-button-response","32","222470","0.0-31.0-0.0","A19H6QRCGKBOUH","img_art/ins/2.jpg","5","","","","","","","","","","","","","","","","","","","","","","","","",""
"2607","","image-button-response","33","225088","0.0-32.0-0.0","A19H6QRCGKBOUH","img_art/ins/2.jpg","2","","","","","","","","","","","","","","","","","","","","","","","","",""
"null","","html-keyboard-response","34","226592","0.0-33.0","A19H6QRCGKBOUH","<p style=""font-size: 48px;"">+</p>","","","","","null","allTrialResponses","1500","1","-1","img_art/ins/2.jpg","-50","somebody spilled paint and made a mess","Adam,John,Ben,James,Daniel,Kyle","too much color,-18,20,20","love the texture of paint,48,160,20","meaningless painting,-45,60,20","looks too angry,-50,140,20","One of my pet peevs,-48,100,20","Idk, it is just annoying,-32,180,20","Daniel","One of my pet peevs,-48,100,20","Kyle","Idk, it is just annoying,-32,180,20","Ben","meaningless painting,-45,60,20","2"
"26621","","survey-text","35","253232","0.0-34.0-0.0","A19H6QRCGKBOUH","","","","{""Q0"":""who did this? a preschooler amidst a tantrum?""}","","","","","","","","","","","","","","","","","","","","","","",""
"5547","","image-slider-response","36","258786","0.0-35.0","A19H6QRCGKBOUH","","","","","-50","","","","","","","","","","","","","","","","","","","","","",""
"null","","image-button-response","37","263803","0.0-36.0","A19H6QRCGKBOUH","img_art/ins/3.jpg","null","","","","","","","","","","","","","","","","","","","","","","","","",""
"965","","image-button-response","38","264779","0.0-37.0","A19H6QRCGKBOUH","img_art/ins/3.jpg","4","","","","","","","","","","","","","","","","","","","","","","","","",""
"8088","","image-button-response","39","272874","0.0-38.0-0.0","A19H6QRCGKBOUH","img_art/ins/3.jpg","5","","","","","","","","","","","","","","","","","","","","","","","","",""
"7345","","image-button-response","40","280229","0.0-39.0-0.0","A19H6QRCGKBOUH","img_art/ins/3.jpg","1","","","","","","","","","","","","","","","","","","","","","","","","",""
"null","","html-keyboard-response","41","281235","0.0-40.0","A19H6QRCGKBOUH","<p style=""font-size: 48px;"">+</p>","","","","","null","allTrialResponses","1000","1","0","img_art/ins/3.jpg","-50","who did this? a preschooler amidst a tantrum?","Sam,Ron,Ben,Mike,Daniel,Kyle","I can feel a rainy day from this painting,18,240,20","It looks depressing,-26,220,20","This thing gives me anxiety,-41,60,20","enjoy the different shades of blue,22,200,20","looks like a murder room,-35,100,20","It looks like a playground for bats,-36,180,20","Daniel","looks like a murder room,-35,100,20","Kyle","It looks like a playground for bats,-36,180,20","Ron","It looks depressing,-26,220,20","2"
"3075","","image-button-response_instructions","42","284333","0.0-41.0","A19H6QRCGKBOUH","","0","instructions","","","","","","","","","","","","","","","","","","","","","","","",""
"21531","","survey-likert","43","305872","0.0-42.0-0.0","A19H6QRCGKBOUH","","","","{""Q0"":"""",""Q1"":0,""Q2"":1}","","","","","","","","","","","","","","","","","","","","","","",""
"5280","","survey-text","44","311163","0.0-43.0-0.0","A19H6QRCGKBOUH","","","","{""Q0"":""rock""}","","","","","","","","","","","","","","","","","","","","","","",""
"22675","","survey-text","45","333845","0.0-44.0-0.0","A19H6QRCGKBOUH","","","","{""Q0"":""looks like somebody had an upset stomach""}","","","","","","","","","","","","","","","","","","","","","","",""
"6726.200000047684","","image-slider-response","46","340580","0.0-45.0","A19H6QRCGKBOUH","","","","","-50","","","","","","","","","","","","","","","","","","","","","",""
"4176","","image-button-response","47","345652","0.0-46.0","A19H6QRCGKBOUH","img_art/27.jpg","3","","","","","","","","","","","","","","","","","","","","","","","","",""
"1829","","image-button-response","48","347493","0.0-47.0","A19H6QRCGKBOUH","img_art/27.jpg","3","","","","","","","","","","","","","","","","","","","","","","","","",""
"3393","","image-button-response","49","350894","0.0-48.0-0.0","A19H6QRCGKBOUH","img_art/27.jpg","4","","","","","","","","","","","","","","","","","","","","","","","","",""
"8138","","image-button-response","50","359043","0.0-49.0-0.0","A19H6QRCGKBOUH","img_art/27.jpg","2","","","","","","","","","","","","","","","","","","","","","","","","",""
"null","","html-keyboard-response","51","360558","0.0-50.0","A19H6QRCGKBOUH","<p style=""font-size: 48px;"">+</p>","","","","","null","allTrialResponses","1500","1","1","img_art/27.jpg","-50","looks like somebody had an upset stomach","Shawn,Patrick,Alexander,Luke,John,Luis","Like the movement of the lines and dripping paint.,30,100,20","Not cohesive design,-31,280,20","Messy field of various plants.,-5,120,20","it looks very simple and childlike,-31,20,20","Looks as if a toddler painted it,-20,120,20","Love the representation of home,22,400,20","Luke","it looks very simple and childlike,-31,20,20","John","Looks as if a toddler painted it,-20,120,20","Alexander","Messy field of various plants.,-5,120,20","2"
"19981","","survey-text","52","380546","0.0-51.0-0.0","A19H6QRCGKBOUH","","","","{""Q0"":""this is not my idea of art""}","","","","","","","","","","","","","","","","","","","","","","",""
"5478.399999976158","","image-slider-response","53","386029","0.0-52.0","A19H6QRCGKBOUH","","","","","-50","","","","","","","","","","","","","","","","","","","","","",""
"null","","image-button-response","54","391049","0.0-53.0","A19H6QRCGKBOUH","img_art/13.jpg","null","","","","","","","","","","","","","","","","","","","","","","","","",""
"1839","","image-button-response","55","392895","0.0-54.0","A19H6QRCGKBOUH","img_art/13.jpg","0","","","","","","","","","","","","","","","","","","","","","","","","",""
"5518","","image-button-response","56","398424","0.0-55.0-0.0","A19H6QRCGKBOUH","img_art/13.jpg","5","","","","","","","","","","","","","","","","","","","","","","","","",""
"6955","","image-button-response","57","405390","0.0-56.0-0.0","A19H6QRCGKBOUH","img_art/13.jpg","0","","","","","","","","","","","","","","","","","","","","","","","","",""
"17711","","image-button-response","58","426607","0.0-56.1-0.1","A19H6QRCGKBOUH","img_art/13.jpg","2","","","","","","","","","","","","","","","","","","","","","","","","",""
"null","","html-keyboard-response","59","428117","0.0-57.0","A19H6QRCGKBOUH","<p style=""font-size: 48px;"">+</p>","","","","","null","allTrialResponses","1500","1","2","img_art/13.jpg","-50","this is not my idea of art","Timothy,Antonio,Alexander,Luke,John,Steven","Doesnt really provoke an emotional responce,0,240,20","Pretty but didnt cause a reaction,33,220,20","Seeing the world through different lenses.,15,120,20","the monochrome of blue with splatters makes me excited and happy,36,20,20","Pretty and it reminds me of rain droplets running down a window on a rainy day.,40,120,20","It's just paint splatter, no real meaning to me,-50,160,20","Timothy","Doesnt really provoke an emotional responce,0,240,20","Steven","It's just paint splatter, no real meaning to me,-50,160,20","Alexander","Seeing the world through different lenses.,15,120,20","4"
"21275","","survey-text","60","449407","0.0-58.0-0.0","A19H6QRCGKBOUH","","","","{""Q0"":""what is this disgusting mess supposed to be, if anything?""}","","","","","","","","","","","","","","","","","","","","","","",""
"4819","","image-slider-response","61","454233","0.0-59.0","A19H6QRCGKBOUH","","","","","-50","","","","","","","","","","","","","","","","","","","","","",""
"null","","image-button-response","62","459244","0.0-60.0","A19H6QRCGKBOUH","img_art/1.jpg","null","","","","","","","","","","","","","","","","","","","","","","","","",""
"5556","","image-button-response","63","464805","0.0-61.0","A19H6QRCGKBOUH","img_art/1.jpg","2","","","","","","","","","","","","","","","","","","","","","","","","",""
"1109","","image-button-response","64","465919","0.0-62.0-0.0","A19H6QRCGKBOUH","img_art/1.jpg","2","","","","","","","","","","","","","","","","","","","","","","","","",""
"4405","","image-button-response","65","473667","0.0-62.1-0.1","A19H6QRCGKBOUH","img_art/1.jpg","5","","","","","","","","","","","","","","","","","","","","","","","","",""
"13115","","image-button-response","66","486789","0.0-63.0-0.0","A19H6QRCGKBOUH","img_art/1.jpg","5","","","","","","","","","","","","","","","","","","","","","","","","",""
"5938","","image-button-response","67","496910","0.0-63.1-0.1","A19H6QRCGKBOUH","img_art/1.jpg","3","","","","","","","","","","","","","","","","","","","","","","","","",""
"null","","html-keyboard-response","68","497925","0.0-64.0","A19H6QRCGKBOUH","<p style=""font-size: 48px;"">+</p>","","","","","null","allTrialResponses","1000","1","3","img_art/1.jpg","-50","what is this disgusting mess supposed to be, if anything?","Timothy,Dakota,Alexander,Nicholas,Shane,Steven","This one has a pleasent energy,15,240,20","soft and touchable, muddled,15,280,20","Flat colors with no flavor.,5,120,20","Love the colors but it makes me feel like someone is looking at me through it,38,240,20","Warmth of the sun,22,80,20","It's fine, but its like something you'd see in the restroom of a cheap restaurant,10,160,20","Alexander","Flat colors with no flavor.,5,120,20","Steven","It's fine, but its like something you'd see in the restroom of a cheap restaurant,10,160,20","Nicholas","Love the colors but it makes me feel like someone is looking at me through it,38,240,20","8"
"38573","","survey-text","69","536526","0.0-65.0-0.0","A19H6QRCGKBOUH","","","","{""Q0"":""did a preschooler paint this with second hand watercolors?""}","","","","","","","","","","","","","","","","","","","","","","",""
"5712.299999952316","","image-slider-response","70","542250","0.0-66.0","A19H6QRCGKBOUH","","","","","-27","","","","","","","","","","","","","","","","","","","","","",""
"3323","","image-button-response","71","547270","0.0-67.0","A19H6QRCGKBOUH","img_art/6.jpg","0","","","","","","","","","","","","","","","","","","","","","","","","",""
"11812","","image-button-response","72","559089","0.0-68.0","A19H6QRCGKBOUH","img_art/6.jpg","2","","","","","","","","","","","","","","","","","","","","","","","","",""
"6343","","image-button-response","73","565442","0.0-69.0-0.0","A19H6QRCGKBOUH","img_art/6.jpg","1","","","","","","","","","","","","","","","","","","","","","","","","",""
"3302","","image-button-response","74","568756","0.0-70.0-0.0","A19H6QRCGKBOUH","img_art/6.jpg","0","","","","","","","","","","","","","","","","","","","","","","","","",""
"null","","html-keyboard-response","75","570277","0.0-71.0","A19H6QRCGKBOUH","<p style=""font-size: 48px;"">+</p>","","","","","null","allTrialResponses","1500","1","4","img_art/6.jpg","-27","did a preschooler paint this with second hand watercolors?","Matthew,Christopher,Alexander,Nicholas,Alexis,Steven","A lot of people will lvoe this, I do not.,1,120,20","it's interesting but I don't love it,10,160,20","Desert that's too simple.,-15,120,20","It isnt bad but sort of too bland,0,240,20","This looks like a crow, sort of bleak,-26,140,20","This is interesting, I feel solitude, and loneliness from this.,13,160,20","Alexander","Desert that's too simple.,-15,120,20","Christopher","it's interesting but I don't love it,10,160,20","Matthew","A lot of people will lvoe this, I do not.,1,120,20","8"
"28303","","survey-text","76","598600","0.0-72.0-0.0","A19H6QRCGKBOUH","","","","{""Q0"":""done by a preschooler with indecisiveness issues""}","","","","","","","","","","","","","","","","","","","","","","",""
"4960.199999928474","","image-slider-response","77","603568","0.0-73.0","A19H6QRCGKBOUH","","","","","-50","","","","","","","","","","","","","","","","","","","","","",""
"3706","","image-button-response","78","608578","0.0-74.0","A19H6QRCGKBOUH","img_art/2.jpg","1","","","","","","","","","","","","","","","","","","","","","","","","",""
"858","","image-button-response","79","609444","0.0-75.0","A19H6QRCGKBOUH","img_art/2.jpg","1","","","","","","","","","","","","","","","","","","","","","","","","",""
"3202","","image-button-response","80","612653","0.0-76.0-0.0","A19H6QRCGKBOUH","img_art/2.jpg","2","","","","","","","","","","","","","","","","","","","","","","","","",""
"4946","","image-button-response","81","617605","0.0-77.0-0.0","A19H6QRCGKBOUH","img_art/2.jpg","3","","","","","","","","","","","","","","","","","","","","","","","","",""
"null","","html-keyboard-response","82","618118","0.0-78.0","A19H6QRCGKBOUH","<p style=""font-size: 48px;"">+</p>","","","","","null","allTrialResponses","500","1","5","img_art/2.jpg","-50","done by a preschooler with indecisiveness issues","Matthew,Christopher,Alexander,Mason,Justin,Zachary","I think I can make out a face in there.,25,120,20","nope. just looks like a mess,-28,160,20","Old, dull, messy.,-10,120,20","retro, amateurish, not a fan of the colors together.,-10,100,20","This one feels rather flat and not engaging.,-15,280,20","I am not a fan of the color story. I am confused by the piece and therefore do not like it.,-21,400,20","Christopher","nope. just looks like a mess,-28,160,20","Alexander","Old, dull, messy.,-10,120,20","Mason","retro, amateurish, not a fan of the colors together.,-10,100,20","8"
"6286","","survey-text","83","624440","0.0-79.0-0.0","A19H6QRCGKBOUH","","","","{""Q0"":""sky""}","","","","","","","","","","","","","","","","","","","","","","",""
"36680","","survey-text","84","661126","0.0-80.0-0.0","A19H6QRCGKBOUH","","","","{""Q0"":""the stuff of nightmares""}","","","","","","","","","","","","","","","","","","","","","","",""
"5273","","image-slider-response","85","666404","0.0-81.0","A19H6QRCGKBOUH","","","","","-50","","","","","","","","","","","","","","","","","","","","","",""
"4155","","image-button-response","86","671428","0.0-82.0","A19H6QRCGKBOUH","img_art/19.jpg","2","","","","","","","","","","","","","","","","","","","","","","","","",""
"1785","","image-button-response","87","673222","0.0-83.0","A19H6QRCGKBOUH","img_art/19.jpg","2","","","","","","","","","","","","","","","","","","","","","","","","",""
"7993","","image-button-response","88","681223","0.0-84.0-0.0","A19H6QRCGKBOUH","img_art/19.jpg","0","","","","","","","","","","","","","","","","","","","","","","","","",""
"1263","","image-button-response","89","682491","0.0-85.0-0.0","A19H6QRCGKBOUH","img_art/19.jpg","0","","","","","","","","","","","","","","","","","","","","","","","","",""
"945","","image-button-response","90","687299","0.0-85.1-0.1","A19H6QRCGKBOUH","img_art/19.jpg","1","","","","","","","","","","","","","","","","","","","","","","","","",""
"null","","html-keyboard-response","91","688306","0.0-86.0","A19H6QRCGKBOUH","<p style=""font-size: 48px;"">+</p>","","","","","null","allTrialResponses","1000","1","6","img_art/19.jpg","-50","the stuff of nightmares","Dustin,Christopher,Alexander,Mason,Jack,Cole","Too busy, makes me anxious and frustrated. Lots of movement in the brush strokes.,-9,20,20","too much of a mix of lines and shading,-22,160,20","Messy pantry full of food.,5,120,20","calming, like the drips,25,100,20","love the muted colors and added sketchy lines. calming without being boring.,50,320,20","Its simple and the colors i like. It reminds me of chagall,34,200,20","Alexander","Messy pantry full of food.,5,120,20","Dustin","Too busy, makes me anxious and frustrated. Lots of movement in the brush strokes.,-9,20,20","Christopher","too much of a mix of lines and shading,-22,160,20","10"
"22467","","survey-text","92","710785","0.0-87.0-0.0","A19H6QRCGKBOUH","","","","{""Q0"":""crayola crayons, anyone?""}","","","","","","","","","","","","","","","","","","","","","","",""
"5379.299999952316","","image-slider-response","93","716172","0.0-88.0","A19H6QRCGKBOUH","","","","","-50","","","","","","","","","","","","","","","","","","","","","",""
"4747","","image-button-response","94","721195","0.0-89.0","A19H6QRCGKBOUH","img_art/9.jpg","2","","","","","","","","","","","","","","","","","","","","","","","","",""
"1050","","image-button-response","95","722254","0.0-90.0","A19H6QRCGKBOUH","img_art/9.jpg","2","","","","","","","","","","","","","","","","","","","","","","","","",""
"5034","","image-button-response","96","727298","0.0-91.0-0.0","A19H6QRCGKBOUH","img_art/9.jpg","5","","","","","","","","","","","","","","","","","","","","","","","","",""
"19131","","image-button-response","97","746440","0.0-92.0-0.0","A19H6QRCGKBOUH","img_art/9.jpg","1","","","","","","","","","","","","","","","","","","","","","","","","",""
"null","","html-keyboard-response","98","746962","0.0-93.0","A19H6QRCGKBOUH","<p style=""font-size: 48px;"">+</p>","","","","","null","allTrialResponses","500","1","7","img_art/9.jpg","-50","crayola crayons, anyone?","Dustin,Christopher,Alexander,Jared,Mitchell,Peter","I like the blues and pinks. The woman lying down communicates relaxation. It is a serene, calming scene,30,20,20","I really like the color balance but the image is odd,-5,160,20","The mouth of an ugly beast.,-25,120,20","it looks like a lady resting. it is soothing.,4,400,20","Cozy, In her own world. feminine .,30,180,20","Looks like a monster's teeth , unsettling,-18,320,20","Alexander","The mouth of an ugly beast.,-25,120,20","Peter","Looks like a monster's teeth , unsettling,-18,320,20","Christopher","I really like the color balance but the image is odd,-5,160,20","10"
"17014","","survey-text","99","763998","0.0-94.0-0.0","A19H6QRCGKBOUH","","","","{""Q0"":""can't make any sense of it""}","","","","","","","","","","","","","","","","","","","","","","",""
"5147.899999976158","","image-slider-response","100","769154","0.0-95.0","A19H6QRCGKBOUH","","","","","-49","","","","","","","","","","","","","","","","","","","","","",""
"null","","image-button-response","101","774162","0.0-96.0","A19H6QRCGKBOUH","img_art/10.jpg","null","","","","","","","","","","","","","","","","","","","","","","","","",""
"2575","","image-button-response","102","776743","0.0-97.0","A19H6QRCGKBOUH","img_art/10.jpg","5","","","","","","","","","","","","","","","","","","","","","","","","",""
"5974","","image-button-response","103","782727","0.0-98.0-0.0","A19H6QRCGKBOUH","img_art/10.jpg","2","","","","","","","","","","","","","","","","","","","","","","","","",""
"3219","","image-button-response","104","785956","0.0-99.0-0.0","A19H6QRCGKBOUH","img_art/10.jpg","0","","","","","","","","","","","","","","","","","","","","","","","","",""
"null","","html-keyboard-response","105","787474","0.0-100.0","A19H6QRCGKBOUH","<p style=""font-size: 48px;"">+</p>","","","","","null","allTrialResponses","1500","1","8","img_art/10.jpg","-49","can't make any sense of it","Cody,Christopher,Alexander,Angel,Travis,Peter","Feels musical .....,40,180,20","i like this, the mix of brush textures is cool,24,160,20","Roller coaster on an island.,9,120,20","This piece makes me think of music. The music is dark; I like dark music so it edges toward good.,10,180,20","I liked it...it looked somewhat like a guitar.,32,260,20","I don't hate but don't like it because it looks like a oil slick,2,320,20","Peter","I don't hate but don't like it because it looks like a oil slick,2,320,20","Alexander","Roller coaster on an island.,9,120,20","Cody","Feels musical .....,40,180,20","10"
"63603","","survey-text","106","851098","0.0-101.0-0.0","A19H6QRCGKBOUH","","","","{""Q0"":""ugly broken tiles""}","","","","","","","","","","","","","","","","","","","","","","",""
"6614.900000095367","","image-slider-response","107","857720","0.0-102.0","A19H6QRCGKBOUH","","","","","-50","","","","","","","","","","","","","","","","","","","","","",""
"null","","image-button-response","108","862747","0.0-103.0","A19H6QRCGKBOUH","img_art/8.jpg","null","","","","","","","","","","","","","","","","","","","","","","","","",""
"6677","","image-button-response","109","869434","0.0-104.0","A19H6QRCGKBOUH","img_art/8.jpg","1","","","","","","","","","","","","","","","","","","","","","","","","",""
"1605","","image-button-response","110","871049","0.0-105.0-0.0","A19H6QRCGKBOUH","img_art/8.jpg","1","","","","","","","","","","","","","","","","","","","","","","","","",""
"6368","","image-button-response","111","882095","0.0-105.1-0.1","A19H6QRCGKBOUH","img_art/8.jpg","2","","","","","","","","","","","","","","","","","","","","","","","","",""
"1398","","image-button-response","112","883501","0.0-106.0-0.0","A19H6QRCGKBOUH","img_art/8.jpg","0","","","","","","","","","","","","","","","","","","","","","","","","",""
"null","","html-keyboard-response","113","884018","0.0-107.0","A19H6QRCGKBOUH","<p style=""font-size: 48px;"">+</p>","","","","","null","allTrialResponses","500","1","9","img_art/8.jpg","-50","ugly broken tiles","Cody,Samuel,Alexander,Derek,Austin,Peter","Love the colors & block-style,50,180,20","being watched over,17,400,20","Falling into a city's heart.,10,120,20","It's simply gorgeous. This artist is very talented,50,360,20","Very unique and different,31,240,20","I see water and structures that resemble Ancient Rome,15,320,20","Samuel","being watched over,17,400,20","Alexander","Falling into a city's heart.,10,120,20","Cody","Love the colors & block-style,50,180,20","12"
"19556","","survey-text","114","903598","0.0-108.0-0.0","A19H6QRCGKBOUH","","","","{""Q0"":""looking at this gives me a headache""}","","","","","","","","","","","","","","","","","","","","","","",""
"4671.399999976158","","image-slider-response","115","908277","0.0-109.0","A19H6QRCGKBOUH","","","","","-50","","","","","","","","","","","","","","","","","","","","","",""
"3412","","image-button-response","116","913303","0.0-110.0","A19H6QRCGKBOUH","img_art/25.jpg","1","","","","","","","","","","","","","","","","","","","","","","","","",""
"228","","image-button-response","117","913538","0.0-111.0","A19H6QRCGKBOUH","img_art/25.jpg","1","","","","","","","","","","","","","","","","","","","","","","","","",""
"5931","","image-button-response","118","919477","0.0-112.0-0.0","A19H6QRCGKBOUH","img_art/25.jpg","5","","","","","","","","","","","","","","","","","","","","","","","","",""
"5896","","image-button-response","119","925385","0.0-113.0-0.0","A19H6QRCGKBOUH","img_art/25.jpg","2","","","","","","","","","","","","","","","","","","","","","","","","",""
"null","","html-keyboard-response","120","926901","0.0-114.0","A19H6QRCGKBOUH","<p style=""font-size: 48px;"">+</p>","","","","","null","allTrialResponses","1500","1","10","img_art/25.jpg","-50","looking at this gives me a headache","Cody,Samuel,Alexander,Nathan,Colton,Brendan","Like the colors and the figure,30,180,20","reminds me of burning man,18,400,20","Ancient gods above you.,20,120,20","I like it, a bit cryptic and obscene, I enjoy that,30,200,20","the colors are pretty,11,220,20","is this an ancient woman?,-16,340,20","Samuel","reminds me of burning man,18,400,20","Brendan","is this an ancient woman?,-16,340,20","Alexander","Ancient gods above you.,20,120,20","12"
"5922","","survey-text","121","932854","0.0-115.0-0.0","A19H6QRCGKBOUH","","","","{""Q0"":""our""}","","","","","","","","","","","","","","","","","","","","","","",""
"35955","","survey-text","122","968815","0.0-116.0-0.0","A19H6QRCGKBOUH","","","","{""Q0"":""an artist used this piece of canvas to clean brushes on""}","","","","","","","","","","","","","","","","","","","","","","",""
"34096.5","","image-slider-response","123","1002918","0.0-117.0","A19H6QRCGKBOUH","","","","","-50","","","","","","","","","","","","","","","","","","","","","",""
"3262","","image-button-response","124","1007932","0.0-118.0","A19H6QRCGKBOUH","img_art/30.jpg","0","","","","","","","","","","","","","","","","","","","","","","","","",""
"748","","image-button-response","125","1008687","0.0-119.0","A19H6QRCGKBOUH","img_art/30.jpg","0","","","","","","","","","","","","","","","","","","","","","","","","",""
"6466","","image-button-response","126","1015160","0.0-120.0-0.0","A19H6QRCGKBOUH","img_art/30.jpg","5","","","","","","","","","","","","","","","","","","","","","","","","",""
"7523","","image-button-response","127","1022692","0.0-121.0-0.0","A19H6QRCGKBOUH","img_art/30.jpg","2","","","","","","","","","","","","","","","","","","","","","","","","",""
"null","","html-keyboard-response","128","1024216","0.0-122.0","A19H6QRCGKBOUH","<p style=""font-size: 48px;"">+</p>","","","","","null","allTrialResponses","1500","1","11","img_art/30.jpg","-50","an artist used this piece of canvas to clean brushes on","Isaac,Samuel,Alexander,Lucas,Sean,Brendan","It looks like it was painted in 5 minutes.,-32,280,20","perceiving greatness,20,400,20","Sleek eel in the abstract ocean.,30,120,20","I like the way the artist has painted his work.,40,380,20","the colors look nice,19,40,20","i cant really get it,-35,340,20","Isaac","It looks like it was painted in 5 minutes.,-32,280,20","Brendan","i cant really get it,-35,340,20","Alexander","Sleek eel in the abstract ocean.,30,120,20","12"
"37425","","survey-text","129","1061663","0.0-123.0-0.0","A19H6QRCGKBOUH","","","","{""Q0"":""chicken scratch and with only two crayons, pure genius""}","","","","","","","","","","","","","","","","","","","","","","",""
"9425","","image-slider-response","130","1071093","0.0-124.0","A19H6QRCGKBOUH","","","","","-50","","","","","","","","","","","","","","","","","","","","","",""
"3741","","image-button-response","131","1076103","0.0-125.0","A19H6QRCGKBOUH","img_art/3.jpg","0","","","","","","","","","","","","","","","","","","","","","","","","",""
"1045","","image-button-response","132","1077155","0.0-126.0","A19H6QRCGKBOUH","img_art/3.jpg","0","","","","","","","","","","","","","","","","","","","","","","","","",""
"3636","","image-button-response","133","1080800","0.0-127.0-0.0","A19H6QRCGKBOUH","img_art/3.jpg","3","","","","","","","","","","","","","","","","","","","","","","","","",""
"3410","","image-button-response","134","1084220","0.0-128.0-0.0","A19H6QRCGKBOUH","img_art/3.jpg","2","","","","","","","","","","","","","","","","","","","","","","","","",""
"null","","html-keyboard-response","135","1085729","0.0-129.0","A19H6QRCGKBOUH","<p style=""font-size: 48px;"">+</p>","","","","","null","allTrialResponses","1500","1","12","img_art/3.jpg","-50","chicken scratch and with only two crayons, pure genius","Isaac,Seth,Alexander,Benjamin,Brian,Brendan","It looks like scribbles.,-40,280,20","I didn't feel the color choice when I first looked. I did however like the placement of the gray.,-28,60,20","Somewhere between a child's art and a poorly drawn battle map.,8,120,20","seems to be a lot of angry scribble.,-20,260,20","this is a very nice emotion,27,380,20","i really cant get it,-44,340,20","Isaac","It looks like scribbles.,-40,280,20","Benjamin","seems to be a lot of angry scribble.,-20,260,20","Alexander","Somewhere between a child's art and a poorly drawn battle map.,8,120,20","12"
"68428","","survey-text","136","1154180","0.0-130.0-0.0","A19H6QRCGKBOUH","","","","{""Q0"":""looks like a waterfall but def not Bob Ross""}","","","","","","","","","","","","","","","","","","","","","","",""
"5345","","image-slider-response","137","1159534","0.0-131.0","A19H6QRCGKBOUH","","","","","-27","","","","","","","","","","","","","","","","","","","","","",""
"null","","image-button-response","138","1164544","0.0-132.0","A19H6QRCGKBOUH","img_art/24.jpg","null","","","","","","","","","","","","","","","","","","","","","","","","",""
"2260","","image-button-response","139","1166812","0.0-133.0","A19H6QRCGKBOUH","img_art/24.jpg","4","","","","","","","","","","","","","","","","","","","","","","","","",""
"9376","","image-button-response","140","1176198","0.0-134.0-0.0","A19H6QRCGKBOUH","img_art/24.jpg","1","","","","","","","","","","","","","","","","","","","","","","","","",""
"2027","","image-button-response","141","1178236","0.0-135.0-0.0","A19H6QRCGKBOUH","img_art/24.jpg","2","","","","","","","","","","","","","","","","","","","","","","","","",""
"null","","html-keyboard-response","142","1178750","0.0-136.0","A19H6QRCGKBOUH","<p style=""font-size: 48px;"">+</p>","","","","","null","allTrialResponses","500","1","13","img_art/24.jpg","-27","looks like a waterfall but def not Bob Ross","Isaac,Jeremy,Alexander,Benjamin,Chase,Kevin","The colors are relaxing and cheerful.,32,280,20","somewhat happy. I like the colors,38,60,20","Water through the fruit.,15,120,20","peaceful and calm yet joyous.,50,260,20","This one isn't that abstract. It clearly looks like a waterfall.,31,120,20","What a nice refreshing waterfall.,39,320,20","Chase","This one isn't that abstract. It clearly looks like a waterfall.,31,120,20","Jeremy","somewhat happy. I like the colors,38,60,20","Alexander","Water through the fruit.,15,120,20","12"
"55418","","survey-text","143","1234181","0.0-137.0-0.0","A19H6QRCGKBOUH","","","","{""Q0"":""a peanut butter footprint mess on the carpet?""}","","","","","","","","","","","","","","","","","","","","","","",""
"4801.399999976158","","image-slider-response","144","1238992","0.0-138.0","A19H6QRCGKBOUH","","","","","-50","","","","","","","","","","","","","","","","","","","","","",""
"null","","image-button-response","145","1244015","0.0-139.0","A19H6QRCGKBOUH","img_art/4.jpg","null","","","","","","","","","","","","","","","","","","","","","","","","",""
"315","","image-button-response","146","1244337","0.0-140.0","A19H6QRCGKBOUH","img_art/4.jpg","0","","","","","","","","","","","","","","","","","","","","","","","","",""
"2121","","image-button-response","147","1246469","0.0-141.0-0.0","A19H6QRCGKBOUH","img_art/4.jpg","2","","","","","","","","","","","","","","","","","","","","","","","","",""
"3416","","image-button-response","148","1249897","0.0-142.0-0.0","A19H6QRCGKBOUH","img_art/4.jpg","4","","","","","","","","","","","","","","","","","","","","","","","","",""
"null","","html-keyboard-response","149","1250407","0.0-143.0","A19H6QRCGKBOUH","<p style=""font-size: 48px;"">+</p>","","","","","null","allTrialResponses","500","1","14","img_art/4.jpg","-50","a peanut butter footprint mess on the carpet?","Edward,Jeremy,Alexander,Jordan,Chase,Jorge","It reminds me of something a kid would make for their parents,13,60,20","the colors are calming,31,60,20","Pretzel noodles.,7,120,20","A hand reaching for something it cannot obtain,-9,160,20","It looks like smeared poop.,-27,120,20","creepy as it looks like fingernails,-23,180,20","Edward","It reminds me of something a kid would make for their parents,13,60,20","Alexander","Pretzel noodles.,7,120,20","Chase","It looks like smeared poop.,-27,120,20","12"
"23615","","survey-text","150","1274044","0.0-144.0-0.0","A19H6QRCGKBOUH","","","","{""Q0"":""i want some of what this artist has been smoking""}","","","","","","","","","","","","","","","","","","","","","","",""
"7209.699999928474","","image-slider-response","151","1281260","0.0-145.0","A19H6QRCGKBOUH","","","","","-38","","","","","","","","","","","","","","","","","","","","","",""
"null","","image-button-response","152","1286285","0.0-146.0","A19H6QRCGKBOUH","img_art/26.jpg","null","","","","","","","","","","","","","","","","","","","","","","","","",""
"4621","","image-button-response","153","1290913","0.0-147.0","A19H6QRCGKBOUH","img_art/26.jpg","4","","","","","","","","","","","","","","","","","","","","","","","","",""
"2797","","image-button-response","154","1293721","0.0-148.0-0.0","A19H6QRCGKBOUH","img_art/26.jpg","2","","","","","","","","","","","","","","","","","","","","","","","","",""
"6489","","image-button-response","155","1300221","0.0-149.0-0.0","A19H6QRCGKBOUH","img_art/26.jpg","5","","","","","","","","","","","","","","","","","","","","","","","","",""
"null","","html-keyboard-response","156","1300742","0.0-150.0","A19H6QRCGKBOUH","<p style=""font-size: 48px;"">+</p>","","","","","null","allTrialResponses","500","1","15","img_art/26.jpg","-38","i want some of what this artist has been smoking","Edward,Brett,Alexander,Jesus,Chase,Alejandro","Elevator art but the watercolors are good,29,60,20","Picturesque little town,45,360,20","Confusing park picture.,8,120,20","Very interesting to look at, I like the shapes, textures and colors.,30,100,20","I don't really see the point in this painting.,-16,120,20","Do not like water colors at all,-50,80,20","Chase","I don't really see the point in this painting.,-16,120,20","Alexander","Confusing park picture.,8,120,20","Alejandro","Do not like water colors at all,-50,80,20","12"
"5865","","survey-text","157","1306648","0.0-151.0-0.0","A19H6QRCGKBOUH","","","","{""Q0"":""course""}","","","","","","","","","","","","","","","","","","","","","","",""
"89182","","survey-text","158","1395836","0.0-152.0-0.0","A19H6QRCGKBOUH","","","","{""Q0"":""let's see how many black dots we can put on the canvas""}","","","","","","","","","","","","","","","","","","","","","","",""
"7216.700000047684","","image-slider-response","159","1403061","0.0-153.0","A19H6QRCGKBOUH","","","","","-49","","","","","","","","","","","","","","","","","","","","","",""
"null","","image-button-response","160","1408067","0.0-154.0","A19H6QRCGKBOUH","img_art/15.jpg","null","","","","","","","","","","","","","","","","","","","","","","","","",""
"1560","","image-button-response","161","1409632","0.0-155.0","A19H6QRCGKBOUH","img_art/15.jpg","3","","","","","","","","","","","","","","","","","","","","","","","","",""
"277","","image-button-response","162","1409916","0.0-156.0-0.0","A19H6QRCGKBOUH","img_art/15.jpg","3","","","","","","","","","","","","","","","","","","","","","","","","",""
"1280","","image-button-response","163","1415269","0.0-156.1-0.1","A19H6QRCGKBOUH","img_art/15.jpg","4","","","","","","","","","","","","","","","","","","","","","","","","",""
"12555","","image-button-response","164","1427829","0.0-157.0-0.0","A19H6QRCGKBOUH","img_art/15.jpg","1","","","","","","","","","","","","","","","","","","","","","","","","",""
"null","","html-keyboard-response","165","1428847","0.0-158.0","A19H6QRCGKBOUH","<p style=""font-size: 48px;"">+</p>","","","","","null","allTrialResponses","1000","1","16","img_art/15.jpg","-49","let's see how many black dots we can put on the canvas","Cameron,Tanner,Alexander,Jake,Chase,Alejandro","This one reminds me of a postage stamp, but branches and leaves. Kind of fun.,15,60,20","darkness, hatred, fear,-29,180,20","Leafs spread on the ground.,27,120,20","This looks odd and was not well executed.,-3,360,20","I don't like how the black dots are aligned.,-20,120,20","The blotted black spots create a nice contrast between the brush strokes within the center and sides. I like it.,41,80,20","Jake","This looks odd and was not well executed.,-3,360,20","Chase","I don't like how the black dots are aligned.,-20,120,20","Tanner","darkness, hatred, fear,-29,180,20","14"
"24764","","survey-text","166","1453639","0.0-159.0-0.0","A19H6QRCGKBOUH","","","","{""Q0"":""looks like cutouts from a newspaper, best one so far""}","","","","","","","","","","","","","","","","","","","","","","",""
"4704.600000023842","","image-slider-response","167","1458350","0.0-160.0","A19H6QRCGKBOUH","","","","","-17","","","","","","","","","","","","","","","","","","","","","",""
"4446","","image-button-response","168","1463367","0.0-161.0","A19H6QRCGKBOUH","img_art/16.jpg","2","","","","","","","","","","","","","","","","","","","","","","","","",""
"1322","","image-button-response","169","1464698","0.0-162.0","A19H6QRCGKBOUH","img_art/16.jpg","2","","","","","","","","","","","","","","","","","","","","","","","","",""
"2956","","image-button-response","170","1467662","0.0-163.0-0.0","A19H6QRCGKBOUH","img_art/16.jpg","0","","","","","","","","","","","","","","","","","","","","","","","","",""
"9487","","image-button-response","171","1477159","0.0-164.0-0.0","A19H6QRCGKBOUH","img_art/16.jpg","4","","","","","","","","","","","","","","","","","","","","","","","","",""
"null","","html-keyboard-response","172","1477668","0.0-165.0","A19H6QRCGKBOUH","<p style=""font-size: 48px;"">+</p>","","","","","null","allTrialResponses","500","1","17","img_art/16.jpg","-17","looks like cutouts from a newspaper, best one so far","Gabriel,Tanner,Joseph,Jake,Chase,Jesse","its disturbing! what the heck,-27,160,20","sad. desth of childhood,-5,180,20","Looks upsetting. Like it's actually graphic violence but you can't tell.,-24,220,20","This is creepy and puerile.,-45,360,20","Seems very twisted and dark.,-35,120,20","I dont feel any real response,5,80,20","Joseph","Looks upsetting. Like it's actually graphic violence but you can't tell.,-24,220,20","Gabriel","its disturbing! what the heck,-27,160,20","Chase","Seems very twisted and dark.,-35,120,20","14"
"21680","","survey-text","173","1499369","0.0-166.0-0.0","A19H6QRCGKBOUH","","","","{""Q0"":""this is a joke, right?""}","","","","","","","","","","","","","","","","","","","","","","",""
"5188.5","","image-slider-response","174","1504559","0.0-167.0","A19H6QRCGKBOUH","","","","","-50","","","","","","","","","","","","","","","","","","","","","",""
"3011","","image-button-response","175","1509573","0.0-168.0","A19H6QRCGKBOUH","img_art/18.jpg","0","","","","","","","","","","","","","","","","","","","","","","","","",""
"1179","","image-button-response","176","1510760","0.0-169.0","A19H6QRCGKBOUH","img_art/18.jpg","0","","","","","","","","","","","","","","","","","","","","","","","","",""
"6176","","image-button-response","177","1516945","0.0-170.0-0.0","A19H6QRCGKBOUH","img_art/18.jpg","3","","","","","","","","","","","","","","","","","","","","","","","","",""
"281","","image-button-response","178","1517230","0.0-171.0-0.0","A19H6QRCGKBOUH","img_art/18.jpg","3","","","","","","","","","","","","","","","","","","","","","","","","",""
"1489","","image-button-response","179","1522099","0.0-171.1-0.1","A19H6QRCGKBOUH","img_art/18.jpg","1","","","","","","","","","","","","","","","","","","","","","","","","",""
"null","","html-keyboard-response","180","1523109","0.0-172.0","A19H6QRCGKBOUH","<p style=""font-size: 48px;"">+</p>","","","","","null","allTrialResponses","1000","1","18","img_art/18.jpg","-50","this is a joke, right?","Gabriel,Kyle,Joseph,Juan,Chase,Bryan","its messy, it seems angry,-21,160,20","I feel indifferent about this one,0,340,20","It's like a ship, but a freaky ship.,-11,220,20","Again, this is too abtract.,-25,260,20","Kinda neat, looks like cavalry, or a knight.,15,120,20","First saw sailing ship in bad weather but then saw woman in upper left - not sure what I'm seeing.,21,400,20","Gabriel","its messy, it seems angry,-21,160,20","Juan","Again, this is too abtract.,-25,260,20","Kyle","I feel indifferent about this one,0,340,20","16"
"61032","","survey-text","181","1584173","0.0-173.0-0.0","A19H6QRCGKBOUH","","","","{""Q0"":""just looks like a mess""}","","","","","","","","","","","","","","","","","","","","","","",""
"5454.399999976158","","image-slider-response","182","1589636","0.0-174.0","A19H6QRCGKBOUH","","","","","-50","","","","","","","","","","","","","","","","","","","","","",""
"null","","image-button-response","183","1594654","0.0-175.0","A19H6QRCGKBOUH","img_art/14.jpg","null","","","","","","","","","","","","","","","","","","","","","","","","",""
"1797","","image-button-response","184","1596459","0.0-176.0","A19H6QRCGKBOUH","img_art/14.jpg","5","","","","","","","","","","","","","","","","","","","","","","","","",""
"2985","","image-button-response","185","1599449","0.0-177.0-0.0","A19H6QRCGKBOUH","img_art/14.jpg","3","","","","","","","","","","","","","","","","","","","","","","","","",""
"15654","","image-button-response","186","1615113","0.0-178.0-0.0","A19H6QRCGKBOUH","img_art/14.jpg","0","","","","","","","","","","","","","","","","","","","","","","","","",""
"null","","html-keyboard-response","187","1616123","0.0-179.0","A19H6QRCGKBOUH","<p style=""font-size: 48px;"">+</p>","","","","","null","allTrialResponses","1000","1","19","img_art/14.jpg","-50","just looks like a mess","Gabriel,Kyle,Victor,Juan,Adrian,Hunter","i like this one!,23,160,20","The colors are nice and it reminds me of a shrub or tree,10,340,20","Meh. Pleasant to look at. Colors are nice,6,340,20","I don't like the colors, but I espeically don't like all the negative space.,-20,260,20","Warm, positive, growth.,8,60,20","makes me feel sad,-2,240,20","Hunter","makes me feel sad,-2,240,20","Juan","I don't like the colors, but I espeically don't like all the negative space.,-20,260,20","Gabriel","i like this one!,23,160,20","16"
"38179","","survey-text","188","1654335","0.0-180.0-0.0","A19H6QRCGKBOUH","","","","{""Q0"":""bad weather, i don't like it""}","","","","","","","","","","","","","","","","","","","","","","",""
"6582.700000047684","","image-slider-response","189","1660926","0.0-181.0","A19H6QRCGKBOUH","","","","","-50","","","","","","","","","","","","","","","","","","","","","",""
"null","","image-button-response","190","1665934","0.0-182.0","A19H6QRCGKBOUH","img_art/21.jpg","null","","","","","","","","","","","","","","","","","","","","","","","","",""
"2413","","image-button-response","191","1668350","0.0-183.0","A19H6QRCGKBOUH","img_art/21.jpg","4","","","","","","","","","","","","","","","","","","","","","","","","",""
"3924","","image-button-response","192","1672282","0.0-184.0-0.0","A19H6QRCGKBOUH","img_art/21.jpg","5","","","","","","","","","","","","","","","","","","","","","","","","",""
"1852","","image-button-response","193","1674146","0.0-185.0-0.0","A19H6QRCGKBOUH","img_art/21.jpg","1","","","","","","","","","","","","","","","","","","","","","","","","",""
"null","","html-keyboard-response","194","1675663","0.0-186.0","A19H6QRCGKBOUH","<p style=""font-size: 48px;"">+</p>","","","","","null","allTrialResponses","1500","1","20","img_art/21.jpg","-50","bad weather, i don't like it","Gabriel,Kenneth,Daniel,Juan,Tyler,Hunter","i like watercolor,22,160,20","It actually reminded me of a place I've been to. So I had a positive reaction to it.,22,300,20","Nice asymmetry with maritime colors city meets the sea,34,320,20","The colors and softness work together to make something that's lovely.,42,260,20","War! But then, what? And then, what of it? Intention seems incomplete, or not fully committed to.,-19,320,20","feels like a harbor scene,11,240,20","Tyler","War! But then, what? And then, what of it? Intention seems incomplete, or not fully committed to.,-19,320,20","Hunter","feels like a harbor scene,11,240,20","Kenneth","It actually reminded me of a place I've been to. So I had a positive reaction to it.,22,300,20","16"
"5067","","survey-text","195","1680785","0.0-187.0-0.0","A19H6QRCGKBOUH","","","","{""Q0"":""we""}","","","","","","","","","","","","","","","","","","","","","","",""
"14717","","survey-text","196","1695510","0.0-188.0-0.0","A19H6QRCGKBOUH","","","","{""Q0"":""stained glass?""}","","","","","","","","","","","","","","","","","","","","","","",""
"4607.099999904633","","image-slider-response","197","1700124","0.0-189.0","A19H6QRCGKBOUH","","","","","-49","","","","","","","","","","","","","","","","","","","","","",""
"null","","image-button-response","198","1705132","0.0-190.0","A19H6QRCGKBOUH","img_art/22.jpg","null","","","","","","","","","","","","","","","","","","","","","","","","",""
"330","","image-button-response","199","1705470","0.0-191.0","A19H6QRCGKBOUH","img_art/22.jpg","3","","","","","","","","","","","","","","","","","","","","","","","","",""
"519","","image-button-response","200","1705996","0.0-192.0-0.0","A19H6QRCGKBOUH","img_art/22.jpg","3","","","","","","","","","","","","","","","","","","","","","","","","",""
"6002","","image-button-response","201","1715183","0.0-192.1-0.1","A19H6QRCGKBOUH","img_art/22.jpg","0","","","","","","","","","","","","","","","","","","","","","","","","",""
"18400","","image-button-response","202","1733595","0.0-193.0-0.0","A19H6QRCGKBOUH","img_art/22.jpg","1","","","","","","","","","","","","","","","","","","","","","","","","",""
"null","","html-keyboard-response","203","1734105","0.0-194.0","A19H6QRCGKBOUH","<p style=""font-size: 48px;"">+</p>","","","","","null","allTrialResponses","500","1","21","img_art/22.jpg","-49","stained glass?","Alex,Kenneth,William,Nathaniel,Tyler,Hunter","Not a huge fan of the blocks, also very abstract, I have no idea what it is,8,100,20","I really enjoy the blended colors.,20,300,20","love how the colors blend,42,380,20","Looks like a giant blob,-45,220,20","Like the colors, and the even blur. The more I look, the more a story forms. A very narrative image.,18,320,20","strong blending skills,7,240,20","Nathaniel","Looks like a giant blob,-45,220,20","Alex","Not a huge fan of the blocks, also very abstract, I have no idea what it is,8,100,20","Kenneth","I really enjoy the blended colors.,20,300,20","18"
"32635","","survey-text","204","1766773","0.0-195.0-0.0","A19H6QRCGKBOUH","","","","{""Q0"":""hard to be happy after looking at this""}","","","","","","","","","","","","","","","","","","","","","","",""
"5454.600000023842","","image-slider-response","205","1772234","0.0-196.0","A19H6QRCGKBOUH","","","","","-50","","","","","","","","","","","","","","","","","","","","","",""
"null","","image-button-response","206","1777249","0.0-197.0","A19H6QRCGKBOUH","img_art/20.jpg","null","","","","","","","","","","","","","","","","","","","","","","","","",""
"1707","","image-button-response","207","1778961","0.0-198.0","A19H6QRCGKBOUH","img_art/20.jpg","5","","","","","","","","","","","","","","","","","","","","","","","","",""
"6314","","image-button-response","208","1785281","0.0-199.0-0.0","A19H6QRCGKBOUH","img_art/20.jpg","1","","","","","","","","","","","","","","","","","","","","","","","","",""
"5322","","image-button-response","209","1790615","0.0-200.0-0.0","A19H6QRCGKBOUH","img_art/20.jpg","0","","","","","","","","","","","","","","","","","","","","","","","","",""
"null","","html-keyboard-response","210","1792140","0.0-201.0","A19H6QRCGKBOUH","<p style=""font-size: 48px;"">+</p>","","","","","null","allTrialResponses","1500","1","22","img_art/20.jpg","-50","hard to be happy after looking at this","Alex,Kenneth,Tristan,Nathaniel,Marcus,Paul","Reminds me of Dali for some reason, whom I don't like,-7,100,20","I want to like this more, but i wish it was more detailed. It's hard for me to see what it is.,5,300,20","Elements that are more defined are incongruous to the soft and melting nature of this painting,5,300,20","A bit hectic, but it does have a bit of coolness to it,6,220,20","I like the blues, and the sense of foreboding it makes me feel.,20,60,20","It looks like a junkyard and isn't appealing,-22,300,20","Paul","It looks like a junkyard and isn't appealing,-22,300,20","Kenneth","I want to like this more, but i wish it was more detailed. It's hard for me to see what it is.,5,300,20","Alex","Reminds me of Dali for some reason, whom I don't like,-7,100,20","18"
"42881","","survey-text","211","1835050","0.0-202.0-0.0","A19H6QRCGKBOUH","","","","{""Q0"":""I feel better after getting that out of me, won't eat at that restaurant again""}","","","","","","","","","","","","","","","","","","","","","","",""
"7067.5","","image-slider-response","212","1842123","0.0-203.0","A19H6QRCGKBOUH","","","","","-50","","","","","","","","","","","","","","","","","","","","","",""
"null","","image-button-response","213","1847128","0.0-204.0","A19H6QRCGKBOUH","img_art/7.jpg","null","","","","","","","","","","","","","","","","","","","","","","","","",""
"1019","","image-button-response","214","1848150","0.0-205.0","A19H6QRCGKBOUH","img_art/7.jpg","1","","","","","","","","","","","","","","","","","","","","","","","","",""
"3280","","image-button-response","215","1851437","0.0-206.0-0.0","A19H6QRCGKBOUH","img_art/7.jpg","5","","","","","","","","","","","","","","","","","","","","","","","","",""
"4038","","image-button-response","216","1855487","0.0-207.0-0.0","A19H6QRCGKBOUH","img_art/7.jpg","3","","","","","","","","","","","","","","","","","","","","","","","","",""
"null","","html-keyboard-response","217","1856000","0.0-208.0","A19H6QRCGKBOUH","<p style=""font-size: 48px;"">+</p>","","","","","null","allTrialResponses","500","1","23","img_art/7.jpg","-50","I feel better after getting that out of me, won't eat at that restaurant again","Alex,Kenneth,Anthony,Elijah,Jose,Paul","Hmm interesting, looks like mars or something terrestrial. Too abstract for me and too much brown,4,100,20","My firs thought was ""gross""...not sure what this is and I dont think i want to know.,-19,300,20","Very, very dull compared to the other paintings,-36,200,20","Not highly impressed,-5,80,20","Reminds me of bugs, I hate bugs,-7,200,20","It looks like bloody scabs on skin, I don't like it,-42,300,20","Kenneth","My firs thought was ""gross""...not sure what this is and I dont think i want to know.,-19,300,20","Paul","It looks like bloody scabs on skin, I don't like it,-42,300,20","Elijah","Not highly impressed,-5,80,20","18"
"29717","","survey-text","218","1885738","0.0-209.0-0.0","A19H6QRCGKBOUH","","","","{""Q0"":""hilly roads but unclear exactly what this is""}","","","","","","","","","","","","","","","","","","","","","","",""
"10161.700000047684","","image-slider-response","219","1895908","0.0-210.0","A19H6QRCGKBOUH","","","","","-14","","","","","","","","","","","","","","","","","","","","","",""
"4151","","image-button-response","220","1900925","0.0-211.0","A19H6QRCGKBOUH","img_art/11.jpg","0","","","","","","","","","","","","","","","","","","","","","","","","",""
"2218","","image-button-response","221","1903151","0.0-212.0","A19H6QRCGKBOUH","img_art/11.jpg","0","","","","","","","","","","","","","","","","","","","","","","","","",""
"1156","","image-button-response","222","1904316","0.0-213.0-0.0","A19H6QRCGKBOUH","img_art/11.jpg","1","","","","","","","","","","","","","","","","","","","","","","","","",""
"4983","","image-button-response","223","1909310","0.0-214.0-0.0","A19H6QRCGKBOUH","img_art/11.jpg","2","","","","","","","","","","","","","","","","","","","","","","","","",""
"null","","html-keyboard-response","224","1910825","0.0-215.0","A19H6QRCGKBOUH","<p style=""font-size: 48px;"">+</p>","","","","","null","allTrialResponses","1500","1","24","img_art/11.jpg","-14","hilly roads but unclear exactly what this is","Mark,Kenneth,Eric,Elijah,Corey,Paul","My initial thought was roller coasters but I see ship masts on a cloudy day too.,35,80,20","Its a little psychedelic.,10,300,20","I don't like the gloomy color, but it reminds me of a city which I like.,35,100,20","Very cool, makes me feel good,39,80,20","dont like the colors. Its a gloomy day in london and this is the transit system,-26,260,20","I like how it reminds me of music and at the same time it looks like colorful train tracks.,10,300,20","Mark","My initial thought was roller coasters but I see ship masts on a cloudy day too.,35,80,20","Kenneth","Its a little psychedelic.,10,300,20","Eric","I don't like the gloomy color, but it reminds me of a city which I like.,35,100,20","18"
"44896","","survey-text","225","1955761","0.0-216.0-0.0","A19H6QRCGKBOUH","","","","{""Q0"":""sample three colors and call it art shall we?""}","","","","","","","","","","","","","","","","","","","","","","",""
"6303.800000071526","","image-slider-response","226","1962072","0.0-217.0","A19H6QRCGKBOUH","","","","","-50","","","","","","","","","","","","","","","","","","","","","",""
"null","","image-button-response","227","1967090","0.0-218.0","A19H6QRCGKBOUH","img_art/5.jpg","null","","","","","","","","","","","","","","","","","","","","","","","","",""
"1737","","image-button-response","228","1968836","0.0-219.0","A19H6QRCGKBOUH","img_art/5.jpg","4","","","","","","","","","","","","","","","","","","","","","","","","",""
"2563","","image-button-response","229","1971407","0.0-220.0-0.0","A19H6QRCGKBOUH","img_art/5.jpg","3","","","","","","","","","","","","","","","","","","","","","","","","",""
"2619","","image-button-response","230","1974034","0.0-221.0-0.0","A19H6QRCGKBOUH","img_art/5.jpg","5","","","","","","","","","","","","","","","","","","","","","","","","",""
"null","","html-keyboard-response","231","1974549","0.0-222.0","A19H6QRCGKBOUH","<p style=""font-size: 48px;"">+</p>","","","","","null","allTrialResponses","500","1","25","img_art/5.jpg","-50","sample three colors and call it art shall we?","Mark,Kenneth,Eric,Garrett,Thomas,Michael","Perfume bottle, reminds of fancy nights out.,11,80,20","It looks like daffy duck's leg with a random trail of pink.,-22,300,20","I'm reminded of a volcano with weird colors.,-5,100,20","I don't know what it's supposed to be and it looks ugly the way the colors are on the yellow cube.,-50,180,20","I'm confused by what I am looking at,-3,220,20","Complete garbage. Looks like a kid drew it.,-50,140,20","Thomas","I'm confused by what I am looking at,-3,220,20","Garrett","I don't know what it's supposed to be and it looks ugly the way the colors are on the yellow cube.,-50,180,20","Michael","Complete garbage. Looks like a kid drew it.,-50,140,20","18"
"5149","","survey-text","232","1979750","0.0-223.0-0.0","A19H6QRCGKBOUH","","","","{""Q0"":""table""}","","","","","","","","","","","","","","","","","","","","","","",""
"29555","","survey-text","233","2009311","0.0-224.0-0.0","A19H6QRCGKBOUH","","","","{""Q0"":""70s institutional building overgrown with foliage""}","","","","","","","","","","","","","","","","","","","","","","",""
"10174.799999952316","","image-slider-response","234","2019495","0.0-225.0","A19H6QRCGKBOUH","","","","","-1","","","","","","","","","","","","","","","","","","","","","",""
"null","","image-button-response","235","2024508","0.0-226.0","A19H6QRCGKBOUH","img_art/17.jpg","null","","","","","","","","","","","","","","","","","","","","","","","","",""
"4880","","image-button-response","236","2029397","0.0-227.0","A19H6QRCGKBOUH","img_art/17.jpg","5","","","","","","","","","","","","","","","","","","","","","","","","",""
"9468","","image-button-response","237","2038873","0.0-228.0-0.0","A19H6QRCGKBOUH","img_art/17.jpg","1","","","","","","","","","","","","","","","","","","","","","","","","",""
"2949","","image-button-response","238","2041833","0.0-229.0-0.0","A19H6QRCGKBOUH","img_art/17.jpg","2","","","","","","","","","","","","","","","","","","","","","","","","",""
"null","","html-keyboard-response","239","2042343","0.0-230.0","A19H6QRCGKBOUH","<p style=""font-size: 48px;"">+</p>","","","","","null","allTrialResponses","500","1","26","img_art/17.jpg","-1","70s institutional building overgrown with foliage","Brandon,David,Richard,Garrett,Thomas,Michael","Love the color and nature motif,36,320,20","I like how the image gives an impression of gaseous tree.,15,340,20","nice composition and colors, fairy land,28,340,20","I like the way the colors were used behind the tree. Makes the image colorful and interesting.,30,180,20","Colors and composition are beautiful. I would hang this in my home.,50,220,20","There is better structure and direction in this one.,19,140,20","Michael","There is better structure and direction in this one.,19,140,20","David","I like how the image gives an impression of gaseous tree.,15,340,20","Richard","nice composition and colors, fairy land,28,340,20","18"
"44132","","survey-text","240","2086502","0.0-231.0-0.0","A19H6QRCGKBOUH","","","","{""Q0"":""a kaleidoscope""}","","","","","","","","","","","","","","","","","","","","","","",""
"6165.900000095367","","image-slider-response","241","2092673","0.0-232.0","A19H6QRCGKBOUH","","","","","-30","","","","","","","","","","","","","","","","","","","","","",""
"null","","image-button-response","242","2097691","0.0-233.0","A19H6QRCGKBOUH","img_art/23.jpg","null","","","","","","","","","","","","","","","","","","","","","","","","",""
"1244","","image-button-response","243","2098943","0.0-234.0","A19H6QRCGKBOUH","img_art/23.jpg","5","","","","","","","","","","","","","","","","","","","","","","","","",""
"13607","","image-button-response","244","2112556","0.0-235.0-0.0","A19H6QRCGKBOUH","img_art/23.jpg","2","","","","","","","","","","","","","","","","","","","","","","","","",""
"6938","","image-button-response","245","2119500","0.0-236.0-0.0","A19H6QRCGKBOUH","img_art/23.jpg","0","","","","","","","","","","","","","","","","","","","","","","","","",""
"null","","html-keyboard-response","246","2121011","0.0-237.0","A19H6QRCGKBOUH","<p style=""font-size: 48px;"">+</p>","","","","","null","allTrialResponses","1500","1","27","img_art/23.jpg","-30","a kaleidoscope","Evan,David,Richard,Spencer,Carlos,Michael","It feels exciting,23,140,20","I like the symmetrical design and how it portrays the liveliness of a musical environment.,30,340,20","it's OK, but just OK, kind of interesting but I wouldn't spend money on it,4,340,20","Interesting, want to look at it more to identify,25,120,20","It feels active and vibrant.,20,80,20","I don't get it.,-40,140,20","Michael","I don't get it.,-40,140,20","Richard","it's OK, but just OK, kind of interesting but I wouldn't spend money on it,4,340,20","Evan","It feels exciting,23,140,20","18"
"26824","","survey-text","247","2147866","0.0-238.0-0.0","A19H6QRCGKBOUH","","","","{""Q0"":""looking through the eyes of a seriously drunk person""}","","","","","","","","","","","","","","","","","","","","","","",""
"5086.600000023842","","image-slider-response","248","2152960","0.0-239.0","A19H6QRCGKBOUH","","","","","-50","","","","","","","","","","","","","","","","","","","","","",""
"null","","image-button-response","249","2157967","0.0-240.0","A19H6QRCGKBOUH","img_art/12.jpg","null","","","","","","","","","","","","","","","","","","","","","","","","",""
"3872","","image-button-response","250","2161851","0.0-241.0","A19H6QRCGKBOUH","img_art/12.jpg","5","","","","","","","","","","","","","","","","","","","","","","","","",""
"1343","","image-button-response","251","2163201","0.0-242.0-0.0","A19H6QRCGKBOUH","img_art/12.jpg","4","","","","","","","","","","","","","","","","","","","","","","","","",""
"3611","","image-button-response","252","2166821","0.0-243.0-0.0","A19H6QRCGKBOUH","img_art/12.jpg","2","","","","","","","","","","","","","","","","","","","","","","","","",""
"null","","html-keyboard-response","253","2168327","0.0-244.0","A19H6QRCGKBOUH","<p style=""font-size: 48px;"">+</p>","","","","","null","allTrialResponses","1500","1","28","img_art/12.jpg","-50","looking through the eyes of a seriously drunk person","Evan,Gregory,Richard,Devin,Ethan,Michael","It reminds me of the documentary Paris is Burning, though I'm not sure why,11,140,20","Black and white contrast with color looks nice,15,220,20","seems too dark on top and too common on the bottom,-19,340,20","Love the shapes here,12,380,20","The colors are ok. The piece reminds me of the 90s era, so I kinda like it!,-4,120,20","Not quite my style but there more of a pattern and it is interesting to look at.,15,140,20","Michael","Not quite my style but there more of a pattern and it is interesting to look at.,15,140,20","Ethan","The colors are ok. The piece reminds me of the 90s era, so I kinda like it!,-4,120,20","Richard","seems too dark on top and too common on the bottom,-19,340,20","18"
"61865","","survey-text","254","2230226","0.0-245.0-0.0","A19H6QRCGKBOUH","","","","{""Q0"":""alien reptilian sitting in a barber chair""}","","","","","","","","","","","","","","","","","","","","","","",""
"7409.699999928474","","image-slider-response","255","2237644","0.0-246.0","A19H6QRCGKBOUH","","","","","-49","","","","","","","","","","","","","","","","","","","","","",""
"4272","","image-button-response","256","2242669","0.0-247.0","A19H6QRCGKBOUH","img_art/28.jpg","4","","","","","","","","","","","","","","","","","","","","","","","","",""
"1093","","image-button-response","257","2243772","0.0-248.0","A19H6QRCGKBOUH","img_art/28.jpg","4","","","","","","","","","","","","","","","","","","","","","","","","",""
"1132","","image-button-response","258","2244911","0.0-249.0-0.0","A19H6QRCGKBOUH","img_art/28.jpg","5","","","","","","","","","","","","","","","","","","","","","","","","",""
"2218","","image-button-response","259","2247139","0.0-250.0-0.0","A19H6QRCGKBOUH","img_art/28.jpg","0","","","","","","","","","","","","","","","","","","","","","","","","",""
"null","","html-keyboard-response","260","2248164","0.0-251.0","A19H6QRCGKBOUH","<p style=""font-size: 48px;"">+</p>","","","","","null","allTrialResponses","1000","1","29","img_art/28.jpg","-49","alien reptilian sitting in a barber chair","Jeffrey,Jason,Richard,Christian,Ethan,Michael","Nothing calls my attention,15,40,20","Not sure what way this picture is suppose to be oriented,-5,20,20","bland coloring but pattern interesting,2,340,20","the color scheme is very well matched but i just didn't like it,-6,140,20","The colors are really ugly. They do not compliment each other well.,-45,120,20","Incoherent ugly mess.,-50,140,20","Ethan","The colors are really ugly. They do not compliment each other well.,-45,120,20","Michael","Incoherent ugly mess.,-50,140,20","Jeffrey","Nothing calls my attention,15,40,20","18"
"13754","","survey-text","261","2261958","0.0-252.0-0.0","A19H6QRCGKBOUH","","","","{""Q0"":""an open cesspool""}","","","","","","","","","","","","","","","","","","","","","","",""
"6989.300000071526","","image-slider-response","262","2268956","0.0-253.0","A19H6QRCGKBOUH","","","","","-50","","","","","","","","","","","","","","","","","","","","","",""
"null","","image-button-response","263","2273984","0.0-254.0","A19H6QRCGKBOUH","img_art/29.jpg","null","","","","","","","","","","","","","","","","","","","","","","","","",""
"1402","","image-button-response","264","2275391","0.0-255.0","A19H6QRCGKBOUH","img_art/29.jpg","0","","","","","","","","","","","","","","","","","","","","","","","","",""
"4500","","image-button-response","265","2279898","0.0-256.0-0.0","A19H6QRCGKBOUH","img_art/29.jpg","5","","","","","","","","","","","","","","","","","","","","","","","","",""
"9198","","image-button-response","266","2289107","0.0-257.0-0.0","A19H6QRCGKBOUH","img_art/29.jpg","3","","","","","","","","","","","","","","","","","","","","","","","","",""
"null","","html-keyboard-response","267","2289622","0.0-258.0","A19H6QRCGKBOUH","<p style=""font-size: 48px;"">+</p>","","","","","null","allTrialResponses","500","1","30","img_art/29.jpg","-50","an open cesspool","Jeffrey,Bradley,Bryce,Caleb,Ethan,Michael","Looks like an accident more than an art to me,-26,40,20","It's creative. It's just not my thing.,-32,300,20","Its kinda scary,-35,20,20","Looks wrong. Like a real painting was vandalized.,-50,40,20","I love the angry emotion to this art. I feel very drawn to it.,18,120,20","Looks literally like garbage.,-45,140,20","Jeffrey","Looks like an accident more than an art to me,-26,40,20","Michael","Looks literally like garbage.,-45,140,20","Caleb","Looks wrong. Like a real painting was vandalized.,-50,40,20","18"
"2908","","image-button-response_instructions","268","2292560","0.0-259.0","A19H6QRCGKBOUH","","0","instructions","","","","","","","","","","","","","","","","","","","","","","","",""
"1672","","image-button-response","269","2294257","0.0-260.0","A19H6QRCGKBOUH","","0","","","","","","","","","","","","","","","","","","","","","","","","",""
