"rt","url","trial_type","trial_index","time_elapsed","internal_node_id","participant_id","stimulus","button_pressed","Name","responses","response","key_press","variableName","fixationTime","condition","trial","photo","subjectRating","subjectResponse","agentsNames","agent_1_Response","agent_2_Response","agent_3_Response","agent_4_Response","agent_5_Response","agent_6_Response","kept_1_name","kept_1_response","kept_2_name","kept_2_response","kept_3_name","kept_3_response","errorCounter"
"7223","external_page_harvard.html","external-html","0","8085","0.0-0.0","A19Z68L0RHQVWL","","","","","","","","","","","","","","","","","","","","","","","","","","",""
"1410","","image-button-response","1","9505","0.0-1.0","A19Z68L0RHQVWL","","1","","","","","","","","","","","","","","","","","","","","","","","","",""
"1471","","image-button-response","2","11005","0.0-2.0-0.0","A19Z68L0RHQVWL","","1","phone","","","","","","","","","","","","","","","","","","","","","","","",""
"5582","","survey-text","3","16593","0.0-3.0-0.0","A19Z68L0RHQVWL","","","","{""Q0"":""A19Z68L0RHQVWL""}","","","","","","","","","","","","","","","","","","","","","","",""
"2691","","image-button-response_instructions","4","19294","0.0-4.0","A19Z68L0RHQVWL","","0","instructions","","","","","","","","","","","","","","","","","","","","","","","",""
"16847","","image-button-response_instructions","5","36146","0.0-5.0","A19Z68L0RHQVWL","img_art/ins/popularity/ins1.png","0","instructions","","","","","","","","","","","","","","","","","","","","","","","",""
"4689","","image-button-response_instructions","6","40842","0.0-6.0","A19Z68L0RHQVWL","img_art/ins/popularity/ins2.png","0","instructions","","","","","","","","","","","","","","","","","","","","","","","",""
"8280","","image-button-response_instructions","7","49127","0.0-7.0","A19Z68L0RHQVWL","img_art/ins/popularity/ins2Extreme.png","0","instructions","","","","","","","","","","","","","","","","","","","","","","","",""
"25367","","image-button-response_instructions","8","74499","0.0-8.0","A19Z68L0RHQVWL","img_art/ins/popularity/ins3KEEPpop.PNG","0","instructions","","","","","","","","","","","","","","","","","","","","","","","",""
"2879","","image-button-response_instructions","9","77384","0.0-9.0","A19Z68L0RHQVWL","img_art/ins/popularity/ins3ANamepop.PNG","0","instructions","","","","","","","","","","","","","","","","","","","","","","","",""
"1526","","image-button-response_instructions","10","78916","0.0-10.0","A19Z68L0RHQVWL","img_art/ins/popularity/ins3ARatingpop.png","0","instructions","","","","","","","","","","","","","","","","","","","","","","","",""
"1538","","image-button-response_instructions","11","80458","0.0-11.0","A19Z68L0RHQVWL","img_art/ins/popularity/ins3ATextpop.png","0","instructions","","","","","","","","","","","","","","","","","","","","","","","",""
"4329","","image-button-response_instructions","12","84794","0.0-12.0","A19Z68L0RHQVWL","img_art/ins/popularity/ins3ALikespop.png","0","instructions","","","","","","","","","","","","","","","","","","","","","","","",""
"10259","","image-button-response_instructions","13","95060","0.0-13.0","A19Z68L0RHQVWL","img_art/ins/popularity/ins3KEEPpop.PNG","0","instructions","","","","","","","","","","","","","","","","","","","","","","","",""
"10952","","image-button-response_instructions","14","106019","0.0-14.0","A19Z68L0RHQVWL","img_art/ins/popularity/ins3_5RED.png","0","instructions","","","","","","","","","","","","","","","","","","","","","","","",""
"6234","","image-button-response_instructions","15","112258","0.0-15.0","A19Z68L0RHQVWL","img_art/ins/popularity/ins3KEEPpop.PNG","0","instructions","","","","","","","","","","","","","","","","","","","","","","","",""
"9475","","image-button-response_instructions","16","121738","0.0-16.0","A19Z68L0RHQVWL","img_art/ins/popularity/ins4KEEPpop.PNG","0","instructions","","","","","","","","","","","","","","","","","","","","","","","",""
"3230","","image-button-response_instructions","17","124972","0.0-17.0","A19Z68L0RHQVWL","img_art/ins/popularity/ins5KEEPpop.PNG","0","instructions","","","","","","","","","","","","","","","","","","","","","","","",""
"1243","","image-button-response_instructions","18","126221","0.0-18.0","A19Z68L0RHQVWL","","0","instructions","","","","","","","","","","","","","","","","","","","","","","","",""
"4814","","survey-text","19","131152","0.0-19.0-0.0","A19Z68L0RHQVWL","","","","{""Q0"":""but""}","","","","","","","","","","","","","","","","","","","","","","",""
"17107","","survey-text","20","148269","0.0-20.0-0.0","A19Z68L0RHQVWL","","","","{""Q0"":""Beautiful brush strokes.""}","","","","","","","","","","","","","","","","","","","","","","",""
"5218","","image-slider-response","21","153527","0.0-21.0","A19Z68L0RHQVWL","","","","","27","","","","","","","","","","","","","","","","","","","","","",""
"3633","","image-button-response","22","158548","0.0-22.0","A19Z68L0RHQVWL","img_art/ins/1.jpg","0","","","","","","","","","","","","","","","","","","","","","","","","",""
"3372","","image-button-response","23","161933","0.0-23.0","A19Z68L0RHQVWL","img_art/ins/1.jpg","4","","","","","","","","","","","","","","","","","","","","","","","","",""
"3288","","image-button-response","24","165235","0.0-24.0-0.0","A19Z68L0RHQVWL","img_art/ins/1.jpg","1","","","","","","","","","","","","","","","","","","","","","","","","",""
"2308","","image-button-response","25","167559","0.0-25.0-0.0","A19Z68L0RHQVWL","img_art/ins/1.jpg","3","","","","","","","","","","","","","","","","","","","","","","","","",""
"null","","html-keyboard-response","26","168082","0.0-26.0","A19Z68L0RHQVWL","<p style=""font-size: 48px;"">+</p>","","","","","null","allTrialResponses","500","1","-2","img_art/ins/1.jpg","27","Beautiful brush strokes.","Allison,Ashley,Beth,Dora,Erika,Jen","looks like a lot of things going on in the mist,20,20,20","I just don't get why these type of art would be popular,-32,40,20","This color reminds me of poo,-46,60,20","looks like what my niece in 3rd grade did this afternoon,-50,80,20","I like the sophisticated brushwork,40,100,20","It reminds me of a candy land dream I had,36,120,20","Erika","I like the sophisticated brushwork,40,100,20","Ashley","I just don't get why these type of art would be popular,-32,40,20","Dora","looks like what my niece in 3rd grade did this afternoon,-50,80,20","0"
"10792","","survey-text","27","178904","0.0-27.0-0.0","A19Z68L0RHQVWL","","","","{""Q0"":""Looks like a bloody mess.""}","","","","","","","","","","","","","","","","","","","","","","",""
"6181.70000000298","","image-slider-response","28","185094","0.0-28.0","A19Z68L0RHQVWL","","","","","-29","","","","","","","","","","","","","","","","","","","","","",""
"null","","image-button-response","29","190135","0.0-29.0","A19Z68L0RHQVWL","img_art/ins/2.jpg","null","","","","","","","","","","","","","","","","","","","","","","","","",""
"1084","","image-button-response","30","191321","0.0-30.0","A19Z68L0RHQVWL","img_art/ins/2.jpg","3","","","","","","","","","","","","","","","","","","","","","","","","",""
"2305","","image-button-response","31","193644","0.0-31.0-0.0","A19Z68L0RHQVWL","img_art/ins/2.jpg","4","","","","","","","","","","","","","","","","","","","","","","","","",""
"3810","","image-button-response","32","197467","0.0-32.0-0.0","A19Z68L0RHQVWL","img_art/ins/2.jpg","1","","","","","","","","","","","","","","","","","","","","","","","","",""
"null","","html-keyboard-response","33","198997","0.0-33.0","A19Z68L0RHQVWL","<p style=""font-size: 48px;"">+</p>","","","","","null","allTrialResponses","1500","1","-1","img_art/ins/2.jpg","-29","Looks like a bloody mess.","Jenna,Ashley,Kara,Dora,Erika,Katie","One of my pet peevs,-48,140,20","Idk, it is just annoying,-32,40,20","I like the blocks of color arrangements,30,160,20","looks too angry,-50,80,20","I would never be able to compose a sophisticated pallete like this,48,100,20","too much color!,-28,180,20","Dora","looks too angry,-50,80,20","Erika","I would never be able to compose a sophisticated pallete like this,48,100,20","Ashley","Idk, it is just annoying,-32,40,20","0"
"29281","","survey-text","34","228318","0.0-34.0-0.0","A19Z68L0RHQVWL","","","","{""Q0"":""It reminds me of the type of cold that you can not get warm from.""}","","","","","","","","","","","","","","","","","","","","","","",""
"5546.70000000298","","image-slider-response","35","233875","0.0-35.0","A19Z68L0RHQVWL","","","","","38","","","","","","","","","","","","","","","","","","","","","",""
"null","","image-button-response","36","238903","0.0-36.0","A19Z68L0RHQVWL","img_art/ins/3.jpg","null","","","","","","","","","","","","","","","","","","","","","","","","",""
"4391","","image-button-response","37","243305","0.0-37.0","A19Z68L0RHQVWL","img_art/ins/3.jpg","2","","","","","","","","","","","","","","","","","","","","","","","","",""
"6091","","image-button-response","38","249405","0.0-38.0-0.0","A19Z68L0RHQVWL","img_art/ins/3.jpg","0","","","","","","","","","","","","","","","","","","","","","","","","",""
"821","","image-button-response","39","250243","0.0-39.0-0.0","A19Z68L0RHQVWL","img_art/ins/3.jpg","4","","","","","","","","","","","","","","","","","","","","","","","","",""
"null","","html-keyboard-response","40","251765","0.0-40.0","A19Z68L0RHQVWL","<p style=""font-size: 48px;"">+</p>","","","","","null","allTrialResponses","1500","1","0","img_art/ins/3.jpg","38","It reminds me of the type of cold that you can not get warm from.","Leslie,Ashley,Mary,Dora,Erika,Rose","It's an alright work,15,200,20","It looks like a playground for bats,-36,40,20","I like the overlapping of brushes,41,220,20","My worst nightmare,-42,80,20","I feel connected to the artist,40,100,20","My daily routine, it's depressing,-20,240,20","Mary","I like the overlapping of brushes,41,220,20","Leslie","It's an alright work,15,200,20","Erika","I feel connected to the artist,40,100,20","0"
"405591","","image-button-response_instructions","41","657392","0.0-41.0","A19Z68L0RHQVWL","","0","instructions","","","","","","","","","","","","","","","","","","","","","","","",""
"11603","","survey-likert","42","669003","0.0-42.0-0.0","A19Z68L0RHQVWL","","","","{""Q0"":"""",""Q1"":0,""Q2"":1}","","","","","","","","","","","","","","","","","","","","","","",""
"5242","","survey-text","43","674295","0.0-43.0-0.0","A19Z68L0RHQVWL","","","","{""Q0"":""rock""}","","","","","","","","","","","","","","","","","","","","","","",""
"15641","","survey-text","44","689946","0.0-44.0-0.0","A19Z68L0RHQVWL","","","","{""Q0"":""a bird on the hot sand""}","","","","","","","","","","","","","","","","","","","","","","",""
"4432.899999991059","","image-slider-response","45","694390","0.0-45.0","A19Z68L0RHQVWL","","","","","-13","","","","","","","","","","","","","","","","","","","","","",""
"null","","image-button-response","46","699523","0.0-46.0","A19Z68L0RHQVWL","img_art/6.jpg","null","","","","","","","","","","","","","","","","","","","","","","","","",""
"8890","","image-button-response","47","708420","0.0-47.0","A19Z68L0RHQVWL","img_art/6.jpg","1","","","","","","","","","","","","","","","","","","","","","","","","",""
"272","","image-button-response","48","708701","0.0-48.0-0.0","A19Z68L0RHQVWL","img_art/6.jpg","0","","","","","","","","","","","","","","","","","","","","","","","","",""
"6476","","image-button-response","49","715187","0.0-49.0-0.0","A19Z68L0RHQVWL","img_art/6.jpg","2","","","","","","","","","","","","","","","","","","","","","","","","",""
"null","","html-keyboard-response","50","715703","0.0-50.0","A19Z68L0RHQVWL","<p style=""font-size: 48px;"">+</p>","","","","","null","allTrialResponses","500","1","1","img_art/6.jpg","-13","a bird on the hot sand","Hannah,Gabrielle,Katherine,Monica,Kaitlyn,Autumn","Looks like a bird. It's fine.,7,240,20","simplistic but reminds me of a crow in a field,-10,160,20","This could be so many different things. I saw a bird first but then it looks like a needle going into skin,34,120,20","Maybe it's supposed to be a bird but it looks like a scary cloaked figure. it's just too simple and jarring,-23,360,20","I like the simplicity of the picture,30,80,20","Bird? It's a bird.,23,340,20","Gabrielle","simplistic but reminds me of a crow in a field,-10,160,20","Hannah","Looks like a bird. It's fine.,7,240,20","Katherine","This could be so many different things. I saw a bird first but then it looks like a needle going into skin,34,120,20","0"
"13564","","survey-text","51","729298","0.0-51.0-0.0","A19Z68L0RHQVWL","","","","{""Q0"":""scary man in the darkness""}","","","","","","","","","","","","","","","","","","","","","","",""
"4152.29999999702","","image-slider-response","52","733458","0.0-52.0","A19Z68L0RHQVWL","","","","","20","","","","","","","","","","","","","","","","","","","","","",""
"2757","","image-button-response","53","738471","0.0-53.0","A19Z68L0RHQVWL","img_art/25.jpg","0","","","","","","","","","","","","","","","","","","","","","","","","",""
"3011","","image-button-response","54","741489","0.0-54.0","A19Z68L0RHQVWL","img_art/25.jpg","1","","","","","","","","","","","","","","","","","","","","","","","","",""
"802","","image-button-response","55","742304","0.0-55.0-0.0","A19Z68L0RHQVWL","img_art/25.jpg","0","","","","","","","","","","","","","","","","","","","","","","","","",""
"1868","","image-button-response","56","744184","0.0-56.0-0.0","A19Z68L0RHQVWL","img_art/25.jpg","2","","","","","","","","","","","","","","","","","","","","","","","","",""
"null","","html-keyboard-response","57","744708","0.0-57.0","A19Z68L0RHQVWL","<p style=""font-size: 48px;"">+</p>","","","","","null","allTrialResponses","500","1","2","img_art/25.jpg","20","scary man in the darkness","Hannah,Gabrielle,Katherine,Destiny,Alexa,Amy","Looks like a voodoo figure in a New Orleans cemetery at night.,-5,240,20","interesting pattern and color choice, kind of unusual,2,160,20","That's pretty awesome. I love the green and black combo, reminds me of one of those cartoon creepy movies,47,120,20","creeeeeppyyyyyyy but mad cool,-26,360,20","It's really neat and cool looking,20,40,20","The limited palette make this figure mysterious and interpret-able.,20,220,20","Gabrielle","interesting pattern and color choice, kind of unusual,2,160,20","Hannah","Looks like a voodoo figure in a New Orleans cemetery at night.,-5,240,20","Katherine","That's pretty awesome. I love the green and black combo, reminds me of one of those cartoon creepy movies,47,120,20","0"
"14721","","survey-text","58","759467","0.0-58.0-0.0","A19Z68L0RHQVWL","","","","{""Q0"":""Very professional looking beautiful use of colors""}","","","","","","","","","","","","","","","","","","","","","","",""
"2895.5","","image-slider-response","59","762370","0.0-59.0","A19Z68L0RHQVWL","","","","","41","","","","","","","","","","","","","","","","","","","","","",""
"null","","image-button-response","60","767392","0.0-60.0","A19Z68L0RHQVWL","img_art/17.jpg","null","","","","","","","","","","","","","","","","","","","","","","","","",""
"4046","","image-button-response","61","771446","0.0-61.0","A19Z68L0RHQVWL","img_art/17.jpg","4","","","","","","","","","","","","","","","","","","","","","","","","",""
"4443","","image-button-response","62","775899","0.0-62.0-0.0","A19Z68L0RHQVWL","img_art/17.jpg","2","","","","","","","","","","","","","","","","","","","","","","","","",""
"751","","image-button-response","63","776663","0.0-63.0-0.0","A19Z68L0RHQVWL","img_art/17.jpg","1","","","","","","","","","","","","","","","","","","","","","","","","",""
"null","","html-keyboard-response","64","778187","0.0-64.0","A19Z68L0RHQVWL","<p style=""font-size: 48px;"">+</p>","","","","","null","allTrialResponses","1500","1","3","img_art/17.jpg","41","Very professional looking beautiful use of colors","Hannah,Gabrielle,Katherine,Tiffany,Madeline,Dominique","Looks like an abandoned building that is being overtaken by nature.,-10,240,20","nice composition and colors, fairy land,28,160,20","Looks like a weird blurry heaven again! I dig,32,120,20","The painting makes me feel relaxed, and a bit lonely, like I'm sitting at a park waiting for someone.,30,360,20","So expressive and wonderful wow!,17,40,20","Another favorite a relaxing day with nature a day to take it all In,34,400,20","Madeline","So expressive and wonderful wow!,17,40,20","Katherine","Looks like a weird blurry heaven again! I dig,32,120,20","Gabrielle","nice composition and colors, fairy land,28,160,20","0"
"30301","","survey-text","65","808524","0.0-65.0-0.0","A19Z68L0RHQVWL","","","","{""Q0"":""It reminds me of an old dirty town very lonely""}","","","","","","","","","","","","","","","","","","","","","","",""
"3136.7000000029802","","image-slider-response","66","811672","0.0-66.0","A19Z68L0RHQVWL","","","","","14","","","","","","","","","","","","","","","","","","","","","",""
"null","","image-button-response","67","816686","0.0-67.0","A19Z68L0RHQVWL","img_art/11.jpg","null","","","","","","","","","","","","","","","","","","","","","","","","",""
"4852","","image-button-response","68","821547","0.0-68.0","A19Z68L0RHQVWL","img_art/11.jpg","3","","","","","","","","","","","","","","","","","","","","","","","","",""
"1945","","image-button-response","69","823502","0.0-69.0-0.0","A19Z68L0RHQVWL","img_art/11.jpg","4","","","","","","","","","","","","","","","","","","","","","","","","",""
"756","","image-button-response","70","824271","0.0-70.0-0.0","A19Z68L0RHQVWL","img_art/11.jpg","5","","","","","","","","","","","","","","","","","","","","","","","","",""
"null","","html-keyboard-response","71","824784","0.0-71.0","A19Z68L0RHQVWL","<p style=""font-size: 48px;"">+</p>","","","","","null","allTrialResponses","500","1","4","img_art/11.jpg","14","It reminds me of an old dirty town very lonely","Leah,Gabrielle,Katherine,Miranda,Madeline,Danielle","Even with the colors, it is dreary to me,-32,360,20","I like this one mostly a good combination of colors and light and dark,12,160,20","Makes me feel like my vision is breaking,19,120,20","This one is a little erie, gives me post-apocalyptic feeling,27,320,20","I like the vibe of the painting,-3,40,20","Reminds me of some of post-apocalyptic view of street lights or maybe a city,30,340,20","Miranda","This one is a little erie, gives me post-apocalyptic feeling,27,320,20","Madeline","I like the vibe of the painting,-3,40,20","Danielle","Reminds me of some of post-apocalyptic view of street lights or maybe a city,30,340,20","0"
"69877","","survey-text","72","894704","0.0-72.0-0.0","A19Z68L0RHQVWL","","","","{""Q0"":""People on space lost""}","","","","","","","","","","","","","","","","","","","","","","",""
"19746.20000000298","","image-slider-response","73","914457","0.0-73.0","A19Z68L0RHQVWL","","","","","42","","","","","","","","","","","","","","","","","","","","","",""
"null","","image-button-response","74","919486","0.0-74.0","A19Z68L0RHQVWL","img_art/23.jpg","null","","","","","","","","","","","","","","","","","","","","","","","","",""
"30948","","image-button-response","75","950441","0.0-75.0","A19Z68L0RHQVWL","img_art/23.jpg","3","","","","","","","","","","","","","","","","","","","","","","","","",""
"9397","","image-button-response","76","959847","0.0-76.0-0.0","A19Z68L0RHQVWL","img_art/23.jpg","0","","","","","","","","","","","","","","","","","","","","","","","","",""
"800","","image-button-response","77","960661","0.0-77.0-0.0","A19Z68L0RHQVWL","img_art/23.jpg","2","","","","","","","","","","","","","","","","","","","","","","","","",""
"null","","html-keyboard-response","78","962175","0.0-78.0","A19Z68L0RHQVWL","<p style=""font-size: 48px;"">+</p>","","","","","null","allTrialResponses","1500","1","5","img_art/23.jpg","42","People on space lost","Erika,Mary,Sydney,Miranda,Madeline,Danielle","Very intense and unique,3,100,20","The colors are ugly. I don't like the white. It doesn't compliment the piece at all.,-44,180,20","The piece seems chaotic, and I dislike the random pop of white within so many colors.,-10,320,20","It's very colorful and different, the white looks like people dancing,26,320,20","background is great but the white is a bit weird,3,40,20","While I don't normally enjoy these color schemes all together, I kind of like this one,10,340,20","Miranda","It's very colorful and different, the white looks like people dancing,26,320,20","Erika","Very intense and unique,3,100,20","Sydney","The piece seems chaotic, and I dislike the random pop of white within so many colors.,-10,320,20","0"
"3543","","survey-text","79","965792","0.0-79.0-0.0","A19Z68L0RHQVWL","","","","{""Q0"":""sky""}","","","","","","","","","","","","","","","","","","","","","","",""
"7801","","survey-text","80","973603","0.0-80.0-0.0","A19Z68L0RHQVWL","","","","{""Q0"":""crazy toy maker""}","","","","","","","","","","","","","","","","","","","","","","",""
"2333","","image-slider-response","81","975948","0.0-81.0","A19Z68L0RHQVWL","","","","","29","","","","","","","","","","","","","","","","","","","","","",""
"null","","image-button-response","82","980966","0.0-82.0","A19Z68L0RHQVWL","img_art/16.jpg","null","","","","","","","","","","","","","","","","","","","","","","","","",""
"3463","","image-button-response","83","984437","0.0-83.0","A19Z68L0RHQVWL","img_art/16.jpg","4","","","","","","","","","","","","","","","","","","","","","","","","",""
"2784","","image-button-response","84","987232","0.0-84.0-0.0","A19Z68L0RHQVWL","img_art/16.jpg","3","","","","","","","","","","","","","","","","","","","","","","","","",""
"1181","","image-button-response","85","988426","0.0-85.0-0.0","A19Z68L0RHQVWL","img_art/16.jpg","2","","","","","","","","","","","","","","","","","","","","","","","","",""
"null","","html-keyboard-response","86","988940","0.0-86.0","A19Z68L0RHQVWL","<p style=""font-size: 48px;"">+</p>","","","","","null","allTrialResponses","500","1","6","img_art/16.jpg","29","crazy toy maker","Erika,Shannon,Sydney,Miranda,Amanda,Kylie","Very emotional,23,100,20","I think this picture is weird and the colors are very boring.,-50,220,20","This piece is unusual but unique.,5,320,20","This looks like it was made by an art student filled with angst,-30,320,20","Very modern, reminds me of bansky,43,180,20","Mixed feelings. Warm and comfy yet somewhat violent. A stark contrast,0,300,20","Amanda","Very modern, reminds me of bansky,43,180,20","Miranda","This looks like it was made by an art student filled with angst,-30,320,20","Sydney","This piece is unusual but unique.,5,320,20","0"
"14426","","survey-text","87","1003405","0.0-87.0-0.0","A19Z68L0RHQVWL","","","","{""Q0"":""sadness people crashing on a boat""}","","","","","","","","","","","","","","","","","","","","","","",""
"2729.5999999940395","","image-slider-response","88","1006146","0.0-88.0","A19Z68L0RHQVWL","","","","","-34","","","","","","","","","","","","","","","","","","","","","",""
"null","","image-button-response","89","1011166","0.0-89.0","A19Z68L0RHQVWL","img_art/18.jpg","null","","","","","","","","","","","","","","","","","","","","","","","","",""
"2781","","image-button-response","90","1013954","0.0-90.0","A19Z68L0RHQVWL","img_art/18.jpg","3","","","","","","","","","","","","","","","","","","","","","","","","",""
"8152","","image-button-response","91","1022116","0.0-91.0-0.0","A19Z68L0RHQVWL","img_art/18.jpg","2","","","","","","","","","","","","","","","","","","","","","","","","",""
"572","","image-button-response","92","1022699","0.0-92.0-0.0","A19Z68L0RHQVWL","img_art/18.jpg","1","","","","","","","","","","","","","","","","","","","","","","","","",""
"null","","html-keyboard-response","93","1023218","0.0-93.0","A19Z68L0RHQVWL","<p style=""font-size: 48px;"">+</p>","","","","","null","allTrialResponses","500","1","7","img_art/18.jpg","-34","sadness people crashing on a boat","Alexandria,Kelsey,Sydney,Miranda,Amanda,Sierra","the harsh lines with the smooth lines makes me think of wild animals,20,80,20","its messy, it seems angry,-21,240,20","I like the colors being used, but I don't like the chaos in the middle of it.,20,320,20","This one raises some questions, there could be some sort of fight or battle going on.,11,320,20","Too political, not my cup of tea,-50,180,20","it looks like people,9,260,20","Miranda","This one raises some questions, there could be some sort of fight or battle going on.,11,320,20","Sydney","I like the colors being used, but I don't like the chaos in the middle of it.,20,320,20","Kelsey","its messy, it seems angry,-21,240,20","0"
"27131","","survey-text","94","1050392","0.0-94.0-0.0","A19Z68L0RHQVWL","","","","{""Q0"":""wild west looking  looks like a skull  beautiful color use""}","","","","","","","","","","","","","","","","","","","","","","",""
"1866.300000011921","","image-slider-response","95","1052271","0.0-95.0","A19Z68L0RHQVWL","","","","","34","","","","","","","","","","","","","","","","","","","","","",""
"null","","image-button-response","96","1057298","0.0-96.0","A19Z68L0RHQVWL","img_art/20.jpg","null","","","","","","","","","","","","","","","","","","","","","","","","",""
"17138","","image-button-response","97","1074443","0.0-97.0","A19Z68L0RHQVWL","img_art/20.jpg","0","","","","","","","","","","","","","","","","","","","","","","","","",""
"1206","","image-button-response","98","1075660","0.0-98.0-0.0","A19Z68L0RHQVWL","img_art/20.jpg","3","","","","","","","","","","","","","","","","","","","","","","","","",""
"1357","","image-button-response","99","1077031","0.0-99.0-0.0","A19Z68L0RHQVWL","img_art/20.jpg","2","","","","","","","","","","","","","","","","","","","","","","","","",""
"null","","html-keyboard-response","100","1078055","0.0-100.0","A19Z68L0RHQVWL","<p style=""font-size: 48px;"">+</p>","","","","","null","allTrialResponses","1000","1","8","img_art/20.jpg","34","wild west looking  looks like a skull  beautiful color use","Cynthia,Kelsey,Sydney,Miranda,Kristen,Cassidy","Curious about what lies here,10,320,20","i almost feel like i can recognize what this is,-6,240,20","I love the color choice.,25,320,20","A painting within a painting, the inner painting looks like a car crash with a semi truck.,21,320,20","danger, car crash, stressful,-12,280,20","sort of pleasant to look at, but can't tell if it's supposed to be something,13,140,20","Cynthia","Curious about what lies here,10,320,20","Miranda","A painting within a painting, the inner painting looks like a car crash with a semi truck.,21,320,20","Sydney","I love the color choice.,25,320,20","0"
"19878","","survey-text","101","1097972","0.0-101.0-0.0","A19Z68L0RHQVWL","","","","{""Q0"":""angry rushed lines""}","","","","","","","","","","","","","","","","","","","","","","",""
"3033.0999999940395","","image-slider-response","102","1101015","0.0-102.0","A19Z68L0RHQVWL","","","","","-36","","","","","","","","","","","","","","","","","","","","","",""
"null","","image-button-response","103","1106042","0.0-103.0","A19Z68L0RHQVWL","img_art/4.jpg","null","","","","","","","","","","","","","","","","","","","","","","","","",""
"2171","","image-button-response","104","1108220","0.0-104.0","A19Z68L0RHQVWL","img_art/4.jpg","1","","","","","","","","","","","","","","","","","","","","","","","","",""
"700","","image-button-response","105","1108930","0.0-105.0-0.0","A19Z68L0RHQVWL","img_art/4.jpg","2","","","","","","","","","","","","","","","","","","","","","","","","",""
"878","","image-button-response","106","1109820","0.0-106.0-0.0","A19Z68L0RHQVWL","img_art/4.jpg","0","","","","","","","","","","","","","","","","","","","","","","","","",""
"null","","html-keyboard-response","107","1111335","0.0-107.0","A19Z68L0RHQVWL","<p style=""font-size: 48px;"">+</p>","","","","","null","allTrialResponses","1500","1","9","img_art/4.jpg","-36","angry rushed lines","Cynthia,Lindsey,Sydney,Miranda,Megan,Shelby","creepy as it looks like fingernails,-23,320,20","Looks like feces smeared on the canvas. I hate it.,-50,400,20","This piece catches my eye, but it's strange to me.,10,320,20","I just don't understand this one at all, I do not like it,-43,320,20","Better version of a 7 year old who got lucky,-23,200,20","The colors feel a bit off to me,-10,240,20","Lindsey","Looks like feces smeared on the canvas. I hate it.,-50,400,20","Sydney","This piece catches my eye, but it's strange to me.,10,320,20","Cynthia","creepy as it looks like fingernails,-23,320,20","0"
"116960","","survey-text","108","1228338","0.0-108.0-0.0","A19Z68L0RHQVWL","","","","{""Q0"":""nice sophisticated brush strokes great color use""}","","","","","","","","","","","","","","","","","","","","","","",""
"3510.2000000029802","","image-slider-response","109","1231856","0.0-109.0","A19Z68L0RHQVWL","","","","","50","","","","","","","","","","","","","","","","","","","","","",""
"null","","image-button-response","110","1236879","0.0-110.0","A19Z68L0RHQVWL","img_art/26.jpg","null","","","","","","","","","","","","","","","","","","","","","","","","",""
"1292","","image-button-response","111","1238178","0.0-111.0","A19Z68L0RHQVWL","img_art/26.jpg","3","","","","","","","","","","","","","","","","","","","","","","","","",""
"11069","","image-button-response","112","1249257","0.0-112.0-0.0","A19Z68L0RHQVWL","img_art/26.jpg","2","","","","","","","","","","","","","","","","","","","","","","","","",""
"2501","","image-button-response","113","1251769","0.0-113.0-0.0","A19Z68L0RHQVWL","img_art/26.jpg","1","","","","","","","","","","","","","","","","","","","","","","","","",""
"null","","html-keyboard-response","114","1253276","0.0-114.0","A19Z68L0RHQVWL","<p style=""font-size: 48px;"">+</p>","","","","","null","allTrialResponses","1500","1","10","img_art/26.jpg","50","nice sophisticated brush strokes great color use","Cynthia,Lindsey,Sydney,Paige,Jessica,Christina","dull and boring,-6,320,20","I see a suburban neighborhood with townhouses and trees. Not a fan of the colors or style.,-16,400,20","I wish there was more detail, but I really like this simple piece.,35,320,20","somewhat happy, like being outside on a nice day,30,60,20","It doesn't look so vibrant, I'm not sure what feelings they were trying to capture,-41,400,20","looks like a little kids painting,-17,240,20","Paige","somewhat happy, like being outside on a nice day,30,60,20","Sydney","I wish there was more detail, but I really like this simple piece.,35,320,20","Lindsey","I see a suburban neighborhood with townhouses and trees. Not a fan of the colors or style.,-16,400,20","0"
"3401","","survey-text","115","1256764","0.0-115.0-0.0","A19Z68L0RHQVWL","","","","{""Q0"":""our""}","","","","","","","","","","","","","","","","","","","","","","",""
"15519","","survey-text","116","1272292","0.0-116.0-0.0","A19Z68L0RHQVWL","","","","{""Q0"":""sanding beach  a little boring looking""}","","","","","","","","","","","","","","","","","","","","","","",""
"4062.7000000029802","","image-slider-response","117","1276361","0.0-117.0","A19Z68L0RHQVWL","","","","","-36","","","","","","","","","","","","","","","","","","","","","",""
"null","","image-button-response","118","1281388","0.0-118.0","A19Z68L0RHQVWL","img_art/7.jpg","null","","","","","","","","","","","","","","","","","","","","","","","","",""
"1583","","image-button-response","119","1282979","0.0-119.0","A19Z68L0RHQVWL","img_art/7.jpg","1","","","","","","","","","","","","","","","","","","","","","","","","",""
"4499","","image-button-response","120","1287489","0.0-120.0-0.0","A19Z68L0RHQVWL","img_art/7.jpg","4","","","","","","","","","","","","","","","","","","","","","","","","",""
"2480","","image-button-response","121","1289979","0.0-121.0-0.0","A19Z68L0RHQVWL","img_art/7.jpg","0","","","","","","","","","","","","","","","","","","","","","","","","",""
"null","","html-keyboard-response","122","1291486","0.0-122.0","A19Z68L0RHQVWL","<p style=""font-size: 48px;"">+</p>","","","","","null","allTrialResponses","1500","1","11","img_art/7.jpg","-36","sanding beach  a little boring looking","Kelly,Lindsey,Sydney,Paige,Jacqueline,Mackenzie","My firs thought was ""gross""...not sure what this is and I dont think i want to know.,-19,220,20","It's dirty. I don't mind the colors so much as the way they are put together in this dirty-looking pattern.,-41,400,20","This piece is really simple but the colors and texture work well together.,20,320,20","Happy. Looking at the moon,43,60,20","Just looks like rocks or some kind of mineral.,0,300,20","Is simple in color and texture,11,20,20","Lindsey","It's dirty. I don't mind the colors so much as the way they are put together in this dirty-looking pattern.,-41,400,20","Jacqueline","Just looks like rocks or some kind of mineral.,0,300,20","Kelly","My firs thought was ""gross""...not sure what this is and I dont think i want to know.,-19,220,20","0"
"21293","","survey-text","123","1312828","0.0-123.0-0.0","A19Z68L0RHQVWL","","","","{""Q0"":""very modern  nice color usage""}","","","","","","","","","","","","","","","","","","","","","","",""
"11634.199999988079","","image-slider-response","124","1324468","0.0-124.0","A19Z68L0RHQVWL","","","","","42","","","","","","","","","","","","","","","","","","","","","",""
"null","","image-button-response","125","1329486","0.0-125.0","A19Z68L0RHQVWL","img_art/8.jpg","null","","","","","","","","","","","","","","","","","","","","","","","","",""
"16499","","image-button-response","126","1345994","0.0-126.0","A19Z68L0RHQVWL","img_art/8.jpg","4","","","","","","","","","","","","","","","","","","","","","","","","",""
"347","","image-button-response","127","1346350","0.0-127.0-0.0","A19Z68L0RHQVWL","img_art/8.jpg","3","","","","","","","","","","","","","","","","","","","","","","","","",""
"5775","","image-button-response","128","1352134","0.0-128.0-0.0","A19Z68L0RHQVWL","img_art/8.jpg","0","","","","","","","","","","","","","","","","","","","","","","","","",""
"null","","html-keyboard-response","129","1353143","0.0-129.0","A19Z68L0RHQVWL","<p style=""font-size: 48px;"">+</p>","","","","","null","allTrialResponses","1000","1","12","img_art/8.jpg","42","very modern  nice color usage","Kelly,Lindsey,Victoria,Gabriela,Jacqueline,Taylor","Interesting, i really like the face and the moon. Realy detailed and you see something new with each look.,11,220,20","Pleasant colors, lots of interest. Not sure what's going on but I like it.,20,400,20","makes me think of a busy city,-18,400,20","I like that it sort of looks like a cityscape,9,140,20","This is kind of neat. I really like how things are oriented and the shapes used.,18,300,20","Looks like it would be an interesting place to live,35,340,20","Jacqueline","This is kind of neat. I really like how things are oriented and the shapes used.,18,300,20","Gabriela","I like that it sort of looks like a cityscape,9,140,20","Kelly","Interesting, i really like the face and the moon. Realy detailed and you see something new with each look.,11,220,20","0"
"16356","","survey-text","130","1369549","0.0-130.0-0.0","A19Z68L0RHQVWL","","","","{""Q0"":""messy but still can see what it is  I think""}","","","","","","","","","","","","","","","","","","","","","","",""
"2908.1000000089407","","image-slider-response","131","1372467","0.0-131.0","A19Z68L0RHQVWL","","","","","12","","","","","","","","","","","","","","","","","","","","","",""
"null","","image-button-response","132","1377486","0.0-132.0","A19Z68L0RHQVWL","img_art/19.jpg","null","","","","","","","","","","","","","","","","","","","","","","","","",""
"1706","","image-button-response","133","1379200","0.0-133.0","A19Z68L0RHQVWL","img_art/19.jpg","0","","","","","","","","","","","","","","","","","","","","","","","","",""
"1951","","image-button-response","134","1381160","0.0-134.0-0.0","A19Z68L0RHQVWL","img_art/19.jpg","3","","","","","","","","","","","","","","","","","","","","","","","","",""
"4077","","image-button-response","135","1385253","0.0-135.0-0.0","A19Z68L0RHQVWL","img_art/19.jpg","4","","","","","","","","","","","","","","","","","","","","","","","","",""
"null","","html-keyboard-response","136","1386772","0.0-136.0","A19Z68L0RHQVWL","<p style=""font-size: 48px;"">+</p>","","","","","null","allTrialResponses","1500","1","13","img_art/19.jpg","12","messy but still can see what it is  I think","Kelly,Cheyenne,Madison,Gabriela,Jacqueline,Makayla","TOo much brown.,-24,220,20","Solid use of colors but wished it looked more realistic.,12,200,20","Seems unfinished and sloppy,-11,60,20","it looks messy and non-unique.,-9,140,20","This is just a mess.,-30,300,20","Looks like hustle and bustle ,,3,80,20","Kelly","TOo much brown.,-24,220,20","Gabriela","it looks messy and non-unique.,-9,140,20","Jacqueline","This is just a mess.,-30,300,20","0"
"13421","","survey-text","137","1400242","0.0-137.0-0.0","A19Z68L0RHQVWL","","","","{""Q0"":""Looks like a bunch of dots""}","","","","","","","","","","","","","","","","","","","","","","",""
"2550.7999999970198","","image-slider-response","138","1402804","0.0-138.0","A19Z68L0RHQVWL","","","","","-40","","","","","","","","","","","","","","","","","","","","","",""
"null","","image-button-response","139","1407822","0.0-139.0","A19Z68L0RHQVWL","img_art/15.jpg","null","","","","","","","","","","","","","","","","","","","","","","","","",""
"1729","","image-button-response","140","1409558","0.0-140.0","A19Z68L0RHQVWL","img_art/15.jpg","0","","","","","","","","","","","","","","","","","","","","","","","","",""
"3774","","image-button-response","141","1413341","0.0-141.0-0.0","A19Z68L0RHQVWL","img_art/15.jpg","4","","","","","","","","","","","","","","","","","","","","","","","","",""
"1511","","image-button-response","142","1414863","0.0-142.0-0.0","A19Z68L0RHQVWL","img_art/15.jpg","3","","","","","","","","","","","","","","","","","","","","","","","","",""
"null","","html-keyboard-response","143","1416382","0.0-143.0","A19Z68L0RHQVWL","<p style=""font-size: 48px;"">+</p>","","","","","null","allTrialResponses","1500","1","14","img_art/15.jpg","-40","Looks like a bunch of dots","Kelly,Melissa,Olivia,Gabriela,Jacqueline,Michaela","I can't really make out what this is supposed to be.,-8,220,20","reminds me of birds in trees,14,240,20","Black reminds me of darkness,-18,40,20","it is dark and gloomy,-9,140,20","I don't like how the black dots are aligned.,-20,300,20","Reminds me of lilacs,26,260,20","Kelly","I can't really make out what this is supposed to be.,-8,220,20","Jacqueline","I don't like how the black dots are aligned.,-20,300,20","Gabriela","it is dark and gloomy,-9,140,20","0"
"16604","","survey-text","144","1433039","0.0-144.0-0.0","A19Z68L0RHQVWL","","","","{""Q0"":""bad color combination dirty looking""}","","","","","","","","","","","","","","","","","","","","","","",""
"22791.29999999702","","image-slider-response","145","1455836","0.0-145.0","A19Z68L0RHQVWL","","","","","-45","","","","","","","","","","","","","","","","","","","","","",""
"null","","image-button-response","146","1460862","0.0-146.0","A19Z68L0RHQVWL","img_art/27.jpg","null","","","","","","","","","","","","","","","","","","","","","","","","",""
"4967","","image-button-response","147","1465837","0.0-147.0","A19Z68L0RHQVWL","img_art/27.jpg","5","","","","","","","","","","","","","","","","","","","","","","","","",""
"4477","","image-button-response","148","1470327","0.0-148.0-0.0","A19Z68L0RHQVWL","img_art/27.jpg","4","","","","","","","","","","","","","","","","","","","","","","","","",""
"5014","","image-button-response","149","1475353","0.0-149.0-0.0","A19Z68L0RHQVWL","img_art/27.jpg","0","","","","","","","","","","","","","","","","","","","","","","","","",""
"null","","html-keyboard-response","150","1476366","0.0-150.0","A19Z68L0RHQVWL","<p style=""font-size: 48px;"">+</p>","","","","","null","allTrialResponses","1000","1","15","img_art/27.jpg","-45","bad color combination dirty looking","Kelly,Morgan,Samantha,Gabriela,Jacqueline,Savannah","The green stick drawings or whatever they are ruin it for me.,-23,220,20","Messy field of various plants.,-5,380,20","I like all it has going but i wouldnt put it in my house unless my child did it,25,140,20","I like hoe it looks like a fall day in a city,45,140,20","I don't really see anything to this art.,-5,300,20","An abstract piece with such lifeless colors.,-26,200,20","Savannah","An abstract piece with such lifeless colors.,-26,200,20","Jacqueline","I don't really see anything to this art.,-5,300,20","Kelly","The green stick drawings or whatever they are ruin it for me.,-23,220,20","0"
"4276","","survey-text","151","1480754","0.0-151.0-0.0","A19Z68L0RHQVWL","","","","{""Q0"":""course""}","","","","","","","","","","","","","","","","","","","","","","",""
"15118","","survey-text","152","1495885","0.0-152.0-0.0","A19Z68L0RHQVWL","","","","{""Q0"":""sad and bleak""}","","","","","","","","","","","","","","","","","","","","","","",""
"3189.6000000089407","","image-slider-response","153","1499082","0.0-153.0","A19Z68L0RHQVWL","","","","","-23","","","","","","","","","","","","","","","","","","","","","",""
"null","","image-button-response","154","1504102","0.0-154.0","A19Z68L0RHQVWL","img_art/28.jpg","null","","","","","","","","","","","","","","","","","","","","","","","","",""
"1046","","image-button-response","155","1505157","0.0-155.0","A19Z68L0RHQVWL","img_art/28.jpg","3","","","","","","","","","","","","","","","","","","","","","","","","",""
"1514","","image-button-response","156","1506681","0.0-156.0-0.0","A19Z68L0RHQVWL","img_art/28.jpg","0","","","","","","","","","","","","","","","","","","","","","","","","",""
"7482","","image-button-response","157","1514174","0.0-157.0-0.0","A19Z68L0RHQVWL","img_art/28.jpg","2","","","","","","","","","","","","","","","","","","","","","","","","",""
"null","","html-keyboard-response","158","1514687","0.0-158.0","A19Z68L0RHQVWL","<p style=""font-size: 48px;"">+</p>","","","","","null","allTrialResponses","500","1","16","img_art/28.jpg","-23","sad and bleak","Kelly,Margaret,Brooke,Jamie,Jacqueline,Savannah","This one is too bleak, not a fan of the image or colors.,-28,220,20","i like the neutral color pallette but i dont know what i am looking at,26,100,20","dislike the colors. it looks like a bike, but misshapen wheels like it was wrecked.,-10,60,20","Gloomy colors and picture,5,320,20","I don't like the washed out colors.,-15,300,20","White and dark balance is way off- Seems dull.,-33,200,20","Jamie","Gloomy colors and picture,5,320,20","Kelly","This one is too bleak, not a fan of the image or colors.,-28,220,20","Brooke","dislike the colors. it looks like a bike, but misshapen wheels like it was wrecked.,-10,60,20","0"
"15744","","survey-text","159","1530498","0.0-159.0-0.0","A19Z68L0RHQVWL","","","","{""Q0"":""looks like a small child made it""}","","","","","","","","","","","","","","","","","","","","","","",""
"5131.0999999940395","","image-slider-response","160","1535635","0.0-160.0","A19Z68L0RHQVWL","","","","","26","","","","","","","","","","","","","","","","","","","","","",""
"null","","image-button-response","161","1540648","0.0-161.0","A19Z68L0RHQVWL","img_art/9.jpg","null","","","","","","","","","","","","","","","","","","","","","","","","",""
"936","","image-button-response","162","1541591","0.0-162.0","A19Z68L0RHQVWL","img_art/9.jpg","3","","","","","","","","","","","","","","","","","","","","","","","","",""
"2385","","image-button-response","163","1543984","0.0-163.0-0.0","A19Z68L0RHQVWL","img_art/9.jpg","0","","","","","","","","","","","","","","","","","","","","","","","","",""
"6144","","image-button-response","164","1550139","0.0-164.0-0.0","A19Z68L0RHQVWL","img_art/9.jpg","5","","","","","","","","","","","","","","","","","","","","","","","","",""
"null","","html-keyboard-response","165","1550651","0.0-165.0","A19Z68L0RHQVWL","<p style=""font-size: 48px;"">+</p>","","","","","null","allTrialResponses","500","1","17","img_art/9.jpg","26","looks like a small child made it","Kelly,Nicole,Brooke,Jamie,Cassandra,Ashley","It looks like a child drew it.,-28,220,20","It's peaceful and relaxing,24,20,20","Dark fantasy seaside cave carnival? Fun.,15,60,20","Mash up of colors and designs don't really go together,-5,320,20","Stuipid looking...dumb,-48,120,20","Similar to the tohers, but not as clear.,11,320,20","Jamie","Mash up of colors and designs don't really go together,-5,320,20","Kelly","It looks like a child drew it.,-28,220,20","Ashley","Similar to the tohers, but not as clear.,11,320,20","0"
"15621","","survey-text","166","1566345","0.0-166.0-0.0","A19Z68L0RHQVWL","","","","{""Q0"":""rushed and incomplete""}","","","","","","","","","","","","","","","","","","","","","","",""
"4500.5999999940395","","image-slider-response","167","1570855","0.0-167.0","A19Z68L0RHQVWL","","","","","-36","","","","","","","","","","","","","","","","","","","","","",""
"null","","image-button-response","168","1575871","0.0-168.0","A19Z68L0RHQVWL","img_art/10.jpg","null","","","","","","","","","","","","","","","","","","","","","","","","",""
"8280","","image-button-response","169","1584160","0.0-169.0","A19Z68L0RHQVWL","img_art/10.jpg","4","","","","","","","","","","","","","","","","","","","","","","","","",""
"2749","","image-button-response","170","1586920","0.0-170.0-0.0","A19Z68L0RHQVWL","img_art/10.jpg","0","","","","","","","","","","","","","","","","","","","","","","","","",""
"2062","","image-button-response","171","1588992","0.0-171.0-0.0","A19Z68L0RHQVWL","img_art/10.jpg","5","","","","","","","","","","","","","","","","","","","","","","","","",""
"null","","html-keyboard-response","172","1590505","0.0-172.0","A19Z68L0RHQVWL","<p style=""font-size: 48px;"">+</p>","","","","","null","allTrialResponses","1500","1","18","img_art/10.jpg","-36","rushed and incomplete","Kelly,Allison,Bailey,Jamie,Sara,Ashley","I cant tell what this is supposed to be, but I enjoy the simplicity of it.,28,220,20","I like the contrast,10,140,20","For black and white, this is pretty vibrant and cool. I like this.,39,360,20","Well done designs for being considered abstract,45,320,20","I don't like the colors,-20,160,20","AWESOME VIOLIN!`,26,320,20","Sara","I don't like the colors,-20,160,20","Kelly","I cant tell what this is supposed to be, but I enjoy the simplicity of it.,28,220,20","Ashley","AWESOME VIOLIN!`,26,320,20","0"
"16447","","survey-text","173","1607012","0.0-173.0-0.0","A19Z68L0RHQVWL","","","","{""Q0"":""The big X is very distracting""}","","","","","","","","","","","","","","","","","","","","","","",""
"3865.7999999970198","","image-slider-response","174","1610885","0.0-174.0","A19Z68L0RHQVWL","","","","","9","","","","","","","","","","","","","","","","","","","","","",""
"null","","image-button-response","175","1615904","0.0-175.0","A19Z68L0RHQVWL","img_art/29.jpg","null","","","","","","","","","","","","","","","","","","","","","","","","",""
"9107","","image-button-response","176","1625019","0.0-176.0","A19Z68L0RHQVWL","img_art/29.jpg","5","","","","","","","","","","","","","","","","","","","","","","","","",""
"5072","","image-button-response","177","1630102","0.0-177.0-0.0","A19Z68L0RHQVWL","img_art/29.jpg","2","","","","","","","","","","","","","","","","","","","","","","","","",""
"1595","","image-button-response","178","1631711","0.0-178.0-0.0","A19Z68L0RHQVWL","img_art/29.jpg","1","","","","","","","","","","","","","","","","","","","","","","","","",""
"null","","html-keyboard-response","179","1633226","0.0-179.0","A19Z68L0RHQVWL","<p style=""font-size: 48px;"">+</p>","","","","","null","allTrialResponses","1500","1","19","img_art/29.jpg","9","The big X is very distracting","Kelly,Vanessa,Mariah,Emma,Sara,Ashley","Too much going on, and I don't like the colors. It looks like a crime scene.,-50,220,20","I hate the red x over everything, hate the black hate how hopeless this is.,-50,380,20","It feels like looking through layers of frustration.,19,140,20","Feels messy, stressful,-22,60,20","I don't like the black,-50,160,20","It that an actual PAINTBUSH! Love it.,50,320,20","Ashley","It that an actual PAINTBUSH! Love it.,50,320,20","Mariah","It feels like looking through layers of frustration.,19,140,20","Vanessa","I hate the red x over everything, hate the black hate how hopeless this is.,-50,380,20","0"
"13405","","survey-text","180","1646696","0.0-180.0-0.0","A19Z68L0RHQVWL","","","","{""Q0"":""dying plant on a table  very sad looking""}","","","","","","","","","","","","","","","","","","","","","","",""
"2813.7999999970198","","image-slider-response","181","1649517","0.0-181.0","A19Z68L0RHQVWL","","","","","29","","","","","","","","","","","","","","","","","","","","","",""
"null","","image-button-response","182","1654538","0.0-182.0","A19Z68L0RHQVWL","img_art/14.jpg","null","","","","","","","","","","","","","","","","","","","","","","","","",""
"11828","","image-button-response","183","1666376","0.0-183.0","A19Z68L0RHQVWL","img_art/14.jpg","4","","","","","","","","","","","","","","","","","","","","","","","","",""
"1949","","image-button-response","184","1668340","0.0-184.0-0.0","A19Z68L0RHQVWL","img_art/14.jpg","3","","","","","","","","","","","","","","","","","","","","","","","","",""
"5176","","image-button-response","185","1673531","0.0-185.0-0.0","A19Z68L0RHQVWL","img_art/14.jpg","0","","","","","","","","","","","","","","","","","","","","","","","","",""
"null","","html-keyboard-response","186","1675055","0.0-186.0","A19Z68L0RHQVWL","<p style=""font-size: 48px;"">+</p>","","","","","null","allTrialResponses","1500","1","20","img_art/14.jpg","29","dying plant on a table  very sad looking","Brianna,Vanessa,Mariah,Jasmine,Grace,Ashley","It uses interesting techniques on this picture, but I have no feelings for or against.,1,20,20","I don't like the colors, but I espeically don't like all the negative space.,-20,380,20","The lighting feels like spring.,20,140,20","The colors are nice and it reminds me of a shrub or tree,10,340,20","Like some of the colors but not much else.,1,180,20","I like the color tone, it's kind of disturbing.,35,320,20","Grace","Like some of the colors but not much else.,1,180,20","Jasmine","The colors are nice and it reminds me of a shrub or tree,10,340,20","Brianna","It uses interesting techniques on this picture, but I have no feelings for or against.,1,20,20","0"
"3792","","survey-text","187","1678977","0.0-187.0-0.0","A19Z68L0RHQVWL","","","","{""Q0"":""we""}","","","","","","","","","","","","","","","","","","","","","","",""
"9622","","survey-text","188","1688608","0.0-188.0-0.0","A19Z68L0RHQVWL","","","","{""Q0"":""hurried and bloody""}","","","","","","","","","","","","","","","","","","","","","","",""
"3188.7999999970198","","image-slider-response","189","1691810","0.0-189.0","A19Z68L0RHQVWL","","","","","27","","","","","","","","","","","","","","","","","","","","","",""
"null","","image-button-response","190","1696824","0.0-190.0","A19Z68L0RHQVWL","img_art/3.jpg","null","","","","","","","","","","","","","","","","","","","","","","","","",""
"8243","","image-button-response","191","1705075","0.0-191.0","A19Z68L0RHQVWL","img_art/3.jpg","5","","","","","","","","","","","","","","","","","","","","","","","","",""
"1435","","image-button-response","192","1706523","0.0-192.0-0.0","A19Z68L0RHQVWL","img_art/3.jpg","2","","","","","","","","","","","","","","","","","","","","","","","","",""
"1360","","image-button-response","193","1707893","0.0-193.0-0.0","A19Z68L0RHQVWL","img_art/3.jpg","1","","","","","","","","","","","","","","","","","","","","","","","","",""
"null","","html-keyboard-response","194","1709413","0.0-194.0","A19Z68L0RHQVWL","<p style=""font-size: 48px;"">+</p>","","","","","null","allTrialResponses","1500","1","21","img_art/3.jpg","27","hurried and bloody","Brianna,Rachel,Claire,Jasmine,Grace,Erica","It's very plain,-20,20,20","Too red and chaotic. Not calming.,-41,80,20","looks like a kid scribbled with crayon,-35,260,20","I don't really have a strong reaction to this one,0,340,20","Just no. I love red but this looks like blood splatter on a wall from a horrific killing.,-45,180,20","Associates with blood and crime scene,-12,80,20","Erica","Associates with blood and crime scene,-12,80,20","Claire","looks like a kid scribbled with crayon,-35,260,20","Rachel","Too red and chaotic. Not calming.,-41,80,20","0"
"24649","","survey-text","195","1734131","0.0-195.0-0.0","A19Z68L0RHQVWL","","","","{""Q0"":""beautiful waterall  very calming and relaxing  great colors.""}","","","","","","","","","","","","","","","","","","","","","","",""
"3670.0999999940395","","image-slider-response","196","1737814","0.0-196.0","A19Z68L0RHQVWL","","","","","44","","","","","","","","","","","","","","","","","","","","","",""
"null","","image-button-response","197","1742842","0.0-197.0","A19Z68L0RHQVWL","img_art/24.jpg","null","","","","","","","","","","","","","","","","","","","","","","","","",""
"779","","image-button-response","198","1743628","0.0-198.0","A19Z68L0RHQVWL","img_art/24.jpg","0","","","","","","","","","","","","","","","","","","","","","","","","",""
"3989","","image-button-response","199","1747625","0.0-199.0-0.0","A19Z68L0RHQVWL","img_art/24.jpg","1","","","","","","","","","","","","","","","","","","","","","","","","",""
"1688","","image-button-response","200","1749325","0.0-200.0-0.0","A19Z68L0RHQVWL","img_art/24.jpg","4","","","","","","","","","","","","","","","","","","","","","","","","",""
"null","","html-keyboard-response","201","1750334","0.0-201.0","A19Z68L0RHQVWL","<p style=""font-size: 48px;"">+</p>","","","","","null","allTrialResponses","1000","1","22","img_art/24.jpg","44","beautiful waterall  very calming and relaxing  great colors.","Alicia,Rachel,Claire,Chloe,Kaylee,Erica","Nature, abstract, I'd hang this in my house.,37,120,20","Looks like a beautiful stream rolling through terrain of rocks and flowers.,43,80,20","reminds me of a beautiful waterfall,50,260,20","Pretty but cheesy,-15,220,20","lovely forest vibes,36,200,20","Very refreshing and vigorous,19,80,20","Alicia","Nature, abstract, I'd hang this in my house.,37,120,20","Rachel","Looks like a beautiful stream rolling through terrain of rocks and flowers.,43,80,20","Kaylee","lovely forest vibes,36,200,20","0"
"19951","","survey-text","202","1770360","0.0-202.0-0.0","A19Z68L0RHQVWL","","","","{""Q0"":""mushed colors do not like the color scheme used""}","","","","","","","","","","","","","","","","","","","","","","",""
"2433","","image-slider-response","203","1772803","0.0-203.0","A19Z68L0RHQVWL","","","","","-37","","","","","","","","","","","","","","","","","","","","","",""
"null","","image-button-response","204","1777824","0.0-204.0","A19Z68L0RHQVWL","img_art/1.jpg","null","","","","","","","","","","","","","","","","","","","","","","","","",""
"7191","","image-button-response","205","1785025","0.0-205.0","A19Z68L0RHQVWL","img_art/1.jpg","5","","","","","","","","","","","","","","","","","","","","","","","","",""
"2308","","image-button-response","206","1787343","0.0-206.0-0.0","A19Z68L0RHQVWL","img_art/1.jpg","0","","","","","","","","","","","","","","","","","","","","","","","","",""
"3148","","image-button-response","207","1790503","0.0-207.0-0.0","A19Z68L0RHQVWL","img_art/1.jpg","2","","","","","","","","","","","","","","","","","","","","","","","","",""
"null","","html-keyboard-response","208","1791515","0.0-208.0","A19Z68L0RHQVWL","<p style=""font-size: 48px;"">+</p>","","","","","null","allTrialResponses","1000","1","23","img_art/1.jpg","-37","mushed colors do not like the color scheme used","Alicia,Rachel,Kayla,Sabrina,Kaylee,Emily","just colors mixed together. not interesting.,5,120,20","While I like the colors, I find nothing interesting or thought provoking about it.,10,80,20","Happy! Reminds me of hiking in tennesee.,18,180,20","I love the calming comfort and safe feeling of this,50,120,20","a colorful piece of art,25,200,20","Just a mess though a better mess than some others.,-11,40,20","Emily","Just a mess though a better mess than some others.,-11,40,20","Alicia","just colors mixed together. not interesting.,5,120,20","Kayla","Happy! Reminds me of hiking in tennesee.,18,180,20","0"
"27999","","survey-text","209","1819589","0.0-209.0-0.0","A19Z68L0RHQVWL","","","","{""Q0"":""very sad and abstract ""}","","","","","","","","","","","","","","","","","","","","","","",""
"3342.199999988079","","image-slider-response","210","1822939","0.0-210.0","A19Z68L0RHQVWL","","","","","22","","","","","","","","","","","","","","","","","","","","","",""
"null","","image-button-response","211","1827964","0.0-211.0","A19Z68L0RHQVWL","img_art/21.jpg","null","","","","","","","","","","","","","","","","","","","","","","","","",""
"2151","","image-button-response","212","1830123","0.0-212.0","A19Z68L0RHQVWL","img_art/21.jpg","2","","","","","","","","","","","","","","","","","","","","","","","","",""
"3416","","image-button-response","213","1833550","0.0-213.0-0.0","A19Z68L0RHQVWL","img_art/21.jpg","0","","","","","","","","","","","","","","","","","","","","","","","","",""
"5174","","image-button-response","214","1838735","0.0-214.0-0.0","A19Z68L0RHQVWL","img_art/21.jpg","5","","","","","","","","","","","","","","","","","","","","","","","","",""
"null","","html-keyboard-response","215","1839245","0.0-215.0","A19Z68L0RHQVWL","<p style=""font-size: 48px;"">+</p>","","","","","null","allTrialResponses","500","1","24","img_art/21.jpg","22","very sad and abstract ","Alicia,Laura,Kayla,Mikayla,Kathryn,Emily","Don't know why I like it, cant describe, maybe many landscapes?,47,120,20","a serene, calm and eloquent storm,9,320,20","I like that it reminds me of an abstract version of a Bob Ross painting.,36,180,20","Nothing exciting in this one.,-36,300,20","This feels chaotic, like a battle or a storm.,-20,140,20","What's the point?,-30,40,20","Kayla","I like that it reminds me of an abstract version of a Bob Ross painting.,36,180,20","Alicia","Don't know why I like it, cant describe, maybe many landscapes?,47,120,20","Emily","What's the point?,-30,40,20","0"
"13915","","survey-text","216","1853235","0.0-216.0-0.0","A19Z68L0RHQVWL","","","","{""Q0"":""cleaning out the paint brush""}","","","","","","","","","","","","","","","","","","","","","","",""
"2708.7000000029802","","image-slider-response","217","1855955","0.0-217.0","A19Z68L0RHQVWL","","","","","-47","","","","","","","","","","","","","","","","","","","","","",""
"3227","","image-button-response","218","1860980","0.0-218.0","A19Z68L0RHQVWL","img_art/30.jpg","1","","","","","","","","","","","","","","","","","","","","","","","","",""
"1508","","image-button-response","219","1862500","0.0-219.0","A19Z68L0RHQVWL","img_art/30.jpg","1","","","","","","","","","","","","","","","","","","","","","","","","",""
"4164","","image-button-response","220","1866673","0.0-220.0-0.0","A19Z68L0RHQVWL","img_art/30.jpg","0","","","","","","","","","","","","","","","","","","","","","","","","",""
"2185","","image-button-response","221","1868871","0.0-221.0-0.0","A19Z68L0RHQVWL","img_art/30.jpg","3","","","","","","","","","","","","","","","","","","","","","","","","",""
"null","","html-keyboard-response","222","1869383","0.0-222.0","A19Z68L0RHQVWL","<p style=""font-size: 48px;"">+</p>","","","","","null","allTrialResponses","500","1","25","img_art/30.jpg","-47","cleaning out the paint brush","Alicia,Michelle,Kayla,Stephanie,Angela,Emily","Neat, but simple, I could make this. not skilled.,9,120,20","Don't like it at all, looks like a someone smeared paint with their fingers,-25,280,20","It's soothing- the page is full, but there aren't too many things happening.,23,180,20","My kindergarten class could do this,-50,300,20","Really don't like this piece. It feels very lazy to me.,-31,260,20","It looks like a child did it. There is nothing talented or special about it.,-16,40,20","Michelle","Don't like it at all, looks like a someone smeared paint with their fingers,-25,280,20","Alicia","Neat, but simple, I could make this. not skilled.,9,120,20","Stephanie","My kindergarten class could do this,-50,300,20","0"
"4971","","survey-text","223","1874504","0.0-223.0-0.0","A19Z68L0RHQVWL","","","","{""Q0"":""table""}","","","","","","","","","","","","","","","","","","","","","","",""
"23978","","survey-text","224","1898488","0.0-224.0-0.0","A19Z68L0RHQVWL","","","","{""Q0"":""very abstract but eye catching despite the bad colors used""}","","","","","","","","","","","","","","","","","","","","","","",""
"2580","","image-slider-response","225","1901078","0.0-225.0","A19Z68L0RHQVWL","","","","","13","","","","","","","","","","","","","","","","","","","","","",""
"null","","image-button-response","226","1906091","0.0-226.0","A19Z68L0RHQVWL","img_art/2.jpg","null","","","","","","","","","","","","","","","","","","","","","","","","",""
"7729","","image-button-response","227","1913827","0.0-227.0","A19Z68L0RHQVWL","img_art/2.jpg","4","","","","","","","","","","","","","","","","","","","","","","","","",""
"5137","","image-button-response","228","1918977","0.0-228.0-0.0","A19Z68L0RHQVWL","img_art/2.jpg","0","","","","","","","","","","","","","","","","","","","","","","","","",""
"1878","","image-button-response","229","1920866","0.0-229.0-0.0","A19Z68L0RHQVWL","img_art/2.jpg","3","","","","","","","","","","","","","","","","","","","","","","","","",""
"null","","html-keyboard-response","230","1921886","0.0-230.0","A19Z68L0RHQVWL","<p style=""font-size: 48px;"">+</p>","","","","","null","allTrialResponses","1000","1","26","img_art/2.jpg","13","very abstract but eye catching despite the bad colors used","Alicia,Michelle,Julia,Stephanie,Caitlin,Isabella","retro, amateurish, not a fan of the colors together.,-10,120,20","Don't like the puke green color and also too abstact,-14,280,20","I like how it looks like a cute smiling face,43,40,20","The colors are what I like. It looks like a smiling face too.,32,300,20","Have now advanced from kindergarten to the first grade.,-5,80,20","Feels like a playground or park vibe,27,280,20","Caitlin","Have now advanced from kindergarten to the first grade.,-5,80,20","Alicia","retro, amateurish, not a fan of the colors together.,-10,120,20","Stephanie","The colors are what I like. It looks like a smiling face too.,32,300,20","0"
"27050","","survey-text","231","1949017","0.0-231.0-0.0","A19Z68L0RHQVWL","","","","{""Q0"":""skyline weird use of the black key shape""}","","","","","","","","","","","","","","","","","","","","","","",""
"2807.800000011921","","image-slider-response","232","1951831","0.0-232.0","A19Z68L0RHQVWL","","","","","25","","","","","","","","","","","","","","","","","","","","","",""
"null","","image-button-response","233","1956857","0.0-233.0","A19Z68L0RHQVWL","img_art/22.jpg","null","","","","","","","","","","","","","","","","","","","","","","","","",""
"4015","","image-button-response","234","1960881","0.0-234.0","A19Z68L0RHQVWL","img_art/22.jpg","4","","","","","","","","","","","","","","","","","","","","","","","","",""
"3032","","image-button-response","235","1963922","0.0-235.0-0.0","A19Z68L0RHQVWL","img_art/22.jpg","0","","","","","","","","","","","","","","","","","","","","","","","","",""
"4772","","image-button-response","236","1968707","0.0-236.0-0.0","A19Z68L0RHQVWL","img_art/22.jpg","1","","","","","","","","","","","","","","","","","","","","","","","","",""
"null","","html-keyboard-response","237","1970218","0.0-237.0","A19Z68L0RHQVWL","<p style=""font-size: 48px;"">+</p>","","","","","null","allTrialResponses","1500","1","27","img_art/22.jpg","25","skyline weird use of the black key shape","Alicia,Erin,Abigail,Stephanie,Caitlin,Courtney","Could be interpreted so many ways, bold. I like it.,29,120,20","Seems dated with geometic forms,-20,120,20","The colors are too dark, too much red,2,20,20","I don't get much of a reaction.,11,300,20","Looks like the kind of art I would see at the doctor's office.,-5,80,20","Looks hot where ever that is.,-8,280,20","Caitlin","Looks like the kind of art I would see at the doctor's office.,-5,80,20","Alicia","Could be interpreted so many ways, bold. I like it.,29,120,20","Erin","Seems dated with geometic forms,-20,120,20","0"
"12870","","survey-text","238","1983164","0.0-238.0-0.0","A19Z68L0RHQVWL","","","","{""Q0"":""hate the squares""}","","","","","","","","","","","","","","","","","","","","","","",""
"3677.7999999970198","","image-slider-response","239","1986851","0.0-239.0","A19Z68L0RHQVWL","","","","","-50","","","","","","","","","","","","","","","","","","","","","",""
"4236","","image-button-response","240","1991874","0.0-240.0","A19Z68L0RHQVWL","img_art/12.jpg","5","","","","","","","","","","","","","","","","","","","","","","","","",""
"2054","","image-button-response","241","1993938","0.0-241.0","A19Z68L0RHQVWL","img_art/12.jpg","5","","","","","","","","","","","","","","","","","","","","","","","","",""
"922","","image-button-response","242","1994872","0.0-242.0-0.0","A19Z68L0RHQVWL","img_art/12.jpg","4","","","","","","","","","","","","","","","","","","","","","","","","",""
"4832","","image-button-response","243","1999717","0.0-243.0-0.0","A19Z68L0RHQVWL","img_art/12.jpg","2","","","","","","","","","","","","","","","","","","","","","","","","",""
"null","","html-keyboard-response","244","2000224","0.0-244.0","A19Z68L0RHQVWL","<p style=""font-size: 48px;"">+</p>","","","","","null","allTrialResponses","500","1","28","img_art/12.jpg","-50","hate the squares","Alicia,Erin,Crystal,Jennifer,Caitlin,Kaitlin","it's ok, but blocky, looks old.,3,120,20","City scape but palette is odd,4,120,20","I like the sectioned nature of the squares and curves. Not my favorite but still a good one.,27,300,20","This piece doesn't provoke any kind of reaction,0,380,20","Just wish it was more colorful.,20,80,20","too much - just overcrowded,-20,60,20","Kaitlin","too much - just overcrowded,-20,60,20","Caitlin","Just wish it was more colorful.,20,80,20","Crystal","I like the sectioned nature of the squares and curves. Not my favorite but still a good one.,27,300,20","0"
"14249","","survey-text","245","2014562","0.0-245.0-0.0","A19Z68L0RHQVWL","","","","{""Q0"":""great color scheme""}","","","","","","","","","","","","","","","","","","","","","","",""
"2501","","image-slider-response","246","2017074","0.0-246.0","A19Z68L0RHQVWL","","","","","37","","","","","","","","","","","","","","","","","","","","","",""
"3010","","image-button-response","247","2022099","0.0-247.0","A19Z68L0RHQVWL","img_art/13.jpg","4","","","","","","","","","","","","","","","","","","","","","","","","",""
"716","","image-button-response","248","2022822","0.0-248.0","A19Z68L0RHQVWL","img_art/13.jpg","3","","","","","","","","","","","","","","","","","","","","","","","","",""
"1055","","image-button-response","249","2023887","0.0-249.0-0.0","A19Z68L0RHQVWL","img_art/13.jpg","4","","","","","","","","","","","","","","","","","","","","","","","","",""
"3540","","image-button-response","250","2027438","0.0-250.0-0.0","A19Z68L0RHQVWL","img_art/13.jpg","5","","","","","","","","","","","","","","","","","","","","","","","","",""
"null","","html-keyboard-response","251","2028447","0.0-251.0","A19Z68L0RHQVWL","<p style=""font-size: 48px;"">+</p>","","","","","null","allTrialResponses","1000","1","29","img_art/13.jpg","37","great color scheme","Brittany,Diana,Crystal,Heather,Caitlin,Kaitlin","Not really a fan of ""splash"" art.,-20,40,20","I really loved the color contrast. Having the white stripe in the center makes the it appear 3D.,11,380,20","Reminiscent of Jackson Pollock and gives me a feeling of chaotic satisfaction,50,300,20","rain in blue black and white,1,260,20","Simple and in my favorite color. I actually like this one.,40,80,20","I like this picture. The choice of colors are good,31,60,20","Heather","rain in blue black and white,1,260,20","Caitlin","Simple and in my favorite color. I actually like this one.,40,80,20","Kaitlin","I like this picture. The choice of colors are good,31,60,20","0"
"7373","","survey-text","252","2035905","0.0-252.0-0.0","A19Z68L0RHQVWL","","","","{""Q0"":""unfinished""}","","","","","","","","","","","","","","","","","","","","","","",""
"2326","","image-slider-response","253","2038241","0.0-253.0","A19Z68L0RHQVWL","","","","","-34","","","","","","","","","","","","","","","","","","","","","",""
"null","","image-button-response","254","2043255","0.0-254.0","A19Z68L0RHQVWL","img_art/5.jpg","null","","","","","","","","","","","","","","","","","","","","","","","","",""
"4460","","image-button-response","255","2047723","0.0-255.0","A19Z68L0RHQVWL","img_art/5.jpg","4","","","","","","","","","","","","","","","","","","","","","","","","",""
"1408","","image-button-response","256","2049142","0.0-256.0-0.0","A19Z68L0RHQVWL","img_art/5.jpg","5","","","","","","","","","","","","","","","","","","","","","","","","",""
"1756","","image-button-response","257","2050909","0.0-257.0-0.0","A19Z68L0RHQVWL","img_art/5.jpg","1","","","","","","","","","","","","","","","","","","","","","","","","",""
"null","","html-keyboard-response","258","2051421","0.0-258.0","A19Z68L0RHQVWL","<p style=""font-size: 48px;"">+</p>","","","","","null","allTrialResponses","500","1","30","img_art/5.jpg","-34","unfinished","Jordan,Chelsea,Sarah,Heather,Caitlin,Kaitlin","I dont really get anything from this,-25,20,20","I'm not sure what is going on here.,-46,180,20","looks very childish,-35,180,20","its something. i just dont know what it is.,1,260,20","More kindergarten art class. Who buys this stuff?,-45,80,20","a bit confused about this picture,-9,60,20","Caitlin","More kindergarten art class. Who buys this stuff?,-45,80,20","Kaitlin","a bit confused about this picture,-9,60,20","Chelsea","I'm not sure what is going on here.,-46,180,20","0"
"3744","","image-button-response_instructions","259","2055254","0.0-259.0","A19Z68L0RHQVWL","","0","instructions","","","","","","","","","","","","","","","","","","","","","","","",""
"1833","","image-button-response","260","2057177","0.0-260.0","A19Z68L0RHQVWL","","0","","","","","","","","","","","","","","","","","","","","","","","","",""
