"rt","url","trial_type","trial_index","time_elapsed","internal_node_id","participant_id","stimulus","button_pressed","Name","responses","response","key_press","variableName","fixationTime","condition","trial","photo","subjectRating","subjectResponse","agentsNames","agent_1_Response","agent_2_Response","agent_3_Response","agent_4_Response","agent_5_Response","agent_6_Response","kept_1_name","kept_1_response","kept_2_name","kept_2_response","kept_3_name","kept_3_response","errorCounter"
"10529","external_page_harvard.html","external-html","0","10581","0.0-0.0","A1A0F0BAX3CDTF","","","","","","","","","","","","","","","","","","","","","","","","","","",""
"1781","","image-button-response","1","12374","0.0-1.0","A1A0F0BAX3CDTF","","1","","","","","","","","","","","","","","","","","","","","","","","","",""
"2177","","image-button-response","2","14554","0.0-2.0-0.0","A1A0F0BAX3CDTF","","1","phone","","","","","","","","","","","","","","","","","","","","","","","",""
"5268","","survey-text","3","19834","0.0-3.0-0.0","A1A0F0BAX3CDTF","","","","{""Q0"":""A1A0F0BAX3CDTF""}","","","","","","","","","","","","","","","","","","","","","","",""
"3995","","image-button-response_instructions","4","23831","0.0-4.0","A1A0F0BAX3CDTF","","0","instructions","","","","","","","","","","","","","","","","","","","","","","","",""
"10028","","image-button-response_instructions","5","33875","0.0-5.0","A1A0F0BAX3CDTF","img_art/ins/popularity/ins1.png","0","instructions","","","","","","","","","","","","","","","","","","","","","","","",""
"2578","","image-button-response_instructions","6","36456","0.0-6.0","A1A0F0BAX3CDTF","img_art/ins/popularity/ins2.png","0","instructions","","","","","","","","","","","","","","","","","","","","","","","",""
"1662","","image-button-response_instructions","7","38119","0.0-7.0","A1A0F0BAX3CDTF","img_art/ins/popularity/ins2Extreme.png","0","instructions","","","","","","","","","","","","","","","","","","","","","","","",""
"3894","","image-button-response_instructions","8","42014","0.0-8.0","A1A0F0BAX3CDTF","img_art/ins/popularity/ins3KEEPpop.PNG","0","instructions","","","","","","","","","","","","","","","","","","","","","","","",""
"3555","","image-button-response_instructions","9","45584","0.0-9.0","A1A0F0BAX3CDTF","img_art/ins/popularity/ins3ANamepop.PNG","0","instructions","","","","","","","","","","","","","","","","","","","","","","","",""
"3199","","image-button-response_instructions","10","48784","0.0-10.0","A1A0F0BAX3CDTF","img_art/ins/popularity/ins3ARatingpop.png","0","instructions","","","","","","","","","","","","","","","","","","","","","","","",""
"4678","","image-button-response_instructions","11","53464","0.0-11.0","A1A0F0BAX3CDTF","img_art/ins/popularity/ins3ATextpop.png","0","instructions","","","","","","","","","","","","","","","","","","","","","","","",""
"2740","","image-button-response_instructions","12","56205","0.0-12.0","A1A0F0BAX3CDTF","img_art/ins/popularity/ins3ALikespop.png","0","instructions","","","","","","","","","","","","","","","","","","","","","","","",""
"1388","","image-button-response_instructions","13","57594","0.0-13.0","A1A0F0BAX3CDTF","img_art/ins/popularity/ins3KEEPpop.PNG","0","instructions","","","","","","","","","","","","","","","","","","","","","","","",""
"7627","","image-button-response_instructions","14","65223","0.0-14.0","A1A0F0BAX3CDTF","img_art/ins/popularity/ins3_5RED.png","0","instructions","","","","","","","","","","","","","","","","","","","","","","","",""
"4029","","image-button-response_instructions","15","69253","0.0-15.0","A1A0F0BAX3CDTF","img_art/ins/popularity/ins3KEEPpop.PNG","0","instructions","","","","","","","","","","","","","","","","","","","","","","","",""
"34970","","image-button-response_instructions","16","104224","0.0-16.0","A1A0F0BAX3CDTF","img_art/ins/popularity/ins4KEEPpop.PNG","0","instructions","","","","","","","","","","","","","","","","","","","","","","","",""
"2137","","image-button-response_instructions","17","106361","0.0-17.0","A1A0F0BAX3CDTF","img_art/ins/popularity/ins5KEEPpop.PNG","0","instructions","","","","","","","","","","","","","","","","","","","","","","","",""
"1521","","image-button-response_instructions","18","107883","0.0-18.0","A1A0F0BAX3CDTF","","0","instructions","","","","","","","","","","","","","","","","","","","","","","","",""
"7325","","survey-text","19","115234","0.0-19.0-0.0","A1A0F0BAX3CDTF","","","","{""Q0"":""but""}","","","","","","","","","","","","","","","","","","","","","","",""
"9468","","survey-text","20","124705","0.0-20.0-0.0","A1A0F0BAX3CDTF","","","","{""Q0"":""It was colorful""}","","","","","","","","","","","","","","","","","","","","","","",""
"3891","","image-slider-response","21","128603","0.0-21.0","A1A0F0BAX3CDTF","","","","","16","","","","","","","","","","","","","","","","","","","","","",""
"null","","image-button-response","22","133619","0.0-22.0","A1A0F0BAX3CDTF","img_art/ins/1.jpg","null","","","","","","","","","","","","","","","","","","","","","","","","",""
"3333","","image-button-response","23","136954","0.0-23.0","A1A0F0BAX3CDTF","img_art/ins/1.jpg","4","","","","","","","","","","","","","","","","","","","","","","","","",""
"4239","","image-button-response","24","141197","0.0-24.0-0.0","A1A0F0BAX3CDTF","img_art/ins/1.jpg","5","","","","","","","","","","","","","","","","","","","","","","","","",""
"904","","image-button-response","25","142104","0.0-25.0-0.0","A1A0F0BAX3CDTF","img_art/ins/1.jpg","0","","","","","","","","","","","","","","","","","","","","","","","","",""
"null","","html-keyboard-response","26","143606","0.0-26.0","A1A0F0BAX3CDTF","<p style=""font-size: 48px;"">+</p>","","","","","null","allTrialResponses","1500","1","-2","img_art/ins/1.jpg","16","It was colorful","Allison,Ashley,Beth,Dora,Erika,Jen","looks like a lot of things going on in the mist,20,20,20","I just don't get why these type of art would be popular,-32,40,20","This color reminds me of poo,-46,60,20","looks like what my niece in 3rd grade did this afternoon,-50,80,20","I like the sophisticated brushwork,40,100,20","It reminds me of a candy land dream I had,36,120,20","Erika","I like the sophisticated brushwork,40,100,20","Jen","It reminds me of a candy land dream I had,36,120,20","Allison","looks like a lot of things going on in the mist,20,20,20","0"
"13253","","survey-text","27","156864","0.0-27.0-0.0","A1A0F0BAX3CDTF","","","","{""Q0"":""there were many rockers""}","","","","","","","","","","","","","","","","","","","","","","",""
"4795","","image-slider-response","28","161664","0.0-28.0","A1A0F0BAX3CDTF","","","","","14","","","","","","","","","","","","","","","","","","","","","",""
"4091","","image-button-response","29","166667","0.0-29.0","A1A0F0BAX3CDTF","img_art/ins/2.jpg","4","","","","","","","","","","","","","","","","","","","","","","","","",""
"2681","","image-button-response","30","169364","0.0-30.0","A1A0F0BAX3CDTF","img_art/ins/2.jpg","5","","","","","","","","","","","","","","","","","","","","","","","","",""
"1781","","image-button-response","31","171154","0.0-31.0-0.0","A1A0F0BAX3CDTF","img_art/ins/2.jpg","0","","","","","","","","","","","","","","","","","","","","","","","","",""
"1398","","image-button-response","32","172553","0.0-32.0-0.0","A1A0F0BAX3CDTF","img_art/ins/2.jpg","1","","","","","","","","","","","","","","","","","","","","","","","","",""
"null","","html-keyboard-response","33","174065","0.0-33.0","A1A0F0BAX3CDTF","<p style=""font-size: 48px;"">+</p>","","","","","null","allTrialResponses","1500","1","-1","img_art/ins/2.jpg","14","there were many rockers","Allison,Kara,Katie,Jenna,Erika,Jen","I don't have strong feelings about this,10,20,20","I like the blocks of color arrangements,30,160,20","too much color!,-28,180,20","One of my pet peevs,-48,140,20","I would never be able to compose a sophisticated pallete like this,48,100,20","It reminds me of a fireplace,36,120,20","Jen","It reminds me of a fireplace,36,120,20","Allison","I don't have strong feelings about this,10,20,20","Kara","I like the blocks of color arrangements,30,160,20","0"
"11803","","survey-text","34","185877","0.0-34.0-0.0","A1A0F0BAX3CDTF","","","","{""Q0"":""some energy""}","","","","","","","","","","","","","","","","","","","","","","",""
"3888","","image-slider-response","35","189768","0.0-35.0","A1A0F0BAX3CDTF","","","","","17","","","","","","","","","","","","","","","","","","","","","",""
"4502","","image-button-response","36","194788","0.0-36.0","A1A0F0BAX3CDTF","img_art/ins/3.jpg","3","","","","","","","","","","","","","","","","","","","","","","","","",""
"1915","","image-button-response","37","196706","0.0-37.0","A1A0F0BAX3CDTF","img_art/ins/3.jpg","5","","","","","","","","","","","","","","","","","","","","","","","","",""
"1143","","image-button-response","38","197855","0.0-38.0-0.0","A1A0F0BAX3CDTF","img_art/ins/3.jpg","3","","","","","","","","","","","","","","","","","","","","","","","","",""
"1404","","image-button-response","39","199261","0.0-39.0-0.0","A1A0F0BAX3CDTF","img_art/ins/3.jpg","0","","","","","","","","","","","","","","","","","","","","","","","","",""
"null","","html-keyboard-response","40","199762","0.0-40.0","A1A0F0BAX3CDTF","<p style=""font-size: 48px;"">+</p>","","","","","null","allTrialResponses","500","1","0","img_art/ins/3.jpg","17","some energy","Allison,Kara,Rose,Leslie,Mary,Jen","enjoy the different shades of blue,22,20,20","calming blue is very nice,36,160,20","My daily routine, it's depressing,-20,240,20","It's an alright work,15,200,20","I like the overlapping of brushes,41,220,20","I can feel a rainy day from this painting,18,120,20","Jen","I can feel a rainy day from this painting,18,120,20","Leslie","It's an alright work,15,200,20","Allison","enjoy the different shades of blue,22,20,20","0"
"8746","","image-button-response_instructions","41","208516","0.0-41.0","A1A0F0BAX3CDTF","","0","instructions","","","","","","","","","","","","","","","","","","","","","","","",""
"18186","","survey-likert","42","226704","0.0-42.0-0.0","A1A0F0BAX3CDTF","","","","{""Q0"":"""",""Q1"":0,""Q2"":1}","","","","","","","","","","","","","","","","","","","","","","",""
"5066","","survey-text","43","231775","0.0-43.0-0.0","A1A0F0BAX3CDTF","","","","{""Q0"":""rock""}","","","","","","","","","","","","","","","","","","","","","","",""
"12775","","survey-text","44","244551","0.0-44.0-0.0","A1A0F0BAX3CDTF","","","","{""Q0"":""a girl with environment""}","","","","","","","","","","","","","","","","","","","","","","",""
"4512","","image-slider-response","45","249077","0.0-45.0","A1A0F0BAX3CDTF","","","","","15","","","","","","","","","","","","","","","","","","","","","",""
"3411","","image-button-response","46","254103","0.0-46.0","A1A0F0BAX3CDTF","img_art/25.jpg","1","","","","","","","","","","","","","","","","","","","","","","","","",""
"563","","image-button-response","47","254680","0.0-47.0","A1A0F0BAX3CDTF","img_art/25.jpg","1","","","","","","","","","","","","","","","","","","","","","","","","",""
"1811","","image-button-response","48","256494","0.0-48.0-0.0","A1A0F0BAX3CDTF","img_art/25.jpg","4","","","","","","","","","","","","","","","","","","","","","","","","",""
"1292","","image-button-response","49","257793","0.0-49.0-0.0","A1A0F0BAX3CDTF","img_art/25.jpg","2","","","","","","","","","","","","","","","","","","","","","","","","",""
"null","","html-keyboard-response","50","258295","0.0-50.0","A1A0F0BAX3CDTF","<p style=""font-size: 48px;"">+</p>","","","","","null","allTrialResponses","500","1","1","img_art/25.jpg","15","a girl with environment","Mariah,Kylie,Kaitlyn,Katherine,Elizabeth,Caroline","The proportions are unpleasant.,-30,140,20","Egyptian heiroglyphics and painting,15,300,20","Love the simplicity and lines,20,80,20","That's pretty awesome. I love the green and black combo, reminds me of one of those cartoon creepy movies,47,120,20","Love the color hues and the texture it creates,50,20,20","Makes me think of Baphomet, As above so below and is scary,-50,100,20","Kylie","Egyptian heiroglyphics and painting,15,300,20","Elizabeth","Love the color hues and the texture it creates,50,20,20","Kaitlyn","Love the simplicity and lines,20,80,20","0"
"10114","","survey-text","51","268424","0.0-51.0-0.0","A1A0F0BAX3CDTF","","","","{""Q0"":""some colorful""}","","","","","","","","","","","","","","","","","","","","","","",""
"6626","","image-slider-response","52","275054","0.0-52.0","A1A0F0BAX3CDTF","","","","","12","","","","","","","","","","","","","","","","","","","","","",""
"null","","image-button-response","53","280068","0.0-53.0","A1A0F0BAX3CDTF","img_art/2.jpg","null","","","","","","","","","","","","","","","","","","","","","","","","",""
"9891","","image-button-response","54","289973","0.0-54.0","A1A0F0BAX3CDTF","img_art/2.jpg","4","","","","","","","","","","","","","","","","","","","","","","","","",""
"1268","","image-button-response","55","291244","0.0-55.0-0.0","A1A0F0BAX3CDTF","img_art/2.jpg","0","","","","","","","","","","","","","","","","","","","","","","","","",""
"2287","","image-button-response","56","293534","0.0-56.0-0.0","A1A0F0BAX3CDTF","img_art/2.jpg","5","","","","","","","","","","","","","","","","","","","","","","","","",""
"null","","html-keyboard-response","57","294036","0.0-57.0","A1A0F0BAX3CDTF","<p style=""font-size: 48px;"">+</p>","","","","","null","allTrialResponses","500","1","2","img_art/2.jpg","12","some colorful","Laura,Kylie,Kaitlyn,Sabrina,Elizabeth,Cynthia","active and kinetic- simplified,14,320,20","Not very appealing,-5,300,20","Too jumbled and disorienting,-13,80,20","I dont like the expression of this,-19,120,20","Good color pallette,12,20,20","Confused and disoriented,-33,320,20","Elizabeth","Good color pallette,12,20,20","Laura","active and kinetic- simplified,14,320,20","Cynthia","Confused and disoriented,-33,320,20","0"
"14124","","survey-text","58","308174","0.0-58.0-0.0","A1A0F0BAX3CDTF","","","","{""Q0"":""guitar""}","","","","","","","","","","","","","","","","","","","","","","",""
"4577","","image-slider-response","59","312755","0.0-59.0","A1A0F0BAX3CDTF","","","","","14","","","","","","","","","","","","","","","","","","","","","",""
"2087","","image-button-response","60","317772","0.0-60.0","A1A0F0BAX3CDTF","img_art/10.jpg","0","","","","","","","","","","","","","","","","","","","","","","","","",""
"1284","","image-button-response","61","319059","0.0-61.0","A1A0F0BAX3CDTF","img_art/10.jpg","0","","","","","","","","","","","","","","","","","","","","","","","","",""
"1605","","image-button-response","62","320668","0.0-62.0-0.0","A1A0F0BAX3CDTF","img_art/10.jpg","4","","","","","","","","","","","","","","","","","","","","","","","","",""
"683","","image-button-response","63","321355","0.0-63.0-0.0","A1A0F0BAX3CDTF","img_art/10.jpg","5","","","","","","","","","","","","","","","","","","","","","","","","",""
"null","","html-keyboard-response","64","322365","0.0-64.0","A1A0F0BAX3CDTF","<p style=""font-size: 48px;"">+</p>","","","","","null","allTrialResponses","1000","1","3","img_art/10.jpg","14","guitar","Laura,Sydney,Emily,Julia,Elizabeth,Cynthia","I feel a state of readiness without anxiety.,24,320,20","This piece is unusual in a way that makes me uncomfortable.,-5,320,20","Ugly and low skill. I wouldn't want it.,-50,40,20","this is a good painting, but feels musical in a way that I don't connect with.,-14,40,20","Has an air of mystery around it,39,20,20","cultural with a symphony,40,320,20","Laura","I feel a state of readiness without anxiety.,24,320,20","Elizabeth","Has an air of mystery around it,39,20,20","Cynthia","cultural with a symphony,40,320,20","0"
"16077","","survey-text","65","338455","0.0-65.0-0.0","A1A0F0BAX3CDTF","","","","{""Q0"":""colorful painting""}","","","","","","","","","","","","","","","","","","","","","","",""
"3461","","image-slider-response","66","341920","0.0-66.0","A1A0F0BAX3CDTF","","","","","8","","","","","","","","","","","","","","","","","","","","","",""
"null","","image-button-response","67","346924","0.0-67.0","A1A0F0BAX3CDTF","img_art/22.jpg","null","","","","","","","","","","","","","","","","","","","","","","","","",""
"1894","","image-button-response","68","348834","0.0-68.0","A1A0F0BAX3CDTF","img_art/22.jpg","3","","","","","","","","","","","","","","","","","","","","","","","","",""
"1237","","image-button-response","69","350074","0.0-69.0-0.0","A1A0F0BAX3CDTF","img_art/22.jpg","4","","","","","","","","","","","","","","","","","","","","","","","","",""
"1598","","image-button-response","70","351673","0.0-70.0-0.0","A1A0F0BAX3CDTF","img_art/22.jpg","0","","","","","","","","","","","","","","","","","","","","","","","","",""
"null","","html-keyboard-response","71","352174","0.0-71.0","A1A0F0BAX3CDTF","<p style=""font-size: 48px;"">+</p>","","","","","null","allTrialResponses","500","1","4","img_art/22.jpg","8","colorful painting","Laura,Kelsey,Olivia,Alexandria,Elizabeth,Cynthia","muddy and rough,14,320,20","its messy, like a child painted it,-14,240,20","ball of light in 90s,8,40,20","the colors and shapes makes me want to keep looking at it,22,80,20","Great color palette,29,20,20","A key to the unknown,15,320,20","Alexandria","the colors and shapes makes me want to keep looking at it,22,80,20","Elizabeth","Great color palette,29,20,20","Laura","muddy and rough,14,320,20","0"
"31990","","survey-text","72","384169","0.0-72.0-0.0","A1A0F0BAX3CDTF","","","","{""Q0"":""bicycle""}","","","","","","","","","","","","","","","","","","","","","","",""
"6742","","image-slider-response","73","390912","0.0-73.0","A1A0F0BAX3CDTF","","","","","-12","","","","","","","","","","","","","","","","","","","","","",""
"null","","image-button-response","74","395944","0.0-74.0","A1A0F0BAX3CDTF","img_art/28.jpg","null","","","","","","","","","","","","","","","","","","","","","","","","",""
"4446","","image-button-response","75","400391","0.0-75.0","A1A0F0BAX3CDTF","img_art/28.jpg","4","","","","","","","","","","","","","","","","","","","","","","","","",""
"1254","","image-button-response","76","401655","0.0-76.0-0.0","A1A0F0BAX3CDTF","img_art/28.jpg","0","","","","","","","","","","","","","","","","","","","","","","","","",""
"2412","","image-button-response","77","404073","0.0-77.0-0.0","A1A0F0BAX3CDTF","img_art/28.jpg","5","","","","","","","","","","","","","","","","","","","","","","","","",""
"null","","html-keyboard-response","78","404585","0.0-78.0","A1A0F0BAX3CDTF","<p style=""font-size: 48px;"">+</p>","","","","","null","allTrialResponses","500","1","5","img_art/28.jpg","-12","bicycle","Laura,Michelle,Madison,Alexandria,Elizabeth,Courtney","musical, animated and happy with somber undertones,7,320,20","This piece is depressing to me, reminds me of German paintings,-6,280,20","It's okay. There is harmony and balance.,11,60,20","no clear colors or meaning to evoke emotions,-15,80,20","Not really exciting,23,20,20","Looks like some guys in s band playing at a busy park.,18,280,20","Elizabeth","Not really exciting,23,20,20","Laura","musical, animated and happy with somber undertones,7,320,20","Courtney","Looks like some guys in s band playing at a busy park.,18,280,20","0"
"7519","","survey-text","79","412114","0.0-79.0-0.0","A1A0F0BAX3CDTF","","","","{""Q0"":""sky""}","","","","","","","","","","","","","","","","","","","","","","",""
"9451","","survey-text","80","421579","0.0-80.0-0.0","A1A0F0BAX3CDTF","","","","{""Q0"":""threading with bag""}","","","","","","","","","","","","","","","","","","","","","","",""
"4206","","image-slider-response","81","425793","0.0-81.0","A1A0F0BAX3CDTF","","","","","28","","","","","","","","","","","","","","","","","","","","","",""
"2478","","image-button-response","82","430803","0.0-82.0","A1A0F0BAX3CDTF","img_art/4.jpg","0","","","","","","","","","","","","","","","","","","","","","","","","",""
"981","","image-button-response","83","431793","0.0-83.0","A1A0F0BAX3CDTF","img_art/4.jpg","0","","","","","","","","","","","","","","","","","","","","","","","","",""
"867","","image-button-response","84","432675","0.0-84.0-0.0","A1A0F0BAX3CDTF","img_art/4.jpg","1","","","","","","","","","","","","","","","","","","","","","","","","",""
"1096","","image-button-response","85","433774","0.0-85.0-0.0","A1A0F0BAX3CDTF","img_art/4.jpg","4","","","","","","","","","","","","","","","","","","","","","","","","",""
"null","","html-keyboard-response","86","434787","0.0-86.0","A1A0F0BAX3CDTF","<p style=""font-size: 48px;"">+</p>","","","","","null","allTrialResponses","1000","1","6","img_art/4.jpg","28","threading with bag","Laura,Gabriela,Christina,Alexis,Elizabeth,Courtney","spontaneous, without hesitation,22,320,20","The bold colors are exciting. It looks like a statue on someone's mantle.,18,140,20","not enough color and too yellow for me. Not my favorite colors,-10,240,20","Really don't like this. Kindergarten art, sorry.,-50,100,20","Like the color vibrancy,29,20,20","A leaning trophy,-9,280,20","Laura","spontaneous, without hesitation,22,320,20","Gabriela","The bold colors are exciting. It looks like a statue on someone's mantle.,18,140,20","Elizabeth","Like the color vibrancy,29,20,20","0"
"16563","","survey-text","87","451364","0.0-87.0-0.0","A1A0F0BAX3CDTF","","","","{""Q0"":""peace with colorful""}","","","","","","","","","","","","","","","","","","","","","","",""
"6546","","image-slider-response","88","457911","0.0-88.0","A1A0F0BAX3CDTF","","","","","14","","","","","","","","","","","","","","","","","","","","","",""
"null","","image-button-response","89","462927","0.0-89.0","A1A0F0BAX3CDTF","img_art/27.jpg","null","","","","","","","","","","","","","","","","","","","","","","","","",""
"4252","","image-button-response","90","467180","0.0-90.0","A1A0F0BAX3CDTF","img_art/27.jpg","4","","","","","","","","","","","","","","","","","","","","","","","","",""
"1454","","image-button-response","91","468637","0.0-91.0-0.0","A1A0F0BAX3CDTF","img_art/27.jpg","1","","","","","","","","","","","","","","","","","","","","","","","","",""
"3634","","image-button-response","92","472274","0.0-92.0-0.0","A1A0F0BAX3CDTF","img_art/27.jpg","2","","","","","","","","","","","","","","","","","","","","","","","","",""
"null","","html-keyboard-response","93","473776","0.0-93.0","A1A0F0BAX3CDTF","<p style=""font-size: 48px;"">+</p>","","","","","null","allTrialResponses","1500","1","7","img_art/27.jpg","14","peace with colorful","Laura,Gabriela,Madeline,Sophia,Elizabeth,Briana","feels like a bar scene, tucked away in the corner of a small town,-40,320,20","I like hoe it looks like a fall day in a city,45,140,20","Looks like the green bits were added on later,-1,40,20","Yikes. I think I made this in kindergarten.,-20,280,20","Like the abstractness of this picture,20,20,20","Unfinished something?,-30,400,20","Elizabeth","Like the abstractness of this picture,20,20,20","Gabriela","I like hoe it looks like a fall day in a city,45,140,20","Madeline","Looks like the green bits were added on later,-1,40,20","0"
"11723","","survey-text","94","485514","0.0-94.0-0.0","A1A0F0BAX3CDTF","","","","{""Q0"":""not look good""}","","","","","","","","","","","","","","","","","","","","","","",""
"5166","","image-slider-response","95","490683","0.0-95.0","A1A0F0BAX3CDTF","","","","","-35","","","","","","","","","","","","","","","","","","","","","",""
"null","","image-button-response","96","495713","0.0-96.0","A1A0F0BAX3CDTF","img_art/7.jpg","null","","","","","","","","","","","","","","","","","","","","","","","","",""
"1686","","image-button-response","97","497404","0.0-97.0","A1A0F0BAX3CDTF","img_art/7.jpg","0","","","","","","","","","","","","","","","","","","","","","","","","",""
"2989","","image-button-response","98","500394","0.0-98.0-0.0","A1A0F0BAX3CDTF","img_art/7.jpg","2","","","","","","","","","","","","","","","","","","","","","","","","",""
"1797","","image-button-response","99","502194","0.0-99.0-0.0","A1A0F0BAX3CDTF","img_art/7.jpg","5","","","","","","","","","","","","","","","","","","","","","","","","",""
"null","","html-keyboard-response","100","502710","0.0-100.0","A1A0F0BAX3CDTF","<p style=""font-size: 48px;"">+</p>","","","","","null","allTrialResponses","500","1","8","img_art/7.jpg","-35","not look good","Jennifer,Gabriela,Madeline,Tiffany,Elizabeth,Kaitlin","Very, very dull compared to the other paintings,-36,380,20","it looks like an ant farm,12,140,20","Not very big on the sameness here,-20,40,20","I feel relaxed and a little nostalgic, like I'm exploring the wall of a very old building.,18,360,20","The picture is just random,-8,20,20","I'm not too sure about this one,-10,60,20","Jennifer","Very, very dull compared to the other paintings,-36,380,20","Madeline","Not very big on the sameness here,-20,40,20","Kaitlin","I'm not too sure about this one,-10,60,20","0"
"20927","","survey-text","101","523653","0.0-101.0-0.0","A1A0F0BAX3CDTF","","","","{""Q0"":""some alliens ""}","","","","","","","","","","","","","","","","","","","","","","",""
"4897","","image-slider-response","102","528564","0.0-102.0","A1A0F0BAX3CDTF","","","","","-32","","","","","","","","","","","","","","","","","","","","","",""
"null","","image-button-response","103","533569","0.0-103.0","A1A0F0BAX3CDTF","img_art/9.jpg","null","","","","","","","","","","","","","","","","","","","","","","","","",""
"1694","","image-button-response","104","535264","0.0-104.0","A1A0F0BAX3CDTF","img_art/9.jpg","3","","","","","","","","","","","","","","","","","","","","","","","","",""
"2988","","image-button-response","105","538254","0.0-105.0-0.0","A1A0F0BAX3CDTF","img_art/9.jpg","1","","","","","","","","","","","","","","","","","","","","","","","","",""
"1301","","image-button-response","106","539557","0.0-106.0-0.0","A1A0F0BAX3CDTF","img_art/9.jpg","5","","","","","","","","","","","","","","","","","","","","","","","","",""
"null","","html-keyboard-response","107","541059","0.0-107.0","A1A0F0BAX3CDTF","<p style=""font-size: 48px;"">+</p>","","","","","null","allTrialResponses","1500","1","9","img_art/9.jpg","-32","some alliens ","Jennifer,Diana,Madeline,Morgan,Katie,Kaitlin","This piece is very boring to look at.,-27,380,20","I think it's sleeping beauty but I'm not sure. I didn't care for this piece.,-30,380,20","I really like the colors and details.,8,40,20","The mouth of an ugly beast.,-25,380,20","I like the blues and pinks. The woman lying down communicates relaxation. It is a serene, calming scene,30,160,20","this looks to be a child nightmare,-10,60,20","Morgan","The mouth of an ugly beast.,-25,380,20","Diana","I think it's sleeping beauty but I'm not sure. I didn't care for this piece.,-30,380,20","Kaitlin","this looks to be a child nightmare,-10,60,20","0"
"46202","","survey-text","108","587287","0.0-108.0-0.0","A1A0F0BAX3CDTF","","","","{""Q0"":""tree with another person""}","","","","","","","","","","","","","","","","","","","","","","",""
"4121","","image-slider-response","109","591413","0.0-109.0","A1A0F0BAX3CDTF","","","","","-9","","","","","","","","","","","","","","","","","","","","","",""
"null","","image-button-response","110","596429","0.0-110.0","A1A0F0BAX3CDTF","img_art/13.jpg","null","","","","","","","","","","","","","","","","","","","","","","","","",""
"21694","","image-button-response","111","618203","0.0-111.0","A1A0F0BAX3CDTF","img_art/13.jpg","4","","","","","","","","","","","","","","","","","","","","","","","","",""
"1394","","image-button-response","112","619613","0.0-112.0-0.0","A1A0F0BAX3CDTF","img_art/13.jpg","0","","","","","","","","","","","","","","","","","","","","","","","","",""
"841","","image-button-response","113","620457","0.0-113.0-0.0","A1A0F0BAX3CDTF","img_art/13.jpg","1","","","","","","","","","","","","","","","","","","","","","","","","",""
"null","","html-keyboard-response","114","621459","0.0-114.0","A1A0F0BAX3CDTF","<p style=""font-size: 48px;"">+</p>","","","","","null","allTrialResponses","1000","1","10","img_art/13.jpg","-9","tree with another person","Breanna,Diana,Chelsea,Morgan,Hannah,Kaitlin","Makes me feel nice and calm,18,380,20","I really loved the color contrast. Having the white stripe in the center makes the it appear 3D.,11,380,20","The colors are okay but I don't like the shapes here.,-18,180,20","Seeing the world through different lenses.,15,380,20","Like this a lot and would hang in my house.,27,240,20","I like this picture. The choice of colors are good,31,60,20","Hannah","Like this a lot and would hang in my house.,27,240,20","Breanna","Makes me feel nice and calm,18,380,20","Diana","I really loved the color contrast. Having the white stripe in the center makes the it appear 3D.,11,380,20","0"
"5000","","survey-text","115","626465","0.0-115.0-0.0","A1A0F0BAX3CDTF","","","","{""Q0"":""our""}","","","","","","","","","","","","","","","","","","","","","","",""
"11087","","survey-text","116","637553","0.0-116.0-0.0","A1A0F0BAX3CDTF","","","","{""Q0"":""a colorful bonasi""}","","","","","","","","","","","","","","","","","","","","","","",""
"3357","","image-slider-response","117","640911","0.0-117.0","A1A0F0BAX3CDTF","","","","","18","","","","","","","","","","","","","","","","","","","","","",""
"null","","image-button-response","118","645928","0.0-118.0","A1A0F0BAX3CDTF","img_art/14.jpg","null","","","","","","","","","","","","","","","","","","","","","","","","",""
"2040","","image-button-response","119","647971","0.0-119.0","A1A0F0BAX3CDTF","img_art/14.jpg","1","","","","","","","","","","","","","","","","","","","","","","","","",""
"1207","","image-button-response","120","649189","0.0-120.0-0.0","A1A0F0BAX3CDTF","img_art/14.jpg","0","","","","","","","","","","","","","","","","","","","","","","","","",""
"1870","","image-button-response","121","651074","0.0-121.0-0.0","A1A0F0BAX3CDTF","img_art/14.jpg","3","","","","","","","","","","","","","","","","","","","","","","","","",""
"null","","html-keyboard-response","122","652078","0.0-122.0","A1A0F0BAX3CDTF","<p style=""font-size: 48px;"">+</p>","","","","","null","allTrialResponses","1000","1","11","img_art/14.jpg","18","a colorful bonasi","Breanna,Diana,Grace,Alicia,Hannah,Sara","Makes me feel good,30,380,20","This piece feels inviting. It's like opening up the pages of your favorite book for the first time.,26,380,20","Like some of the colors but not much else.,1,180,20","ok, gloomy though.,12,120,20","This doesn't speak to me on an emotional level,-6,240,20","It uplifts my mood due to the color scheme,32,160,20","Diana","This piece feels inviting. It's like opening up the pages of your favorite book for the first time.,26,380,20","Breanna","Makes me feel good,30,380,20","Alicia","ok, gloomy though.,12,120,20","0"
"13901","","survey-text","123","665986","0.0-123.0-0.0","A1A0F0BAX3CDTF","","","","{""Q0"":""a people with many struggle""}","","","","","","","","","","","","","","","","","","","","","","",""
"9838","","image-slider-response","124","675834","0.0-124.0","A1A0F0BAX3CDTF","","","","","-9","","","","","","","","","","","","","","","","","","","","","",""
"2317","","image-button-response","125","680837","0.0-125.0","A1A0F0BAX3CDTF","img_art/19.jpg","0","","","","","","","","","","","","","","","","","","","","","","","","",""
"1155","","image-button-response","126","681995","0.0-126.0","A1A0F0BAX3CDTF","img_art/19.jpg","0","","","","","","","","","","","","","","","","","","","","","","","","",""
"876","","image-button-response","127","682874","0.0-127.0-0.0","A1A0F0BAX3CDTF","img_art/19.jpg","1","","","","","","","","","","","","","","","","","","","","","","","","",""
"1133","","image-button-response","128","684024","0.0-128.0-0.0","A1A0F0BAX3CDTF","img_art/19.jpg","3","","","","","","","","","","","","","","","","","","","","","","","","",""
"null","","html-keyboard-response","129","685038","0.0-129.0","A1A0F0BAX3CDTF","<p style=""font-size: 48px;"">+</p>","","","","","null","allTrialResponses","1000","1","12","img_art/19.jpg","-9","a people with many struggle","Breanna,Diana,Kathryn,Alicia,Megan,Lauren","The details are amazing,36,380,20","I wasn't sure if I liked it or hated it. It oddly reminds me of a clothing store.,11,380,20","This one feels pretty neutral. Like a window into someone's life, one person in a bustling metropolis.,0,140,20","calming, like the drips,25,120,20","Simple, scratchy lack of negative space.,-10,200,20","The image doesn't really invoke any emotions strongly.,0,340,20","Breanna","The details are amazing,36,380,20","Diana","I wasn't sure if I liked it or hated it. It oddly reminds me of a clothing store.,11,380,20","Alicia","calming, like the drips,25,120,20","0"
"13194","","survey-text","130","698243","0.0-130.0-0.0","A1A0F0BAX3CDTF","","","","{""Q0"":""a bird with standing""}","","","","","","","","","","","","","","","","","","","","","","",""
"12464","","image-slider-response","131","710709","0.0-131.0","A1A0F0BAX3CDTF","","","","","-16","","","","","","","","","","","","","","","","","","","","","",""
"null","","image-button-response","132","715740","0.0-132.0","A1A0F0BAX3CDTF","img_art/6.jpg","null","","","","","","","","","","","","","","","","","","","","","","","","",""
"13382","","image-button-response","133","729134","0.0-133.0","A1A0F0BAX3CDTF","img_art/6.jpg","1","","","","","","","","","","","","","","","","","","","","","","","","",""
"2330","","image-button-response","134","731466","0.0-134.0-0.0","A1A0F0BAX3CDTF","img_art/6.jpg","4","","","","","","","","","","","","","","","","","","","","","","","","",""
"2164","","image-button-response","135","733634","0.0-135.0-0.0","A1A0F0BAX3CDTF","img_art/6.jpg","2","","","","","","","","","","","","","","","","","","","","","","","","",""
"null","","html-keyboard-response","136","735147","0.0-136.0","A1A0F0BAX3CDTF","<p style=""font-size: 48px;"">+</p>","","","","","null","allTrialResponses","1500","1","13","img_art/6.jpg","-16","a bird with standing","Breanna,Diana,Melissa,Alicia,Erica,Monica","Not impressed, just very plain,-10,380,20","I love it. It reminds me of a bird sitting on a wall.,26,380,20","composition is engaging,28,240,20","kids book cover, uninteresting.,-10,120,20","positive because of bright colours and a bird,20,80,20","Maybe it's supposed to be a bird but it looks like a scary cloaked figure. it's just too simple and jarring,-23,360,20","Diana","I love it. It reminds me of a bird sitting on a wall.,26,380,20","Erica","positive because of bright colours and a bird,20,80,20","Melissa","composition is engaging,28,240,20","0"
"17742","","survey-text","137","752903","0.0-137.0-0.0","A1A0F0BAX3CDTF","","","","{""Q0"":""art with creative""}","","","","","","","","","","","","","","","","","","","","","","",""
"5436","","image-slider-response","138","758341","0.0-138.0","A1A0F0BAX3CDTF","","","","","22","","","","","","","","","","","","","","","","","","","","","",""
"null","","image-button-response","139","763355","0.0-139.0","A1A0F0BAX3CDTF","img_art/8.jpg","null","","","","","","","","","","","","","","","","","","","","","","","","",""
"1775","","image-button-response","140","765133","0.0-140.0","A1A0F0BAX3CDTF","img_art/8.jpg","0","","","","","","","","","","","","","","","","","","","","","","","","",""
"2430","","image-button-response","141","767565","0.0-141.0-0.0","A1A0F0BAX3CDTF","img_art/8.jpg","3","","","","","","","","","","","","","","","","","","","","","","","","",""
"1456","","image-button-response","142","769026","0.0-142.0-0.0","A1A0F0BAX3CDTF","img_art/8.jpg","4","","","","","","","","","","","","","","","","","","","","","","","","",""
"null","","html-keyboard-response","143","770538","0.0-143.0","A1A0F0BAX3CDTF","<p style=""font-size: 48px;"">+</p>","","","","","null","allTrialResponses","1500","1","14","img_art/8.jpg","22","art with creative","Danielle,Diana,Melissa,Rachel,Erica,Dominique","Enjoy this, it looks like a rushing water pool, surrounded by mountains and buildings, hiding details such as faces.,30,340,20","I don't care for the piece, but I appreciate the talent that it took to create it.,22,380,20","crisp shapes, find more things the longer you look,17,240,20","I like all of the faces that can be found in this piece. Interesting.,35,80,20","Very busy, I want to look at it and investigate,23,80,20","This speaks volumes to me and is another favorite I'm sure by many,40,400,20","Danielle","Enjoy this, it looks like a rushing water pool, surrounded by mountains and buildings, hiding details such as faces.,30,340,20","Rachel","I like all of the faces that can be found in this piece. Interesting.,35,80,20","Erica","Very busy, I want to look at it and investigate,23,80,20","0"
"26245","","survey-text","144","796786","0.0-144.0-0.0","A1A0F0BAX3CDTF","","","","{""Q0"":""pollution world""}","","","","","","","","","","","","","","","","","","","","","","",""
"3382","","image-slider-response","145","800193","0.0-145.0","A1A0F0BAX3CDTF","","","","","12","","","","","","","","","","","","","","","","","","","","","",""
"null","","image-button-response","146","805212","0.0-146.0","A1A0F0BAX3CDTF","img_art/21.jpg","null","","","","","","","","","","","","","","","","","","","","","","","","",""
"20449","","image-button-response","147","825662","0.0-147.0","A1A0F0BAX3CDTF","img_art/21.jpg","1","","","","","","","","","","","","","","","","","","","","","","","","",""
"656","","image-button-response","148","826334","0.0-148.0-0.0","A1A0F0BAX3CDTF","img_art/21.jpg","0","","","","","","","","","","","","","","","","","","","","","","","","",""
"1657","","image-button-response","149","827995","0.0-149.0-0.0","A1A0F0BAX3CDTF","img_art/21.jpg","3","","","","","","","","","","","","","","","","","","","","","","","","",""
"null","","html-keyboard-response","150","829498","0.0-150.0","A1A0F0BAX3CDTF","<p style=""font-size: 48px;"">+</p>","","","","","null","allTrialResponses","1500","1","15","img_art/21.jpg","12","pollution world","Danielle,Allison,Chloe,Rachel,Erica,Natalie","I like it. It's some of war-scene, bloodshed and battle on the left, field of dispair on the right, dark and rich,40,340,20","I like color mix here,15,140,20","Lovely colors and emotive effects. Turner-esque in a not-so derivative way.,44,220,20","Looks like a body of water during a sunset. I like this piece.,21,80,20","Relaxing and easy to look at,27,80,20","my response to the picture is what is going on?,-13,400,20","Allison","I like color mix here,15,140,20","Danielle","I like it. It's some of war-scene, bloodshed and battle on the left, field of dispair on the right, dark and rich,40,340,20","Rachel","Looks like a body of water during a sunset. I like this piece.,21,80,20","0"
"28798","","survey-text","151","858304","0.0-151.0-0.0","A1A0F0BAX3CDTF","","","","{""Q0"":""course""}","","","","","","","","","","","","","","","","","","","","","","",""
"19762","","survey-text","152","878067","0.0-152.0-0.0","A1A0F0BAX3CDTF","","","","{""Q0"":""impressed""}","","","","","","","","","","","","","","","","","","","","","","",""
"5234","","image-slider-response","153","883303","0.0-153.0","A1A0F0BAX3CDTF","","","","","15","","","","","","","","","","","","","","","","","","","","","",""
"1686","","image-button-response","154","888321","0.0-154.0","A1A0F0BAX3CDTF","img_art/15.jpg","4","","","","","","","","","","","","","","","","","","","","","","","","",""
"2229","","image-button-response","155","890553","0.0-155.0","A1A0F0BAX3CDTF","img_art/15.jpg","0","","","","","","","","","","","","","","","","","","","","","","","","",""
"1068","","image-button-response","156","891635","0.0-156.0-0.0","A1A0F0BAX3CDTF","img_art/15.jpg","1","","","","","","","","","","","","","","","","","","","","","","","","",""
"958","","image-button-response","157","892613","0.0-157.0-0.0","A1A0F0BAX3CDTF","img_art/15.jpg","3","","","","","","","","","","","","","","","","","","","","","","","","",""
"null","","html-keyboard-response","158","893613","0.0-158.0","A1A0F0BAX3CDTF","<p style=""font-size: 48px;"">+</p>","","","","","null","allTrialResponses","1000","1","16","img_art/15.jpg","15","impressed","Danielle,Allison,Stephanie,Rachel,Jordan,Kimberly","This is pretty nice, reminds me of dark peacock feathers, or perhaps a bush with berries in it?,15,340,20","Eyes hunt for the blue in the black.,5,140,20","This piece is too dark,-42,300,20","Reminds me of blue birds in a tree at night. I love nature.,40,80,20","I'm just not into it,-5,20,20","it looks like lavender,10,260,20","Danielle","This is pretty nice, reminds me of dark peacock feathers, or perhaps a bush with berries in it?,15,340,20","Allison","Eyes hunt for the blue in the black.,5,140,20","Rachel","Reminds me of blue birds in a tree at night. I love nature.,40,80,20","0"
"8461","","survey-text","159","902084","0.0-159.0-0.0","A1A0F0BAX3CDTF","","","","{""Q0"":""colorfull""}","","","","","","","","","","","","","","","","","","","","","","",""
"9019","","image-slider-response","160","911113","0.0-160.0","A1A0F0BAX3CDTF","","","","","20","","","","","","","","","","","","","","","","","","","","","",""
"4782","","image-button-response","161","916117","0.0-161.0","A1A0F0BAX3CDTF","img_art/24.jpg","0","","","","","","","","","","","","","","","","","","","","","","","","",""
"1276","","image-button-response","162","917395","0.0-162.0","A1A0F0BAX3CDTF","img_art/24.jpg","1","","","","","","","","","","","","","","","","","","","","","","","","",""
"2279","","image-button-response","163","919676","0.0-163.0-0.0","A1A0F0BAX3CDTF","img_art/24.jpg","4","","","","","","","","","","","","","","","","","","","","","","","","",""
"1188","","image-button-response","164","920875","0.0-164.0-0.0","A1A0F0BAX3CDTF","img_art/24.jpg","2","","","","","","","","","","","","","","","","","","","","","","","","",""
"null","","html-keyboard-response","165","921380","0.0-165.0","A1A0F0BAX3CDTF","<p style=""font-size: 48px;"">+</p>","","","","","null","allTrialResponses","500","1","17","img_art/24.jpg","20","colorfull","Danielle,Allison,Margaret,Rachel,Cheyenne,Miranda","Looks like a mystical type of forest/waterfall. Love it,40,340,20","I appreciate the earth tones. Soothing.,5,140,20","peaceful and serene but Im not the biggest landscape fan,4,100,20","Looks like a beautiful stream rolling through terrain of rocks and flowers.,43,80,20","I like how the colors mix in this one.,20,200,20","I find the colors work really well. It's very pretty but I have no idea as what it is.,34,320,20","Allison","I appreciate the earth tones. Soothing.,5,140,20","Cheyenne","I like how the colors mix in this one.,20,200,20","Margaret","peaceful and serene but Im not the biggest landscape fan,4,100,20","0"
"15013","","survey-text","166","936402","0.0-166.0-0.0","A1A0F0BAX3CDTF","","","","{""Q0"":""different sturggles""}","","","","","","","","","","","","","","","","","","","","","","",""
"6630","","image-slider-response","167","943035","0.0-167.0","A1A0F0BAX3CDTF","","","","","13","","","","","","","","","","","","","","","","","","","","","",""
"4407","","image-button-response","168","948039","0.0-168.0","A1A0F0BAX3CDTF","img_art/20.jpg","1","","","","","","","","","","","","","","","","","","","","","","","","",""
"1273","","image-button-response","169","949317","0.0-169.0","A1A0F0BAX3CDTF","img_art/20.jpg","1","","","","","","","","","","","","","","","","","","","","","","","","",""
"1938","","image-button-response","170","951266","0.0-170.0-0.0","A1A0F0BAX3CDTF","img_art/20.jpg","2","","","","","","","","","","","","","","","","","","","","","","","","",""
"2949","","image-button-response","171","954218","0.0-171.0-0.0","A1A0F0BAX3CDTF","img_art/20.jpg","4","","","","","","","","","","","","","","","","","","","","","","","","",""
"null","","html-keyboard-response","172","954725","0.0-172.0","A1A0F0BAX3CDTF","<p style=""font-size: 48px;"">+</p>","","","","","null","allTrialResponses","500","1","18","img_art/20.jpg","13","different sturggles","Isabella,Allison,Margaret,Gabrielle,Cheyenne,Alexa","Feels like a town destroyed,-19,280,20","Melty picture. Reminiscent of Dali.,10,140,20","It seems to be a neutral cool toned art piece. Gives me alamo/desert vibes,2,100,20","The white blob on the left seems out of place,-34,160,20","Liked the background,15,200,20","I like the calming mood of this painting,35,40,20","Allison","Melty picture. Reminiscent of Dali.,10,140,20","Margaret","It seems to be a neutral cool toned art piece. Gives me alamo/desert vibes,2,100,20","Cheyenne","Liked the background,15,200,20","0"
"8375","","survey-text","173","963114","0.0-173.0-0.0","A1A0F0BAX3CDTF","","","","{""Q0"":""simple""}","","","","","","","","","","","","","","","","","","","","","","",""
"3938","","image-slider-response","174","967065","0.0-174.0","A1A0F0BAX3CDTF","","","","","29","","","","","","","","","","","","","","","","","","","","","",""
"null","","image-button-response","175","972085","0.0-175.0","A1A0F0BAX3CDTF","img_art/5.jpg","null","","","","","","","","","","","","","","","","","","","","","","","","",""
"17306","","image-button-response","176","989396","0.0-176.0","A1A0F0BAX3CDTF","img_art/5.jpg","3","","","","","","","","","","","","","","","","","","","","","","","","",""
"1436","","image-button-response","177","990845","0.0-177.0-0.0","A1A0F0BAX3CDTF","img_art/5.jpg","5","","","","","","","","","","","","","","","","","","","","","","","","",""
"1550","","image-button-response","178","992397","0.0-178.0-0.0","A1A0F0BAX3CDTF","img_art/5.jpg","1","","","","","","","","","","","","","","","","","","","","","","","","",""
"null","","html-keyboard-response","179","992911","0.0-179.0","A1A0F0BAX3CDTF","<p style=""font-size: 48px;"">+</p>","","","","","null","allTrialResponses","500","1","19","img_art/5.jpg","29","simple","Savannah,Allison,Margaret,Leslie,Cheyenne,Anna","Boring and appears low effort,-41,200,20","Too loud. Dislike the bright yellow.,-5,140,20","simple. love the color scheme,27,100,20","This elicits no reaction in me.,0,380,20","Very little going on.,-4,200,20","It's kind of boring.,-20,300,20","Leslie","This elicits no reaction in me.,0,380,20","Anna","It's kind of boring.,-20,300,20","Allison","Too loud. Dislike the bright yellow.,-5,140,20","0"
"14808","","survey-text","180","1007733","0.0-180.0-0.0","A1A0F0BAX3CDTF","","","","{""Q0"":""not attractive""}","","","","","","","","","","","","","","","","","","","","","","",""
"3691","","image-slider-response","181","1011426","0.0-181.0","A1A0F0BAX3CDTF","","","","","-19","","","","","","","","","","","","","","","","","","","","","",""
"2239","","image-button-response","182","1016429","0.0-182.0","A1A0F0BAX3CDTF","img_art/1.jpg","0","","","","","","","","","","","","","","","","","","","","","","","","",""
"881","","image-button-response","183","1017314","0.0-183.0","A1A0F0BAX3CDTF","img_art/1.jpg","0","","","","","","","","","","","","","","","","","","","","","","","","",""
"963","","image-button-response","184","1018284","0.0-184.0-0.0","A1A0F0BAX3CDTF","img_art/1.jpg","1","","","","","","","","","","","","","","","","","","","","","","","","",""
"4586","","image-button-response","185","1022873","0.0-185.0-0.0","A1A0F0BAX3CDTF","img_art/1.jpg","2","","","","","","","","","","","","","","","","","","","","","","","","",""
"null","","html-keyboard-response","186","1024386","0.0-186.0","A1A0F0BAX3CDTF","<p style=""font-size: 48px;"">+</p>","","","","","null","allTrialResponses","1500","1","20","img_art/1.jpg","-19","not attractive","Lindsey,Allison,Brittany,Leslie,Cassidy,Anna","Not a fan of the colors. Makes me think of the Australian bush fires.,-5,400,20","Messy mix of primary colors.,-10,140,20","It reminds me of a sunset I once saw.,16,40,20","The use of reds, blues, and yellows together reminds me of fire. Very interesting to look at.,40,380,20","I like the colors and layers,25,140,20","The colors are nice but that's all it is,21,300,20","Lindsey","Not a fan of the colors. Makes me think of the Australian bush fires.,-5,400,20","Allison","Messy mix of primary colors.,-10,140,20","Brittany","It reminds me of a sunset I once saw.,16,40,20","0"
"3930","","survey-text","187","1028344","0.0-187.0-0.0","A1A0F0BAX3CDTF","","","","{""Q0"":""we""}","","","","","","","","","","","","","","","","","","","","","","",""
"14498","","survey-text","188","1042847","0.0-188.0-0.0","A1A0F0BAX3CDTF","","","","{""Q0"":""bright colors""}","","","","","","","","","","","","","","","","","","","","","","",""
"4094","","image-slider-response","189","1046943","0.0-189.0","A1A0F0BAX3CDTF","","","","","17","","","","","","","","","","","","","","","","","","","","","",""
"4071","","image-button-response","190","1051962","0.0-190.0","A1A0F0BAX3CDTF","img_art/3.jpg","4","","","","","","","","","","","","","","","","","","","","","","","","",""
"2150","","image-button-response","191","1054126","0.0-191.0","A1A0F0BAX3CDTF","img_art/3.jpg","4","","","","","","","","","","","","","","","","","","","","","","","","",""
"3159","","image-button-response","192","1057291","0.0-192.0-0.0","A1A0F0BAX3CDTF","img_art/3.jpg","5","","","","","","","","","","","","","","","","","","","","","","","","",""
"994","","image-button-response","193","1058294","0.0-193.0-0.0","A1A0F0BAX3CDTF","img_art/3.jpg","3","","","","","","","","","","","","","","","","","","","","","","","","",""
"null","","html-keyboard-response","194","1059803","0.0-194.0","A1A0F0BAX3CDTF","<p style=""font-size: 48px;"">+</p>","","","","","null","allTrialResponses","1500","1","21","img_art/3.jpg","17","bright colors","Lindsey,Allison,Brittany,Marissa,Amy,Amber","Angry red crayons, like a child throwing a tantrum. No thanks.,-10,400,20","Reminds me of a hot mess,-10,140,20","I don't care for art that looks like it was just scribbled.,-19,40,20","It feels like a half assed and failed imitation of Japanese signatures on old paintings,-22,160,20","i like the colors particulairly the contrast of foreground to background. Exciting and thoughtful.,10,220,20","seems to be a lot of angry scribble.,-20,200,20","Amy","i like the colors particulairly the contrast of foreground to background. Exciting and thoughtful.,10,220,20","Amber","seems to be a lot of angry scribble.,-20,200,20","Marissa","It feels like a half assed and failed imitation of Japanese signatures on old paintings,-22,160,20","0"
"12365","","survey-text","195","1072177","0.0-195.0-0.0","A1A0F0BAX3CDTF","","","","{""Q0"":""different thinking""}","","","","","","","","","","","","","","","","","","","","","","",""
"4054","","image-slider-response","196","1076240","0.0-196.0","A1A0F0BAX3CDTF","","","","","6","","","","","","","","","","","","","","","","","","","","","",""
"4728","","image-button-response","197","1081244","0.0-197.0","A1A0F0BAX3CDTF","img_art/11.jpg","0","","","","","","","","","","","","","","","","","","","","","","","","",""
"1108","","image-button-response","198","1082354","0.0-198.0","A1A0F0BAX3CDTF","img_art/11.jpg","0","","","","","","","","","","","","","","","","","","","","","","","","",""
"827","","image-button-response","199","1083183","0.0-199.0-0.0","A1A0F0BAX3CDTF","img_art/11.jpg","1","","","","","","","","","","","","","","","","","","","","","","","","",""
"2509","","image-button-response","200","1085694","0.0-200.0-0.0","A1A0F0BAX3CDTF","img_art/11.jpg","4","","","","","","","","","","","","","","","","","","","","","","","","",""
"null","","html-keyboard-response","201","1087195","0.0-201.0","A1A0F0BAX3CDTF","<p style=""font-size: 48px;"">+</p>","","","","","null","allTrialResponses","1500","1","22","img_art/11.jpg","6","different thinking","Michaela,Ashley,Angelica,Marissa,Amy,Amber","Reminds me of a city and how chaotic it can be,22,260,20","Dark but bright, city but ocean, musical scales.,50,320,20","This is very unappealing.,-11,280,20","I dislike how dark this is,-21,160,20","Simple and complex. Hopeful yet dark. I love this,35,220,20","Look like it's in constant movement.,10,200,20","Michaela","Reminds me of a city and how chaotic it can be,22,260,20","Ashley","Dark but bright, city but ocean, musical scales.,50,320,20","Amy","Simple and complex. Hopeful yet dark. I love this,35,220,20","0"
"16711","","survey-text","202","1103924","0.0-202.0-0.0","A1A0F0BAX3CDTF","","","","{""Q0"":""colorfully painting""}","","","","","","","","","","","","","","","","","","","","","","",""
"6547","","image-slider-response","203","1110474","0.0-203.0","A1A0F0BAX3CDTF","","","","","19","","","","","","","","","","","","","","","","","","","","","",""
"4758","","image-button-response","204","1115490","0.0-204.0","A1A0F0BAX3CDTF","img_art/17.jpg","0","","","","","","","","","","","","","","","","","","","","","","","","",""
"1863","","image-button-response","205","1117354","0.0-205.0","A1A0F0BAX3CDTF","img_art/17.jpg","0","","","","","","","","","","","","","","","","","","","","","","","","",""
"1418","","image-button-response","206","1118774","0.0-206.0-0.0","A1A0F0BAX3CDTF","img_art/17.jpg","1","","","","","","","","","","","","","","","","","","","","","","","","",""
"989","","image-button-response","207","1119766","0.0-207.0-0.0","A1A0F0BAX3CDTF","img_art/17.jpg","3","","","","","","","","","","","","","","","","","","","","","","","","",""
"null","","html-keyboard-response","208","1121270","0.0-208.0","A1A0F0BAX3CDTF","<p style=""font-size: 48px;"">+</p>","","","","","null","allTrialResponses","1500","1","23","img_art/17.jpg","19","colorfully painting","Michaela,Ashley,Taylor,Kristen,Amy,Sierra","I love how soft it is,35,260,20","taste the rainbow, feel the flavor.,23,320,20","A very inspiring piece,41,340,20","calm, tranquil, happy,50,280,20","peaceful. contemplative. balanced. old,10,220,20","the colors, the arch and the wall,15,260,20","Michaela","I love how soft it is,35,260,20","Ashley","taste the rainbow, feel the flavor.,23,320,20","Kristen","calm, tranquil, happy,50,280,20","0"
"15674","","survey-text","209","1136952","0.0-209.0-0.0","A1A0F0BAX3CDTF","","","","{""Q0"":""black combination""}","","","","","","","","","","","","","","","","","","","","","","",""
"4168","","image-slider-response","210","1141124","0.0-210.0","A1A0F0BAX3CDTF","","","","","-14","","","","","","","","","","","","","","","","","","","","","",""
"4304","","image-button-response","211","1146131","0.0-211.0","A1A0F0BAX3CDTF","img_art/16.jpg","1","","","","","","","","","","","","","","","","","","","","","","","","",""
"2020","","image-button-response","212","1148153","0.0-212.0","A1A0F0BAX3CDTF","img_art/16.jpg","1","","","","","","","","","","","","","","","","","","","","","","","","",""
"2835","","image-button-response","213","1151005","0.0-213.0-0.0","A1A0F0BAX3CDTF","img_art/16.jpg","4","","","","","","","","","","","","","","","","","","","","","","","","",""
"983","","image-button-response","214","1151996","0.0-214.0-0.0","A1A0F0BAX3CDTF","img_art/16.jpg","2","","","","","","","","","","","","","","","","","","","","","","","","",""
"null","","html-keyboard-response","215","1152498","0.0-215.0","A1A0F0BAX3CDTF","<p style=""font-size: 48px;"">+</p>","","","","","null","allTrialResponses","500","1","24","img_art/16.jpg","-14","black combination","Michaela,Ashley,Molly,Kristen,Katelyn,Claire","It feels lazily done,-9,260,20","A lot fo these could abstract or childrens work.,23,320,20","It's frightening.,30,340,20","sad. desth of childhood,-5,280,20","I dont feel any real response,5,100,20","the materials used are interesting,30,260,20","Ashley","A lot fo these could abstract or childrens work.,23,320,20","Katelyn","I dont feel any real response,5,100,20","Molly","It's frightening.,30,340,20","0"
"11773","","survey-text","216","1164284","0.0-216.0-0.0","A1A0F0BAX3CDTF","","","","{""Q0"":""shipping""}","","","","","","","","","","","","","","","","","","","","","","",""
"3877","","image-slider-response","217","1168164","0.0-217.0","A1A0F0BAX3CDTF","","","","","12","","","","","","","","","","","","","","","","","","","","","",""
"4251","","image-button-response","218","1173170","0.0-218.0","A1A0F0BAX3CDTF","img_art/18.jpg","1","","","","","","","","","","","","","","","","","","","","","","","","",""
"1132","","image-button-response","219","1174304","0.0-219.0","A1A0F0BAX3CDTF","img_art/18.jpg","1","","","","","","","","","","","","","","","","","","","","","","","","",""
"1669","","image-button-response","220","1175975","0.0-220.0-0.0","A1A0F0BAX3CDTF","img_art/18.jpg","3","","","","","","","","","","","","","","","","","","","","","","","","",""
"1163","","image-button-response","221","1177148","0.0-221.0-0.0","A1A0F0BAX3CDTF","img_art/18.jpg","2","","","","","","","","","","","","","","","","","","","","","","","","",""
"null","","html-keyboard-response","222","1177656","0.0-222.0","A1A0F0BAX3CDTF","<p style=""font-size: 48px;"">+</p>","","","","","null","allTrialResponses","500","1","25","img_art/18.jpg","12","shipping","Destiny,Ashley,Molly,Victoria,Katelyn,Erin","Can't tell if I love it or hate it. That response warranted more than neutral so I gave it 20 but not sure,21,360,20","Resembles a ship at sea, storm of activity.,28,320,20","White and yellow look awesome and the picture's dynamics are wonderful.,30,340,20","Makes me think of stormy oceans,20,400,20","It reminds me of ghosts on a boat. Makes me nervous.,-27,100,20","See a weird horse,-22,120,20","Ashley","Resembles a ship at sea, storm of activity.,28,320,20","Victoria","Makes me think of stormy oceans,20,400,20","Molly","White and yellow look awesome and the picture's dynamics are wonderful.,30,340,20","0"
"6690","","survey-text","223","1184364","0.0-223.0-0.0","A1A0F0BAX3CDTF","","","","{""Q0"":""table""}","","","","","","","","","","","","","","","","","","","","","","",""
"14343","","survey-text","224","1198725","0.0-224.0-0.0","A1A0F0BAX3CDTF","","","","{""Q0"":""many streets""}","","","","","","","","","","","","","","","","","","","","","","",""
"3555","","image-slider-response","225","1202284","0.0-225.0","A1A0F0BAX3CDTF","","","","","11","","","","","","","","","","","","","","","","","","","","","",""
"null","","image-button-response","226","1207286","0.0-226.0","A1A0F0BAX3CDTF","img_art/26.jpg","null","","","","","","","","","","","","","","","","","","","","","","","","",""
"1188","","image-button-response","227","1208476","0.0-227.0","A1A0F0BAX3CDTF","img_art/26.jpg","0","","","","","","","","","","","","","","","","","","","","","","","","",""
"1414","","image-button-response","228","1209895","0.0-228.0-0.0","A1A0F0BAX3CDTF","img_art/26.jpg","1","","","","","","","","","","","","","","","","","","","","","","","","",""
"1227","","image-button-response","229","1211135","0.0-229.0-0.0","A1A0F0BAX3CDTF","img_art/26.jpg","3","","","","","","","","","","","","","","","","","","","","","","","","",""
"null","","html-keyboard-response","230","1212648","0.0-230.0","A1A0F0BAX3CDTF","<p style=""font-size: 48px;"">+</p>","","","","","null","allTrialResponses","1500","1","26","img_art/26.jpg","11","many streets","Angela,Ashley,Molly,Victoria,Vanessa,Hailey","Nice, but not very interesting. I do like the blue tree though.,6,260,20","Telented watercolor artist or second grader.,18,320,20","Nothing to say.,0,340,20","feels a tad old,30,400,20","Something I'd see in a thrift store. It looks like not much effort was used to paint this.,9,380,20","bedroom in the outdoors. warm,9,200,20","Angela","Nice, but not very interesting. I do like the blue tree though.,6,260,20","Ashley","Telented watercolor artist or second grader.,18,320,20","Victoria","feels a tad old,30,400,20","0"
"10816","","survey-text","231","1223475","0.0-231.0-0.0","A1A0F0BAX3CDTF","","","","{""Q0"":""not good""}","","","","","","","","","","","","","","","","","","","","","","",""
"4720","","image-slider-response","232","1228200","0.0-232.0","A1A0F0BAX3CDTF","","","","","-8","","","","","","","","","","","","","","","","","","","","","",""
"1924","","image-button-response","233","1233209","0.0-233.0","A1A0F0BAX3CDTF","img_art/12.jpg","0","","","","","","","","","","","","","","","","","","","","","","","","",""
"854","","image-button-response","234","1234085","0.0-234.0","A1A0F0BAX3CDTF","img_art/12.jpg","0","","","","","","","","","","","","","","","","","","","","","","","","",""
"1670","","image-button-response","235","1235756","0.0-235.0-0.0","A1A0F0BAX3CDTF","img_art/12.jpg","1","","","","","","","","","","","","","","","","","","","","","","","","",""
"1555","","image-button-response","236","1237334","0.0-236.0-0.0","A1A0F0BAX3CDTF","img_art/12.jpg","3","","","","","","","","","","","","","","","","","","","","","","","","",""
"null","","html-keyboard-response","237","1237849","0.0-237.0","A1A0F0BAX3CDTF","<p style=""font-size: 48px;"">+</p>","","","","","null","allTrialResponses","500","1","27","img_art/12.jpg","-8","not good","Angela,Ashley,Mikayla,Victoria,Jessica,Leah","I like the colors in the bottom half of the painting,10,260,20","It's boxy, cubist immpressionism? Very ncie.,32,320,20","A little bit boring.,-24,300,20","to contemporary for me,3,400,20","I like this concept.,11,400,20","Looks like a puzzle I want to put together, but not hang in my den,2,360,20","Angela","I like the colors in the bottom half of the painting,10,260,20","Ashley","It's boxy, cubist immpressionism? Very ncie.,32,320,20","Victoria","to contemporary for me,3,400,20","0"
"13423","","survey-text","238","1251285","0.0-238.0-0.0","A1A0F0BAX3CDTF","","","","{""Q0"":""more dominant color""}","","","","","","","","","","","","","","","","","","","","","","",""
"4446","","image-slider-response","239","1255733","0.0-239.0","A1A0F0BAX3CDTF","","","","","7","","","","","","","","","","","","","","","","","","","","","",""
"4043","","image-button-response","240","1260757","0.0-240.0","A1A0F0BAX3CDTF","img_art/23.jpg","1","","","","","","","","","","","","","","","","","","","","","","","","",""
"1122","","image-button-response","241","1261894","0.0-241.0","A1A0F0BAX3CDTF","img_art/23.jpg","1","","","","","","","","","","","","","","","","","","","","","","","","",""
"1313","","image-button-response","242","1263214","0.0-242.0-0.0","A1A0F0BAX3CDTF","img_art/23.jpg","3","","","","","","","","","","","","","","","","","","","","","","","","",""
"1336","","image-button-response","243","1264554","0.0-243.0-0.0","A1A0F0BAX3CDTF","img_art/23.jpg","4","","","","","","","","","","","","","","","","","","","","","","","","",""
"null","","html-keyboard-response","244","1265056","0.0-244.0","A1A0F0BAX3CDTF","<p style=""font-size: 48px;"">+</p>","","","","","null","allTrialResponses","500","1","28","img_art/23.jpg","7","more dominant color","Angela,Ashley,Haley,Victoria,Paige,Kelly","Like the background colors and the energy, but the white bits ruin it for me,-7,260,20","A line dance, it's really strinkingly beautiful.,50,320,20","Beautiful. Very detailed and colorful. I enjoy looking at it.,50,220,20","enjoy the colors,23,400,20","Does not incite any emotional response,1,60,20","Love this. I love the white, really pops with the colors surrounding it.,44,220,20","Ashley","A line dance, it's really strinkingly beautiful.,50,320,20","Victoria","enjoy the colors,23,400,20","Paige","Does not incite any emotional response,1,60,20","0"
"16274","","survey-text","245","1281334","0.0-245.0-0.0","A1A0F0BAX3CDTF","","","","{""Q0"":""blue dominance""}","","","","","","","","","","","","","","","","","","","","","","",""
"5226","","image-slider-response","246","1286560","0.0-246.0","A1A0F0BAX3CDTF","","","","","28","","","","","","","","","","","","","","","","","","","","","",""
"2986","","image-button-response","247","1291570","0.0-247.0","A1A0F0BAX3CDTF","img_art/30.jpg","0","","","","","","","","","","","","","","","","","","","","","","","","",""
"1088","","image-button-response","248","1292665","0.0-248.0","A1A0F0BAX3CDTF","img_art/30.jpg","1","","","","","","","","","","","","","","","","","","","","","","","","",""
"838","","image-button-response","249","1293505","0.0-249.0-0.0","A1A0F0BAX3CDTF","img_art/30.jpg","0","","","","","","","","","","","","","","","","","","","","","","","","",""
"1370","","image-button-response","250","1294880","0.0-250.0-0.0","A1A0F0BAX3CDTF","img_art/30.jpg","4","","","","","","","","","","","","","","","","","","","","","","","","",""
"null","","html-keyboard-response","251","1295381","0.0-251.0","A1A0F0BAX3CDTF","<p style=""font-size: 48px;"">+</p>","","","","","null","allTrialResponses","500","1","29","img_art/30.jpg","28","blue dominance","Alexandra,Ashley,Mackenzie,Victoria,Paige,Catherine","I really love the pastel colors and the 3D design in this,43,60,20","Decent abstract art, ncie colors.,23,320,20","I like the forefront design.,10,20,20","to dark and dreary,-28,400,20","Happy. Makes me think of childhood finger painting,49,60,20","connection, Everything is connected even in contrast.,42,160,20","Ashley","Decent abstract art, ncie colors.,23,320,20","Alexandra","I really love the pastel colors and the 3D design in this,43,60,20","Paige","Happy. Makes me think of childhood finger painting,49,60,20","0"
"11465","","survey-text","252","1306854","0.0-252.0-0.0","A1A0F0BAX3CDTF","","","","{""Q0"":""bad""}","","","","","","","","","","","","","","","","","","","","","","",""
"7396","","survey-text","253","1325084","0.0-252.1-0.1","A1A0F0BAX3CDTF","","","","{""Q0"":""bad impression""}","","","","","","","","","","","","","","","","","","","","","","",""
"4282","","image-slider-response","254","1329383","0.0-253.0","A1A0F0BAX3CDTF","","","","","19","","","","","","","","","","","","","","","","","","","","","",""
"3746","","image-button-response","255","1334386","0.0-254.0","A1A0F0BAX3CDTF","img_art/29.jpg","4","","","","","","","","","","","","","","","","","","","","","","","","",""
"828","","image-button-response","256","1335216","0.0-255.0","A1A0F0BAX3CDTF","img_art/29.jpg","0","","","","","","","","","","","","","","","","","","","","","","","","",""
"1802","","image-button-response","257","1337021","0.0-256.0-0.0","A1A0F0BAX3CDTF","img_art/29.jpg","4","","","","","","","","","","","","","","","","","","","","","","","","",""
"1100","","image-button-response","258","1338123","0.0-257.0-0.0","A1A0F0BAX3CDTF","img_art/29.jpg","3","","","","","","","","","","","","","","","","","","","","","","","","",""
"null","","html-keyboard-response","259","1339125","0.0-258.0","A1A0F0BAX3CDTF","<p style=""font-size: 48px;"">+</p>","","","","","null","allTrialResponses","1000","1","30","img_art/29.jpg","19","bad impression","Alexandra,Ashley,Samantha,Maria,Paige,Andrea","I don't like this. It is ugly and dark,-29,60,20","It that an actual PAINTBUSH! Love it.,50,320,20","I love this things almost hidden in it like paint brush and other details,50,140,20","the mixed medium / collage annoys me,-19,120,20","unhappy. Looking at this all the time would depress me.,-11,60,20","Bottomless pit and prison. Feels like its saying time is precious.,11,240,20","Alexandra","I don't like this. It is ugly and dark,-29,60,20","Paige","unhappy. Looking at this all the time would depress me.,-11,60,20","Maria","the mixed medium / collage annoys me,-19,120,20","0"
"3931","","image-button-response_instructions","260","1343060","0.0-259.0","A1A0F0BAX3CDTF","","0","instructions","","","","","","","","","","","","","","","","","","","","","","","",""
"4841","","image-button-response","261","1347914","0.0-260.0","A1A0F0BAX3CDTF","","0","","","","","","","","","","","","","","","","","","","","","","","","",""
