"rt","url","trial_type","trial_index","time_elapsed","internal_node_id","participant_id","stimulus","button_pressed","Name","responses","response","key_press","variableName","fixationTime","condition","trial","photo","subjectRating","subjectResponse","agentsNames","agent_1_Response","agent_2_Response","agent_3_Response","agent_4_Response","agent_5_Response","agent_6_Response","kept_1_name","kept_1_response","kept_2_name","kept_2_response","kept_3_name","kept_3_response","errorCounter"
"16504","external_page_harvard.html","external-html","0","16549","0.0-0.0","A1ACXKVOUQ19DX","","","","","","","","","","","","","","","","","","","","","","","","","","",""
"2889","","image-button-response","1","19440","0.0-1.0","A1ACXKVOUQ19DX","","1","","","","","","","","","","","","","","","","","","","","","","","","",""
"1566","","image-button-response","2","21010","0.0-2.0-0.0","A1ACXKVOUQ19DX","","1","phone","","","","","","","","","","","","","","","","","","","","","","","",""
"5557","","survey-text","3","26568","0.0-3.0-0.0","A1ACXKVOUQ19DX","","","","{""Q0"":""A1ACXKVOUQ19DX""}","","","","","","","","","","","","","","","","","","","","","","",""
"3942","","image-button-response_instructions","4","30512","0.0-4.0","A1ACXKVOUQ19DX","","0","instructions","","","","","","","","","","","","","","","","","","","","","","","",""
"19161","","image-button-response_instructions","5","49674","0.0-5.0","A1ACXKVOUQ19DX","img_art/ins/popularity/ins1.png","0","instructions","","","","","","","","","","","","","","","","","","","","","","","",""
"5387","","image-button-response_instructions","6","55062","0.0-6.0","A1ACXKVOUQ19DX","img_art/ins/popularity/ins2.png","0","instructions","","","","","","","","","","","","","","","","","","","","","","","",""
"6198","","image-button-response_instructions","7","61260","0.0-7.0","A1ACXKVOUQ19DX","img_art/ins/popularity/ins2Extreme.png","0","instructions","","","","","","","","","","","","","","","","","","","","","","","",""
"3380","","image-button-response_instructions","8","64641","0.0-8.0","A1ACXKVOUQ19DX","img_art/ins/popularity/ins3KEEPpop.PNG","0","instructions","","","","","","","","","","","","","","","","","","","","","","","",""
"3334","","image-button-response_instructions","9","67976","0.0-9.0","A1ACXKVOUQ19DX","img_art/ins/popularity/ins3ANamepop.PNG","0","instructions","","","","","","","","","","","","","","","","","","","","","","","",""
"1210","","image-button-response_instructions","10","69188","0.0-10.0","A1ACXKVOUQ19DX","img_art/ins/popularity/ins3ARatingpop.png","0","instructions","","","","","","","","","","","","","","","","","","","","","","","",""
"837","","image-button-response_instructions","11","70025","0.0-11.0","A1ACXKVOUQ19DX","img_art/ins/popularity/ins3ATextpop.png","0","instructions","","","","","","","","","","","","","","","","","","","","","","","",""
"1280","","image-button-response_instructions","12","71308","0.0-12.0","A1ACXKVOUQ19DX","img_art/ins/popularity/ins3ALikespop.png","0","instructions","","","","","","","","","","","","","","","","","","","","","","","",""
"2391","","image-button-response_instructions","13","73699","0.0-13.0","A1ACXKVOUQ19DX","img_art/ins/popularity/ins3KEEPpop.PNG","0","instructions","","","","","","","","","","","","","","","","","","","","","","","",""
"4228","","image-button-response_instructions","14","77928","0.0-14.0","A1ACXKVOUQ19DX","img_art/ins/popularity/ins3_5RED.png","0","instructions","","","","","","","","","","","","","","","","","","","","","","","",""
"1866","","image-button-response_instructions","15","79796","0.0-15.0","A1ACXKVOUQ19DX","img_art/ins/popularity/ins3KEEPpop.PNG","0","instructions","","","","","","","","","","","","","","","","","","","","","","","",""
"3401","","image-button-response_instructions","16","83198","0.0-16.0","A1ACXKVOUQ19DX","img_art/ins/popularity/ins4KEEPpop.PNG","0","instructions","","","","","","","","","","","","","","","","","","","","","","","",""
"2065","","image-button-response_instructions","17","85264","0.0-17.0","A1ACXKVOUQ19DX","img_art/ins/popularity/ins5KEEPpop.PNG","0","instructions","","","","","","","","","","","","","","","","","","","","","","","",""
"1147","","image-button-response_instructions","18","86412","0.0-18.0","A1ACXKVOUQ19DX","","0","instructions","","","","","","","","","","","","","","","","","","","","","","","",""
"4477","","survey-text","19","90904","0.0-19.0-0.0","A1ACXKVOUQ19DX","","","","{""Q0"":""but""}","","","","","","","","","","","","","","","","","","","","","","",""
"4469","","survey-text","20","95374","0.0-20.0-0.0","A1ACXKVOUQ19DX","","","","{""Q0"":""colorful""}","","","","","","","","","","","","","","","","","","","","","","",""
"2786.5","","image-slider-response","21","98162","0.0-21.0","A1ACXKVOUQ19DX","","","","","19","","","","","","","","","","","","","","","","","","","","","",""
"null","","image-button-response","22","103164","0.0-22.0","A1ACXKVOUQ19DX","img_art/ins/1.jpg","null","","","","","","","","","","","","","","","","","","","","","","","","",""
"3038","","image-button-response","23","106204","0.0-23.0","A1ACXKVOUQ19DX","img_art/ins/1.jpg","0","","","","","","","","","","","","","","","","","","","","","","","","",""
"1377","","image-button-response","24","107582","0.0-24.0-0.0","A1ACXKVOUQ19DX","img_art/ins/1.jpg","4","","","","","","","","","","","","","","","","","","","","","","","","",""
"1367","","image-button-response","25","108950","0.0-25.0-0.0","A1ACXKVOUQ19DX","img_art/ins/1.jpg","5","","","","","","","","","","","","","","","","","","","","","","","","",""
"null","","html-keyboard-response","26","109452","0.0-26.0","A1ACXKVOUQ19DX","<p style=""font-size: 48px;"">+</p>","","","","","null","allTrialResponses","500","1","-2","img_art/ins/1.jpg","19","colorful","Allison,Ashley,Beth,Dora,Erika,Jen","looks like a lot of things going on in the mist,20,20,20","I just don't get why these type of art would be popular,-32,40,20","This color reminds me of poo,-46,60,20","looks like what my niece in 3rd grade did this afternoon,-50,80,20","I like the sophisticated brushwork,40,100,20","It reminds me of a candy land dream I had,36,120,20","Allison","looks like a lot of things going on in the mist,20,20,20","Erika","I like the sophisticated brushwork,40,100,20","Jen","It reminds me of a candy land dream I had,36,120,20","0"
"13443","","survey-text","27","122897","0.0-27.0-0.0","A1ACXKVOUQ19DX","","","","{""Q0"":""busy""}","","","","","","","","","","","","","","","","","","","","","","",""
"5987","","survey-text","28","130354","0.0-27.1-0.1","A1ACXKVOUQ19DX","","","","{""Q0"":""very chaotic ""}","","","","","","","","","","","","","","","","","","","","","","",""
"3011.0999999046326","","image-slider-response","29","133366","0.0-28.0","A1ACXKVOUQ19DX","","","","","12","","","","","","","","","","","","","","","","","","","","","",""
"1614","","image-button-response","30","138368","0.0-29.0","A1ACXKVOUQ19DX","img_art/ins/2.jpg","0","","","","","","","","","","","","","","","","","","","","","","","","",""
"1511","","image-button-response","31","139880","0.0-30.0","A1ACXKVOUQ19DX","img_art/ins/2.jpg","0","","","","","","","","","","","","","","","","","","","","","","","","",""
"563","","image-button-response","32","140444","0.0-31.0-0.0","A1ACXKVOUQ19DX","img_art/ins/2.jpg","1","","","","","","","","","","","","","","","","","","","","","","","","",""
"2729","","image-button-response","33","143175","0.0-32.0-0.0","A1ACXKVOUQ19DX","img_art/ins/2.jpg","5","","","","","","","","","","","","","","","","","","","","","","","","",""
"null","","html-keyboard-response","34","144177","0.0-33.0","A1ACXKVOUQ19DX","<p style=""font-size: 48px;"">+</p>","","","","","null","allTrialResponses","1000","1","-1","img_art/ins/2.jpg","12","very chaotic ","Allison,Kara,Katie,Jenna,Erika,Jen","I don't have strong feelings about this,10,20,20","I like the blocks of color arrangements,30,160,20","too much color!,-28,180,20","One of my pet peevs,-48,140,20","I would never be able to compose a sophisticated pallete like this,48,100,20","It reminds me of a fireplace,36,120,20","Allison","I don't have strong feelings about this,10,20,20","Kara","I like the blocks of color arrangements,30,160,20","Jen","It reminds me of a fireplace,36,120,20","0"
"14070","","survey-text","35","158250","0.0-34.0-0.0","A1ACXKVOUQ19DX","","","","{""Q0"":""it just makes me feel sadness""}","","","","","","","","","","","","","","","","","","","","","","",""
"3591.2999999523163","","image-slider-response","36","161842","0.0-35.0","A1ACXKVOUQ19DX","","","","","-26","","","","","","","","","","","","","","","","","","","","","",""
"2787","","image-button-response","37","166844","0.0-36.0","A1ACXKVOUQ19DX","img_art/ins/3.jpg","2","","","","","","","","","","","","","","","","","","","","","","","","",""
"1359","","image-button-response","38","168204","0.0-37.0","A1ACXKVOUQ19DX","img_art/ins/3.jpg","2","","","","","","","","","","","","","","","","","","","","","","","","",""
"1789","","image-button-response","39","169995","0.0-38.0-0.0","A1ACXKVOUQ19DX","img_art/ins/3.jpg","5","","","","","","","","","","","","","","","","","","","","","","","","",""
"4451","","image-button-response","40","174447","0.0-39.0-0.0","A1ACXKVOUQ19DX","img_art/ins/3.jpg","4","","","","","","","","","","","","","","","","","","","","","","","","",""
"null","","html-keyboard-response","41","174949","0.0-40.0","A1ACXKVOUQ19DX","<p style=""font-size: 48px;"">+</p>","","","","","null","allTrialResponses","500","1","0","img_art/ins/3.jpg","-26","it just makes me feel sadness","Allison,Kara,Rose,Leslie,Mary,Jen","enjoy the different shades of blue,22,20,20","calming blue is very nice,36,160,20","My daily routine, it's depressing,-20,240,20","It's an alright work,15,200,20","I like the overlapping of brushes,41,220,20","I can feel a rainy day from this painting,18,120,20","Rose","My daily routine, it's depressing,-20,240,20","Jen","I can feel a rainy day from this painting,18,120,20","Mary","I like the overlapping of brushes,41,220,20","0"
"13054","","image-button-response_instructions","42","188006","0.0-41.0","A1ACXKVOUQ19DX","","0","instructions","","","","","","","","","","","","","","","","","","","","","","","",""
"12941","","survey-likert","43","200949","0.0-42.0-0.0","A1ACXKVOUQ19DX","","","","{""Q0"":"""",""Q1"":0,""Q2"":1}","","","","","","","","","","","","","","","","","","","","","","",""
"4493","","survey-text","44","205446","0.0-43.0-0.0","A1ACXKVOUQ19DX","","","","{""Q0"":""rock""}","","","","","","","","","","","","","","","","","","","","","","",""
"8429","","survey-text","45","213876","0.0-44.0-0.0","A1ACXKVOUQ19DX","","","","{""Q0"":""it looks angry""}","","","","","","","","","","","","","","","","","","","","","","",""
"2386.2000000476837","","image-slider-response","46","216264","0.0-45.0","A1ACXKVOUQ19DX","","","","","-30","","","","","","","","","","","","","","","","","","","","","",""
"3806","","image-button-response","47","221277","0.0-46.0","A1ACXKVOUQ19DX","img_art/9.jpg","3","","","","","","","","","","","","","","","","","","","","","","","","",""
"1836","","image-button-response","48","223115","0.0-47.0","A1ACXKVOUQ19DX","img_art/9.jpg","3","","","","","","","","","","","","","","","","","","","","","","","","",""
"2079","","image-button-response","49","225195","0.0-48.0-0.0","A1ACXKVOUQ19DX","img_art/9.jpg","0","","","","","","","","","","","","","","","","","","","","","","","","",""
"3124","","image-button-response","50","228321","0.0-49.0-0.0","A1ACXKVOUQ19DX","img_art/9.jpg","1","","","","","","","","","","","","","","","","","","","","","","","","",""
"null","","html-keyboard-response","51","229322","0.0-50.0","A1ACXKVOUQ19DX","<p style=""font-size: 48px;"">+</p>","","","","","null","allTrialResponses","1000","1","1","img_art/9.jpg","-30","it looks angry","Elizabeth,Miranda,Alexandria,Maria,Meghan,Mariah","Love the uniqueness,21,20,20","It looks like someone gave a kid a coloring book page but the colors are soothing and look put together and elegant,27,320,20","it makes me feel excited and draws my eye around,24,80,20","while I don't dispute the art, it feels childish,-20,120,20","looks like someone resting,12,220,20","Pleasant in all ways.,27,140,20","Maria","while I don't dispute the art, it feels childish,-20,120,20","Elizabeth","Love the uniqueness,21,20,20","Miranda","It looks like someone gave a kid a coloring book page but the colors are soothing and look put together and elegant,27,320,20","0"
"17189","","survey-text","52","246515","0.0-51.0-0.0","A1ACXKVOUQ19DX","","","","{""Q0"":""dark and dreary""}","","","","","","","","","","","","","","","","","","","","","","",""
"2645.2000000476837","","image-slider-response","53","249161","0.0-52.0","A1ACXKVOUQ19DX","","","","","-22","","","","","","","","","","","","","","","","","","","","","",""
"4118","","image-button-response","54","254164","0.0-53.0","A1ACXKVOUQ19DX","img_art/16.jpg","1","","","","","","","","","","","","","","","","","","","","","","","","",""
"5091","","image-button-response","55","259255","0.0-54.0","A1ACXKVOUQ19DX","img_art/16.jpg","1","","","","","","","","","","","","","","","","","","","","","","","","",""
"1029","","image-button-response","56","260286","0.0-55.0-0.0","A1ACXKVOUQ19DX","img_art/16.jpg","4","","","","","","","","","","","","","","","","","","","","","","","","",""
"462","","image-button-response","57","260749","0.0-56.0-0.0","A1ACXKVOUQ19DX","img_art/16.jpg","3","","","","","","","","","","","","","","","","","","","","","","","","",""
"null","","html-keyboard-response","58","261250","0.0-57.0","A1ACXKVOUQ19DX","<p style=""font-size: 48px;"">+</p>","","","","","null","allTrialResponses","500","1","2","img_art/16.jpg","-22","dark and dreary","Elizabeth,Miranda,Jasmine,Maria,Sierra,Cassandra","Picture seems unique,12,20,20","This looks like it was made by an art student filled with angst,-30,320,20","I like it because it's quite different from the rest,23,340,20","feel a little creeped out,-20,120,20","it looks psychotic,-31,260,20","I like the teddy bear,but a neutral feeling,5,120,20","Miranda","This looks like it was made by an art student filled with angst,-30,320,20","Sierra","it looks psychotic,-31,260,20","Maria","feel a little creeped out,-20,120,20","0"
"17537","","survey-text","59","278789","0.0-58.0-0.0","A1ACXKVOUQ19DX","","","","{""Q0"":""spooky, like a skeleton in a graveyard""}","","","","","","","","","","","","","","","","","","","","","","",""
"2668.9000000953674","","image-slider-response","60","281459","0.0-59.0","A1ACXKVOUQ19DX","","","","","19","","","","","","","","","","","","","","","","","","","","","",""
"2037","","image-button-response","61","286461","0.0-60.0","A1ACXKVOUQ19DX","img_art/25.jpg","1","","","","","","","","","","","","","","","","","","","","","","","","",""
"4646","","image-button-response","62","291107","0.0-61.0","A1ACXKVOUQ19DX","img_art/25.jpg","1","","","","","","","","","","","","","","","","","","","","","","","","",""
"1437","","image-button-response","63","292545","0.0-62.0-0.0","A1ACXKVOUQ19DX","img_art/25.jpg","3","","","","","","","","","","","","","","","","","","","","","","","","",""
"3707","","image-button-response","64","296254","0.0-63.0-0.0","A1ACXKVOUQ19DX","img_art/25.jpg","4","","","","","","","","","","","","","","","","","","","","","","","","",""
"null","","html-keyboard-response","65","297755","0.0-64.0","A1ACXKVOUQ19DX","<p style=""font-size: 48px;"">+</p>","","","","","null","allTrialResponses","1500","1","3","img_art/25.jpg","19","spooky, like a skeleton in a graveyard","Victoria,Miranda,Lauren,Maria,Sierra,Alicia","makes me think of a scary movie,-20,400,20","This looks cool but I don't really care for it. Some sort or religious figure?,16,320,20","Depicts something negative, such as ritual. I'm not a fan.,-10,340,20","I find it enjoyable - mainly because it is not art I ever expected to see,16,120,20","the green is serene. the figure is scare crow like,7,260,20","death. childish nightmare.,-29,120,20","Miranda","This looks cool but I don't really care for it. Some sort or religious figure?,16,320,20","Maria","I find it enjoyable - mainly because it is not art I ever expected to see,16,120,20","Sierra","the green is serene. the figure is scare crow like,7,260,20","0"
"27678","","survey-text","66","325435","0.0-65.0-0.0","A1ACXKVOUQ19DX","","","","{""Q0"":""calm and serene. it reminds me of someone taking a photo on vacation.""}","","","","","","","","","","","","","","","","","","","","","","",""
"3141.0999999046326","","image-slider-response","67","328577","0.0-66.0","A1ACXKVOUQ19DX","","","","","23","","","","","","","","","","","","","","","","","","","","","",""
"3123","","image-button-response","68","333580","0.0-67.0","A1ACXKVOUQ19DX","img_art/26.jpg","1","","","","","","","","","","","","","","","","","","","","","","","","",""
"3172","","image-button-response","69","336753","0.0-68.0","A1ACXKVOUQ19DX","img_art/26.jpg","0","","","","","","","","","","","","","","","","","","","","","","","","",""
"579","","image-button-response","70","337333","0.0-69.0-0.0","A1ACXKVOUQ19DX","img_art/26.jpg","1","","","","","","","","","","","","","","","","","","","","","","","","",""
"2871","","image-button-response","71","340205","0.0-70.0-0.0","A1ACXKVOUQ19DX","img_art/26.jpg","5","","","","","","","","","","","","","","","","","","","","","","","","",""
"null","","html-keyboard-response","72","341207","0.0-71.0","A1ACXKVOUQ19DX","<p style=""font-size: 48px;"">+</p>","","","","","null","allTrialResponses","1000","1","4","img_art/26.jpg","23","calm and serene. it reminds me of someone taking a photo on vacation.","Caroline,Miranda,Molly,Maria,Sierra,Andrea","Calming and relaxing,28,100,20","This seems pretty and sweet, it's something I would like to actually see.,31,320,20","Nothing to say.,0,340,20","fairly neutral, really,8,120,20","soothing and subtle,1,260,20","I get the feeling of a small old world street.,24,240,20","Caroline","Calming and relaxing,28,100,20","Miranda","This seems pretty and sweet, it's something I would like to actually see.,31,320,20","Andrea","I get the feeling of a small old world street.,24,240,20","0"
"31729","","survey-text","73","372939","0.0-72.0-0.0","A1ACXKVOUQ19DX","","","","{""Q0"":""waterfall""}","","","","","","","","","","","","","","","","","","","","","","",""
"4691.200000047684","","image-slider-response","74","377631","0.0-73.0","A1ACXKVOUQ19DX","","","","","15","","","","","","","","","","","","","","","","","","","","","",""
"null","","image-button-response","75","382633","0.0-74.0","A1ACXKVOUQ19DX","img_art/24.jpg","null","","","","","","","","","","","","","","","","","","","","","","","","",""
"2787","","image-button-response","76","385422","0.0-75.0","A1ACXKVOUQ19DX","img_art/24.jpg","0","","","","","","","","","","","","","","","","","","","","","","","","",""
"1376","","image-button-response","77","386799","0.0-76.0-0.0","A1ACXKVOUQ19DX","img_art/24.jpg","2","","","","","","","","","","","","","","","","","","","","","","","","",""
"959","","image-button-response","78","387759","0.0-77.0-0.0","A1ACXKVOUQ19DX","img_art/24.jpg","5","","","","","","","","","","","","","","","","","","","","","","","","",""
"null","","html-keyboard-response","79","388261","0.0-78.0","A1ACXKVOUQ19DX","<p style=""font-size: 48px;"">+</p>","","","","","null","allTrialResponses","500","1","5","img_art/24.jpg","15","waterfall","Caroline,Miranda,Hailey,Caitlin,Tiffany,Andrea","Waterfalls and spring and gives me a sense of renewal,34,100,20","I find the colors work really well. It's very pretty but I have no idea as what it is.,34,320,20","warm spring day after a rain. soft,20,200,20","I actually like this one. You can tell what it is.,25,80,20","I feel relaxed and happy, looking at the stream, but it feels hollow, like something is fake.,5,360,20","Waterfall, and I love the coloring.,48,240,20","Caroline","Waterfalls and spring and gives me a sense of renewal,34,100,20","Hailey","warm spring day after a rain. soft,20,200,20","Andrea","Waterfall, and I love the coloring.,48,240,20","0"
"8445","","survey-text","80","396711","0.0-79.0-0.0","A1ACXKVOUQ19DX","","","","{""Q0"":""sky""}","","","","","","","","","","","","","","","","","","","","","","",""
"8301","","survey-text","81","405013","0.0-80.0-0.0","A1ACXKVOUQ19DX","","","","{""Q0"":""looks like a dead tree ""}","","","","","","","","","","","","","","","","","","","","","","",""
"2349.100000143051","","image-slider-response","82","407363","0.0-81.0","A1ACXKVOUQ19DX","","","","","-29","","","","","","","","","","","","","","","","","","","","","",""
"null","","image-button-response","83","412364","0.0-82.0","A1ACXKVOUQ19DX","img_art/14.jpg","null","","","","","","","","","","","","","","","","","","","","","","","","",""
"164","","image-button-response","84","412529","0.0-83.0","A1ACXKVOUQ19DX","img_art/14.jpg","4","","","","","","","","","","","","","","","","","","","","","","","","",""
"3093","","image-button-response","85","415623","0.0-84.0-0.0","A1ACXKVOUQ19DX","img_art/14.jpg","2","","","","","","","","","","","","","","","","","","","","","","","","",""
"725","","image-button-response","86","416349","0.0-85.0-0.0","A1ACXKVOUQ19DX","img_art/14.jpg","1","","","","","","","","","","","","","","","","","","","","","","","","",""
"null","","html-keyboard-response","87","417851","0.0-86.0","A1ACXKVOUQ19DX","<p style=""font-size: 48px;"">+</p>","","","","","null","allTrialResponses","1500","1","6","img_art/14.jpg","-29","looks like a dead tree ","Caroline,Abigail,Hailey,Mikayla,Kathryn,Andrea","Makes me think of trees and spring. A good feeling,26,100,20","Reminds me of art class,22,20,20","fuzzy and confused. ok then well,16,200,20","The red looks like blood and im not a huge fan,15,300,20","This reminds me of a tree but the tree is sickly, and poorly cared for.,-10,140,20","Cute little plant.,15,240,20","Kathryn","This reminds me of a tree but the tree is sickly, and poorly cared for.,-10,140,20","Hailey","fuzzy and confused. ok then well,16,200,20","Abigail","Reminds me of art class,22,20,20","0"
"11064","","survey-text","88","428917","0.0-87.0-0.0","A1ACXKVOUQ19DX","","","","{""Q0"":""sunset at sea ""}","","","","","","","","","","","","","","","","","","","","","","",""
"2501.100000143051","","image-slider-response","89","431419","0.0-88.0","A1ACXKVOUQ19DX","","","","","11","","","","","","","","","","","","","","","","","","","","","",""
"2327","","image-button-response","90","436421","0.0-89.0","A1ACXKVOUQ19DX","img_art/21.jpg","1","","","","","","","","","","","","","","","","","","","","","","","","",""
"654","","image-button-response","91","437076","0.0-90.0","A1ACXKVOUQ19DX","img_art/21.jpg","2","","","","","","","","","","","","","","","","","","","","","","","","",""
"944","","image-button-response","92","438022","0.0-91.0-0.0","A1ACXKVOUQ19DX","img_art/21.jpg","5","","","","","","","","","","","","","","","","","","","","","","","","",""
"1852","","image-button-response","93","439876","0.0-92.0-0.0","A1ACXKVOUQ19DX","img_art/21.jpg","1","","","","","","","","","","","","","","","","","","","","","","","","",""
"null","","html-keyboard-response","94","441377","0.0-93.0","A1ACXKVOUQ19DX","<p style=""font-size: 48px;"">+</p>","","","","","null","allTrialResponses","1500","1","7","img_art/21.jpg","11","sunset at sea ","Gabriela,Abigail,Hailey,Danielle,Kathryn,Bailey","It makes me feel mellow or ""chill"". It makes me have a positive and calm mood,42,140,20","Beautiful colors, remind me of my yoga studio,50,20,20","ocean and rocks at the beach,11,200,20","I like it. It's some of war-scene, bloodshed and battle on the left, field of dispair on the right, dark and rich,40,340,20","This feels chaotic, like a battle or a storm.,-20,140,20","Looks like two ships on fire. Cool image.,12,360,20","Hailey","ocean and rocks at the beach,11,200,20","Bailey","Looks like two ships on fire. Cool image.,12,360,20","Abigail","Beautiful colors, remind me of my yoga studio,50,20,20","0"
"17225","","survey-text","95","458606","0.0-94.0-0.0","A1ACXKVOUQ19DX","","","","{""Q0"":""dark and chaotic ""}","","","","","","","","","","","","","","","","","","","","","","",""
"2656.7999999523163","","image-slider-response","96","461263","0.0-95.0","A1ACXKVOUQ19DX","","","","","7","","","","","","","","","","","","","","","","","","","","","",""
"null","","image-button-response","97","466266","0.0-96.0","A1ACXKVOUQ19DX","img_art/10.jpg","null","","","","","","","","","","","","","","","","","","","","","","","","",""
"563","","image-button-response","98","466830","0.0-97.0","A1ACXKVOUQ19DX","img_art/10.jpg","5","","","","","","","","","","","","","","","","","","","","","","","","",""
"868","","image-button-response","99","467700","0.0-98.0-0.0","A1ACXKVOUQ19DX","img_art/10.jpg","4","","","","","","","","","","","","","","","","","","","","","","","","",""
"642","","image-button-response","100","468344","0.0-99.0-0.0","A1ACXKVOUQ19DX","img_art/10.jpg","3","","","","","","","","","","","","","","","","","","","","","","","","",""
"null","","html-keyboard-response","101","469345","0.0-100.0","A1ACXKVOUQ19DX","<p style=""font-size: 48px;"">+</p>","","","","","null","allTrialResponses","1000","1","8","img_art/10.jpg","7","dark and chaotic ","Katie,Abigail,Hailey,Alexandra,Kaitlyn,Bailey","Dark and weird. Unidentifiable shape. I can't tell what it is, so I don't like it.,-50,160,20","Looks gross and messy,-39,20,20","a fast racetrack. go, go, go,5,200,20","The longer I looked at this, the more I liked it,33,60,20","Picture looks smudged,-7,80,20","For black and white, this is pretty vibrant and cool. I like this.,39,360,20","Bailey","For black and white, this is pretty vibrant and cool. I like this.,39,360,20","Kaitlyn","Picture looks smudged,-7,80,20","Alexandra","The longer I looked at this, the more I liked it,33,60,20","0"
"39059","","survey-text","102","508407","0.0-101.0-0.0","A1ACXKVOUQ19DX","","","","{""Q0"":""reminds me of a new leaf, just beginning with so many possibilities. ""}","","","","","","","","","","","","","","","","","","","","","","",""
"9582.5","","image-slider-response","103","517991","0.0-102.0","A1ACXKVOUQ19DX","","","","","13","","","","","","","","","","","","","","","","","","","","","",""
"null","","image-button-response","104","522993","0.0-103.0","A1ACXKVOUQ19DX","img_art/6.jpg","null","","","","","","","","","","","","","","","","","","","","","","","","",""
"1903","","image-button-response","105","524898","0.0-104.0","A1ACXKVOUQ19DX","img_art/6.jpg","0","","","","","","","","","","","","","","","","","","","","","","","","",""
"1251","","image-button-response","106","526150","0.0-105.0-0.0","A1ACXKVOUQ19DX","img_art/6.jpg","3","","","","","","","","","","","","","","","","","","","","","","","","",""
"880","","image-button-response","107","527032","0.0-106.0-0.0","A1ACXKVOUQ19DX","img_art/6.jpg","4","","","","","","","","","","","","","","","","","","","","","","","","",""
"null","","html-keyboard-response","108","528033","0.0-107.0","A1ACXKVOUQ19DX","<p style=""font-size: 48px;"">+</p>","","","","","null","allTrialResponses","1000","1","9","img_art/6.jpg","13","reminds me of a new leaf, just beginning with so many possibilities. ","Dominique,Rebecca,Kelly,Alexandra,Kaitlyn,Bailey","Calm and catching,30,400,20","??????? fake floating leaf? headless bird,-28,100,20","Simple and pretty.,18,220,20","this is interesting and unique,11,60,20","I like the simplicity of the picture,30,80,20","Not my favorite, but I like the empty vibe and the imagination it invokes. A skinny girl with long legs, perhaps, looking over a cliff,9,360,20","Dominique","Calm and catching,30,400,20","Alexandra","this is interesting and unique,11,60,20","Kaitlyn","I like the simplicity of the picture,30,80,20","0"
"36401","","survey-text","109","564437","0.0-108.0-0.0","A1ACXKVOUQ19DX","","","","{""Q0"":""to much going on. it makes me feel very overwhelmed""}","","","","","","","","","","","","","","","","","","","","","","",""
"5525.299999952316","","image-slider-response","110","569964","0.0-109.0","A1ACXKVOUQ19DX","","","","","-33","","","","","","","","","","","","","","","","","","","","","",""
"4962","","image-button-response","111","574965","0.0-110.0","A1ACXKVOUQ19DX","img_art/12.jpg","5","","","","","","","","","","","","","","","","","","","","","","","","",""
"2370","","image-button-response","112","577337","0.0-111.0","A1ACXKVOUQ19DX","img_art/12.jpg","5","","","","","","","","","","","","","","","","","","","","","","","","",""
"2083","","image-button-response","113","579422","0.0-112.0-0.0","A1ACXKVOUQ19DX","img_art/12.jpg","3","","","","","","","","","","","","","","","","","","","","","","","","",""
"896","","image-button-response","114","580320","0.0-113.0-0.0","A1ACXKVOUQ19DX","img_art/12.jpg","4","","","","","","","","","","","","","","","","","","","","","","","","",""
"null","","html-keyboard-response","115","581321","0.0-114.0","A1ACXKVOUQ19DX","<p style=""font-size: 48px;"">+</p>","","","","","null","allTrialResponses","1000","1","10","img_art/12.jpg","-33","to much going on. it makes me feel very overwhelmed","Dominique,Briana,Ashley,Alexandra,Kaitlyn,Jenna","I have seen some like this before very popular and full of life,42,400,20","Interesting colors. I really dont like modern art though,24,400,20","It's boxy, cubist immpressionism? Very ncie.,32,320,20","I like the pattern of this picture, but the colors could be nicer,11,60,20","The shapes present in the picture make it very interesting,17,80,20","interesting, but feels like someone cut up a picture and pasted it together wrong. want to see the original,15,360,20","Jenna","interesting, but feels like someone cut up a picture and pasted it together wrong. want to see the original,15,360,20","Alexandra","I like the pattern of this picture, but the colors could be nicer,11,60,20","Kaitlyn","The shapes present in the picture make it very interesting,17,80,20","0"
"8614","","survey-text","116","589939","0.0-115.0-0.0","A1ACXKVOUQ19DX","","","","{""Q0"":""our""}","","","","","","","","","","","","","","","","","","","","","","",""
"13411","","survey-text","117","603352","0.0-116.0-0.0","A1ACXKVOUQ19DX","","","","{""Q0"":""looks like a crime scene""}","","","","","","","","","","","","","","","","","","","","","","",""
"4691","","image-slider-response","118","608044","0.0-117.0","A1ACXKVOUQ19DX","","","","","-39","","","","","","","","","","","","","","","","","","","","","",""
"null","","image-button-response","119","613045","0.0-118.0","A1ACXKVOUQ19DX","img_art/29.jpg","null","","","","","","","","","","","","","","","","","","","","","","","","",""
"499","","image-button-response","120","613544","0.0-119.0","A1ACXKVOUQ19DX","img_art/29.jpg","1","","","","","","","","","","","","","","","","","","","","","","","","",""
"881","","image-button-response","121","614426","0.0-120.0-0.0","A1ACXKVOUQ19DX","img_art/29.jpg","3","","","","","","","","","","","","","","","","","","","","","","","","",""
"493","","image-button-response","122","614922","0.0-121.0-0.0","A1ACXKVOUQ19DX","img_art/29.jpg","4","","","","","","","","","","","","","","","","","","","","","","","","",""
"null","","html-keyboard-response","123","615923","0.0-122.0","A1ACXKVOUQ19DX","<p style=""font-size: 48px;"">+</p>","","","","","null","allTrialResponses","1000","1","11","img_art/29.jpg","-39","looks like a crime scene","Shelby,Breanna,Courtney,Alexandra,Kaitlyn,Jenna","Doesnt say much for me,0,240,20","Makes me feel untidy,-9,380,20","Thats a pretty wierd picture.,6,280,20","I don't like this. It is ugly and dark,-29,60,20","I do not like the red x present in the picture,-6,80,20","risks well taken. the brush is hilarious. feels like an artist's frustration, which is relatable.,50,360,20","Breanna","Makes me feel untidy,-9,380,20","Alexandra","I don't like this. It is ugly and dark,-29,60,20","Kaitlyn","I do not like the red x present in the picture,-6,80,20","0"
"19850","","survey-text","124","635776","0.0-123.0-0.0","A1ACXKVOUQ19DX","","","","{""Q0"":""fireworks in the sky""}","","","","","","","","","","","","","","","","","","","","","","",""
"1967","","image-slider-response","125","637744","0.0-124.0","A1ACXKVOUQ19DX","","","","","11","","","","","","","","","","","","","","","","","","","","","",""
"null","","image-button-response","126","642745","0.0-125.0","A1ACXKVOUQ19DX","img_art/23.jpg","null","","","","","","","","","","","","","","","","","","","","","","","","",""
"1572","","image-button-response","127","644318","0.0-126.0","A1ACXKVOUQ19DX","img_art/23.jpg","4","","","","","","","","","","","","","","","","","","","","","","","","",""
"1779","","image-button-response","128","646098","0.0-127.0-0.0","A1ACXKVOUQ19DX","img_art/23.jpg","0","","","","","","","","","","","","","","","","","","","","","","","","",""
"2552","","image-button-response","129","648652","0.0-128.0-0.0","A1ACXKVOUQ19DX","img_art/23.jpg","3","","","","","","","","","","","","","","","","","","","","","","","","",""
"null","","html-keyboard-response","130","649653","0.0-129.0","A1ACXKVOUQ19DX","<p style=""font-size: 48px;"">+</p>","","","","","null","allTrialResponses","1000","1","12","img_art/23.jpg","11","fireworks in the sky","Allison,Breanna,Angela,Alexandra,Kaitlyn,Megan","I like the color contrast, though I'm unable to tell what the white shapes are.,25,140,20","Makes me worried,10,380,20","Like the background colors and the energy, but the white bits ruin it for me,-7,260,20","This is my favorite of them all. I love the colors.,41,60,20","Interesting contrast,9,80,20","Too busy with color with warrior lineup,0,200,20","Kaitlyn","Interesting contrast,9,80,20","Allison","I like the color contrast, though I'm unable to tell what the white shapes are.,25,140,20","Alexandra","This is my favorite of them all. I love the colors.,41,60,20","0"
"12121","","survey-text","131","661778","0.0-130.0-0.0","A1ACXKVOUQ19DX","","","","{""Q0"":""cars on a busy highway""}","","","","","","","","","","","","","","","","","","","","","","",""
"2107.2000000476837","","image-slider-response","132","663886","0.0-131.0","A1ACXKVOUQ19DX","","","","","8","","","","","","","","","","","","","","","","","","","","","",""
"null","","image-button-response","133","668890","0.0-132.0","A1ACXKVOUQ19DX","img_art/11.jpg","null","","","","","","","","","","","","","","","","","","","","","","","","",""
"977","","image-button-response","134","669868","0.0-133.0","A1ACXKVOUQ19DX","img_art/11.jpg","2","","","","","","","","","","","","","","","","","","","","","","","","",""
"1203","","image-button-response","135","671072","0.0-134.0-0.0","A1ACXKVOUQ19DX","img_art/11.jpg","1","","","","","","","","","","","","","","","","","","","","","","","","",""
"817","","image-button-response","136","671890","0.0-135.0-0.0","A1ACXKVOUQ19DX","img_art/11.jpg","5","","","","","","","","","","","","","","","","","","","","","","","","",""
"null","","html-keyboard-response","137","673391","0.0-136.0","A1ACXKVOUQ19DX","<p style=""font-size: 48px;"">+</p>","","","","","null","allTrialResponses","1500","1","13","img_art/11.jpg","8","cars on a busy highway","Allison,Kaylee,Rachel,Alexandra,Kaitlyn,Catherine","Kind of reminds me of DNA.,9,140,20","i dont understand this painting,-1,200,20","Makes me think of a futuristic scene of vehicles flying in the sky in a city.,36,80,20","I normally would not like this photo, but the design is nice.,21,60,20","Interesting use of color,9,80,20","Busy city life. transportation, anxiety.,10,160,20","Rachel","Makes me think of a futuristic scene of vehicles flying in the sky in a city.,36,80,20","Kaylee","i dont understand this painting,-1,200,20","Catherine","Busy city life. transportation, anxiety.,10,160,20","0"
"31833","","survey-text","138","705227","0.0-137.0-0.0","A1ACXKVOUQ19DX","","","","{""Q0"":""a truck hitting an animal , very disturbing.""}","","","","","","","","","","","","","","","","","","","","","","",""
"2356.5","","image-slider-response","139","707584","0.0-138.0","A1ACXKVOUQ19DX","","","","","-48","","","","","","","","","","","","","","","","","","","","","",""
"3229","","image-button-response","140","712586","0.0-139.0","A1ACXKVOUQ19DX","img_art/20.jpg","2","","","","","","","","","","","","","","","","","","","","","","","","",""
"1609","","image-button-response","141","714197","0.0-140.0","A1ACXKVOUQ19DX","img_art/20.jpg","2","","","","","","","","","","","","","","","","","","","","","","","","",""
"623","","image-button-response","142","714821","0.0-141.0-0.0","A1ACXKVOUQ19DX","img_art/20.jpg","1","","","","","","","","","","","","","","","","","","","","","","","","",""
"847","","image-button-response","143","715669","0.0-142.0-0.0","A1ACXKVOUQ19DX","img_art/20.jpg","3","","","","","","","","","","","","","","","","","","","","","","","","",""
"null","","html-keyboard-response","144","717171","0.0-143.0","A1ACXKVOUQ19DX","<p style=""font-size: 48px;"">+</p>","","","","","null","allTrialResponses","1500","1","14","img_art/20.jpg","-48","a truck hitting an animal , very disturbing.","Kaitlin,Kaylee,Rachel,Paige,Diana,Catherine","i can feel the intensity in this,11,60,20","i can see a car crash,13,200,20","While interesting in technique.. It looks like a blurry car wreck. Does not evoke great emotions.,-20,80,20","scared. makes me feel alone or abandoned,-11,60,20","I'm not sure why this reminds me of surrealism. It might be the colors used.,16,380,20","Interesting. Empty place, wondering what happened, leaving what you used to know.,10,160,20","Rachel","While interesting in technique.. It looks like a blurry car wreck. Does not evoke great emotions.,-20,80,20","Kaylee","i can see a car crash,13,200,20","Paige","scared. makes me feel alone or abandoned,-11,60,20","0"
"18952","","survey-text","145","736127","0.0-144.0-0.0","A1ACXKVOUQ19DX","","","","{""Q0"":""child's scribbling, messy and careless""}","","","","","","","","","","","","","","","","","","","","","","",""
"7298.799999952316","","image-slider-response","146","743427","0.0-145.0","A1ACXKVOUQ19DX","","","","","-26","","","","","","","","","","","","","","","","","","","","","",""
"4915","","image-button-response","147","748428","0.0-146.0","A1ACXKVOUQ19DX","img_art/3.jpg","1","","","","","","","","","","","","","","","","","","","","","","","","",""
"1115","","image-button-response","148","749545","0.0-147.0","A1ACXKVOUQ19DX","img_art/3.jpg","0","","","","","","","","","","","","","","","","","","","","","","","","",""
"546","","image-button-response","149","750091","0.0-148.0-0.0","A1ACXKVOUQ19DX","img_art/3.jpg","1","","","","","","","","","","","","","","","","","","","","","","","","",""
"856","","image-button-response","150","750949","0.0-149.0-0.0","A1ACXKVOUQ19DX","img_art/3.jpg","0","","","","","","","","","","","","","","","","","","","","","","","","",""
"1813","","image-button-response","151","756239","0.0-149.1-0.1","A1ACXKVOUQ19DX","img_art/3.jpg","4","","","","","","","","","","","","","","","","","","","","","","","","",""
"null","","html-keyboard-response","152","756750","0.0-150.0","A1ACXKVOUQ19DX","<p style=""font-size: 48px;"">+</p>","","","","","null","allTrialResponses","500","1","15","img_art/3.jpg","-26","child's scribbling, messy and careless","Autumn,Kaylee,Rachel,Paige,Anna,Sydney","Unfocused and rushed.,-28,340,20","i really cant get it,-44,200,20","Too red and chaotic. Not calming.,-41,80,20","seems too angry,-50,60,20","Definition of mediocre abstract art,-12,300,20","This piece makes me think it has a backstory or a reason which I like.,5,320,20","Autumn","Unfocused and rushed.,-28,340,20","Kaylee","i really cant get it,-44,200,20","Anna","Definition of mediocre abstract art,-12,300,20","2"
"5534","","survey-text","153","762291","0.0-151.0-0.0","A1ACXKVOUQ19DX","","","","{""Q0"":""course""}","","","","","","","","","","","","","","","","","","","","","","",""
"64032","","survey-text","154","826323","0.0-152.0-0.0","A1ACXKVOUQ19DX","","","","{""Q0"":""building""}","","","","","","","","","","","","","","","","","","","","","","",""
"2968.2000000476837","","image-slider-response","155","829293","0.0-153.0","A1ACXKVOUQ19DX","","","","","-16","","","","","","","","","","","","","","","","","","","","","",""
"1907","","image-button-response","156","834294","0.0-154.0","A1ACXKVOUQ19DX","img_art/8.jpg","0","","","","","","","","","","","","","","","","","","","","","","","","",""
"3824","","image-button-response","157","838119","0.0-155.0","A1ACXKVOUQ19DX","img_art/8.jpg","0","","","","","","","","","","","","","","","","","","","","","","","","",""
"2859","","image-button-response","158","840979","0.0-156.0-0.0","A1ACXKVOUQ19DX","img_art/8.jpg","5","","","","","","","","","","","","","","","","","","","","","","","","",""
"2029","","image-button-response","159","843009","0.0-157.0-0.0","A1ACXKVOUQ19DX","img_art/8.jpg","2","","","","","","","","","","","","","","","","","","","","","","","","",""
"null","","html-keyboard-response","160","844511","0.0-158.0","A1ACXKVOUQ19DX","<p style=""font-size: 48px;"">+</p>","","","","","null","allTrialResponses","1500","1","16","img_art/8.jpg","-16","building","Autumn,Kaylee,Morgan,Erica,Anna,Grace","Well painted. Not my style.,27,340,20","beautiful buildings,32,200,20","Falling into a city's heart.,10,380,20","Very busy, I want to look at it and investigate,23,80,20","The shapes and colors work well together.,40,300,20","Like the colors & the imagery - old city, native peoples maybe.,20,180,20","Autumn","Well painted. Not my style.,27,340,20","Grace","Like the colors & the imagery - old city, native peoples maybe.,20,180,20","Morgan","Falling into a city's heart.,10,380,20","2"
"13460","","survey-text","161","857975","0.0-159.0-0.0","A1ACXKVOUQ19DX","","","","{""Q0"":""child's fingerpainting, very sloppy""}","","","","","","","","","","","","","","","","","","","","","","",""
"2342.9000000953674","","image-slider-response","162","860319","0.0-160.0","A1ACXKVOUQ19DX","","","","","-45","","","","","","","","","","","","","","","","","","","","","",""
"null","","image-button-response","163","865321","0.0-161.0","A1ACXKVOUQ19DX","img_art/30.jpg","null","","","","","","","","","","","","","","","","","","","","","","","","",""
"668","","image-button-response","164","865989","0.0-162.0","A1ACXKVOUQ19DX","img_art/30.jpg","3","","","","","","","","","","","","","","","","","","","","","","","","",""
"941","","image-button-response","165","866931","0.0-163.0-0.0","A1ACXKVOUQ19DX","img_art/30.jpg","0","","","","","","","","","","","","","","","","","","","","","","","","",""
"1912","","image-button-response","166","868846","0.0-164.0-0.0","A1ACXKVOUQ19DX","img_art/30.jpg","4","","","","","","","","","","","","","","","","","","","","","","","","",""
"null","","html-keyboard-response","167","869847","0.0-165.0","A1ACXKVOUQ19DX","<p style=""font-size: 48px;"">+</p>","","","","","null","allTrialResponses","1000","1","17","img_art/30.jpg","-45","child's fingerpainting, very sloppy","Autumn,Monica,Morgan,Jacqueline,Lindsey,Grace","Absolutely messy,-31,340,20","It looked like a random scribble but I can see a person's face in it now and I think it's clever,13,360,20","Sleek eel in the abstract ocean.,30,380,20","Too dark and ugly with all the black smears,-20,300,20","Interesting. Not sure what I'm seeing but it makes me want to figure it out.,5,400,20","A little too dull. Would've liked brighter colors. Also looks washed out.,1,180,20","Jacqueline","Too dark and ugly with all the black smears,-20,300,20","Autumn","Absolutely messy,-31,340,20","Lindsey","Interesting. Not sure what I'm seeing but it makes me want to figure it out.,5,400,20","2"
"49764","","survey-text","168","919615","0.0-166.0-0.0","A1ACXKVOUQ19DX","","","","{""Q0"":""a tree in the wind""}","","","","","","","","","","","","","","","","","","","","","","",""
"2266.899999856949","","image-slider-response","169","921883","0.0-167.0","A1ACXKVOUQ19DX","","","","","11","","","","","","","","","","","","","","","","","","","","","",""
"null","","image-button-response","170","926885","0.0-168.0","A1ACXKVOUQ19DX","img_art/17.jpg","null","","","","","","","","","","","","","","","","","","","","","","","","",""
"2501","","image-button-response","171","929387","0.0-169.0","A1ACXKVOUQ19DX","img_art/17.jpg","3","","","","","","","","","","","","","","","","","","","","","","","","",""
"2071","","image-button-response","172","931460","0.0-170.0-0.0","A1ACXKVOUQ19DX","img_art/17.jpg","2","","","","","","","","","","","","","","","","","","","","","","","","",""
"796","","image-button-response","173","932258","0.0-171.0-0.0","A1ACXKVOUQ19DX","img_art/17.jpg","4","","","","","","","","","","","","","","","","","","","","","","","","",""
"null","","html-keyboard-response","174","933760","0.0-172.0","A1ACXKVOUQ19DX","<p style=""font-size: 48px;"">+</p>","","","","","null","allTrialResponses","1500","1","18","img_art/17.jpg","11","a tree in the wind","Autumn,Gabrielle,Chloe,Jacqueline,Lindsey,Savannah","Looks awesome .,33,340,20","nice composition and colors, fairy land,28,160,20","Pretty but a little cheesy,-10,220,20","It's okay, I just don't see much too it.,7,300,20","Pretty composition and I like the colors.,20,400,20","Not even abstract to me, very clear meaning.,44,200,20","Jacqueline","It's okay, I just don't see much too it.,7,300,20","Chloe","Pretty but a little cheesy,-10,220,20","Lindsey","Pretty composition and I like the colors.,20,400,20","2"
"29151","","survey-text","175","962913","0.0-173.0-0.0","A1ACXKVOUQ19DX","","","","{""Q0"":""pile of leaves, very autumnal colors""}","","","","","","","","","","","","","","","","","","","","","","",""
"66849.69999980927","","image-slider-response","176","1029764","0.0-174.0","A1ACXKVOUQ19DX","","","","","2","","","","","","","","","","","","","","","","","","","","","",""
"2303","","image-button-response","177","1034766","0.0-175.0","A1ACXKVOUQ19DX","img_art/1.jpg","0","","","","","","","","","","","","","","","","","","","","","","","","",""
"937","","image-button-response","178","1035704","0.0-176.0","A1ACXKVOUQ19DX","img_art/1.jpg","0","","","","","","","","","","","","","","","","","","","","","","","","",""
"1618","","image-button-response","179","1037324","0.0-177.0-0.0","A1ACXKVOUQ19DX","img_art/1.jpg","4","","","","","","","","","","","","","","","","","","","","","","","","",""
"567","","image-button-response","180","1037891","0.0-178.0-0.0","A1ACXKVOUQ19DX","img_art/1.jpg","3","","","","","","","","","","","","","","","","","","","","","","","","",""
"null","","html-keyboard-response","181","1038393","0.0-179.0","A1ACXKVOUQ19DX","<p style=""font-size: 48px;"">+</p>","","","","","null","allTrialResponses","500","1","19","img_art/1.jpg","2","pile of leaves, very autumnal colors","Amy,Erin,Chloe,Jacqueline,Lindsey,Katherine","Unpleasing palette. I see a figure but it seems incongrous to the highly abstract background.,-20,220,20","Love the coloration and abstract figures,18,120,20","Powerful colors.,31,220,20","It's alright but lacks any depth.,-5,300,20","Not a fan of the colors. Makes me think of the Australian bush fires.,-5,400,20","Blurry but that's how emotions are a lot of the time.,27,120,20","Amy","Unpleasing palette. I see a figure but it seems incongrous to the highly abstract background.,-20,220,20","Lindsey","Not a fan of the colors. Makes me think of the Australian bush fires.,-5,400,20","Jacqueline","It's alright but lacks any depth.,-5,300,20","2"
"22418","","survey-text","182","1060818","0.0-180.0-0.0","A1ACXKVOUQ19DX","","","","{""Q0"":""bicycle ride""}","","","","","","","","","","","","","","","","","","","","","","",""
"3184.9000000953674","","image-slider-response","183","1064004","0.0-181.0","A1ACXKVOUQ19DX","","","","","-22","","","","","","","","","","","","","","","","","","","","","",""
"null","","image-button-response","184","1069005","0.0-182.0","A1ACXKVOUQ19DX","img_art/28.jpg","null","","","","","","","","","","","","","","","","","","","","","","","","",""
"4272","","image-button-response","185","1073278","0.0-183.0","A1ACXKVOUQ19DX","img_art/28.jpg","4","","","","","","","","","","","","","","","","","","","","","","","","",""
"2795","","image-button-response","186","1076074","0.0-184.0-0.0","A1ACXKVOUQ19DX","img_art/28.jpg","2","","","","","","","","","","","","","","","","","","","","","","","","",""
"1135","","image-button-response","187","1077210","0.0-185.0-0.0","A1ACXKVOUQ19DX","img_art/28.jpg","3","","","","","","","","","","","","","","","","","","","","","","","","",""
"null","","html-keyboard-response","188","1077711","0.0-186.0","A1ACXKVOUQ19DX","<p style=""font-size: 48px;"">+</p>","","","","","null","allTrialResponses","500","1","20","img_art/28.jpg","-22","bicycle ride","Amy,Kimberly,Katelyn,Jacqueline,Lindsey,Kylie","Contemplative and a little dark. The muted colors and subject create a sense of mystery.,15,220,20","The thing on the right is kind of weird/fetus-y,-12,260,20","Just all blurs together for me. No substance.,-23,100,20","I don't like the washed out colors.,-15,300,20","Not a fan of the drab colors but it looks a little bit interesting.,-7,400,20","Overpopulated city,35,300,20","Lindsey","Not a fan of the drab colors but it looks a little bit interesting.,-7,400,20","Katelyn","Just all blurs together for me. No substance.,-23,100,20","Jacqueline","I don't like the washed out colors.,-15,300,20","2"
"4111","","survey-text","189","1081828","0.0-187.0-0.0","A1ACXKVOUQ19DX","","","","{""Q0"":""we""}","","","","","","","","","","","","","","","","","","","","","","",""
"16411","","survey-text","190","1098240","0.0-188.0-0.0","A1ACXKVOUQ19DX","","","","{""Q0"":""monster, very childlike.""}","","","","","","","","","","","","","","","","","","","","","","",""
"2826.800000190735","","image-slider-response","191","1101068","0.0-189.0","A1ACXKVOUQ19DX","","","","","-27","","","","","","","","","","","","","","","","","","","","","",""
"1807","","image-button-response","192","1106071","0.0-190.0","A1ACXKVOUQ19DX","img_art/2.jpg","3","","","","","","","","","","","","","","","","","","","","","","","","",""
"812","","image-button-response","193","1106884","0.0-191.0","A1ACXKVOUQ19DX","img_art/2.jpg","3","","","","","","","","","","","","","","","","","","","","","","","","",""
"587","","image-button-response","194","1107472","0.0-192.0-0.0","A1ACXKVOUQ19DX","img_art/2.jpg","4","","","","","","","","","","","","","","","","","","","","","","","","",""
"735","","image-button-response","195","1108209","0.0-193.0-0.0","A1ACXKVOUQ19DX","img_art/2.jpg","5","","","","","","","","","","","","","","","","","","","","","","","","",""
"null","","html-keyboard-response","196","1108710","0.0-194.0","A1ACXKVOUQ19DX","<p style=""font-size: 48px;"">+</p>","","","","","null","allTrialResponses","500","1","21","img_art/2.jpg","-27","monster, very childlike.","Alexa,Emily,Katelyn,Jacqueline,Lindsey,Natalie","Not my favorite but I can see this being hung in a art museum,25,40,20","Random colors and shapes mashed together. Nothing artistic, but better than some of the other ones.,-37,40,20","Looks childish and i dont like the texture,-25,100,20","A bit ugly with the greens.,-20,300,20","Not a fan of the colors or the style.,-31,400,20","looks like a bunch of gibberish,-39,400,20","Jacqueline","A bit ugly with the greens.,-20,300,20","Lindsey","Not a fan of the colors or the style.,-31,400,20","Natalie","looks like a bunch of gibberish,-39,400,20","2"
"18394","","survey-text","197","1127108","0.0-195.0-0.0","A1ACXKVOUQ19DX","","","","{""Q0"":""lemon, bright and cheery""}","","","","","","","","","","","","","","","","","","","","","","",""
"2333.4000000953674","","image-slider-response","198","1129443","0.0-196.0","A1ACXKVOUQ19DX","","","","","29","","","","","","","","","","","","","","","","","","","","","",""
"null","","image-button-response","199","1134445","0.0-197.0","A1ACXKVOUQ19DX","img_art/5.jpg","null","","","","","","","","","","","","","","","","","","","","","","","","",""
"3438","","image-button-response","200","1137885","0.0-198.0","A1ACXKVOUQ19DX","img_art/5.jpg","4","","","","","","","","","","","","","","","","","","","","","","","","",""
"2653","","image-button-response","201","1140539","0.0-199.0-0.0","A1ACXKVOUQ19DX","img_art/5.jpg","1","","","","","","","","","","","","","","","","","","","","","","","","",""
"784","","image-button-response","202","1141325","0.0-200.0-0.0","A1ACXKVOUQ19DX","img_art/5.jpg","2","","","","","","","","","","","","","","","","","","","","","","","","",""
"null","","html-keyboard-response","203","1141826","0.0-201.0","A1ACXKVOUQ19DX","<p style=""font-size: 48px;"">+</p>","","","","","null","allTrialResponses","500","1","22","img_art/5.jpg","29","lemon, bright and cheery","Brittany,Cynthia,Sara,Jacqueline,Lindsey,Natalie","Although it's very simple, there's something about the colors that really draws the eye.,11,40,20","boring and unsure,-25,320,20","It looks random,-10,160,20","Seems very basic and uninteresting.,-15,300,20","Black bit reminds me of a giant splinter. Yellow bit reminds me of urine. I hate it.,-50,400,20","the picture looks ok,8,400,20","Lindsey","Black bit reminds me of a giant splinter. Yellow bit reminds me of urine. I hate it.,-50,400,20","Cynthia","boring and unsure,-25,320,20","Sara","It looks random,-10,160,20","2"
"51605","","survey-text","204","1193434","0.0-202.0-0.0","A1ACXKVOUQ19DX","","","","{""Q0"":""vibrant tree""}","","","","","","","","","","","","","","","","","","","","","","",""
"51575.200000047684","","image-slider-response","205","1245010","0.0-203.0","A1ACXKVOUQ19DX","","","","","25","","","","","","","","","","","","","","","","","","","","","",""
"4853","","image-button-response","206","1250012","0.0-204.0","A1ACXKVOUQ19DX","img_art/13.jpg","4","","","","","","","","","","","","","","","","","","","","","","","","",""
"1615","","image-button-response","207","1251628","0.0-205.0","A1ACXKVOUQ19DX","img_art/13.jpg","3","","","","","","","","","","","","","","","","","","","","","","","","",""
"1343","","image-button-response","208","1252972","0.0-206.0-0.0","A1ACXKVOUQ19DX","img_art/13.jpg","0","","","","","","","","","","","","","","","","","","","","","","","","",""
"1245","","image-button-response","209","1254218","0.0-207.0-0.0","A1ACXKVOUQ19DX","img_art/13.jpg","2","","","","","","","","","","","","","","","","","","","","","","","","",""
"null","","html-keyboard-response","210","1255220","0.0-208.0","A1ACXKVOUQ19DX","<p style=""font-size: 48px;"">+</p>","","","","","null","allTrialResponses","1000","1","23","img_art/13.jpg","25","vibrant tree","Taylor,Cynthia,Sara,Stephanie,Lindsey,Jordan","It makes me think of sitting inside on a rainy day while drinking a warm coffee,32,340,20","It reminds me of rain,11,320,20","I love the different blue shades,31,160,20","Raindrops splashing on the window.,50,300,20","I find this oddly pleasant, but I object to this style. It's just a background with splatters. How is that art?,-5,400,20","It's just paint splatter, no real meaning to me,-50,20,20","Stephanie","Raindrops splashing on the window.,50,300,20","Taylor","It makes me think of sitting inside on a rainy day while drinking a warm coffee,32,340,20","Sara","I love the different blue shades,31,160,20","2"
"13058","","survey-text","211","1268282","0.0-209.0-0.0","A1ACXKVOUQ19DX","","","","{""Q0"":""farmer's market feel""}","","","","","","","","","","","","","","","","","","","","","","",""
"5212.900000095367","","image-slider-response","212","1273496","0.0-210.0","A1ACXKVOUQ19DX","","","","","19","","","","","","","","","","","","","","","","","","","","","",""
"null","","image-button-response","213","1278498","0.0-211.0","A1ACXKVOUQ19DX","img_art/19.jpg","null","","","","","","","","","","","","","","","","","","","","","","","","",""
"4470","","image-button-response","214","1282969","0.0-212.0","A1ACXKVOUQ19DX","img_art/19.jpg","5","","","","","","","","","","","","","","","","","","","","","","","","",""
"805","","image-button-response","215","1283775","0.0-213.0-0.0","A1ACXKVOUQ19DX","img_art/19.jpg","4","","","","","","","","","","","","","","","","","","","","","","","","",""
"852","","image-button-response","216","1284628","0.0-214.0-0.0","A1ACXKVOUQ19DX","img_art/19.jpg","0","","","","","","","","","","","","","","","","","","","","","","","","",""
"null","","html-keyboard-response","217","1285130","0.0-215.0","A1ACXKVOUQ19DX","<p style=""font-size: 48px;"">+</p>","","","","","null","allTrialResponses","500","1","24","img_art/19.jpg","19","farmer's market feel","Taylor,Brooke,Sara,Stephanie,Michaela,Destiny","It reminds me of sitting at a cafe on the side of a river.,45,340,20","Snowy winter scene,25,60,20","I like the vibrant color blocks,13,160,20","A dreary town in the fall.,-4,300,20","It's ok but it's nothing I would hang on my wall,11,260,20","this flow I just really like how everything blends but also doesn't,45,360,20","Destiny","this flow I just really like how everything blends but also doesn't,45,360,20","Michaela","It's ok but it's nothing I would hang on my wall,11,260,20","Taylor","It reminds me of sitting at a cafe on the side of a river.,45,340,20","2"
"18895","","survey-text","218","1304029","0.0-216.0-0.0","A1ACXKVOUQ19DX","","","","{""Q0"":""beachy sunset""}","","","","","","","","","","","","","","","","","","","","","","",""
"1508.9000000953674","","image-slider-response","219","1305539","0.0-217.0","A1ACXKVOUQ19DX","","","","","18","","","","","","","","","","","","","","","","","","","","","",""
"null","","image-button-response","220","1310540","0.0-218.0","A1ACXKVOUQ19DX","img_art/27.jpg","null","","","","","","","","","","","","","","","","","","","","","","","","",""
"732","","image-button-response","221","1311273","0.0-219.0","A1ACXKVOUQ19DX","img_art/27.jpg","4","","","","","","","","","","","","","","","","","","","","","","","","",""
"1473","","image-button-response","222","1312747","0.0-220.0-0.0","A1ACXKVOUQ19DX","img_art/27.jpg","2","","","","","","","","","","","","","","","","","","","","","","","","",""
"749","","image-button-response","223","1313497","0.0-221.0-0.0","A1ACXKVOUQ19DX","img_art/27.jpg","1","","","","","","","","","","","","","","","","","","","","","","","","",""
"null","","html-keyboard-response","224","1314499","0.0-222.0","A1ACXKVOUQ19DX","<p style=""font-size: 48px;"">+</p>","","","","","null","allTrialResponses","1000","1","25","img_art/27.jpg","18","beachy sunset","Taylor,Makayla,Amanda,Mackenzie,Michaela,Destiny","Reminds me of a town on fire,-15,340,20","Calming sky , relaxing,23,80,20","I love the childish aspect to it,37,180,20","The color palette isn't my taste,-24,20,20","It looks like a kid colored a picture and an adult added to it,19,260,20","demon vs angel brawl over lemon lime sprite,-10,360,20","Michaela","It looks like a kid colored a picture and an adult added to it,19,260,20","Amanda","I love the childish aspect to it,37,180,20","Makayla","Calming sky , relaxing,23,80,20","2"
"4016","","survey-text","225","1318523","0.0-223.0-0.0","A1ACXKVOUQ19DX","","","","{""Q0"":""table""}","","","","","","","","","","","","","","","","","","","","","","",""
"12160","","survey-text","226","1330683","0.0-224.0-0.0","A1ACXKVOUQ19DX","","","","{""Q0"":""town on fire""}","","","","","","","","","","","","","","","","","","","","","","",""
"2568.7999999523163","","image-slider-response","227","1333253","0.0-225.0","A1ACXKVOUQ19DX","","","","","-29","","","","","","","","","","","","","","","","","","","","","",""
"null","","image-button-response","228","1338255","0.0-226.0","A1ACXKVOUQ19DX","img_art/22.jpg","null","","","","","","","","","","","","","","","","","","","","","","","","",""
"4728","","image-button-response","229","1342983","0.0-227.0","A1ACXKVOUQ19DX","img_art/22.jpg","3","","","","","","","","","","","","","","","","","","","","","","","","",""
"1463","","image-button-response","230","1344447","0.0-228.0-0.0","A1ACXKVOUQ19DX","img_art/22.jpg","1","","","","","","","","","","","","","","","","","","","","","","","","",""
"683","","image-button-response","231","1345131","0.0-229.0-0.0","A1ACXKVOUQ19DX","img_art/22.jpg","0","","","","","","","","","","","","","","","","","","","","","","","","",""
"null","","html-keyboard-response","232","1345632","0.0-230.0","A1ACXKVOUQ19DX","<p style=""font-size: 48px;"">+</p>","","","","","null","allTrialResponses","500","1","26","img_art/22.jpg","-29","town on fire","Kayla,Makayla,Amanda,Kristen,Michaela,Madison","I don't like that it looks like a person is there upside down.,-16,180,20","Just neutral no feelings,2,80,20","Very generic, seen many times before,-43,180,20","fire, danger, resentful,-17,280,20","I like the use of primary colors in an interesting way,29,260,20","Like the colors, and the even blur. The more I look, the more a story forms. A very narrative image.,18,60,20","Kristen","fire, danger, resentful,-17,280,20","Makayla","Just neutral no feelings,2,80,20","Kayla","I don't like that it looks like a person is there upside down.,-16,180,20","2"
"5806","","survey-text","233","1351441","0.0-231.0-0.0","A1ACXKVOUQ19DX","","","","{""Q0"":""sand on the beach""}","","","","","","","","","","","","","","","","","","","","","","",""
"1590.5","","image-slider-response","234","1353033","0.0-232.0","A1ACXKVOUQ19DX","","","","","32","","","","","","","","","","","","","","","","","","","","","",""
"null","","image-button-response","235","1358035","0.0-233.0","A1ACXKVOUQ19DX","img_art/7.jpg","null","","","","","","","","","","","","","","","","","","","","","","","","",""
"11976","","image-button-response","236","1370011","0.0-234.0","A1ACXKVOUQ19DX","img_art/7.jpg","1","","","","","","","","","","","","","","","","","","","","","","","","",""
"772","","image-button-response","237","1370785","0.0-235.0-0.0","A1ACXKVOUQ19DX","img_art/7.jpg","3","","","","","","","","","","","","","","","","","","","","","","","","",""
"623","","image-button-response","238","1371409","0.0-236.0-0.0","A1ACXKVOUQ19DX","img_art/7.jpg","5","","","","","","","","","","","","","","","","","","","","","","","","",""
"null","","html-keyboard-response","239","1371910","0.0-237.0","A1ACXKVOUQ19DX","<p style=""font-size: 48px;"">+</p>","","","","","null","allTrialResponses","500","1","27","img_art/7.jpg","32","sand on the beach","Kayla,Makayla,Erika,Kristen,Sabrina,Olivia","Dinosaur bones. Death.,-14,180,20","It's just like sand from the beach,2,80,20","Detail oriented, like cracked paint wall,15,100,20","sand, beach, tranquil,10,280,20","Not getting the vibe i would like from this,-30,120,20","looking down on earth,19,40,20","Makayla","It's just like sand from the beach,2,80,20","Kristen","sand, beach, tranquil,10,280,20","Olivia","looking down on earth,19,40,20","2"
"18359","","survey-text","240","1390273","0.0-238.0-0.0","A1ACXKVOUQ19DX","","","","{""Q0"":""a bunch of bugs some plants""}","","","","","","","","","","","","","","","","","","","","","","",""
"2239.0999999046326","","image-slider-response","241","1392513","0.0-239.0","A1ACXKVOUQ19DX","","","","","-43","","","","","","","","","","","","","","","","","","","","","",""
"null","","image-button-response","242","1397515","0.0-240.0","A1ACXKVOUQ19DX","img_art/15.jpg","null","","","","","","","","","","","","","","","","","","","","","","","","",""
"1532","","image-button-response","243","1399047","0.0-241.0","A1ACXKVOUQ19DX","img_art/15.jpg","3","","","","","","","","","","","","","","","","","","","","","","","","",""
"709","","image-button-response","244","1399757","0.0-242.0-0.0","A1ACXKVOUQ19DX","img_art/15.jpg","5","","","","","","","","","","","","","","","","","","","","","","","","",""
"3479","","image-button-response","245","1403237","0.0-243.0-0.0","A1ACXKVOUQ19DX","img_art/15.jpg","1","","","","","","","","","","","","","","","","","","","","","","","","",""
"null","","html-keyboard-response","246","1404738","0.0-244.0","A1ACXKVOUQ19DX","<p style=""font-size: 48px;"">+</p>","","","","","null","allTrialResponses","1500","1","28","img_art/15.jpg","-43","a bunch of bugs some plants","Heather,Makayla,Christina,Kristen,Julia,Olivia","black leaves makes the blue birds stand out.,1,260,20","It's just dots. Doesn't bring any positive or negative feelings,2,80,20","I really like the colors,14,240,20","darkness, hatred, fear,-29,280,20","This is simply too ""old-school"",-27,40,20","Black reminds me of darkness,-18,40,20","Kristen","darkness, hatred, fear,-29,280,20","Olivia","Black reminds me of darkness,-18,40,20","Makayla","It's just dots. Doesn't bring any positive or negative feelings,2,80,20","2"
"10977","","survey-text","247","1415719","0.0-245.0-0.0","A1ACXKVOUQ19DX","","","","{""Q0"":""looks like a turkey""}","","","","","","","","","","","","","","","","","","","","","","",""
"2280.7999999523163","","image-slider-response","248","1418001","0.0-246.0","A1ACXKVOUQ19DX","","","","","-27","","","","","","","","","","","","","","","","","","","","","",""
"1223","","image-button-response","249","1423003","0.0-247.0","A1ACXKVOUQ19DX","img_art/4.jpg","1","","","","","","","","","","","","","","","","","","","","","","","","",""
"651","","image-button-response","250","1423655","0.0-248.0","A1ACXKVOUQ19DX","img_art/4.jpg","1","","","","","","","","","","","","","","","","","","","","","","","","",""
"721","","image-button-response","251","1424377","0.0-249.0-0.0","A1ACXKVOUQ19DX","img_art/4.jpg","0","","","","","","","","","","","","","","","","","","","","","","","","",""
"849","","image-button-response","252","1425227","0.0-250.0-0.0","A1ACXKVOUQ19DX","img_art/4.jpg","4","","","","","","","","","","","","","","","","","","","","","","","","",""
"null","","html-keyboard-response","253","1425728","0.0-251.0","A1ACXKVOUQ19DX","<p style=""font-size: 48px;"">+</p>","","","","","null","allTrialResponses","500","1","29","img_art/4.jpg","-27","looks like a turkey","Sophia,Makayla,Vanessa,Kristen,Michelle,Olivia","This looks like what happens when someone steps on a mustard packet.,-7,280,20","Looks like poop on walks,-27,80,20","Again, this is too abstract and I really don't like the colors.,-21,380,20","stresses me out, uncomfortable,-18,280,20","Looks like more paint smearing but at least there is structure,-5,280,20","The muted tones,-11,40,20","Makayla","Looks like poop on walks,-27,80,20","Sophia","This looks like what happens when someone steps on a mustard packet.,-7,280,20","Michelle","Looks like more paint smearing but at least there is structure,-5,280,20","2"
"12225","","survey-text","254","1437957","0.0-252.0-0.0","A1ACXKVOUQ19DX","","","","{""Q0"":""warriors on horseback""}","","","","","","","","","","","","","","","","","","","","","","",""
"2672.9000000953674","","image-slider-response","255","1440631","0.0-253.0","A1ACXKVOUQ19DX","","","","","15","","","","","","","","","","","","","","","","","","","","","",""
"null","","image-button-response","256","1445632","0.0-254.0","A1ACXKVOUQ19DX","img_art/18.jpg","null","","","","","","","","","","","","","","","","","","","","","","","","",""
"2598","","image-button-response","257","1448232","0.0-255.0","A1ACXKVOUQ19DX","img_art/18.jpg","4","","","","","","","","","","","","","","","","","","","","","","","","",""
"2294","","image-button-response","258","1450527","0.0-256.0-0.0","A1ACXKVOUQ19DX","img_art/18.jpg","1","","","","","","","","","","","","","","","","","","","","","","","","",""
"950","","image-button-response","259","1451480","0.0-257.0-0.0","A1ACXKVOUQ19DX","img_art/18.jpg","0","","","","","","","","","","","","","","","","","","","","","","","","",""
"null","","html-keyboard-response","260","1451981","0.0-258.0","A1ACXKVOUQ19DX","<p style=""font-size: 48px;"">+</p>","","","","","null","allTrialResponses","500","1","30","img_art/18.jpg","15","warriors on horseback","Sophia,Makayla,Melissa,Haley,Michelle,Hannah","This one is very dark and apocalyptic indeed!,-30,280,20","I'm not partial to the design, unsettling,2,80,20","creamy color, feels like organized chaos,23,240,20","I could stare at this for long stretches of time and still find new details. I love it.,40,220,20","The small lines elicit a very nauseating response for some reason, too Dali like for me,-19,280,20","Looks like ghost figures on a boat. It's okay.,7,240,20","Michelle","The small lines elicit a very nauseating response for some reason, too Dali like for me,-19,280,20","Makayla","I'm not partial to the design, unsettling,2,80,20","Sophia","This one is very dark and apocalyptic indeed!,-30,280,20","2"
"4346","","image-button-response_instructions","261","1456331","0.0-259.0","A1ACXKVOUQ19DX","","0","instructions","","","","","","","","","","","","","","","","","","","","","","","",""
"1637","","image-button-response","262","1457971","0.0-260.0","A1ACXKVOUQ19DX","","0","","","","","","","","","","","","","","","","","","","","","","","","",""
