"rt","url","trial_type","trial_index","time_elapsed","internal_node_id","participant_id","stimulus","button_pressed","Name","responses","response","key_press","variableName","fixationTime","condition","trial","photo","subjectRating","subjectResponse","agentsNames","agent_1_Response","agent_2_Response","agent_3_Response","agent_4_Response","agent_5_Response","agent_6_Response","kept_1_name","kept_1_response","kept_2_name","kept_2_response","kept_3_name","kept_3_response","errorCounter"
"6445","external_page_harvard.html","external-html","0","6528","0.0-0.0","A1AD0XP7UTCMY2","","","","","","","","","","","","","","","","","","","","","","","","","","",""
"1063","","image-button-response","1","7592","0.0-1.0","A1AD0XP7UTCMY2","","0","","","","","","","","","","","","","","","","","","","","","","","","",""
"1017","","image-button-response","2","8613","0.0-2.0-0.0","A1AD0XP7UTCMY2","","1","phone","","","","","","","","","","","","","","","","","","","","","","","",""
"5704","","survey-text","3","14318","0.0-3.0-0.0","A1AD0XP7UTCMY2","","","","{""Q0"":""A1AD0XP7UTCMY2""}","","","","","","","","","","","","","","","","","","","","","","",""
"10000","","image-button-response_instructions","4","24320","0.0-4.0","A1AD0XP7UTCMY2","","0","instructions","","","","","","","","","","","","","","","","","","","","","","","",""
"24963","","image-button-response_instructions","5","49285","0.0-5.0","A1AD0XP7UTCMY2","img_art/ins/popularity/ins1.png","0","instructions","","","","","","","","","","","","","","","","","","","","","","","",""
"8778","","image-button-response_instructions","6","58063","0.0-6.0","A1AD0XP7UTCMY2","img_art/ins/popularity/ins2.png","0","instructions","","","","","","","","","","","","","","","","","","","","","","","",""
"5172","","image-button-response_instructions","7","63237","0.0-7.0","A1AD0XP7UTCMY2","img_art/ins/popularity/ins2Extreme.png","0","instructions","","","","","","","","","","","","","","","","","","","","","","","",""
"24314","","image-button-response_instructions","8","87553","0.0-8.0","A1AD0XP7UTCMY2","img_art/ins/popularity/ins3KEEPpop.PNG","0","instructions","","","","","","","","","","","","","","","","","","","","","","","",""
"3838","","image-button-response_instructions","9","91393","0.0-9.0","A1AD0XP7UTCMY2","img_art/ins/popularity/ins3ANamepop.PNG","0","instructions","","","","","","","","","","","","","","","","","","","","","","","",""
"2280","","image-button-response_instructions","10","93675","0.0-10.0","A1AD0XP7UTCMY2","img_art/ins/popularity/ins3ARatingpop.png","0","instructions","","","","","","","","","","","","","","","","","","","","","","","",""
"2803","","image-button-response_instructions","11","96479","0.0-11.0","A1AD0XP7UTCMY2","img_art/ins/popularity/ins3ATextpop.png","0","instructions","","","","","","","","","","","","","","","","","","","","","","","",""
"4554","","image-button-response_instructions","12","101035","0.0-12.0","A1AD0XP7UTCMY2","img_art/ins/popularity/ins3ALikespop.png","0","instructions","","","","","","","","","","","","","","","","","","","","","","","",""
"27764","","image-button-response_instructions","13","128801","0.0-13.0","A1AD0XP7UTCMY2","img_art/ins/popularity/ins3KEEPpop.PNG","0","instructions","","","","","","","","","","","","","","","","","","","","","","","",""
"106111","","image-button-response_instructions","14","234912","0.0-14.0","A1AD0XP7UTCMY2","img_art/ins/popularity/ins3_5RED.png","0","instructions","","","","","","","","","","","","","","","","","","","","","","","",""
"8683","","image-button-response_instructions","15","243596","0.0-15.0","A1AD0XP7UTCMY2","img_art/ins/popularity/ins3KEEPpop.PNG","0","instructions","","","","","","","","","","","","","","","","","","","","","","","",""
"14283","","image-button-response_instructions","16","257880","0.0-16.0","A1AD0XP7UTCMY2","img_art/ins/popularity/ins4KEEPpop.PNG","0","instructions","","","","","","","","","","","","","","","","","","","","","","","",""
"10221","","image-button-response_instructions","17","268102","0.0-17.0","A1AD0XP7UTCMY2","img_art/ins/popularity/ins5KEEPpop.PNG","0","instructions","","","","","","","","","","","","","","","","","","","","","","","",""
"1959","","image-button-response_instructions","18","270062","0.0-18.0","A1AD0XP7UTCMY2","","0","instructions","","","","","","","","","","","","","","","","","","","","","","","",""
"11455","","survey-text","19","281534","0.0-19.0-0.0","A1AD0XP7UTCMY2","","","","{""Q0"":""but""}","","","","","","","","","","","","","","","","","","","","","","",""
"46224","","survey-text","20","327760","0.0-20.0-0.0","A1AD0XP7UTCMY2","","","","{""Q0"":""I am not a big fan of the yellow being used, it just doesnt work""}","","","","","","","","","","","","","","","","","","","","","","",""
"3902.4000000059605","","image-slider-response","21","331665","0.0-21.0","A1AD0XP7UTCMY2","","","","","-22","","","","","","","","","","","","","","","","","","","","","",""
"null","","image-button-response","22","336671","0.0-22.0","A1AD0XP7UTCMY2","img_art/ins/1.jpg","null","","","","","","","","","","","","","","","","","","","","","","","","",""
"8389","","image-button-response","23","345063","0.0-23.0","A1AD0XP7UTCMY2","img_art/ins/1.jpg","4","","","","","","","","","","","","","","","","","","","","","","","","",""
"4279","","image-button-response","24","349345","0.0-24.0-0.0","A1AD0XP7UTCMY2","img_art/ins/1.jpg","0","","","","","","","","","","","","","","","","","","","","","","","","",""
"6535","","image-button-response","25","355883","0.0-25.0-0.0","A1AD0XP7UTCMY2","img_art/ins/1.jpg","2","","","","","","","","","","","","","","","","","","","","","","","","",""
"null","","html-keyboard-response","26","356386","0.0-26.0","A1AD0XP7UTCMY2","<p style=""font-size: 48px;"">+</p>","","","","","null","allTrialResponses","500","1","-2","img_art/ins/1.jpg","-22","I am not a big fan of the yellow being used, it just doesnt work","Adam,Alex,Ben,Carl,Daniel,Jack","Seems like doodles,-20,20,20","very creative work.,36,40,20","This color reminds me of poo,-46,60,20","very calming artwork,42,80,20","It looks like a murder scene.,-48,100,20","I like the sophisticated brushwork,40,120,20","Daniel","It looks like a murder scene.,-48,100,20","Adam","Seems like doodles,-20,20,20","Ben","This color reminds me of poo,-46,60,20","0"
"43105","","survey-text","27","399499","0.0-27.0-0.0","A1AD0XP7UTCMY2","","","","{""Q0"":""This art piece seems to obscure for me""}","","","","","","","","","","","","","","","","","","","","","","",""
"3568.199999988079","","image-slider-response","28","403069","0.0-28.0","A1AD0XP7UTCMY2","","","","","-42","","","","","","","","","","","","","","","","","","","","","",""
"4042","","image-button-response","29","408072","0.0-29.0","A1AD0XP7UTCMY2","img_art/ins/2.jpg","3","","","","","","","","","","","","","","","","","","","","","","","","",""
"680","","image-button-response","30","408755","0.0-30.0","A1AD0XP7UTCMY2","img_art/ins/2.jpg","3","","","","","","","","","","","","","","","","","","","","","","","","",""
"8530","","image-button-response","31","417287","0.0-31.0-0.0","A1AD0XP7UTCMY2","img_art/ins/2.jpg","2","","","","","","","","","","","","","","","","","","","","","","","","",""
"7345","","image-button-response","32","424635","0.0-32.0-0.0","A1AD0XP7UTCMY2","img_art/ins/2.jpg","5","","","","","","","","","","","","","","","","","","","","","","","","",""
"null","","html-keyboard-response","33","426138","0.0-33.0","A1AD0XP7UTCMY2","<p style=""font-size: 48px;"">+</p>","","","","","null","allTrialResponses","1500","1","-1","img_art/ins/2.jpg","-42","This art piece seems to obscure for me","Adam,John,Ben,James,Daniel,Kyle","too much color,-18,20,20","love the texture of paint,48,160,20","meaningless painting,-45,60,20","looks too angry,-50,140,20","One of my pet peevs,-48,100,20","Idk, it is just annoying,-32,180,20","James","looks too angry,-50,140,20","Ben","meaningless painting,-45,60,20","Kyle","Idk, it is just annoying,-32,180,20","0"
"9420","","survey-text","34","435564","0.0-34.0-0.0","A1AD0XP7UTCMY2","","","","{""Q0"":""seems to cold""}","","","","","","","","","","","","","","","","","","","","","","",""
"3068.0999999940395","","image-slider-response","35","438635","0.0-35.0","A1AD0XP7UTCMY2","","","","","-35","","","","","","","","","","","","","","","","","","","","","",""
"4988","","image-button-response","36","443638","0.0-36.0","A1AD0XP7UTCMY2","img_art/ins/3.jpg","4","","","","","","","","","","","","","","","","","","","","","","","","",""
"950","","image-button-response","37","444588","0.0-37.0","A1AD0XP7UTCMY2","img_art/ins/3.jpg","4","","","","","","","","","","","","","","","","","","","","","","","","",""
"605","","image-button-response","38","445194","0.0-38.0-0.0","A1AD0XP7UTCMY2","img_art/ins/3.jpg","3","","","","","","","","","","","","","","","","","","","","","","","","",""
"3762","","image-button-response","39","448959","0.0-39.0-0.0","A1AD0XP7UTCMY2","img_art/ins/3.jpg","5","","","","","","","","","","","","","","","","","","","","","","","","",""
"null","","html-keyboard-response","40","449975","0.0-40.0","A1AD0XP7UTCMY2","<p style=""font-size: 48px;"">+</p>","","","","","null","allTrialResponses","1000","1","0","img_art/ins/3.jpg","-35","seems to cold","Sam,Mike,Ben,James,Ron,Kyle","I can feel a rainy day from this painting,18,240,20","enjoy the different shades of blue,22,200,20","This thing gives me anxiety,-41,60,20","My worst nightmare,-42,140,20","It looks depressing,-26,220,20","It looks like a playground for bats,-36,180,20","Ron","It looks depressing,-26,220,20","James","My worst nightmare,-42,140,20","Kyle","It looks like a playground for bats,-36,180,20","0"
"7865","","image-button-response_instructions","41","457846","0.0-41.0","A1AD0XP7UTCMY2","","0","instructions","","","","","","","","","","","","","","","","","","","","","","","",""
"21847","","survey-likert","42","479695","0.0-42.0-0.0","A1AD0XP7UTCMY2","","","","{""Q0"":"""",""Q1"":0,""Q2"":1}","","","","","","","","","","","","","","","","","","","","","","",""
"4626","","survey-text","43","484326","0.0-43.0-0.0","A1AD0XP7UTCMY2","","","","{""Q0"":""rock""}","","","","","","","","","","","","","","","","","","","","","","",""
"27349","","survey-text","44","511677","0.0-44.0-0.0","A1AD0XP7UTCMY2","","","","{""Q0"":""seems like someone painted above the image""}","","","","","","","","","","","","","","","","","","","","","","",""
"4972.100000008941","","image-slider-response","45","516651","0.0-45.0","A1AD0XP7UTCMY2","","","","","-29","","","","","","","","","","","","","","","","","","","","","",""
"3853","","image-button-response","46","521672","0.0-46.0","A1AD0XP7UTCMY2","img_art/27.jpg","0","","","","","","","","","","","","","","","","","","","","","","","","",""
"538","","image-button-response","47","522213","0.0-47.0","A1AD0XP7UTCMY2","img_art/27.jpg","0","","","","","","","","","","","","","","","","","","","","","","","","",""
"4435","","image-button-response","48","526651","0.0-48.0-0.0","A1AD0XP7UTCMY2","img_art/27.jpg","1","","","","","","","","","","","","","","","","","","","","","","","","",""
"2057","","image-button-response","49","528711","0.0-49.0-0.0","A1AD0XP7UTCMY2","img_art/27.jpg","0","","","","","","","","","","","","","","","","","","","","","","","","",""
"5171","","image-button-response","50","539203","0.0-49.1-0.1","A1AD0XP7UTCMY2","img_art/27.jpg","2","","","","","","","","","","","","","","","","","","","","","","","","",""
"null","","html-keyboard-response","51","540205","0.0-50.0","A1AD0XP7UTCMY2","<p style=""font-size: 48px;"">+</p>","","","","","null","allTrialResponses","1000","1","1","img_art/27.jpg","-29","seems like someone painted above the image","Aaron,Stephen,Paul,Jacob,Hunter,Jesus","It looks like when my little sister took magic markers to the wall.,-11,20,20","This one does nothing for me.,2,140,20","It tries to remind me of the autumn season but it's grey and looks dirty,-5,300,20","Don't get the point of this piece that much, but it doesn't bug me,1,340,20","reminds me of kandinsky,10,240,20","The color palette isn't my taste,-24,100,20","Aaron","It looks like when my little sister took magic markers to the wall.,-11,20,20","Stephen","This one does nothing for me.,2,140,20","Paul","It tries to remind me of the autumn season but it's grey and looks dirty,-5,300,20","2"
"18547","","survey-text","52","558756","0.0-51.0-0.0","A1AD0XP7UTCMY2","","","","{""Q0"":""seems like a kid painted it""}","","","","","","","","","","","","","","","","","","","","","","",""
"41908.19999998808","","image-slider-response","53","600666","0.0-52.0","A1AD0XP7UTCMY2","","","","","-17","","","","","","","","","","","","","","","","","","","","","",""
"null","","image-button-response","54","605681","0.0-53.0","A1AD0XP7UTCMY2","img_art/2.jpg","null","","","","","","","","","","","","","","","","","","","","","","","","",""
"2041","","image-button-response","55","607725","0.0-54.0","A1AD0XP7UTCMY2","img_art/2.jpg","4","","","","","","","","","","","","","","","","","","","","","","","","",""
"734","","image-button-response","56","608461","0.0-55.0-0.0","A1AD0XP7UTCMY2","img_art/2.jpg","3","","","","","","","","","","","","","","","","","","","","","","","","",""
"5202","","image-button-response","57","613665","0.0-56.0-0.0","A1AD0XP7UTCMY2","img_art/2.jpg","5","","","","","","","","","","","","","","","","","","","","","","","","",""
"null","","html-keyboard-response","58","614167","0.0-57.0","A1AD0XP7UTCMY2","<p style=""font-size: 48px;"">+</p>","","","","","null","allTrialResponses","500","1","2","img_art/2.jpg","-17","seems like a kid painted it","Aaron,Stephen,Paul,Brandon,Anthony,David","The colors are pretty but I don't really like the shapes in it.,-20,20,20","Colors mix nicely.,5,140,20","I like the blue color in the center but that's it, the green is a gross color,-3,300,20","Do not like this type of abstract work,-50,320,20","Ugly color scheme,-50,200,20","I feel that its too abstract for me to understand what I'm looking at.,-15,340,20","Anthony","Ugly color scheme,-50,200,20","Brandon","Do not like this type of abstract work,-50,320,20","David","I feel that its too abstract for me to understand what I'm looking at.,-15,340,20","2"
"15817","","survey-text","59","629990","0.0-58.0-0.0","A1AD0XP7UTCMY2","","","","{""Q0"":""reminds me of the desert""}","","","","","","","","","","","","","","","","","","","","","","",""
"9070.70000000298","","image-slider-response","60","639063","0.0-59.0","A1AD0XP7UTCMY2","","","","","1","","","","","","","","","","","","","","","","","","","","","",""
"4300","","image-button-response","61","644066","0.0-60.0","A1AD0XP7UTCMY2","img_art/6.jpg","3","","","","","","","","","","","","","","","","","","","","","","","","",""
"1586","","image-button-response","62","645655","0.0-61.0","A1AD0XP7UTCMY2","img_art/6.jpg","3","","","","","","","","","","","","","","","","","","","","","","","","",""
"5438","","image-button-response","63","651095","0.0-62.0-0.0","A1AD0XP7UTCMY2","img_art/6.jpg","4","","","","","","","","","","","","","","","","","","","","","","","","",""
"5250","","image-button-response","64","656346","0.0-63.0-0.0","A1AD0XP7UTCMY2","img_art/6.jpg","2","","","","","","","","","","","","","","","","","","","","","","","","",""
"null","","html-keyboard-response","65","657348","0.0-64.0","A1AD0XP7UTCMY2","<p style=""font-size: 48px;"">+</p>","","","","","null","allTrialResponses","1000","1","3","img_art/6.jpg","1","reminds me of the desert","Dakota,Alex,James,Brandon,Anthony,David","graceful and light,35,280,20","Definitely belongs at a doctor's office, I think it's a crow or a tree?,-3,100,20","Nice desert scene,10,380,20","The feeling of isolation with so little objects. Great,20,320,20","I am neutral towards this piece.,0,200,20","I like the simplicity of the piece.,10,340,20","Brandon","The feeling of isolation with so little objects. Great,20,320,20","Anthony","I am neutral towards this piece.,0,200,20","James","Nice desert scene,10,380,20","2"
"82022","","survey-text","66","739376","0.0-65.0-0.0","A1AD0XP7UTCMY2","","","","{""Q0"":""It looks nice""}","","","","","","","","","","","","","","","","","","","","","","",""
"3891.8999999910593","","image-slider-response","67","743270","0.0-66.0","A1AD0XP7UTCMY2","","","","","11","","","","","","","","","","","","","","","","","","","","","",""
"null","","image-button-response","68","748273","0.0-67.0","A1AD0XP7UTCMY2","img_art/26.jpg","null","","","","","","","","","","","","","","","","","","","","","","","","",""
"935","","image-button-response","69","749211","0.0-68.0","A1AD0XP7UTCMY2","img_art/26.jpg","1","","","","","","","","","","","","","","","","","","","","","","","","",""
"2888","","image-button-response","70","752101","0.0-69.0-0.0","A1AD0XP7UTCMY2","img_art/26.jpg","2","","","","","","","","","","","","","","","","","","","","","","","","",""
"7108","","image-button-response","71","759211","0.0-70.0-0.0","A1AD0XP7UTCMY2","img_art/26.jpg","4","","","","","","","","","","","","","","","","","","","","","","","","",""
"null","","html-keyboard-response","72","759713","0.0-71.0","A1AD0XP7UTCMY2","<p style=""font-size: 48px;"">+</p>","","","","","null","allTrialResponses","500","1","4","img_art/26.jpg","11","It looks nice","Shane,Connor,James,Brandon,Anthony,Caleb","Colors are full and reminds me of a messy room,-9,80,20","City scene in a park,23,240,20","This picture is ok; just a normal city,11,380,20","Much too simple and without color for my taste,-33,320,20","This picture doesn't really stand out.,0,200,20","Appears childish and unfinished.,-20,40,20","Connor","City scene in a park,23,240,20","James","This picture is ok; just a normal city,11,380,20","Anthony","This picture doesn't really stand out.,0,200,20","2"
"75954","","survey-text","73","835672","0.0-72.0-0.0","A1AD0XP7UTCMY2","","","","{""Q0"":""Looks a bit chaotic""}","","","","","","","","","","","","","","","","","","","","","","",""
"3764.2000000029802","","image-slider-response","74","839438","0.0-73.0","A1AD0XP7UTCMY2","","","","","-14","","","","","","","","","","","","","","","","","","","","","",""
"null","","image-button-response","75","844451","0.0-74.0","A1AD0XP7UTCMY2","img_art/14.jpg","null","","","","","","","","","","","","","","","","","","","","","","","","",""
"73722","","image-button-response","76","918175","0.0-75.0","A1AD0XP7UTCMY2","img_art/14.jpg","2","","","","","","","","","","","","","","","","","","","","","","","","",""
"2702","","image-button-response","77","920878","0.0-76.0-0.0","A1AD0XP7UTCMY2","img_art/14.jpg","1","","","","","","","","","","","","","","","","","","","","","","","","",""
"3124","","image-button-response","78","924004","0.0-77.0-0.0","A1AD0XP7UTCMY2","img_art/14.jpg","4","","","","","","","","","","","","","","","","","","","","","","","","",""
"null","","html-keyboard-response","79","925517","0.0-78.0","A1AD0XP7UTCMY2","<p style=""font-size: 48px;"">+</p>","","","","","null","allTrialResponses","1500","1","5","img_art/14.jpg","-14","Looks a bit chaotic","Jesse,Connor,James,Nathaniel,Anthony,Evan","Its cute. Not striking but i would keep it in my home.,10,80,20","Looks childish and basic,-42,240,20","It uses interesting techniques on this picture, but I have no feelings for or against.,1,380,20","Not quite the style I'd like, but it does have a certain air of emptiness.,12,220,20","This piece is average compared to the others.,1,200,20","I like the sharpness of the lines,20,140,20","James","It uses interesting techniques on this picture, but I have no feelings for or against.,1,380,20","Connor","Looks childish and basic,-42,240,20","Anthony","This piece is average compared to the others.,1,200,20","2"
"5910","","survey-text","80","931438","0.0-79.0-0.0","A1AD0XP7UTCMY2","","","","{""Q0"":""sky""}","","","","","","","","","","","","","","","","","","","","","","",""
"117377","","survey-text","81","1048816","0.0-80.0-0.0","A1AD0XP7UTCMY2","","","","{""Q0"":""This looks neat and interesting""}","","","","","","","","","","","","","","","","","","","","","","",""
"4126.5","","image-slider-response","82","1052944","0.0-81.0","A1AD0XP7UTCMY2","","","","","28","","","","","","","","","","","","","","","","","","","","","",""
"null","","image-button-response","83","1057959","0.0-82.0","A1AD0XP7UTCMY2","img_art/8.jpg","null","","","","","","","","","","","","","","","","","","","","","","","","",""
"2263","","image-button-response","84","1060224","0.0-83.0","A1AD0XP7UTCMY2","img_art/8.jpg","0","","","","","","","","","","","","","","","","","","","","","","","","",""
"8011","","image-button-response","85","1068236","0.0-84.0-0.0","A1AD0XP7UTCMY2","img_art/8.jpg","4","","","","","","","","","","","","","","","","","","","","","","","","",""
"12400","","image-button-response","86","1080638","0.0-85.0-0.0","A1AD0XP7UTCMY2","img_art/8.jpg","3","","","","","","","","","","","","","","","","","","","","","","","","",""
"null","","html-keyboard-response","87","1081640","0.0-86.0","A1AD0XP7UTCMY2","<p style=""font-size: 48px;"">+</p>","","","","","null","allTrialResponses","1000","1","6","img_art/8.jpg","28","This looks neat and interesting","Jeffrey,Connor,James,Travis,Anthony,Tristan","Very busy, I want to look at it and investigate,23,40,20","Lots of depth, faces, city, arch,3,240,20","It's very odd and I don't really like it,-30,380,20","I like the colors and the scene.,24,260,20","Not my favorite but has an interesting concept,32,200,20","The definition and the colors give make this painting accessible and thought provoking.,30,300,20","Jeffrey","Very busy, I want to look at it and investigate,23,40,20","Anthony","Not my favorite but has an interesting concept,32,200,20","Travis","I like the colors and the scene.,24,260,20","2"
"16894","","survey-text","88","1098541","0.0-87.0-0.0","A1AD0XP7UTCMY2","","","","{""Q0"":""I like the splash of colors""}","","","","","","","","","","","","","","","","","","","","","","",""
"291193.89999999106","","image-slider-response","89","1389738","0.0-88.0","A1AD0XP7UTCMY2","","","","","26","","","","","","","","","","","","","","","","","","","","","",""
"null","","image-button-response","90","1394741","0.0-89.0","A1AD0XP7UTCMY2","img_art/13.jpg","null","","","","","","","","","","","","","","","","","","","","","","","","",""
"551","","image-button-response","91","1395294","0.0-90.0","A1AD0XP7UTCMY2","img_art/13.jpg","3","","","","","","","","","","","","","","","","","","","","","","","","",""
"592","","image-button-response","92","1395888","0.0-91.0-0.0","A1AD0XP7UTCMY2","img_art/13.jpg","4","","","","","","","","","","","","","","","","","","","","","","","","",""
"432","","image-button-response","93","1396322","0.0-92.0-0.0","A1AD0XP7UTCMY2","img_art/13.jpg","1","","","","","","","","","","","","","","","","","","","","","","","","",""
"null","","html-keyboard-response","94","1397831","0.0-93.0","A1AD0XP7UTCMY2","<p style=""font-size: 48px;"">+</p>","","","","","null","allTrialResponses","1500","1","7","img_art/13.jpg","26","I like the splash of colors","Jeffrey,Austin,Dustin,Travis,Anthony,Robert","Messy but organised, helps me to relax and observe,8,40,20","Love the splash of colors,50,240,20","Cool and calming colors. I like splatter art.,10,20,20","I love the colors and the texture,37,260,20","I like the color scheme,41,200,20","Raindrops splashing on the window.,50,360,20","Travis","I love the colors and the texture,37,260,20","Anthony","I like the color scheme,41,200,20","Austin","Love the splash of colors,50,240,20","2"
"13785","","survey-text","95","1411624","0.0-94.0-0.0","A1AD0XP7UTCMY2","","","","{""Q0"":""it looks to busy for me""}","","","","","","","","","","","","","","","","","","","","","","",""
"2602.199999988079","","image-slider-response","96","1414228","0.0-95.0","A1AD0XP7UTCMY2","","","","","-37","","","","","","","","","","","","","","","","","","","","","",""
"null","","image-button-response","97","1419232","0.0-96.0","A1AD0XP7UTCMY2","img_art/12.jpg","null","","","","","","","","","","","","","","","","","","","","","","","","",""
"9299","","image-button-response","98","1428534","0.0-97.0","A1AD0XP7UTCMY2","img_art/12.jpg","4","","","","","","","","","","","","","","","","","","","","","","","","",""
"3657","","image-button-response","99","1432194","0.0-98.0-0.0","A1AD0XP7UTCMY2","img_art/12.jpg","3","","","","","","","","","","","","","","","","","","","","","","","","",""
"2038","","image-button-response","100","1434234","0.0-99.0-0.0","A1AD0XP7UTCMY2","img_art/12.jpg","5","","","","","","","","","","","","","","","","","","","","","","","","",""
"null","","html-keyboard-response","101","1435736","0.0-100.0","A1AD0XP7UTCMY2","<p style=""font-size: 48px;"">+</p>","","","","","null","allTrialResponses","1500","1","8","img_art/12.jpg","-37","it looks to busy for me","Kenneth,Austin,Joseph,Travis,Anthony,William","It's pretty, I find it interesting to look at.,10,300,20","Explosion of texture,31,240,20","Yay! Lots of people, lots of lives.,25,220,20","Neutral...just blocks.,3,260,20","This piece doesn't provoke any kind of reaction,0,200,20","to contemporary for me,3,380,20","Anthony","This piece doesn't provoke any kind of reaction,0,200,20","Travis","Neutral...just blocks.,3,260,20","William","to contemporary for me,3,380,20","2"
"18783","","survey-text","102","1454526","0.0-101.0-0.0","A1AD0XP7UTCMY2","","","","{""Q0"":""looks like gaudi""}","","","","","","","","","","","","","","","","","","","","","","",""
"4610.20000000298","","image-slider-response","103","1459138","0.0-102.0","A1AD0XP7UTCMY2","","","","","-4","","","","","","","","","","","","","","","","","","","","","",""
"null","","image-button-response","104","1464140","0.0-103.0","A1AD0XP7UTCMY2","img_art/20.jpg","null","","","","","","","","","","","","","","","","","","","","","","","","",""
"1097","","image-button-response","105","1465240","0.0-104.0","A1AD0XP7UTCMY2","img_art/20.jpg","4","","","","","","","","","","","","","","","","","","","","","","","","",""
"7898","","image-button-response","106","1473139","0.0-105.0-0.0","A1AD0XP7UTCMY2","img_art/20.jpg","0","","","","","","","","","","","","","","","","","","","","","","","","",""
"1854","","image-button-response","107","1474996","0.0-106.0-0.0","A1AD0XP7UTCMY2","img_art/20.jpg","5","","","","","","","","","","","","","","","","","","","","","","","","",""
"null","","html-keyboard-response","108","1475497","0.0-107.0","A1AD0XP7UTCMY2","<p style=""font-size: 48px;"">+</p>","","","","","null","allTrialResponses","500","1","9","img_art/20.jpg","-4","looks like gaudi","Patrick,Devin,Kyle,Travis,Anthony,William","Looks calm but a bit dark,21,280,20","Looks somewhat dark and emotional,-10,380,20","This one is okay but I don't really care for it,5,340,20","I liked this...I liked the blue and the black and I liked the smoothness to it.,31,260,20","Neutral, this piece doesn't strike me as particularly bad or good,0,200,20","like the colors and desert feel,7,380,20","Anthony","Neutral, this piece doesn't strike me as particularly bad or good,0,200,20","Patrick","Looks calm but a bit dark,21,280,20","William","like the colors and desert feel,7,380,20","2"
"56135","","survey-text","109","1531640","0.0-108.0-0.0","A1AD0XP7UTCMY2","","","","{""Q0"":""it looks ugly""}","","","","","","","","","","","","","","","","","","","","","","",""
"2542","","image-slider-response","110","1534184","0.0-109.0","A1AD0XP7UTCMY2","","","","","-49","","","","","","","","","","","","","","","","","","","","","",""
"3902","","image-button-response","111","1539187","0.0-110.0","A1AD0XP7UTCMY2","img_art/30.jpg","4","","","","","","","","","","","","","","","","","","","","","","","","",""
"1424","","image-button-response","112","1540614","0.0-111.0","A1AD0XP7UTCMY2","img_art/30.jpg","4","","","","","","","","","","","","","","","","","","","","","","","","",""
"1889","","image-button-response","113","1542506","0.0-112.0-0.0","A1AD0XP7UTCMY2","img_art/30.jpg","5","","","","","","","","","","","","","","","","","","","","","","","","",""
"766","","image-button-response","114","1543274","0.0-113.0-0.0","A1AD0XP7UTCMY2","img_art/30.jpg","0","","","","","","","","","","","","","","","","","","","","","","","","",""
"null","","html-keyboard-response","115","1544276","0.0-114.0","A1AD0XP7UTCMY2","<p style=""font-size: 48px;"">+</p>","","","","","null","allTrialResponses","1000","1","10","img_art/30.jpg","-49","it looks ugly","Patrick,Edward,Adrian,Mason,Anthony,William","I don't like the blended colors,-20,280,20","My son made me a painting that looked like this,26,60,20","Interesting. Not sure what I'm seeing but it makes me want to figure it out.,5,60,20","Neat, but simple, I could make this. not skilled.,9,100,20","The color scheme used in this piece is very ugly.,-50,200,20","to dark and dreary,-28,380,20","Anthony","The color scheme used in this piece is very ugly.,-50,200,20","William","to dark and dreary,-28,380,20","Patrick","I don't like the blended colors,-20,280,20","2"
"5781","","survey-text","116","1550072","0.0-115.0-0.0","A1AD0XP7UTCMY2","","","","{""Q0"":""our""}","","","","","","","","","","","","","","","","","","","","","","",""
"12434","","survey-text","117","1562508","0.0-116.0-0.0","A1AD0XP7UTCMY2","","","","{""Q0"":""i like the dots""}","","","","","","","","","","","","","","","","","","","","","","",""
"3535.5999999940395","","image-slider-response","118","1566046","0.0-117.0","A1AD0XP7UTCMY2","","","","","8","","","","","","","","","","","","","","","","","","","","","",""
"null","","image-button-response","119","1571062","0.0-118.0","A1AD0XP7UTCMY2","img_art/15.jpg","null","","","","","","","","","","","","","","","","","","","","","","","","",""
"636","","image-button-response","120","1571700","0.0-119.0","A1AD0XP7UTCMY2","img_art/15.jpg","3","","","","","","","","","","","","","","","","","","","","","","","","",""
"448","","image-button-response","121","1572150","0.0-120.0-0.0","A1AD0XP7UTCMY2","img_art/15.jpg","4","","","","","","","","","","","","","","","","","","","","","","","","",""
"3074","","image-button-response","122","1575226","0.0-121.0-0.0","A1AD0XP7UTCMY2","img_art/15.jpg","2","","","","","","","","","","","","","","","","","","","","","","","","",""
"null","","html-keyboard-response","123","1576728","0.0-122.0","A1AD0XP7UTCMY2","<p style=""font-size: 48px;"">+</p>","","","","","null","allTrialResponses","1500","1","11","img_art/15.jpg","8","i like the dots","Patrick,Ryan,Christopher,Colton,Anthony,William","I don't like the black dots,-19,280,20","It triggers my tripophobia,-50,380,20","this is really pretty! i like the pops of blue in all the black,26,160,20","it's alright but a little cluttered,14,220,20","This piece isn't particularly attractive, but it's not ugly either.,1,200,20","makes me feel calm,40,380,20","Colton","it's alright but a little cluttered,14,220,20","Anthony","This piece isn't particularly attractive, but it's not ugly either.,1,200,20","Christopher","this is really pretty! i like the pops of blue in all the black,26,160,20","2"
"12459","","survey-text","124","1589194","0.0-123.0-0.0","A1AD0XP7UTCMY2","","","","{""Q0"":""it looks a bit rusty""}","","","","","","","","","","","","","","","","","","","","","","",""
"2946.2999999970198","","image-slider-response","125","1592141","0.0-124.0","A1AD0XP7UTCMY2","","","","","-2","","","","","","","","","","","","","","","","","","","","","",""
"2432","","image-button-response","126","1597145","0.0-125.0","A1AD0XP7UTCMY2","img_art/1.jpg","0","","","","","","","","","","","","","","","","","","","","","","","","",""
"684","","image-button-response","127","1597832","0.0-126.0","A1AD0XP7UTCMY2","img_art/1.jpg","0","","","","","","","","","","","","","","","","","","","","","","","","",""
"4864","","image-button-response","128","1602698","0.0-127.0-0.0","A1AD0XP7UTCMY2","img_art/1.jpg","1","","","","","","","","","","","","","","","","","","","","","","","","",""
"2614","","image-button-response","129","1605314","0.0-128.0-0.0","A1AD0XP7UTCMY2","img_art/1.jpg","2","","","","","","","","","","","","","","","","","","","","","","","","",""
"null","","html-keyboard-response","130","1606315","0.0-129.0","A1AD0XP7UTCMY2","<p style=""font-size: 48px;"">+</p>","","","","","null","allTrialResponses","1000","1","12","img_art/1.jpg","-2","it looks a bit rusty","Chase,Sean,Christopher,Colton,Anthony,Steven","It's alright but lacks any depth.,-5,120,20","my reaction is that the picture is that Ive seen it before,-14,40,20","it's boring despite all the colors,-2,160,20","the colors are nice,8,220,20","Bright and colorful without being overpowering,32,200,20","It's fine, but its like something you'd see in the restroom of a cheap restaurant,10,160,20","Chase","It's alright but lacks any depth.,-5,120,20","Sean","my reaction is that the picture is that Ive seen it before,-14,40,20","Christopher","it's boring despite all the colors,-2,160,20","2"
"97321","","survey-text","131","1703644","0.0-130.0-0.0","A1AD0XP7UTCMY2","","","","{""Q0"":""this is not my taste""}","","","","","","","","","","","","","","","","","","","","","","",""
"2593.9000000059605","","image-slider-response","132","1706240","0.0-131.0","A1AD0XP7UTCMY2","","","","","-45","","","","","","","","","","","","","","","","","","","","","",""
"null","","image-button-response","133","1711256","0.0-132.0","A1AD0XP7UTCMY2","img_art/22.jpg","null","","","","","","","","","","","","","","","","","","","","","","","","",""
"825","","image-button-response","134","1712084","0.0-133.0","A1AD0XP7UTCMY2","img_art/22.jpg","0","","","","","","","","","","","","","","","","","","","","","","","","",""
"488","","image-button-response","135","1712574","0.0-134.0-0.0","A1AD0XP7UTCMY2","img_art/22.jpg","1","","","","","","","","","","","","","","","","","","","","","","","","",""
"1496","","image-button-response","136","1714071","0.0-135.0-0.0","A1AD0XP7UTCMY2","img_art/22.jpg","2","","","","","","","","","","","","","","","","","","","","","","","","",""
"null","","html-keyboard-response","137","1715573","0.0-136.0","A1AD0XP7UTCMY2","<p style=""font-size: 48px;"">+</p>","","","","","null","allTrialResponses","1500","1","13","img_art/22.jpg","-45","this is not my taste","Chase,Sean,Christopher,Eric,Devon,Nathan","I feel like I've seen this one already.,-9,120,20","my reaction is that the picture is confusion,-9,40,20","boring, too many red and yellow tones for my taste,-15,160,20","I don't normally like bright colors, but I like them in this. Don't like the random black paint.,30,100,20","This represents the hopes in my life.,21,400,20","A bit colorful, but slightly enjoyable, almost gives off castle/sunset vibes,10,200,20","Chase","I feel like I've seen this one already.,-9,120,20","Sean","my reaction is that the picture is confusion,-9,40,20","Christopher","boring, too many red and yellow tones for my taste,-15,160,20","2"
"23518","","survey-text","138","1739100","0.0-137.0-0.0","A1AD0XP7UTCMY2","","","","{""Q0"":""looks like some dirty googles""}","","","","","","","","","","","","","","","","","","","","","","",""
"7536","","image-slider-response","139","1746637","0.0-138.0","A1AD0XP7UTCMY2","","","","","-2","","","","","","","","","","","","","","","","","","","","","",""
"null","","image-button-response","140","1751654","0.0-139.0","A1AD0XP7UTCMY2","img_art/10.jpg","null","","","","","","","","","","","","","","","","","","","","","","","","",""
"815","","image-button-response","141","1752471","0.0-140.0","A1AD0XP7UTCMY2","img_art/10.jpg","3","","","","","","","","","","","","","","","","","","","","","","","","",""
"458","","image-button-response","142","1752931","0.0-141.0-0.0","A1AD0XP7UTCMY2","img_art/10.jpg","4","","","","","","","","","","","","","","","","","","","","","","","","",""
"4766","","image-button-response","143","1757700","0.0-142.0-0.0","A1AD0XP7UTCMY2","img_art/10.jpg","1","","","","","","","","","","","","","","","","","","","","","","","","",""
"null","","html-keyboard-response","144","1758715","0.0-143.0","A1AD0XP7UTCMY2","<p style=""font-size: 48px;"">+</p>","","","","","null","allTrialResponses","1000","1","14","img_art/10.jpg","-2","looks like some dirty googles","Chase,Sean,Christopher,Jordan,Garrett,Lucas","Seems more harmonic with the strokes and colors.,31,120,20","I see a rollercoaster,23,40,20","i like this, the mix of brush textures is cool,24,160,20","Looks gross and messy,-39,160,20","I can't tell what this picture is supposed to mean and I think the colors are lacking variety.,-42,180,20","For me, it looks like a giant ship on the sea and it's astonishing.,30,380,20","Jordan","Looks gross and messy,-39,160,20","Garrett","I can't tell what this picture is supposed to mean and I think the colors are lacking variety.,-42,180,20","Sean","I see a rollercoaster,23,40,20","2"
"11340","","survey-text","145","1770063","0.0-144.0-0.0","A1AD0XP7UTCMY2","","","","{""Q0"":""this is too messy""}","","","","","","","","","","","","","","","","","","","","","","",""
"3514.2999999970198","","image-slider-response","146","1773579","0.0-145.0","A1AD0XP7UTCMY2","","","","","-22","","","","","","","","","","","","","","","","","","","","","",""
"null","","image-button-response","147","1778581","0.0-146.0","A1AD0XP7UTCMY2","img_art/19.jpg","null","","","","","","","","","","","","","","","","","","","","","","","","",""
"1383","","image-button-response","148","1779967","0.0-147.0","A1AD0XP7UTCMY2","img_art/19.jpg","1","","","","","","","","","","","","","","","","","","","","","","","","",""
"1016","","image-button-response","149","1780985","0.0-148.0-0.0","A1AD0XP7UTCMY2","img_art/19.jpg","4","","","","","","","","","","","","","","","","","","","","","","","","",""
"2481","","image-button-response","150","1783467","0.0-149.0-0.0","A1AD0XP7UTCMY2","img_art/19.jpg","5","","","","","","","","","","","","","","","","","","","","","","","","",""
"null","","html-keyboard-response","151","1784970","0.0-150.0","A1AD0XP7UTCMY2","<p style=""font-size: 48px;"">+</p>","","","","","null","allTrialResponses","1500","1","15","img_art/19.jpg","-22","this is too messy","Justin,Sean,Brendan,Jordan,Garrett,Angel","It looks too much of a rough sketch. Don't really enjoy looking at it.,-9,280,20","the picture gave me anxiety,-38,40,20","beautiful old town,37,340,20","I dont like the gray shadows, ruins it,-7,160,20","This looks like a bunch of weird blobs and the colors don't go great together.,-10,180,20","This one feels pretty neutral. Like a window into someone's life, one person in a bustling metropolis.,0,180,20","Sean","the picture gave me anxiety,-38,40,20","Garrett","This looks like a bunch of weird blobs and the colors don't go great together.,-10,180,20","Angel","This one feels pretty neutral. Like a window into someone's life, one person in a bustling metropolis.,0,180,20","2"
"4952","","survey-text","152","1789935","0.0-151.0-0.0","A1AD0XP7UTCMY2","","","","{""Q0"":""course""}","","","","","","","","","","","","","","","","","","","","","","",""
"16077","","survey-text","153","1806013","0.0-152.0-0.0","A1AD0XP7UTCMY2","","","","{""Q0"":""looks a bit peaceful""}","","","","","","","","","","","","","","","","","","","","","","",""
"2408.2999999970198","","image-slider-response","154","1808423","0.0-153.0","A1AD0XP7UTCMY2","","","","","6","","","","","","","","","","","","","","","","","","","","","",""
"2671","","image-button-response","155","1813439","0.0-154.0","A1AD0XP7UTCMY2","img_art/21.jpg","3","","","","","","","","","","","","","","","","","","","","","","","","",""
"790","","image-button-response","156","1814232","0.0-155.0","A1AD0XP7UTCMY2","img_art/21.jpg","3","","","","","","","","","","","","","","","","","","","","","","","","",""
"396","","image-button-response","157","1814630","0.0-156.0-0.0","A1AD0XP7UTCMY2","img_art/21.jpg","4","","","","","","","","","","","","","","","","","","","","","","","","",""
"846","","image-button-response","158","1815478","0.0-157.0-0.0","A1AD0XP7UTCMY2","img_art/21.jpg","0","","","","","","","","","","","","","","","","","","","","","","","","",""
"null","","html-keyboard-response","159","1816484","0.0-158.0","A1AD0XP7UTCMY2","<p style=""font-size: 48px;"">+</p>","","","","","null","allTrialResponses","1000","1","16","img_art/21.jpg","6","looks a bit peaceful","Tanner,Sean,Christian,Isaiah,Garrett,Angel","calm, ship at sea, sunset,16,180,20","my response to the picture is what is going on?,-13,40,20","stormy with gold lining,0,140,20","I feel the same serene excitement that I feel watching a sunrise on a beach.,38,300,20","I like the sky a little bit the way the colors look for the sky, the cliff side looks a little weird though.,10,180,20","This feels chaotic, like a battle or a storm.,-20,180,20","Isaiah","I feel the same serene excitement that I feel watching a sunrise on a beach.,38,300,20","Garrett","I like the sky a little bit the way the colors look for the sky, the cliff side looks a little weird though.,10,180,20","Tanner","calm, ship at sea, sunset,16,180,20","2"
"72712","","survey-text","160","1889205","0.0-159.0-0.0","A1AD0XP7UTCMY2","","","","{""Q0"":""looks like a monster""}","","","","","","","","","","","","","","","","","","","","","","",""
"2915.9000000059605","","image-slider-response","161","1892123","0.0-160.0","A1AD0XP7UTCMY2","","","","","-37","","","","","","","","","","","","","","","","","","","","","",""
"null","","image-button-response","162","1897135","0.0-161.0","A1AD0XP7UTCMY2","img_art/9.jpg","null","","","","","","","","","","","","","","","","","","","","","","","","",""
"1311","","image-button-response","163","1898449","0.0-162.0","A1AD0XP7UTCMY2","img_art/9.jpg","1","","","","","","","","","","","","","","","","","","","","","","","","",""
"1327","","image-button-response","164","1899777","0.0-163.0-0.0","A1AD0XP7UTCMY2","img_art/9.jpg","2","","","","","","","","","","","","","","","","","","","","","","","","",""
"7474","","image-button-response","165","1907253","0.0-164.0-0.0","A1AD0XP7UTCMY2","img_art/9.jpg","5","","","","","","","","","","","","","","","","","","","","","","","","",""
"null","","html-keyboard-response","166","1907754","0.0-165.0","A1AD0XP7UTCMY2","<p style=""font-size: 48px;"">+</p>","","","","","null","allTrialResponses","500","1","17","img_art/9.jpg","-37","looks like a monster","Tanner,Tyler,Shawn,Isaiah,Garrett,Logan","sleep, calm, safe,12,180,20","No cohesive form whatsoever. Hard pass.,-31,320,20","Cheesy. Looks unprofessional,-20,100,20","The piece of art makes me happy, it reminds me of a lively carnival.,15,300,20","This looks like someone sleeping in a bed, and I think the colors make it look interesting.,20,180,20","is that sleeping beauty,33,360,20","Tyler","No cohesive form whatsoever. Hard pass.,-31,320,20","Shawn","Cheesy. Looks unprofessional,-20,100,20","Logan","is that sleeping beauty,33,360,20","2"
"14022","","survey-text","167","1921785","0.0-166.0-0.0","A1AD0XP7UTCMY2","","","","{""Q0"":""looks like a nice waterfall""}","","","","","","","","","","","","","","","","","","","","","","",""
"3600.2000000029802","","image-slider-response","168","1925387","0.0-167.0","A1AD0XP7UTCMY2","","","","","1","","","","","","","","","","","","","","","","","","","","","",""
"null","","image-button-response","169","1930401","0.0-168.0","A1AD0XP7UTCMY2","img_art/24.jpg","null","","","","","","","","","","","","","","","","","","","","","","","","",""
"654","","image-button-response","170","1931057","0.0-169.0","A1AD0XP7UTCMY2","img_art/24.jpg","0","","","","","","","","","","","","","","","","","","","","","","","","",""
"633","","image-button-response","171","1931691","0.0-170.0-0.0","A1AD0XP7UTCMY2","img_art/24.jpg","4","","","","","","","","","","","","","","","","","","","","","","","","",""
"2294","","image-button-response","172","1933988","0.0-171.0-0.0","A1AD0XP7UTCMY2","img_art/24.jpg","5","","","","","","","","","","","","","","","","","","","","","","","","",""
"null","","html-keyboard-response","173","1935504","0.0-172.0","A1AD0XP7UTCMY2","<p style=""font-size: 48px;"">+</p>","","","","","null","allTrialResponses","1500","1","18","img_art/24.jpg","1","looks like a nice waterfall","Corey,Tyler,Shawn,Cody,Miguel,Logan","peaceful and serene but Im not the biggest landscape fan,4,260,20","Exceedingly garish,-19,320,20","Pretty but cheesy,-15,100,20","Beautiful, good colors, love water,50,180,20","Very cute amateur piece.,18,160,20","brick wall waterfall girl you think you got it all,50,360,20","Corey","peaceful and serene but Im not the biggest landscape fan,4,260,20","Miguel","Very cute amateur piece.,18,160,20","Logan","brick wall waterfall girl you think you got it all,50,360,20","2"
"12936","","survey-text","174","1948448","0.0-173.0-0.0","A1AD0XP7UTCMY2","","","","{""Q0"":""looks haunting""}","","","","","","","","","","","","","","","","","","","","","","",""
"4165.9000000059605","","image-slider-response","175","1952616","0.0-174.0","A1AD0XP7UTCMY2","","","","","-31","","","","","","","","","","","","","","","","","","","","","",""
"null","","image-button-response","176","1957631","0.0-175.0","A1AD0XP7UTCMY2","img_art/25.jpg","null","","","","","","","","","","","","","","","","","","","","","","","","",""
"1046","","image-button-response","177","1958680","0.0-176.0","A1AD0XP7UTCMY2","img_art/25.jpg","4","","","","","","","","","","","","","","","","","","","","","","","","",""
"892","","image-button-response","178","1959574","0.0-177.0-0.0","A1AD0XP7UTCMY2","img_art/25.jpg","5","","","","","","","","","","","","","","","","","","","","","","","","",""
"7290","","image-button-response","179","1966866","0.0-178.0-0.0","A1AD0XP7UTCMY2","img_art/25.jpg","2","","","","","","","","","","","","","","","","","","","","","","","","",""
"null","","html-keyboard-response","180","1967368","0.0-179.0","A1AD0XP7UTCMY2","<p style=""font-size: 48px;"">+</p>","","","","","null","allTrialResponses","500","1","19","img_art/25.jpg","-31","looks haunting","Corey,Jack,Ian,Brian,Miguel,Logan","love the color and the contrast of the black on teal,50,260,20","beautiful in a primitive way,10,320,20","This looks cool but I don't really care for it. Some sort or religious figure?,16,260,20","the color is pleasing and draws out the contrast of the lines,10,380,20","This is too simple,-22,160,20","creeeeeppyyyyyyy but mad cool,-26,360,20","Miguel","This is too simple,-22,160,20","Logan","creeeeeppyyyyyyy but mad cool,-26,360,20","Ian","This looks cool but I don't really care for it. Some sort or religious figure?,16,260,20","2"
"13421","","survey-text","181","1980798","0.0-180.0-0.0","A1AD0XP7UTCMY2","","","","{""Q0"":""looks creepy""}","","","","","","","","","","","","","","","","","","","","","","",""
"8400.20000000298","","image-slider-response","182","1989199","0.0-181.0","A1AD0XP7UTCMY2","","","","","-14","","","","","","","","","","","","","","","","","","","","","",""
"null","","image-button-response","183","1994210","0.0-182.0","A1AD0XP7UTCMY2","img_art/16.jpg","null","","","","","","","","","","","","","","","","","","","","","","","","",""
"704","","image-button-response","184","1994917","0.0-183.0","A1AD0XP7UTCMY2","img_art/16.jpg","0","","","","","","","","","","","","","","","","","","","","","","","","",""
"479","","image-button-response","185","1995397","0.0-184.0-0.0","A1AD0XP7UTCMY2","img_art/16.jpg","1","","","","","","","","","","","","","","","","","","","","","","","","",""
"1520","","image-button-response","186","1996919","0.0-185.0-0.0","A1AD0XP7UTCMY2","img_art/16.jpg","2","","","","","","","","","","","","","","","","","","","","","","","","",""
"null","","html-keyboard-response","187","1997430","0.0-186.0","A1AD0XP7UTCMY2","<p style=""font-size: 48px;"">+</p>","","","","","null","allTrialResponses","500","1","20","img_art/16.jpg","-14","looks creepy","Jeremy,Jared,Ian,Luis,Miguel,Logan","very disturbed seening a gun in the same picture as a teddy bear,-50,60,20","it looks psychotic,-31,400,20","This looks like it was made by an art student filled with angst,-30,260,20","Kind of an edgy teenager vibe,32,400,20","Very cool abstraction.,19,160,20","what is this doing for anyone. If you connect with this you're literally lying to yourself. pretentious,-50,360,20","Jeremy","very disturbed seening a gun in the same picture as a teddy bear,-50,60,20","Jared","it looks psychotic,-31,400,20","Ian","This looks like it was made by an art student filled with angst,-30,260,20","2"
"4509","","survey-text","188","2001953","0.0-187.0-0.0","A1AD0XP7UTCMY2","","","","{""Q0"":""we""}","","","","","","","","","","","","","","","","","","","","","","",""
"15765","","survey-text","189","2017719","0.0-188.0-0.0","A1AD0XP7UTCMY2","","","","{""Q0"":""looks a bit busy""}","","","","","","","","","","","","","","","","","","","","","","",""
"4082.0999999940395","","image-slider-response","190","2021803","0.0-189.0","A1AD0XP7UTCMY2","","","","","-5","","","","","","","","","","","","","","","","","","","","","",""
"null","","image-button-response","191","2026806","0.0-190.0","A1AD0XP7UTCMY2","img_art/18.jpg","null","","","","","","","","","","","","","","","","","","","","","","","","",""
"68306","","image-button-response","192","2095114","0.0-191.0","A1AD0XP7UTCMY2","img_art/18.jpg","0","","","","","","","","","","","","","","","","","","","","","","","","",""
"2002","","image-button-response","193","2097117","0.0-192.0-0.0","A1AD0XP7UTCMY2","img_art/18.jpg","4","","","","","","","","","","","","","","","","","","","","","","","","",""
"3244","","image-button-response","194","2100363","0.0-193.0-0.0","A1AD0XP7UTCMY2","img_art/18.jpg","5","","","","","","","","","","","","","","","","","","","","","","","","",""
"null","","html-keyboard-response","195","2101865","0.0-194.0","A1AD0XP7UTCMY2","<p style=""font-size: 48px;"">+</p>","","","","","null","allTrialResponses","1500","1","21","img_art/18.jpg","-5","looks a bit busy","Jeremy,Jared,Ian,Dalton,Richard,Bradley","Unhappy. Makes me thing of evil,-10,60,20","it looks like people,9,400,20","This one raises some questions, there could be some sort of fight or battle going on.,11,260,20","i like the colors in the picture and can make out my own images,42,300,20","interesting piece, I like the horse and people inserted in spots,22,340,20","This one is very dark and apocalyptic indeed!,-30,300,20","Jeremy","Unhappy. Makes me thing of evil,-10,60,20","Richard","interesting piece, I like the horse and people inserted in spots,22,340,20","Bradley","This one is very dark and apocalyptic indeed!,-30,300,20","2"
"13860","","survey-text","196","2115733","0.0-195.0-0.0","A1AD0XP7UTCMY2","","","","{""Q0"":""looks like a skeleton""}","","","","","","","","","","","","","","","","","","","","","","",""
"4874.29999999702","","image-slider-response","197","2120609","0.0-196.0","A1AD0XP7UTCMY2","","","","","-8","","","","","","","","","","","","","","","","","","","","","",""
"null","","image-button-response","198","2125612","0.0-197.0","A1AD0XP7UTCMY2","img_art/4.jpg","null","","","","","","","","","","","","","","","","","","","","","","","","",""
"1934","","image-button-response","199","2127548","0.0-198.0","A1AD0XP7UTCMY2","img_art/4.jpg","3","","","","","","","","","","","","","","","","","","","","","","","","",""
"1048","","image-button-response","200","2128597","0.0-199.0-0.0","A1AD0XP7UTCMY2","img_art/4.jpg","1","","","","","","","","","","","","","","","","","","","","","","","","",""
"5032","","image-button-response","201","2133632","0.0-200.0-0.0","A1AD0XP7UTCMY2","img_art/4.jpg","2","","","","","","","","","","","","","","","","","","","","","","","","",""
"null","","html-keyboard-response","202","2134633","0.0-201.0","A1AD0XP7UTCMY2","<p style=""font-size: 48px;"">+</p>","","","","","null","allTrialResponses","1000","1","22","img_art/4.jpg","-8","looks like a skeleton","Jeremy,Luke,Antonio,Vincent,Richard,Bradley","the colors are calming,31,60,20","it looks like a simple finger painting, yet i liked the color choices,-12,20,20","Blah feeling, nothing,-8,220,20","I like it not sure much of how I feel about it,7,360,20","too childish, not really art in my world,-50,340,20","This looks like what happens when someone steps on a mustard packet.,-7,300,20","Vincent","I like it not sure much of how I feel about it,7,360,20","Luke","it looks like a simple finger painting, yet i liked the color choices,-12,20,20","Antonio","Blah feeling, nothing,-8,220,20","2"
"19771","","survey-text","203","2154413","0.0-202.0-0.0","A1AD0XP7UTCMY2","","","","{""Q0"":""the colors dont work its too dark""}","","","","","","","","","","","","","","","","","","","","","","",""
"3608.0999999940395","","image-slider-response","204","2158023","0.0-203.0","A1AD0XP7UTCMY2","","","","","-44","","","","","","","","","","","","","","","","","","","","","",""
"null","","image-button-response","205","2163027","0.0-204.0","A1AD0XP7UTCMY2","img_art/29.jpg","null","","","","","","","","","","","","","","","","","","","","","","","","",""
"519","","image-button-response","206","2163549","0.0-205.0","A1AD0XP7UTCMY2","img_art/29.jpg","0","","","","","","","","","","","","","","","","","","","","","","","","",""
"1820","","image-button-response","207","2165371","0.0-206.0-0.0","A1AD0XP7UTCMY2","img_art/29.jpg","1","","","","","","","","","","","","","","","","","","","","","","","","",""
"2790","","image-button-response","208","2168163","0.0-207.0-0.0","A1AD0XP7UTCMY2","img_art/29.jpg","4","","","","","","","","","","","","","","","","","","","","","","","","",""
"null","","html-keyboard-response","209","2169670","0.0-208.0","A1AD0XP7UTCMY2","<p style=""font-size: 48px;"">+</p>","","","","","null","allTrialResponses","1500","1","23","img_art/29.jpg","-44","the colors dont work its too dark","Elijah,Luke,Antonio,Vincent,Alexander,Jorge","Makes me feel untidy,-9,80,20","it is difficult to look at but you can't look away,-25,20,20","Depressing and with that big red x on it just makes me not like it.,-33,220,20","Another great work of art and very conversational piece,33,360,20","Tested and failed a lot of ideas.,-20,120,20","makes me feel busy and unorganized,4,180,20","Elijah","Makes me feel untidy,-9,80,20","Luke","it is difficult to look at but you can't look away,-25,20,20","Alexander","Tested and failed a lot of ideas.,-20,120,20","2"
"11671","","survey-text","210","2181351","0.0-209.0-0.0","A1AD0XP7UTCMY2","","","","{""Q0"":""nice and creative""}","","","","","","","","","","","","","","","","","","","","","","",""
"3096.2999999970198","","image-slider-response","211","2184449","0.0-210.0","A1AD0XP7UTCMY2","","","","","26","","","","","","","","","","","","","","","","","","","","","",""
"null","","image-button-response","212","2189457","0.0-211.0","A1AD0XP7UTCMY2","img_art/17.jpg","null","","","","","","","","","","","","","","","","","","","","","","","","",""
"651","","image-button-response","213","2190111","0.0-212.0","A1AD0XP7UTCMY2","img_art/17.jpg","3","","","","","","","","","","","","","","","","","","","","","","","","",""
"634","","image-button-response","214","2190747","0.0-213.0-0.0","A1AD0XP7UTCMY2","img_art/17.jpg","0","","","","","","","","","","","","","","","","","","","","","","","","",""
"2432","","image-button-response","215","2193181","0.0-214.0-0.0","A1AD0XP7UTCMY2","img_art/17.jpg","4","","","","","","","","","","","","","","","","","","","","","","","","",""
"null","","html-keyboard-response","216","2194192","0.0-215.0","A1AD0XP7UTCMY2","<p style=""font-size: 48px;"">+</p>","","","","","null","allTrialResponses","1000","1","24","img_art/17.jpg","26","nice and creative","Elijah,Luke,Charles,Gabriel,Alexander,Andrew","Very cool, makes me feel calm,43,80,20","it looks very intricate and colorful,50,20,20","I like the trees, but the doors less so,19,100,20","this ones alright,10,160,20","Tree of knowledge in a quiet school.,17,120,20","A very inspiring piece,41,160,20","Gabriel","this ones alright,10,160,20","Elijah","Very cool, makes me feel calm,43,80,20","Alexander","Tree of knowledge in a quiet school.,17,120,20","2"
"19607","","survey-text","217","2213808","0.0-216.0-0.0","A1AD0XP7UTCMY2","","","","{""Q0"":""it looks like people in space""}","","","","","","","","","","","","","","","","","","","","","","",""
"2383.7000000029802","","image-slider-response","218","2216194","0.0-217.0","A1AD0XP7UTCMY2","","","","","3","","","","","","","","","","","","","","","","","","","","","",""
"3950","","image-button-response","219","2221195","0.0-218.0","A1AD0XP7UTCMY2","img_art/23.jpg","0","","","","","","","","","","","","","","","","","","","","","","","","",""
"1068","","image-button-response","220","2222266","0.0-219.0","A1AD0XP7UTCMY2","img_art/23.jpg","0","","","","","","","","","","","","","","","","","","","","","","","","",""
"474","","image-button-response","221","2222742","0.0-220.0-0.0","A1AD0XP7UTCMY2","img_art/23.jpg","1","","","","","","","","","","","","","","","","","","","","","","","","",""
"6086","","image-button-response","222","2228830","0.0-221.0-0.0","A1AD0XP7UTCMY2","img_art/23.jpg","2","","","","","","","","","","","","","","","","","","","","","","","","",""
"null","","html-keyboard-response","223","2230332","0.0-222.0","A1AD0XP7UTCMY2","<p style=""font-size: 48px;"">+</p>","","","","","null","allTrialResponses","1500","1","25","img_art/23.jpg","3","it looks like people in space","Elijah,Spencer,Seth,Gabriel,Alexander,Derek","Makes me worried,10,80,20","Interesting, want to look at it more to identify,25,120,20","I thought this art was exciting and it reminded me of dancing people.,12,60,20","i think this ones okay,10,160,20","Unicorns flying through a colorful space.,25,120,20","Very colorful and wild. It's cool and I like it,32,360,20","Elijah","Makes me worried,10,80,20","Spencer","Interesting, want to look at it more to identify,25,120,20","Seth","I thought this art was exciting and it reminded me of dancing people.,12,60,20","2"
"4883","","survey-text","224","2235228","0.0-223.0-0.0","A1AD0XP7UTCMY2","","","","{""Q0"":""table""}","","","","","","","","","","","","","","","","","","","","","","",""
"8856","","survey-text","225","2244085","0.0-224.0-0.0","A1AD0XP7UTCMY2","","","","{""Q0"":""its alright""}","","","","","","","","","","","","","","","","","","","","","","",""
"3168.4000000059605","","image-slider-response","226","2247255","0.0-225.0","A1AD0XP7UTCMY2","","","","","3","","","","","","","","","","","","","","","","","","","","","",""
"null","","image-button-response","227","2252257","0.0-226.0","A1AD0XP7UTCMY2","img_art/3.jpg","null","","","","","","","","","","","","","","","","","","","","","","","","",""
"2352","","image-button-response","228","2254612","0.0-227.0","A1AD0XP7UTCMY2","img_art/3.jpg","5","","","","","","","","","","","","","","","","","","","","","","","","",""
"1040","","image-button-response","229","2255654","0.0-228.0-0.0","A1AD0XP7UTCMY2","img_art/3.jpg","3","","","","","","","","","","","","","","","","","","","","","","","","",""
"2706","","image-button-response","230","2258362","0.0-229.0-0.0","A1AD0XP7UTCMY2","img_art/3.jpg","0","","","","","","","","","","","","","","","","","","","","","","","","",""
"null","","html-keyboard-response","231","2259363","0.0-230.0","A1AD0XP7UTCMY2","<p style=""font-size: 48px;"">+</p>","","","","","null","allTrialResponses","1000","1","26","img_art/3.jpg","3","its alright","Elijah,Spencer,Seth,Thomas,Cameron,Mark","Somebody scribbled on a piece of paper,-35,80,20","Scratchy scrawly all one color, looks like a mistake,-28,120,20","I didn't feel the color choice when I first looked. I did however like the placement of the gray.,-28,60,20","Too messy and structure-less,-10,220,20","kid scribbled on the wall again,-35,60,20","I don't feel anything, it seems childish.,-25,80,20","Mark","I don't feel anything, it seems childish.,-25,80,20","Thomas","Too messy and structure-less,-10,220,20","Elijah","Somebody scribbled on a piece of paper,-35,80,20","2"
"18195","","survey-text","232","2277569","0.0-231.0-0.0","A1AD0XP7UTCMY2","","","","{""Q0"":""it feels a bit awkward""}","","","","","","","","","","","","","","","","","","","","","","",""
"3421.9000000059605","","image-slider-response","233","2280993","0.0-232.0","A1AD0XP7UTCMY2","","","","","-25","","","","","","","","","","","","","","","","","","","","","",""
"null","","image-button-response","234","2285999","0.0-233.0","A1AD0XP7UTCMY2","img_art/28.jpg","null","","","","","","","","","","","","","","","","","","","","","","","","",""
"490","","image-button-response","235","2286492","0.0-234.0","A1AD0XP7UTCMY2","img_art/28.jpg","0","","","","","","","","","","","","","","","","","","","","","","","","",""
"416","","image-button-response","236","2286910","0.0-235.0-0.0","A1AD0XP7UTCMY2","img_art/28.jpg","1","","","","","","","","","","","","","","","","","","","","","","","","",""
"1788","","image-button-response","237","2288700","0.0-236.0-0.0","A1AD0XP7UTCMY2","img_art/28.jpg","2","","","","","","","","","","","","","","","","","","","","","","","","",""
"null","","html-keyboard-response","238","2289202","0.0-237.0","A1AD0XP7UTCMY2","<p style=""font-size: 48px;"">+</p>","","","","","null","allTrialResponses","500","1","27","img_art/28.jpg","-25","it feels a bit awkward","Elijah,Michael,Taylor,Thomas,Nicholas,Mark","The colors are depressing,-5,80,20","Incoherent ugly mess.,-50,140,20","Bug meets bug in a dark alley.,-20,200,20","I can't explain why, but I really love this one,50,220,20","Interesting and weird. Perfect conversational piece,33,240,20","It reminds me of the cantina in Star Wars.,37,80,20","Elijah","The colors are depressing,-5,80,20","Michael","Incoherent ugly mess.,-50,140,20","Taylor","Bug meets bug in a dark alley.,-20,200,20","2"
"14565","","survey-text","239","2303780","0.0-238.0-0.0","A1AD0XP7UTCMY2","","","","{""Q0"":""looks like a city""}","","","","","","","","","","","","","","","","","","","","","","",""
"2917.5","","image-slider-response","240","2306699","0.0-239.0","A1AD0XP7UTCMY2","","","","","26","","","","","","","","","","","","","","","","","","","","","",""
"null","","image-button-response","241","2311701","0.0-240.0","A1AD0XP7UTCMY2","img_art/11.jpg","null","","","","","","","","","","","","","","","","","","","","","","","","",""
"832","","image-button-response","242","2312535","0.0-241.0","A1AD0XP7UTCMY2","img_art/11.jpg","3","","","","","","","","","","","","","","","","","","","","","","","","",""
"611","","image-button-response","243","2313147","0.0-242.0-0.0","A1AD0XP7UTCMY2","img_art/11.jpg","0","","","","","","","","","","","","","","","","","","","","","","","","",""
"597","","image-button-response","244","2313745","0.0-243.0-0.0","A1AD0XP7UTCMY2","img_art/11.jpg","1","","","","","","","","","","","","","","","","","","","","","","","","",""
"null","","html-keyboard-response","245","2315251","0.0-244.0","A1AD0XP7UTCMY2","<p style=""font-size: 48px;"">+</p>","","","","","null","allTrialResponses","1500","1","28","img_art/11.jpg","26","looks like a city","Elijah,Michael,Taylor,Dylan,Jake,Isaac","Very cool, makes me feel good,39,80,20","It's kind of cool and I see it looks clean.,22,140,20","Busy, busy oceanside city.,-10,200,20","I normally would not like this photo, but the design is nice.,21,40,20","This is very unappealing.,-11,360,20","I like the harsh black lines against a soft background.,27,280,20","Dylan","I normally would not like this photo, but the design is nice.,21,40,20","Elijah","Very cool, makes me feel good,39,80,20","Michael","It's kind of cool and I see it looks clean.,22,140,20","2"
"7515","","survey-text","246","2322777","0.0-245.0-0.0","A1AD0XP7UTCMY2","","","","{""Q0"":""looks like dirt""}","","","","","","","","","","","","","","","","","","","","","","",""
"2932.2999999970198","","image-slider-response","247","2325711","0.0-246.0","A1AD0XP7UTCMY2","","","","","-4","","","","","","","","","","","","","","","","","","","","","",""
"null","","image-button-response","248","2330718","0.0-247.0","A1AD0XP7UTCMY2","img_art/7.jpg","null","","","","","","","","","","","","","","","","","","","","","","","","",""
"595","","image-button-response","249","2331315","0.0-248.0","A1AD0XP7UTCMY2","img_art/7.jpg","0","","","","","","","","","","","","","","","","","","","","","","","","",""
"535","","image-button-response","250","2331852","0.0-249.0-0.0","A1AD0XP7UTCMY2","img_art/7.jpg","4","","","","","","","","","","","","","","","","","","","","","","","","",""
"420","","image-button-response","251","2332273","0.0-250.0-0.0","A1AD0XP7UTCMY2","img_art/7.jpg","3","","","","","","","","","","","","","","","","","","","","","","","","",""
"null","","html-keyboard-response","252","2333275","0.0-251.0","A1AD0XP7UTCMY2","<p style=""font-size: 48px;"">+</p>","","","","","null","allTrialResponses","1000","1","29","img_art/7.jpg","-4","looks like dirt","Elijah,Michael,Marcus,Dylan,Adam,Cole","Not highly impressed,-5,80,20","Ugly. I don't like the colors or the scattering.,-50,140,20","Looks like vomit, or chunky feces,-42,60,20","I do not like the boring colors in this.,-20,40,20","I like the earth tones here,5,40,20","Are these ancient cave paintings?,-7,200,20","Elijah","Not highly impressed,-5,80,20","Adam","I like the earth tones here,5,40,20","Dylan","I do not like the boring colors in this.,-20,40,20","2"
"13998","","survey-text","253","2347283","0.0-252.0-0.0","A1AD0XP7UTCMY2","","","","{""Q0"":""it stands out""}","","","","","","","","","","","","","","","","","","","","","","",""
"2646.2999999970198","","image-slider-response","254","2349931","0.0-253.0","A1AD0XP7UTCMY2","","","","","2","","","","","","","","","","","","","","","","","","","","","",""
"null","","image-button-response","255","2354939","0.0-254.0","A1AD0XP7UTCMY2","img_art/5.jpg","null","","","","","","","","","","","","","","","","","","","","","","","","",""
"13042","","image-button-response","256","2367984","0.0-255.0","A1AD0XP7UTCMY2","img_art/5.jpg","5","","","","","","","","","","","","","","","","","","","","","","","","",""
"4786","","image-button-response","257","2372771","0.0-256.0-0.0","A1AD0XP7UTCMY2","img_art/5.jpg","1","","","","","","","","","","","","","","","","","","","","","","","","",""
"2072","","image-button-response","258","2374845","0.0-257.0-0.0","A1AD0XP7UTCMY2","img_art/5.jpg","0","","","","","","","","","","","","","","","","","","","","","","","","",""
"null","","html-keyboard-response","259","2376362","0.0-258.0","A1AD0XP7UTCMY2","<p style=""font-size: 48px;"">+</p>","","","","","null","allTrialResponses","1500","1","30","img_art/5.jpg","2","it stands out","Elijah,Daniel,Bryan,Dylan,Adam,Scott","Makes me feel weird,-16,80,20","Cop out, easy money for artist for a 4 min piece,-29,320,20","Looks like a yellow plastic trash bag.,-42,400,20","This looks like a twelve year old did it,-40,40,20","Too loud. Dislike the bright yellow.,-5,40,20","I like it but I don't know why,15,20,20","Scott","I like it but I don't know why,15,20,20","Daniel","Cop out, easy money for artist for a 4 min piece,-29,320,20","Elijah","Makes me feel weird,-16,80,20","2"
"4008","","image-button-response_instructions","260","2380381","0.0-259.0","A1AD0XP7UTCMY2","","0","instructions","","","","","","","","","","","","","","","","","","","","","","","",""
"1187","","image-button-response","261","2381573","0.0-260.0","A1AD0XP7UTCMY2","","0","","","","","","","","","","","","","","","","","","","","","","","","",""
