"rt","url","trial_type","trial_index","time_elapsed","internal_node_id","participant_id","stimulus","button_pressed","Name","responses","response","key_press","variableName","fixationTime","condition","trial","photo","subjectRating","subjectResponse","agentsNames","agent_1_Response","agent_2_Response","agent_3_Response","agent_4_Response","agent_5_Response","agent_6_Response","kept_1_name","kept_1_response","kept_2_name","kept_2_response","kept_3_name","kept_3_response","errorCounter"
"11326","external_page_harvard.html","external-html","0","11496","0.0-0.0","A1BIJGB7XA0GME","","","","","","","","","","","","","","","","","","","","","","","","","","",""
"3038","","image-button-response","1","14539","0.0-1.0","A1BIJGB7XA0GME","","1","","","","","","","","","","","","","","","","","","","","","","","","",""
"2783","","image-button-response","2","17340","0.0-2.0-0.0","A1BIJGB7XA0GME","","1","phone","","","","","","","","","","","","","","","","","","","","","","","",""
"4852","","survey-text","3","22194","0.0-3.0-0.0","A1BIJGB7XA0GME","","","","{""Q0"":""A1BIJGB7XA0GME""}","","","","","","","","","","","","","","","","","","","","","","",""
"13501","","image-button-response_instructions","4","35700","0.0-4.0","A1BIJGB7XA0GME","","0","instructions","","","","","","","","","","","","","","","","","","","","","","","",""
"25469","","image-button-response_instructions","5","61172","0.0-5.0","A1BIJGB7XA0GME","img_art/ins/popularity/ins1.png","0","instructions","","","","","","","","","","","","","","","","","","","","","","","",""
"9651","","image-button-response_instructions","6","70826","0.0-6.0","A1BIJGB7XA0GME","img_art/ins/popularity/ins2.png","0","instructions","","","","","","","","","","","","","","","","","","","","","","","",""
"11707","","image-button-response_instructions","7","82535","0.0-7.0","A1BIJGB7XA0GME","img_art/ins/popularity/ins2Extreme.png","0","instructions","","","","","","","","","","","","","","","","","","","","","","","",""
"41628","","image-button-response_instructions","8","124166","0.0-8.0","A1BIJGB7XA0GME","img_art/ins/popularity/ins3KEEPpop.PNG","0","instructions","","","","","","","","","","","","","","","","","","","","","","","",""
"5948","","image-button-response_instructions","9","130116","0.0-9.0","A1BIJGB7XA0GME","img_art/ins/popularity/ins3ANamepop.PNG","0","instructions","","","","","","","","","","","","","","","","","","","","","","","",""
"4177","","image-button-response_instructions","10","134296","0.0-10.0","A1BIJGB7XA0GME","img_art/ins/popularity/ins3ARatingpop.png","0","instructions","","","","","","","","","","","","","","","","","","","","","","","",""
"3799","","image-button-response_instructions","11","138098","0.0-11.0","A1BIJGB7XA0GME","img_art/ins/popularity/ins3ATextpop.png","0","instructions","","","","","","","","","","","","","","","","","","","","","","","",""
"6375","","image-button-response_instructions","12","144476","0.0-12.0","A1BIJGB7XA0GME","img_art/ins/popularity/ins3ALikespop.png","0","instructions","","","","","","","","","","","","","","","","","","","","","","","",""
"14204","","image-button-response_instructions","13","158684","0.0-13.0","A1BIJGB7XA0GME","img_art/ins/popularity/ins3KEEPpop.PNG","0","instructions","","","","","","","","","","","","","","","","","","","","","","","",""
"12322","","image-button-response_instructions","14","171008","0.0-14.0","A1BIJGB7XA0GME","img_art/ins/popularity/ins3_5RED.png","0","instructions","","","","","","","","","","","","","","","","","","","","","","","",""
"7196","","image-button-response_instructions","15","178207","0.0-15.0","A1BIJGB7XA0GME","img_art/ins/popularity/ins3KEEPpop.PNG","0","instructions","","","","","","","","","","","","","","","","","","","","","","","",""
"10832","","image-button-response_instructions","16","189041","0.0-16.0","A1BIJGB7XA0GME","img_art/ins/popularity/ins4KEEPpop.PNG","0","instructions","","","","","","","","","","","","","","","","","","","","","","","",""
"12399","","image-button-response_instructions","17","201442","0.0-17.0","A1BIJGB7XA0GME","img_art/ins/popularity/ins5KEEPpop.PNG","0","instructions","","","","","","","","","","","","","","","","","","","","","","","",""
"3081","","image-button-response_instructions","18","204526","0.0-18.0","A1BIJGB7XA0GME","","0","instructions","","","","","","","","","","","","","","","","","","","","","","","",""
"10951","","survey-text","19","215547","0.0-19.0-0.0","A1BIJGB7XA0GME","","","","{""Q0"":""but""}","","","","","","","","","","","","","","","","","","","","","","",""
"42708","","survey-text","20","258259","0.0-20.0-0.0","A1BIJGB7XA0GME","","","","{""Q0"":""This reminds me of Neapolitan melted ice cream ""}","","","","","","","","","","","","","","","","","","","","","","",""
"5041.399999976158","","image-slider-response","21","263307","0.0-21.0","A1BIJGB7XA0GME","","","","","-22","","","","","","","","","","","","","","","","","","","","","",""
"null","","image-button-response","22","268333","0.0-22.0","A1BIJGB7XA0GME","img_art/ins/1.jpg","null","","","","","","","","","","","","","","","","","","","","","","","","",""
"5307","","image-button-response","23","273646","0.0-23.0","A1BIJGB7XA0GME","img_art/ins/1.jpg","1","","","","","","","","","","","","","","","","","","","","","","","","",""
"5946","","image-button-response","24","279597","0.0-24.0-0.0","A1BIJGB7XA0GME","img_art/ins/1.jpg","3","","","","","","","","","","","","","","","","","","","","","","","","",""
"3862","","image-button-response","25","283466","0.0-25.0-0.0","A1BIJGB7XA0GME","img_art/ins/1.jpg","5","","","","","","","","","","","","","","","","","","","","","","","","",""
"null","","html-keyboard-response","26","284971","0.0-26.0","A1BIJGB7XA0GME","<p style=""font-size: 48px;"">+</p>","","","","","null","allTrialResponses","1500","1","-2","img_art/ins/1.jpg","-22","This reminds me of Neapolitan melted ice cream ","Allison,Ashley,Beth,Dora,Erika,Jen","looks like a lot of things going on in the mist,20,20,20","I just don't get why these type of art would be popular,-32,40,20","This color reminds me of poo,-46,60,20","looks like what my niece in 3rd grade did this afternoon,-50,80,20","I like the sophisticated brushwork,40,100,20","It reminds me of a candy land dream I had,36,120,20","Ashley","I just don't get why these type of art would be popular,-32,40,20","Dora","looks like what my niece in 3rd grade did this afternoon,-50,80,20","Jen","It reminds me of a candy land dream I had,36,120,20","0"
"37118","","survey-text","27","322103","0.0-27.0-0.0","A1BIJGB7XA0GME","","","","{""Q0"":""Looks like a bunch of squares of different sizes""}","","","","","","","","","","","","","","","","","","","","","","",""
"5171.099999964237","","image-slider-response","28","327278","0.0-28.0","A1BIJGB7XA0GME","","","","","-12","","","","","","","","","","","","","","","","","","","","","",""
"null","","image-button-response","29","332300","0.0-29.0","A1BIJGB7XA0GME","img_art/ins/2.jpg","null","","","","","","","","","","","","","","","","","","","","","","","","",""
"4138","","image-button-response","30","336442","0.0-30.0","A1BIJGB7XA0GME","img_art/ins/2.jpg","5","","","","","","","","","","","","","","","","","","","","","","","","",""
"1934","","image-button-response","31","338381","0.0-31.0-0.0","A1BIJGB7XA0GME","img_art/ins/2.jpg","2","","","","","","","","","","","","","","","","","","","","","","","","",""
"2054","","image-button-response","32","340442","0.0-32.0-0.0","A1BIJGB7XA0GME","img_art/ins/2.jpg","1","","","","","","","","","","","","","","","","","","","","","","","","",""
"null","","html-keyboard-response","33","340946","0.0-33.0","A1BIJGB7XA0GME","<p style=""font-size: 48px;"">+</p>","","","","","null","allTrialResponses","500","1","-1","img_art/ins/2.jpg","-12","Looks like a bunch of squares of different sizes","Jenna,Ashley,Katie,Dora,Kara,Jen","One of my pet peevs,-48,140,20","Idk, it is just annoying,-32,40,20","too much color!,-28,180,20","looks too angry,-50,80,20","I like the blocks of color arrangements,30,160,20","It reminds me of a fireplace,36,120,20","Jen","It reminds me of a fireplace,36,120,20","Katie","too much color!,-28,180,20","Ashley","Idk, it is just annoying,-32,40,20","0"
"17675","","survey-text","34","358639","0.0-34.0-0.0","A1BIJGB7XA0GME","","","","{""Q0"":""love the different shades of blue""}","","","","","","","","","","","","","","","","","","","","","","",""
"5051.899999976158","","image-slider-response","35","363695","0.0-35.0","A1BIJGB7XA0GME","","","","","26","","","","","","","","","","","","","","","","","","","","","",""
"null","","image-button-response","36","368705","0.0-36.0","A1BIJGB7XA0GME","img_art/ins/3.jpg","null","","","","","","","","","","","","","","","","","","","","","","","","",""
"566","","image-button-response","37","369275","0.0-37.0","A1BIJGB7XA0GME","img_art/ins/3.jpg","3","","","","","","","","","","","","","","","","","","","","","","","","",""
"1734","","image-button-response","38","371014","0.0-38.0-0.0","A1BIJGB7XA0GME","img_art/ins/3.jpg","4","","","","","","","","","","","","","","","","","","","","","","","","",""
"1669","","image-button-response","39","372691","0.0-39.0-0.0","A1BIJGB7XA0GME","img_art/ins/3.jpg","5","","","","","","","","","","","","","","","","","","","","","","","","",""
"null","","html-keyboard-response","40","374194","0.0-40.0","A1BIJGB7XA0GME","<p style=""font-size: 48px;"">+</p>","","","","","null","allTrialResponses","1500","1","0","img_art/ins/3.jpg","26","love the different shades of blue","Rose,Ashley,Katie,Leslie,Mary,Jen","My daily routine, it's depressing,-20,240,20","It looks like a playground for bats,-36,40,20","It looks depressing,-26,180,20","It's an alright work,15,200,20","I like the overlapping of brushes,41,220,20","I can feel a rainy day from this painting,18,120,20","Leslie","It's an alright work,15,200,20","Mary","I like the overlapping of brushes,41,220,20","Jen","I can feel a rainy day from this painting,18,120,20","0"
"6780","","image-button-response_instructions","41","380993","0.0-41.0","A1BIJGB7XA0GME","","0","instructions","","","","","","","","","","","","","","","","","","","","","","","",""
"21052","","survey-likert","42","402050","0.0-42.0-0.0","A1BIJGB7XA0GME","","","","{""Q0"":"""",""Q1"":0,""Q2"":1}","","","","","","","","","","","","","","","","","","","","","","",""
"5030","","survey-text","43","407111","0.0-43.0-0.0","A1BIJGB7XA0GME","","","","{""Q0"":""rock""}","","","","","","","","","","","","","","","","","","","","","","",""
"21195","","survey-text","44","428313","0.0-44.0-0.0","A1BIJGB7XA0GME","","","","{""Q0"":""melted golden globe award""}","","","","","","","","","","","","","","","","","","","","","","",""
"3902","","image-slider-response","45","432220","0.0-45.0","A1BIJGB7XA0GME","","","","","-32","","","","","","","","","","","","","","","","","","","","","",""
"null","","image-button-response","46","437324","0.0-46.0","A1BIJGB7XA0GME","img_art/4.jpg","null","","","","","","","","","","","","","","","","","","","","","","","","",""
"6205","","image-button-response","47","443534","0.0-47.0","A1BIJGB7XA0GME","img_art/4.jpg","1","","","","","","","","","","","","","","","","","","","","","","","","",""
"5540","","image-button-response","48","449080","0.0-48.0-0.0","A1BIJGB7XA0GME","img_art/4.jpg","2","","","","","","","","","","","","","","","","","","","","","","","","",""
"4435","","image-button-response","49","453523","0.0-49.0-0.0","A1BIJGB7XA0GME","img_art/4.jpg","4","","","","","","","","","","","","","","","","","","","","","","","","",""
"null","","html-keyboard-response","50","454529","0.0-50.0","A1BIJGB7XA0GME","<p style=""font-size: 48px;"">+</p>","","","","","null","allTrialResponses","1000","1","1","img_art/4.jpg","-32","melted golden globe award","Megan,Mackenzie,Katie,Shannon,Alexa,Hannah","Better version of a 7 year old who got lucky,-23,200,20","I don't enjoy the colors, or texture, it seems like mustard,-23,20,20","Warm colors, but too random. I feel like I'm seeing something mangled. It is unpleasant.,-30,160,20","I think that this picture is too boring in terms of color and it looks ugly.,-41,220,20","A bit too plain for my tastes,-10,40,20","looks very rudimentary and too simple.,-14,240,20","Mackenzie","I don't enjoy the colors, or texture, it seems like mustard,-23,20,20","Katie","Warm colors, but too random. I feel like I'm seeing something mangled. It is unpleasant.,-30,160,20","Alexa","A bit too plain for my tastes,-10,40,20","0"
"24664","","survey-text","51","479211","0.0-51.0-0.0","A1BIJGB7XA0GME","","","","{""Q0"":""This looks like a sad tree""}","","","","","","","","","","","","","","","","","","","","","","",""
"4181","","image-slider-response","52","483396","0.0-52.0","A1BIJGB7XA0GME","","","","","-20","","","","","","","","","","","","","","","","","","","","","",""
"null","","image-button-response","53","488419","0.0-53.0","A1BIJGB7XA0GME","img_art/6.jpg","null","","","","","","","","","","","","","","","","","","","","","","","","",""
"1021","","image-button-response","54","489444","0.0-54.0","A1BIJGB7XA0GME","img_art/6.jpg","3","","","","","","","","","","","","","","","","","","","","","","","","",""
"3630","","image-button-response","55","493080","0.0-55.0-0.0","A1BIJGB7XA0GME","img_art/6.jpg","4","","","","","","","","","","","","","","","","","","","","","","","","",""
"6716","","image-button-response","56","499802","0.0-56.0-0.0","A1BIJGB7XA0GME","img_art/6.jpg","5","","","","","","","","","","","","","","","","","","","","","","","","",""
"null","","html-keyboard-response","57","501311","0.0-57.0","A1BIJGB7XA0GME","<p style=""font-size: 48px;"">+</p>","","","","","null","allTrialResponses","1500","1","2","img_art/6.jpg","-20","This looks like a sad tree","Jasmine,Mackenzie,Katie,Rachel,Alexa,Kaitlyn","Simple and clean,11,340,20","I enjoy the color contrast.,20,20,20","I like the warmth of the orange. But, I feel like it's a partial view. I'm frustrated I can't see the entirety.,-20,160,20","Reminds me of a plant poking through the soil. It reminds me of new life.,31,80,20","Too basic for me,-20,40,20","I like the simplicity of the picture,30,80,20","Rachel","Reminds me of a plant poking through the soil. It reminds me of new life.,31,80,20","Alexa","Too basic for me,-20,40,20","Kaitlyn","I like the simplicity of the picture,30,80,20","0"
"23945","","survey-text","58","525272","0.0-58.0-0.0","A1BIJGB7XA0GME","","","","{""Q0"":""scary and awful looking""}","","","","","","","","","","","","","","","","","","","","","","",""
"4052.300000011921","","image-slider-response","59","529328","0.0-59.0","A1BIJGB7XA0GME","","","","","-38","","","","","","","","","","","","","","","","","","","","","",""
"null","","image-button-response","60","534336","0.0-60.0","A1BIJGB7XA0GME","img_art/25.jpg","null","","","","","","","","","","","","","","","","","","","","","","","","",""
"2747","","image-button-response","61","537088","0.0-61.0","A1BIJGB7XA0GME","img_art/25.jpg","1","","","","","","","","","","","","","","","","","","","","","","","","",""
"3036","","image-button-response","62","540131","0.0-62.0-0.0","A1BIJGB7XA0GME","img_art/25.jpg","0","","","","","","","","","","","","","","","","","","","","","","","","",""
"12046","","image-button-response","63","552184","0.0-63.0-0.0","A1BIJGB7XA0GME","img_art/25.jpg","5","","","","","","","","","","","","","","","","","","","","","","","","",""
"null","","html-keyboard-response","64","553703","0.0-64.0","A1BIJGB7XA0GME","<p style=""font-size: 48px;"">+</p>","","","","","null","allTrialResponses","1500","1","3","img_art/25.jpg","-38","scary and awful looking","Victoria,Madeline,Claire,Rachel,Alexa,Kaitlyn","makes me think of a scary movie,-20,400,20","It looks a bit strange to me, neck too long,-19,40,20","the colors are pretty,11,260,20","I like the green color, but the combination of green and a person with a long neck reminds me of aliens,-27,80,20","It's really neat and cool looking,20,40,20","Love the simplicity and lines,20,80,20","Madeline","It looks a bit strange to me, neck too long,-19,40,20","Victoria","makes me think of a scary movie,-20,400,20","Kaitlyn","Love the simplicity and lines,20,80,20","0"
"28858","","survey-text","65","582578","0.0-65.0-0.0","A1BIJGB7XA0GME","","","","{""Q0"":""this is to drab and dreary looking""}","","","","","","","","","","","","","","","","","","","","","","",""
"3604.699999988079","","image-slider-response","66","586189","0.0-66.0","A1BIJGB7XA0GME","","","","","-24","","","","","","","","","","","","","","","","","","","","","",""
"null","","image-button-response","67","591198","0.0-67.0","A1BIJGB7XA0GME","img_art/22.jpg","null","","","","","","","","","","","","","","","","","","","","","","","","",""
"1079","","image-button-response","68","592282","0.0-68.0","A1BIJGB7XA0GME","img_art/22.jpg","3","","","","","","","","","","","","","","","","","","","","","","","","",""
"4507","","image-button-response","69","596798","0.0-69.0-0.0","A1BIJGB7XA0GME","img_art/22.jpg","5","","","","","","","","","","","","","","","","","","","","","","","","",""
"7198","","image-button-response","70","604003","0.0-70.0-0.0","A1BIJGB7XA0GME","img_art/22.jpg","2","","","","","","","","","","","","","","","","","","","","","","","","",""
"null","","html-keyboard-response","71","604507","0.0-71.0","A1BIJGB7XA0GME","<p style=""font-size: 48px;"">+</p>","","","","","null","allTrialResponses","500","1","4","img_art/22.jpg","-24","this is to drab and dreary looking","Victoria,Madeline,Sierra,Anna,Isabella,Kaitlyn","love how the colors blend,42,400,20","I really like the colors here,3,40,20","colorful. but not much happening,1,260,20","Boring, typical abstract art,-30,300,20","Sunsets at the beach,42,280,20","Would be better if random black object was not present,11,80,20","Anna","Boring, typical abstract art,-30,300,20","Kaitlyn","Would be better if random black object was not present,11,80,20","Sierra","colorful. but not much happening,1,260,20","0"
"30768","","survey-text","72","635309","0.0-72.0-0.0","A1BIJGB7XA0GME","","","","{""Q0"":""looks like a little kids finger painting""}","","","","","","","","","","","","","","","","","","","","","","",""
"5067.800000011921","","image-slider-response","73","640381","0.0-73.0","A1BIJGB7XA0GME","","","","","-14","","","","","","","","","","","","","","","","","","","","","",""
"3334","","image-button-response","74","645388","0.0-74.0","A1BIJGB7XA0GME","img_art/30.jpg","0","","","","","","","","","","","","","","","","","","","","","","","","",""
"1912","","image-button-response","75","647305","0.0-75.0","A1BIJGB7XA0GME","img_art/30.jpg","2","","","","","","","","","","","","","","","","","","","","","","","","",""
"2730","","image-button-response","76","650040","0.0-76.0-0.0","A1BIJGB7XA0GME","img_art/30.jpg","5","","","","","","","","","","","","","","","","","","","","","","","","",""
"3708","","image-button-response","77","653753","0.0-77.0-0.0","A1BIJGB7XA0GME","img_art/30.jpg","0","","","","","","","","","","","","","","","","","","","","","","","","",""
"null","","html-keyboard-response","78","654757","0.0-78.0","A1BIJGB7XA0GME","<p style=""font-size: 48px;"">+</p>","","","","","null","allTrialResponses","1000","1","5","img_art/30.jpg","-14","looks like a little kids finger painting","Christina,Allison,Sierra,Anna,Molly,Kaitlyn","it looks like some thing I could make it my garage,-18,240,20","Dislike the contrast here.,-5,140,20","i dont like how the colors are mixed,-6,260,20","It looks like a pretty but unremarkable painting in a doctors office,15,300,20","I like the way the artist has painted his work.,40,340,20","Do not like the streaks,-14,80,20","Sierra","i dont like how the colors are mixed,-6,260,20","Kaitlyn","Do not like the streaks,-14,80,20","Christina","it looks like some thing I could make it my garage,-18,240,20","0"
"5491","","survey-text","79","660283","0.0-79.0-0.0","A1BIJGB7XA0GME","","","","{""Q0"":""sky""}","","","","","","","","","","","","","","","","","","","","","","",""
"36263","","survey-text","80","696549","0.0-80.0-0.0","A1BIJGB7XA0GME","","","","{""Q0"":""picture would be alright if not for the dots on the side""}","","","","","","","","","","","","","","","","","","","","","","",""
"3333.5","","image-slider-response","81","699887","0.0-81.0","A1BIJGB7XA0GME","","","","","-5","","","","","","","","","","","","","","","","","","","","","",""
"null","","image-button-response","82","704906","0.0-82.0","A1BIJGB7XA0GME","img_art/21.jpg","null","","","","","","","","","","","","","","","","","","","","","","","","",""
"2441","","image-button-response","83","707350","0.0-83.0","A1BIJGB7XA0GME","img_art/21.jpg","3","","","","","","","","","","","","","","","","","","","","","","","","",""
"4360","","image-button-response","84","711717","0.0-84.0-0.0","A1BIJGB7XA0GME","img_art/21.jpg","4","","","","","","","","","","","","","","","","","","","","","","","","",""
"2969","","image-button-response","85","714693","0.0-85.0-0.0","A1BIJGB7XA0GME","img_art/21.jpg","5","","","","","","","","","","","","","","","","","","","","","","","","",""
"null","","html-keyboard-response","86","715198","0.0-86.0","A1BIJGB7XA0GME","<p style=""font-size: 48px;"">+</p>","","","","","null","allTrialResponses","500","1","6","img_art/21.jpg","-5","picture would be alright if not for the dots on the side","Christina,Alexis,Sierra,Brianna,Rebecca,Kaitlyn","it has a lot of happy colors and it's very classic looking,35,240,20","I love this. Reminds me of a coast. The colors flow beautifully,40,100,20","i like the way the colors divide the canvas.,16,260,20","Don't really lean either way.,1,20,20","stormy with gold lining,0,100,20","The division in the picture is pleasing but the random white dots are distracting,12,80,20","Brianna","Don't really lean either way.,1,20,20","Rebecca","stormy with gold lining,0,100,20","Kaitlyn","The division in the picture is pleasing but the random white dots are distracting,12,80,20","0"
"34746","","survey-text","87","749973","0.0-87.0-0.0","A1BIJGB7XA0GME","","","","{""Q0"":""I like the color contrast""}","","","","","","","","","","","","","","","","","","","","","","",""
"6578.399999976158","","image-slider-response","88","756557","0.0-88.0","A1BIJGB7XA0GME","","","","","13","","","","","","","","","","","","","","","","","","","","","",""
"null","","image-button-response","89","761565","0.0-89.0","A1BIJGB7XA0GME","img_art/12.jpg","null","","","","","","","","","","","","","","","","","","","","","","","","",""
"618","","image-button-response","90","762188","0.0-90.0","A1BIJGB7XA0GME","img_art/12.jpg","2","","","","","","","","","","","","","","","","","","","","","","","","",""
"6362","","image-button-response","91","768556","0.0-91.0-0.0","A1BIJGB7XA0GME","img_art/12.jpg","4","","","","","","","","","","","","","","","","","","","","","","","","",""
"1647","","image-button-response","92","770211","0.0-92.0-0.0","A1BIJGB7XA0GME","img_art/12.jpg","5","","","","","","","","","","","","","","","","","","","","","","","","",""
"null","","html-keyboard-response","93","771721","0.0-93.0","A1BIJGB7XA0GME","<p style=""font-size: 48px;"">+</p>","","","","","null","allTrialResponses","1500","1","7","img_art/12.jpg","13","I like the color contrast","Hailey,Bailey,Elizabeth,Brianna,Rebecca,Kaitlyn","negative feelings with these blocks,-20,200,20","Too many blocks. I can't see a purpose or a focal point,-44,360,20","Explosion of texture,31,20,20","Don't like it or despise it,1,20,20","so many different available interpretations for this, would love to closer.,24,100,20","The shapes present in the picture make it very interesting,17,80,20","Elizabeth","Explosion of texture,31,20,20","Rebecca","so many different available interpretations for this, would love to closer.,24,100,20","Kaitlyn","The shapes present in the picture make it very interesting,17,80,20","0"
"25373","","survey-text","94","797119","0.0-94.0-0.0","A1BIJGB7XA0GME","","","","{""Q0"":""I like the happy waterfall forest theme""}","","","","","","","","","","","","","","","","","","","","","","",""
"4029.5","","image-slider-response","95","801153","0.0-95.0","A1BIJGB7XA0GME","","","","","37","","","","","","","","","","","","","","","","","","","","","",""
"3332","","image-button-response","96","806161","0.0-96.0","A1BIJGB7XA0GME","img_art/24.jpg","0","","","","","","","","","","","","","","","","","","","","","","","","",""
"852","","image-button-response","97","807019","0.0-97.0","A1BIJGB7XA0GME","img_art/24.jpg","1","","","","","","","","","","","","","","","","","","","","","","","","",""
"1727","","image-button-response","98","808751","0.0-98.0-0.0","A1BIJGB7XA0GME","img_art/24.jpg","0","","","","","","","","","","","","","","","","","","","","","","","","",""
"4808","","image-button-response","99","813566","0.0-99.0-0.0","A1BIJGB7XA0GME","img_art/24.jpg","2","","","","","","","","","","","","","","","","","","","","","","","","",""
"null","","html-keyboard-response","100","814571","0.0-100.0","A1BIJGB7XA0GME","<p style=""font-size: 48px;"">+</p>","","","","","null","allTrialResponses","1000","1","8","img_art/24.jpg","37","I like the happy waterfall forest theme","Andrea,Alicia,Elizabeth,Leslie,Rebecca,Kaitlyn","Waterfall, and I love the coloring.,48,240,20","Nature, abstract, I'd hang this in my house.,37,120,20","Evokes pleasant feelings,50,20,20","The colors look nice, but the painting bores me.,-20,380,20","organized mess at first glance, would love to inspect this in closer proximity,39,100,20","I like the bright colors,16,80,20","Alicia","Nature, abstract, I'd hang this in my house.,37,120,20","Andrea","Waterfall, and I love the coloring.,48,240,20","Elizabeth","Evokes pleasant feelings,50,20,20","0"
"38346","","survey-text","101","852945","0.0-101.0-0.0","A1BIJGB7XA0GME","","","","{""Q0"":""reminds me of seeing crab boats in the ocean""}","","","","","","","","","","","","","","","","","","","","","","",""
"4151.699999988079","","image-slider-response","102","857101","0.0-102.0","A1BIJGB7XA0GME","","","","","10","","","","","","","","","","","","","","","","","","","","","",""
"4812","","image-button-response","103","862109","0.0-103.0","A1BIJGB7XA0GME","img_art/11.jpg","0","","","","","","","","","","","","","","","","","","","","","","","","",""
"934","","image-button-response","104","863047","0.0-104.0","A1BIJGB7XA0GME","img_art/11.jpg","0","","","","","","","","","","","","","","","","","","","","","","","","",""
"4635","","image-button-response","105","867687","0.0-105.0-0.0","A1BIJGB7XA0GME","img_art/11.jpg","2","","","","","","","","","","","","","","","","","","","","","","","","",""
"7210","","image-button-response","106","874904","0.0-106.0-0.0","A1BIJGB7XA0GME","img_art/11.jpg","5","","","","","","","","","","","","","","","","","","","","","","","","",""
"null","","html-keyboard-response","107","875419","0.0-107.0","A1BIJGB7XA0GME","<p style=""font-size: 48px;"">+</p>","","","","","null","allTrialResponses","500","1","9","img_art/11.jpg","10","reminds me of seeing crab boats in the ocean","Andrea,Alicia,Elizabeth,Mariah,Kelly,Lauren","My initial thought was roller coasters but I see ship masts on a cloudy day too.,35,240,20","dna, odd but nice.,25,120,20","Very unique piece of art,50,20,20","The colors are lovely. February getting ready to yield to March.,41,140,20","Its a little psychedelic.,10,220,20","I like how this piece can be interpreted in different ways, such as a village on hilly terrain.,10,340,20","Andrea","My initial thought was roller coasters but I see ship masts on a cloudy day too.,35,240,20","Elizabeth","Very unique piece of art,50,20,20","Lauren","I like how this piece can be interpreted in different ways, such as a village on hilly terrain.,10,340,20","0"
"31083","","survey-text","108","906525","0.0-108.0-0.0","A1BIJGB7XA0GME","","","","{""Q0"":""I think someone could not make up their mind what they wanted to paint""}","","","","","","","","","","","","","","","","","","","","","","",""
"2757.2000000476837","","image-slider-response","109","909287","0.0-109.0","A1BIJGB7XA0GME","","","","","-19","","","","","","","","","","","","","","","","","","","","","",""
"null","","image-button-response","110","914294","0.0-110.0","A1BIJGB7XA0GME","img_art/10.jpg","null","","","","","","","","","","","","","","","","","","","","","","","","",""
"2018","","image-button-response","111","916316","0.0-111.0","A1BIJGB7XA0GME","img_art/10.jpg","1","","","","","","","","","","","","","","","","","","","","","","","","",""
"3772","","image-button-response","112","920094","0.0-112.0-0.0","A1BIJGB7XA0GME","img_art/10.jpg","5","","","","","","","","","","","","","","","","","","","","","","","","",""
"4325","","image-button-response","113","924428","0.0-113.0-0.0","A1BIJGB7XA0GME","img_art/10.jpg","4","","","","","","","","","","","","","","","","","","","","","","","","",""
"null","","html-keyboard-response","114","925931","0.0-114.0","A1BIJGB7XA0GME","<p style=""font-size: 48px;"">+</p>","","","","","null","allTrialResponses","1500","1","10","img_art/10.jpg","-19","I think someone could not make up their mind what they wanted to paint","Andrea,Cynthia,Elizabeth,Kimberly,Kylie,Lauren","Kraken, and I love it.,39,240,20","cultural with a symphony,40,320,20","Has an air of mystery around it,39,20,20","Also too all over the place, I don't see any pattern or anything that's supposed to stand out,-19,260,20","Musical guitar whimsy,45,300,20","I can't really tell what this is suppose to represent, but overall I don't like the design.,-20,340,20","Cynthia","cultural with a symphony,40,320,20","Lauren","I can't really tell what this is suppose to represent, but overall I don't like the design.,-20,340,20","Kylie","Musical guitar whimsy,45,300,20","0"
"6507","","survey-text","115","932503","0.0-115.0-0.0","A1BIJGB7XA0GME","","","","{""Q0"":""our""}","","","","","","","","","","","","","","","","","","","","","","",""
"18949","","survey-text","116","951456","0.0-116.0-0.0","A1BIJGB7XA0GME","","","","{""Q0"":""picture of Mars""}","","","","","","","","","","","","","","","","","","","","","","",""
"2733.300000011921","","image-slider-response","117","954193","0.0-117.0","A1BIJGB7XA0GME","","","","","26","","","","","","","","","","","","","","","","","","","","","",""
"null","","image-button-response","118","959201","0.0-118.0","A1BIJGB7XA0GME","img_art/7.jpg","null","","","","","","","","","","","","","","","","","","","","","","","","",""
"502","","image-button-response","119","959708","0.0-119.0","A1BIJGB7XA0GME","img_art/7.jpg","2","","","","","","","","","","","","","","","","","","","","","","","","",""
"8675","","image-button-response","120","968388","0.0-120.0-0.0","A1BIJGB7XA0GME","img_art/7.jpg","5","","","","","","","","","","","","","","","","","","","","","","","","",""
"2982","","image-button-response","121","971377","0.0-121.0-0.0","A1BIJGB7XA0GME","img_art/7.jpg","0","","","","","","","","","","","","","","","","","","","","","","","","",""
"null","","html-keyboard-response","122","972384","0.0-122.0","A1BIJGB7XA0GME","<p style=""font-size: 48px;"">+</p>","","","","","null","allTrialResponses","1000","1","11","img_art/7.jpg","26","picture of Mars","Sophia,Cynthia,Briana,Stephanie,Kylie,Lauren","Is this cookie dough?  Yum!,-10,280,20","time and change,1,320,20","Are these ancient cave paintings?,-7,400,20","This looks muddy and stomped on. I think of destruction.,-50,300,20","No particular reaction to this,10,300,20","I like how the image has a sense of history, since the style looks like it came from stone.,20,340,20","Briana","Are these ancient cave paintings?,-7,400,20","Lauren","I like how the image has a sense of history, since the style looks like it came from stone.,20,340,20","Sophia","Is this cookie dough?  Yum!,-10,280,20","0"
"22800","","survey-text","123","995211","0.0-123.0-0.0","A1BIJGB7XA0GME","","","","{""Q0"":""I like how the blue is in contrast with the black""}","","","","","","","","","","","","","","","","","","","","","","",""
"2314.600000023842","","image-slider-response","124","997529","0.0-124.0","A1BIJGB7XA0GME","","","","","24","","","","","","","","","","","","","","","","","","","","","",""
"2805","","image-button-response","125","1002537","0.0-125.0","A1BIJGB7XA0GME","img_art/15.jpg","4","","","","","","","","","","","","","","","","","","","","","","","","",""
"1098","","image-button-response","126","1003640","0.0-126.0","A1BIJGB7XA0GME","img_art/15.jpg","4","","","","","","","","","","","","","","","","","","","","","","","","",""
"9413","","image-button-response","127","1013062","0.0-127.0-0.0","A1BIJGB7XA0GME","img_art/15.jpg","5","","","","","","","","","","","","","","","","","","","","","","","","",""
"7464","","image-button-response","128","1020532","0.0-128.0-0.0","A1BIJGB7XA0GME","img_art/15.jpg","2","","","","","","","","","","","","","","","","","","","","","","","","",""
"null","","html-keyboard-response","129","1021538","0.0-129.0","A1BIJGB7XA0GME","<p style=""font-size: 48px;"">+</p>","","","","","null","allTrialResponses","1000","1","12","img_art/15.jpg","24","I like how the blue is in contrast with the black","Sophia,Sabrina,Briana,Jessica,Amber,Lauren","I feel like there's ski jumping going on here.,2,280,20","Extreme darkness and sadness,-30,120,20","It reminds me of when you look up into a tree,21,400,20","I think it's trying to execute a cool idea, but unfortunately it doesn't appeal,5,400,20","Reminds me of blueberry bushes.,7,200,20","Hard to tell what I'm looking at, but it does a gives a slight impression of a of garden.,5,340,20","Amber","Reminds me of blueberry bushes.,7,200,20","Lauren","Hard to tell what I'm looking at, but it does a gives a slight impression of a of garden.,5,340,20","Briana","It reminds me of when you look up into a tree,21,400,20","0"
"35598","","survey-text","130","1057165","0.0-130.0-0.0","A1BIJGB7XA0GME","","","","{""Q0"":""I like the colors and a person can see many different things going on ""}","","","","","","","","","","","","","","","","","","","","","","",""
"7220.100000023842","","image-slider-response","131","1064389","0.0-131.0","A1BIJGB7XA0GME","","","","","30","","","","","","","","","","","","","","","","","","","","","",""
"null","","image-button-response","132","1069396","0.0-132.0","A1BIJGB7XA0GME","img_art/28.jpg","null","","","","","","","","","","","","","","","","","","","","","","","","",""
"3249","","image-button-response","133","1072650","0.0-133.0","A1BIJGB7XA0GME","img_art/28.jpg","1","","","","","","","","","","","","","","","","","","","","","","","","",""
"7365","","image-button-response","134","1080021","0.0-134.0-0.0","A1BIJGB7XA0GME","img_art/28.jpg","4","","","","","","","","","","","","","","","","","","","","","","","","",""
"1504","","image-button-response","135","1081534","0.0-135.0-0.0","A1BIJGB7XA0GME","img_art/28.jpg","5","","","","","","","","","","","","","","","","","","","","","","","","",""
"null","","html-keyboard-response","136","1082039","0.0-136.0","A1BIJGB7XA0GME","<p style=""font-size: 48px;"">+</p>","","","","","null","allTrialResponses","500","1","13","img_art/28.jpg","30","I like the colors and a person can see many different things going on ","Angelica,Tiffany,Briana,Jamie,Amber,Lauren","This is very ugly with poor colors.,-23,280,20","It makes me feel happy, and a little anxious.,50,360,20","Is this anything?,-20,400,20","Gloomy colors and picture,5,320,20","Colors are too dull.,-30,200,20","I feel that the image is invoking a sense of negativity.,-15,340,20","Tiffany","It makes me feel happy, and a little anxious.,50,360,20","Amber","Colors are too dull.,-30,200,20","Lauren","I feel that the image is invoking a sense of negativity.,-15,340,20","0"
"29565","","survey-text","137","1111639","0.0-137.0-0.0","A1BIJGB7XA0GME","","","","{""Q0"":""Looking into a deep well with things floating in it""}","","","","","","","","","","","","","","","","","","","","","","",""
"4823","","image-slider-response","138","1116465","0.0-138.0","A1BIJGB7XA0GME","","","","","-26","","","","","","","","","","","","","","","","","","","","","",""
"2699","","image-button-response","139","1121475","0.0-139.0","A1BIJGB7XA0GME","img_art/29.jpg","0","","","","","","","","","","","","","","","","","","","","","","","","",""
"1020","","image-button-response","140","1122500","0.0-140.0","A1BIJGB7XA0GME","img_art/29.jpg","0","","","","","","","","","","","","","","","","","","","","","","","","",""
"3062","","image-button-response","141","1125568","0.0-141.0-0.0","A1BIJGB7XA0GME","img_art/29.jpg","2","","","","","","","","","","","","","","","","","","","","","","","","",""
"10425","","image-button-response","142","1135998","0.0-142.0-0.0","A1BIJGB7XA0GME","img_art/29.jpg","3","","","","","","","","","","","","","","","","","","","","","","","","",""
"null","","html-keyboard-response","143","1137002","0.0-143.0","A1BIJGB7XA0GME","<p style=""font-size: 48px;"">+</p>","","","","","null","allTrialResponses","1000","1","14","img_art/29.jpg","-26","Looking into a deep well with things floating in it","Abigail,Tiffany,Danielle,Emily,Amber,Lauren","Messy and disorganized, to odark,-31,20,20","I feel a little disgust. There is something off-putting about the smooth shapes and dark colors.,-43,360,20","Quite ugly in my opinion,-30,340,20","Looks literally like garbage.,-45,40,20","Don't like the red X across the painting.,-15,200,20","Don't really like the red x. It gives the impression that this a discarded piece.,-10,340,20","Abigail","Messy and disorganized, to odark,-31,20,20","Danielle","Quite ugly in my opinion,-30,340,20","Emily","Looks literally like garbage.,-45,40,20","0"
"21368","","survey-text","144","1158401","0.0-144.0-0.0","A1BIJGB7XA0GME","","","","{""Q0"":""Happy people dancing under the lights""}","","","","","","","","","","","","","","","","","","","","","","",""
"4199.699999988079","","image-slider-response","145","1162605","0.0-145.0","A1BIJGB7XA0GME","","","","","11","","","","","","","","","","","","","","","","","","","","","",""
"4341","","image-button-response","146","1167614","0.0-146.0","A1BIJGB7XA0GME","img_art/23.jpg","1","","","","","","","","","","","","","","","","","","","","","","","","",""
"862","","image-button-response","147","1168479","0.0-147.0","A1BIJGB7XA0GME","img_art/23.jpg","1","","","","","","","","","","","","","","","","","","","","","","","","",""
"2487","","image-button-response","148","1170971","0.0-148.0-0.0","A1BIJGB7XA0GME","img_art/23.jpg","0","","","","","","","","","","","","","","","","","","","","","","","","",""
"726","","image-button-response","149","1171701","0.0-149.0-0.0","A1BIJGB7XA0GME","img_art/23.jpg","0","","","","","","","","","","","","","","","","","","","","","","","","",""
"1416","","image-button-response","150","1186003","0.0-149.1-0.1","A1BIJGB7XA0GME","img_art/23.jpg","2","","","","","","","","","","","","","","","","","","","","","","","","",""
"null","","html-keyboard-response","151","1187507","0.0-150.0","A1BIJGB7XA0GME","<p style=""font-size: 48px;"">+</p>","","","","","null","allTrialResponses","1500","1","15","img_art/23.jpg","11","Happy people dancing under the lights","Abigail,Meghan,Danielle,Emily,Natalie,Sarah","I like the contrast,29,20,20","reminds me of an album cover,36,220,20","While I don't normally enjoy these color schemes all together, I kind of like this one,10,340,20","I don't get it.,-40,40,20","so much detail .,31,400,20","it's not uninteresting, but i'm not responding to it,-7,180,20","Meghan","reminds me of an album cover,36,220,20","Abigail","I like the contrast,29,20,20","Danielle","While I don't normally enjoy these color schemes all together, I kind of like this one,10,340,20","2"
"6189","","survey-text","152","1193773","0.0-151.0-0.0","A1BIJGB7XA0GME","","","","{""Q0"":""course""}","","","","","","","","","","","","","","","","","","","","","","",""
"23987","","survey-text","153","1217764","0.0-152.0-0.0","A1BIJGB7XA0GME","","","","{""Q0"":""I like the real with the abstract""}","","","","","","","","","","","","","","","","","","","","","","",""
"3790.100000023842","","image-slider-response","154","1221558","0.0-153.0","A1BIJGB7XA0GME","","","","","12","","","","","","","","","","","","","","","","","","","","","",""
"null","","image-button-response","155","1226587","0.0-154.0","A1BIJGB7XA0GME","img_art/16.jpg","null","","","","","","","","","","","","","","","","","","","","","","","","",""
"3688","","image-button-response","156","1230281","0.0-155.0","A1BIJGB7XA0GME","img_art/16.jpg","2","","","","","","","","","","","","","","","","","","","","","","","","",""
"10189","","image-button-response","157","1240479","0.0-156.0-0.0","A1BIJGB7XA0GME","img_art/16.jpg","1","","","","","","","","","","","","","","","","","","","","","","","","",""
"6278","","image-button-response","158","1246765","0.0-157.0-0.0","A1BIJGB7XA0GME","img_art/16.jpg","5","","","","","","","","","","","","","","","","","","","","","","","","",""
"null","","html-keyboard-response","159","1247281","0.0-158.0","A1BIJGB7XA0GME","<p style=""font-size: 48px;"">+</p>","","","","","null","allTrialResponses","500","1","16","img_art/16.jpg","12","I like the real with the abstract","Abigail,Meghan,Danielle,Cassidy,Marissa,Angela","The bear makes me very uncomfortable,-50,20,20","feels chaotic and morbid,-39,220,20","I enjoy how slightly strange this is, while seeming to still have some message,20,340,20","I don't know why, I just don't like it,-28,140,20","I do not like this dark and twisted portrayal of childhood,-42,160,20","Hate this, especially the jarring contrast of the super realistic teddybear face.,-50,260,20","Danielle","I enjoy how slightly strange this is, while seeming to still have some message,20,340,20","Meghan","feels chaotic and morbid,-39,220,20","Angela","Hate this, especially the jarring contrast of the super realistic teddybear face.,-50,260,20","2"
"18658","","survey-text","160","1265977","0.0-159.0-0.0","A1BIJGB7XA0GME","","","","{""Q0"":""I like how the colors come together ""}","","","","","","","","","","","","","","","","","","","","","","",""
"2371.699999988079","","image-slider-response","161","1268353","0.0-160.0","A1BIJGB7XA0GME","","","","","8","","","","","","","","","","","","","","","","","","","","","",""
"4679","","image-button-response","162","1273376","0.0-161.0","A1BIJGB7XA0GME","img_art/18.jpg","1","","","","","","","","","","","","","","","","","","","","","","","","",""
"630","","image-button-response","163","1274017","0.0-162.0","A1BIJGB7XA0GME","img_art/18.jpg","1","","","","","","","","","","","","","","","","","","","","","","","","",""
"4645","","image-button-response","164","1278668","0.0-163.0-0.0","A1BIJGB7XA0GME","img_art/18.jpg","3","","","","","","","","","","","","","","","","","","","","","","","","",""
"4368","","image-button-response","165","1283042","0.0-164.0-0.0","A1BIJGB7XA0GME","img_art/18.jpg","4","","","","","","","","","","","","","","","","","","","","","","","","",""
"null","","html-keyboard-response","166","1283547","0.0-165.0","A1BIJGB7XA0GME","<p style=""font-size: 48px;"">+</p>","","","","","null","allTrialResponses","500","1","17","img_art/18.jpg","8","I like how the colors come together ","Monica,Meghan,Danielle,Jacqueline,Erica,Angela","It doesn't look like much, the colors are dark and it doesn't really make me feel anything.,-2,360,20","reminds me of sailors on a boat,17,220,20","Doesn't really speak to me well but I can appreciate it,10,340,20","Kinda neat, looks like cavalry, or a knight.,15,300,20","Makes me to look at it and investigate what it is about and what is going on,17,80,20","like the grays and contrast of the yellow. This piece feels a bit angry,10,260,20","Meghan","reminds me of sailors on a boat,17,220,20","Jacqueline","Kinda neat, looks like cavalry, or a knight.,15,300,20","Erica","Makes me to look at it and investigate what it is about and what is going on,17,80,20","2"
"18545","","survey-text","167","1302126","0.0-166.0-0.0","A1BIJGB7XA0GME","","","","{""Q0"":""This looks like a crime scene""}","","","","","","","","","","","","","","","","","","","","","","",""
"5516.399999976158","","image-slider-response","168","1307649","0.0-167.0","A1BIJGB7XA0GME","","","","","-33","","","","","","","","","","","","","","","","","","","","","",""
"null","","image-button-response","169","1312658","0.0-168.0","A1BIJGB7XA0GME","img_art/3.jpg","null","","","","","","","","","","","","","","","","","","","","","","","","",""
"2091","","image-button-response","170","1314753","0.0-169.0","A1BIJGB7XA0GME","img_art/3.jpg","4","","","","","","","","","","","","","","","","","","","","","","","","",""
"3815","","image-button-response","171","1318573","0.0-170.0-0.0","A1BIJGB7XA0GME","img_art/3.jpg","3","","","","","","","","","","","","","","","","","","","","","","","","",""
"9975","","image-button-response","172","1328557","0.0-171.0-0.0","A1BIJGB7XA0GME","img_art/3.jpg","0","","","","","","","","","","","","","","","","","","","","","","","","",""
"null","","html-keyboard-response","173","1330074","0.0-172.0","A1BIJGB7XA0GME","<p style=""font-size: 48px;"">+</p>","","","","","null","allTrialResponses","1500","1","18","img_art/3.jpg","-33","This looks like a crime scene","Samantha,Meghan,Gabriela,Jacqueline,Erica,Autumn","Too angry and scribbly,-43,140,20","I like that it's messy,14,220,20","It looks like a child drawing,-29,140,20","Looks like a bloody head with teeth.,-16,300,20","Associates with blood and crime scene,-12,80,20","Unfocused and rushed.,-28,340,20","Erica","Associates with blood and crime scene,-12,80,20","Jacqueline","Looks like a bloody head with teeth.,-16,300,20","Samantha","Too angry and scribbly,-43,140,20","2"
"28545","","survey-text","174","1358653","0.0-173.0-0.0","A1BIJGB7XA0GME","","","","{""Q0"":""This looks like a outdoor scene with benches""}","","","","","","","","","","","","","","","","","","","","","","",""
"2776.699999988079","","image-slider-response","175","1361433","0.0-174.0","A1BIJGB7XA0GME","","","","","8","","","","","","","","","","","","","","","","","","","","","",""
"3791","","image-button-response","176","1366448","0.0-175.0","A1BIJGB7XA0GME","img_art/26.jpg","0","","","","","","","","","","","","","","","","","","","","","","","","",""
"733","","image-button-response","177","1367185","0.0-176.0","A1BIJGB7XA0GME","img_art/26.jpg","0","","","","","","","","","","","","","","","","","","","","","","","","",""
"4447","","image-button-response","178","1371637","0.0-177.0-0.0","A1BIJGB7XA0GME","img_art/26.jpg","2","","","","","","","","","","","","","","","","","","","","","","","","",""
"4569","","image-button-response","179","1376214","0.0-178.0-0.0","A1BIJGB7XA0GME","img_art/26.jpg","5","","","","","","","","","","","","","","","","","","","","","","","","",""
"null","","html-keyboard-response","180","1377730","0.0-179.0","A1BIJGB7XA0GME","<p style=""font-size: 48px;"">+</p>","","","","","null","allTrialResponses","1500","1","19","img_art/26.jpg","8","This looks like a outdoor scene with benches","Samantha,Laura,Kelsey,Jacqueline,Erica,Heather","I like the colors and trees. Seems cheap vintage retail store art but i love it anyways,50,140,20","juvenile, faint and weak,-41,320,20","this is nice!! i like the muted colors,34,240,20","I don't really see the point in this painting.,-16,300,20","very relaxing and easy going,22,80,20","neighborhood and trees. i wonder if this is water paint.,1,260,20","Samantha","I like the colors and trees. Seems cheap vintage retail store art but i love it anyways,50,140,20","Kelsey","this is nice!! i like the muted colors,34,240,20","Heather","neighborhood and trees. i wonder if this is water paint.,1,260,20","2"
"21757","","survey-text","181","1399521","0.0-180.0-0.0","A1BIJGB7XA0GME","","","","{""Q0"":""Messy with very little detail""}","","","","","","","","","","","","","","","","","","","","","","",""
"3000.100000023842","","image-slider-response","182","1402525","0.0-181.0","A1BIJGB7XA0GME","","","","","-19","","","","","","","","","","","","","","","","","","","","","",""
"null","","image-button-response","183","1407534","0.0-182.0","A1BIJGB7XA0GME","img_art/1.jpg","null","","","","","","","","","","","","","","","","","","","","","","","","",""
"11953","","image-button-response","184","1419493","0.0-183.0","A1BIJGB7XA0GME","img_art/1.jpg","2","","","","","","","","","","","","","","","","","","","","","","","","",""
"1398","","image-button-response","185","1420897","0.0-184.0-0.0","A1BIJGB7XA0GME","img_art/1.jpg","1","","","","","","","","","","","","","","","","","","","","","","","","",""
"7883","","image-button-response","186","1428789","0.0-185.0-0.0","A1BIJGB7XA0GME","img_art/1.jpg","4","","","","","","","","","","","","","","","","","","","","","","","","",""
"null","","html-keyboard-response","187","1429794","0.0-186.0","A1BIJGB7XA0GME","<p style=""font-size: 48px;"">+</p>","","","","","null","allTrialResponses","1000","1","20","img_art/1.jpg","-19","Messy with very little detail","Samantha,Taylor,Kelsey,Sydney,Kristen,Heather","Love the colors but it makes me feel like someone is looking at me through it,38,140,20","Makes me think of a bad thunderstorm,11,340,20","this ones alright,10,240,20","I like the way that the colors blend.,35,320,20","river, fall, cozy, warm,12,280,20","the colors are vibrant and beautiful,1,260,20","Kelsey","this ones alright,10,240,20","Taylor","Makes me think of a bad thunderstorm,11,340,20","Kristen","river, fall, cozy, warm,12,280,20","2"
"3734","","survey-text","188","1433595","0.0-187.0-0.0","A1BIJGB7XA0GME","","","","{""Q0"":""we""}","","","","","","","","","","","","","","","","","","","","","","",""
"36608","","survey-text","189","1470207","0.0-188.0-0.0","A1BIJGB7XA0GME","","","","{""Q0"":""Not sure what to think but I like the yellow""}","","","","","","","","","","","","","","","","","","","","","","",""
"3504","","image-slider-response","190","1473715","0.0-189.0","A1BIJGB7XA0GME","","","","","-35","","","","","","","","","","","","","","","","","","","","","",""
"3573","","image-button-response","191","1478724","0.0-190.0","A1BIJGB7XA0GME","img_art/5.jpg","1","","","","","","","","","","","","","","","","","","","","","","","","",""
"821","","image-button-response","192","1479549","0.0-191.0","A1BIJGB7XA0GME","img_art/5.jpg","1","","","","","","","","","","","","","","","","","","","","","","","","",""
"13921","","image-button-response","193","1493476","0.0-192.0-0.0","A1BIJGB7XA0GME","img_art/5.jpg","5","","","","","","","","","","","","","","","","","","","","","","","","",""
"2277","","image-button-response","194","1495760","0.0-193.0-0.0","A1BIJGB7XA0GME","img_art/5.jpg","2","","","","","","","","","","","","","","","","","","","","","","","","",""
"null","","html-keyboard-response","195","1497264","0.0-194.0","A1BIJGB7XA0GME","<p style=""font-size: 48px;"">+</p>","","","","","null","allTrialResponses","1500","1","21","img_art/5.jpg","-35","Not sure what to think but I like the yellow","Erin,Taylor,Kelsey,Michaela,Kristen,Jenna","Flame, candle, wind,30,120,20","Doesn't make me think anything,-1,340,20","too abstract, looks like a pyramid,-22,240,20","Pretty simple, I'm not sure what it's supposed to mean,14,260,20","sharp, painful yet playful,-5,280,20","it's okay. the colors are eye catching, but that's about it.,3,360,20","Taylor","Doesn't make me think anything,-1,340,20","Jenna","it's okay. the colors are eye catching, but that's about it.,3,360,20","Kelsey","too abstract, looks like a pyramid,-22,240,20","2"
"25248","","survey-text","196","1522549","0.0-195.0-0.0","A1BIJGB7XA0GME","","","","{""Q0"":""These colors together are boring and bland""}","","","","","","","","","","","","","","","","","","","","","","",""
"3304.399999976158","","image-slider-response","197","1525857","0.0-196.0","A1BIJGB7XA0GME","","","","","-21","","","","","","","","","","","","","","","","","","","","","",""
"3635","","image-button-response","198","1530880","0.0-197.0","A1BIJGB7XA0GME","img_art/2.jpg","3","","","","","","","","","","","","","","","","","","","","","","","","",""
"1798","","image-button-response","199","1532683","0.0-198.0","A1BIJGB7XA0GME","img_art/2.jpg","3","","","","","","","","","","","","","","","","","","","","","","","","",""
"4383","","image-button-response","200","1537072","0.0-199.0-0.0","A1BIJGB7XA0GME","img_art/2.jpg","1","","","","","","","","","","","","","","","","","","","","","","","","",""
"2149","","image-button-response","201","1539229","0.0-200.0-0.0","A1BIJGB7XA0GME","img_art/2.jpg","2","","","","","","","","","","","","","","","","","","","","","","","","",""
"null","","html-keyboard-response","202","1540733","0.0-201.0","A1BIJGB7XA0GME","<p style=""font-size: 48px;"">+</p>","","","","","null","allTrialResponses","1500","1","22","img_art/2.jpg","-21","These colors together are boring and bland","Makayla,Taylor,Kelsey,Amanda,Gabrielle,Jenna","I don't feel indifferent,4,80,20","Doesn't give me a reaction,10,340,20","i dont like it, no thank you,-28,240,20","Very simple and childish,40,180,20","doctor's office art work, nice colors and not offensive,23,160,20","the colors are a bit odd, and the squiggly line at the top is distracting,0,360,20","Amanda","Very simple and childish,40,180,20","Taylor","Doesn't give me a reaction,10,340,20","Kelsey","i dont like it, no thank you,-28,240,20","2"
"15881","","survey-text","203","1556661","0.0-202.0-0.0","A1BIJGB7XA0GME","","","","{""Q0"":""Rwminds me of rain on a window""}","","","","","","","","","","","","","","","","","","","","","","",""
"4214.100000023842","","image-slider-response","204","1560879","0.0-203.0","A1BIJGB7XA0GME","","","","","35","","","","","","","","","","","","","","","","","","","","","",""
"3679","","image-button-response","205","1565890","0.0-204.0","A1BIJGB7XA0GME","img_art/13.jpg","0","","","","","","","","","","","","","","","","","","","","","","","","",""
"952","","image-button-response","206","1566847","0.0-205.0","A1BIJGB7XA0GME","img_art/13.jpg","0","","","","","","","","","","","","","","","","","","","","","","","","",""
"3335","","image-button-response","207","1570186","0.0-206.0-0.0","A1BIJGB7XA0GME","img_art/13.jpg","1","","","","","","","","","","","","","","","","","","","","","","","","",""
"13410","","image-button-response","208","1583603","0.0-207.0-0.0","A1BIJGB7XA0GME","img_art/13.jpg","5","","","","","","","","","","","","","","","","","","","","","","","","",""
"null","","html-keyboard-response","209","1585111","0.0-208.0","A1BIJGB7XA0GME","<p style=""font-size: 48px;"">+</p>","","","","","null","allTrialResponses","1500","1","23","img_art/13.jpg","35","Rwminds me of rain on a window","Alexandra,Taylor,Kelsey,Amanda,Chloe,Catherine","I do like the blue colors in this.,12,60,20","It makes me think of sitting inside on a rainy day while drinking a warm coffee,32,340,20","its like the ocean,24,240,20","Feels calm and could be placed in anyones house,43,180,20","Industrial Jackson Pollock knock-off,-20,220,20","Magnified rain around trees. Beautiful happy colors. The little person on the right feels nature is huge.,45,160,20","Alexandra","I do like the blue colors in this.,12,60,20","Taylor","It makes me think of sitting inside on a rainy day while drinking a warm coffee,32,340,20","Catherine","Magnified rain around trees. Beautiful happy colors. The little person on the right feels nature is huge.,45,160,20","2"
"39303","","survey-text","210","1624454","0.0-209.0-0.0","A1BIJGB7XA0GME","","","","{""Q0"":""Reminds me of Autumn in the woods ""}","","","","","","","","","","","","","","","","","","","","","","",""
"2558.699999988079","","image-slider-response","211","1627016","0.0-210.0","A1BIJGB7XA0GME","","","","","32","","","","","","","","","","","","","","","","","","","","","",""
"null","","image-button-response","212","1632025","0.0-211.0","A1BIJGB7XA0GME","img_art/27.jpg","null","","","","","","","","","","","","","","","","","","","","","","","","",""
"5348","","image-button-response","213","1637377","0.0-212.0","A1BIJGB7XA0GME","img_art/27.jpg","4","","","","","","","","","","","","","","","","","","","","","","","","",""
"10485","","image-button-response","214","1647870","0.0-213.0-0.0","A1BIJGB7XA0GME","img_art/27.jpg","2","","","","","","","","","","","","","","","","","","","","","","","","",""
"4600","","image-button-response","215","1652475","0.0-214.0-0.0","A1BIJGB7XA0GME","img_art/27.jpg","3","","","","","","","","","","","","","","","","","","","","","","","","",""
"null","","html-keyboard-response","216","1653479","0.0-215.0","A1BIJGB7XA0GME","<p style=""font-size: 48px;"">+</p>","","","","","null","allTrialResponses","1000","1","24","img_art/27.jpg","32","Reminds me of Autumn in the woods ","Alexandra,Taylor,Emma,Jennifer,Olivia,Catherine","This is ugly and looks like a child did this,-36,60,20","Reminds me of a town on fire,-15,340,20","Not sure how I feel about this. Messy, even for art. But good colors.,0,60,20","Somewhat boring piece,-3,380,20","city at sunset brings happyness,10,40,20","Angelic, childlike. happiness but also with sadness.,40,160,20","Olivia","city at sunset brings happyness,10,40,20","Emma","Not sure how I feel about this. Messy, even for art. But good colors.,0,60,20","Jennifer","Somewhat boring piece,-3,380,20","2"
"34422","","survey-text","217","1687943","0.0-216.0-0.0","A1BIJGB7XA0GME","","","","{""Q0"":""creepy with the face on the corner but vibrant colors""}","","","","","","","","","","","","","","","","","","","","","","",""
"2531.900000035763","","image-slider-response","218","1690478","0.0-217.0","A1BIJGB7XA0GME","","","","","-26","","","","","","","","","","","","","","","","","","","","","",""
"null","","image-button-response","219","1695485","0.0-218.0","A1BIJGB7XA0GME","img_art/8.jpg","null","","","","","","","","","","","","","","","","","","","","","","","","",""
"7390","","image-button-response","220","1702879","0.0-219.0","A1BIJGB7XA0GME","img_art/8.jpg","3","","","","","","","","","","","","","","","","","","","","","","","","",""
"2373","","image-button-response","221","1705257","0.0-220.0-0.0","A1BIJGB7XA0GME","img_art/8.jpg","4","","","","","","","","","","","","","","","","","","","","","","","","",""
"6454","","image-button-response","222","1711718","0.0-221.0-0.0","A1BIJGB7XA0GME","img_art/8.jpg","5","","","","","","","","","","","","","","","","","","","","","","","","",""
"null","","html-keyboard-response","223","1713222","0.0-222.0","A1BIJGB7XA0GME","<p style=""font-size: 48px;"">+</p>","","","","","null","allTrialResponses","1500","1","25","img_art/8.jpg","-26","creepy with the face on the corner but vibrant colors","Lindsey,Michelle,Emma,Jennifer,Olivia,Kathryn","Pleasant colors, lots of interest. Not sure what's going on but I like it.,20,400,20","I appreciate the complexity of this piece but it's too cubist for me,3,280,20","Love the colors & block-style,50,60,20","Not my favorite but has an interesting concept,32,380,20","being watched over,17,40,20","The angle makes it kind of disorienting but I enjoy the fantastical colors and imagery. It's like a dream.,10,140,20","Jennifer","Not my favorite but has an interesting concept,32,380,20","Olivia","being watched over,17,40,20","Kathryn","The angle makes it kind of disorienting but I enjoy the fantastical colors and imagery. It's like a dream.,10,140,20","2"
"5717","","survey-text","224","1719036","0.0-223.0-0.0","A1BIJGB7XA0GME","","","","{""Q0"":""table""}","","","","","","","","","","","","","","","","","","","","","","",""
"42338","","survey-text","225","1761378","0.0-224.0-0.0","A1BIJGB7XA0GME","","","","{""Q0"":""reminds be of a small village square""}","","","","","","","","","","","","","","","","","","","","","","",""
"2620.899999976158","","image-slider-response","226","1764004","0.0-225.0","A1BIJGB7XA0GME","","","","","14","","","","","","","","","","","","","","","","","","","","","",""
"4335","","image-button-response","227","1769017","0.0-226.0","A1BIJGB7XA0GME","img_art/19.jpg","4","","","","","","","","","","","","","","","","","","","","","","","","",""
"669","","image-button-response","228","1769697","0.0-227.0","A1BIJGB7XA0GME","img_art/19.jpg","4","","","","","","","","","","","","","","","","","","","","","","","","",""
"12358","","image-button-response","229","1782060","0.0-228.0-0.0","A1BIJGB7XA0GME","img_art/19.jpg","2","","","","","","","","","","","","","","","","","","","","","","","","",""
"2410","","image-button-response","230","1784479","0.0-229.0-0.0","A1BIJGB7XA0GME","img_art/19.jpg","5","","","","","","","","","","","","","","","","","","","","","","","","",""
"null","","html-keyboard-response","231","1785490","0.0-230.0","A1BIJGB7XA0GME","<p style=""font-size: 48px;"">+</p>","","","","","null","allTrialResponses","1000","1","26","img_art/19.jpg","14","reminds be of a small village square","Brittany,Crystal,Kaylee,Jennifer,Olivia,Kathryn","It looks too much of a rough sketch. Don't really enjoy looking at it.,-9,40,20","It is an interesting piece but there are too many muted tones,22,300,20","beautiful old town,37,200,20","Very, very ugly and sloppy,-31,380,20","city life energy,8,40,20","This one feels pretty neutral. Like a window into someone's life, one person in a bustling metropolis.,0,140,20","Olivia","city life energy,8,40,20","Kaylee","beautiful old town,37,200,20","Kathryn","This one feels pretty neutral. Like a window into someone's life, one person in a bustling metropolis.,0,140,20","2"
"16286","","survey-text","232","1801820","0.0-231.0-0.0","A1BIJGB7XA0GME","","","","{""Q0"":""I like the vibrant colors""}","","","","","","","","","","","","","","","","","","","","","","",""
"3127.099999964237","","image-slider-response","233","1804951","0.0-232.0","A1BIJGB7XA0GME","","","","","14","","","","","","","","","","","","","","","","","","","","","",""
"3221","","image-button-response","234","1809960","0.0-233.0","A1BIJGB7XA0GME","img_art/17.jpg","0","","","","","","","","","","","","","","","","","","","","","","","","",""
"924","","image-button-response","235","1810889","0.0-234.0","A1BIJGB7XA0GME","img_art/17.jpg","0","","","","","","","","","","","","","","","","","","","","","","","","",""
"1052","","image-button-response","236","1811946","0.0-235.0-0.0","A1BIJGB7XA0GME","img_art/17.jpg","2","","","","","","","","","","","","","","","","","","","","","","","","",""
"4434","","image-button-response","237","1816387","0.0-236.0-0.0","A1BIJGB7XA0GME","img_art/17.jpg","3","","","","","","","","","","","","","","","","","","","","","","","","",""
"null","","html-keyboard-response","238","1817891","0.0-237.0","A1BIJGB7XA0GME","<p style=""font-size: 48px;"">+</p>","","","","","null","allTrialResponses","1500","1","27","img_art/17.jpg","14","I like the vibrant colors","Maria,Sara,Kaylee,Breanna,Olivia,Kathryn","feel close to nature,30,120,20","Beautiful patterns but evokes sad emotions in me due to the color shades,31,160,20","colorful tree really cool,27,200,20","Very cool, makes me feel calm,43,380,20","muted tones brings me down,-13,40,20","Reminds me of the modern art museum in Rome. I didn't ""get"" many pieces, but had a positive cultural experience overall.,20,140,20","Maria","feel close to nature,30,120,20","Kaylee","colorful tree really cool,27,200,20","Breanna","Very cool, makes me feel calm,43,380,20","2"
"18397","","survey-text","239","1836333","0.0-238.0-0.0","A1BIJGB7XA0GME","","","","{""Q0"":""This looks like a angry picture""}","","","","","","","","","","","","","","","","","","","","","","",""
"3538.7999999523163","","image-slider-response","240","1839876","0.0-239.0","A1BIJGB7XA0GME","","","","","-26","","","","","","","","","","","","","","","","","","","","","",""
"4876","","image-button-response","241","1844890","0.0-240.0","A1BIJGB7XA0GME","img_art/9.jpg","0","","","","","","","","","","","","","","","","","","","","","","","","",""
"842","","image-button-response","242","1845737","0.0-241.0","A1BIJGB7XA0GME","img_art/9.jpg","0","","","","","","","","","","","","","","","","","","","","","","","","",""
"5121","","image-button-response","243","1850864","0.0-242.0-0.0","A1BIJGB7XA0GME","img_art/9.jpg","5","","","","","","","","","","","","","","","","","","","","","","","","",""
"4568","","image-button-response","244","1855439","0.0-243.0-0.0","A1BIJGB7XA0GME","img_art/9.jpg","2","","","","","","","","","","","","","","","","","","","","","","","","",""
"null","","html-keyboard-response","245","1856945","0.0-244.0","A1BIJGB7XA0GME","<p style=""font-size: 48px;"">+</p>","","","","","null","allTrialResponses","1500","1","28","img_art/9.jpg","-26","This looks like a angry picture","Maria,Erika,Kaylee,Breanna,Nicole,Alyssa","while I don't dispute the art, it feels childish,-20,120,20","Colorful and expressive,15,100,20","not my type of art,-33,200,20","It's a mix of paint splash and scribbling,-33,380,20","It's peaceful and relaxing,24,20,20","Unpleasant, alot of dark colors and strange lines,-26,160,20","Maria","while I don't dispute the art, it feels childish,-20,120,20","Alyssa","Unpleasant, alot of dark colors and strange lines,-26,160,20","Kaylee","not my type of art,-33,200,20","2"
"16434","","survey-text","246","1873434","0.0-245.0-0.0","A1BIJGB7XA0GME","","","","{""Q0"":""Reminds me of a lake in the mountains""}","","","","","","","","","","","","","","","","","","","","","","",""
"4842.300000011921","","image-slider-response","247","1878280","0.0-246.0","A1BIJGB7XA0GME","","","","","17","","","","","","","","","","","","","","","","","","","","","",""
"null","","image-button-response","248","1883290","0.0-247.0","A1BIJGB7XA0GME","img_art/20.jpg","null","","","","","","","","","","","","","","","","","","","","","","","","",""
"1735","","image-button-response","249","1885030","0.0-248.0","A1BIJGB7XA0GME","img_art/20.jpg","3","","","","","","","","","","","","","","","","","","","","","","","","",""
"4034","","image-button-response","250","1889075","0.0-249.0-0.0","A1BIJGB7XA0GME","img_art/20.jpg","5","","","","","","","","","","","","","","","","","","","","","","","","",""
"6292","","image-button-response","251","1895374","0.0-250.0-0.0","A1BIJGB7XA0GME","img_art/20.jpg","1","","","","","","","","","","","","","","","","","","","","","","","","",""
"null","","html-keyboard-response","252","1895878","0.0-251.0","A1BIJGB7XA0GME","<p style=""font-size: 48px;"">+</p>","","","","","null","allTrialResponses","500","1","29","img_art/20.jpg","17","Reminds me of a lake in the mountains","Maria,Katelyn,Kaylee,Ashley,Mikayla,Alyssa","just feels generic,-18,120,20","I do at least like the dark colors blending,6,100,20","i can see a car crash,13,200,20","Painting within a painting, abstract.,32,320,20","Kinda freaks me out.,-40,300,20","Its interesting.It almost seems like a painting of a landscape,14,160,20","Ashley","Painting within a painting, abstract.,32,320,20","Alyssa","Its interesting.It almost seems like a painting of a landscape,14,160,20","Katelyn","I do at least like the dark colors blending,6,100,20","2"
"26832","","survey-text","253","1922768","0.0-252.0-0.0","A1BIJGB7XA0GME","","","","{""Q0"":""I like how the colors blend into the background""}","","","","","","","","","","","","","","","","","","","","","","",""
"2402.900000035763","","image-slider-response","254","1925174","0.0-253.0","A1BIJGB7XA0GME","","","","","15","","","","","","","","","","","","","","","","","","","","","",""
"4394","","image-button-response","255","1930185","0.0-254.0","A1BIJGB7XA0GME","img_art/14.jpg","0","","","","","","","","","","","","","","","","","","","","","","","","",""
"1691","","image-button-response","256","1931881","0.0-255.0","A1BIJGB7XA0GME","img_art/14.jpg","0","","","","","","","","","","","","","","","","","","","","","","","","",""
"5860","","image-button-response","257","1937747","0.0-256.0-0.0","A1BIJGB7XA0GME","img_art/14.jpg","4","","","","","","","","","","","","","","","","","","","","","","","","",""
"2416","","image-button-response","258","1940170","0.0-257.0-0.0","A1BIJGB7XA0GME","img_art/14.jpg","5","","","","","","","","","","","","","","","","","","","","","","","","",""
"null","","html-keyboard-response","259","1940689","0.0-258.0","A1BIJGB7XA0GME","<p style=""font-size: 48px;"">+</p>","","","","","null","allTrialResponses","500","1","30","img_art/14.jpg","15","I like how the colors blend into the background","Mary,Katelyn,Courtney,Ashley,Savannah,Alyssa","I like the layers of color in this piece. The circles and lines are interesting.,29,180,20","Its cute. Not striking but i would keep it in my home.,10,100,20","The pirates ship is sinking.,27,280,20","I like the color tone, it's kind of disturbing.,35,320,20","Again. This is pretty neutral, leaning dislike.,-18,200,20","Beautiful tree,the use of water colors makes it soothing to look at,37,160,20","Mary","I like the layers of color in this piece. The circles and lines are interesting.,29,180,20","Savannah","Again. This is pretty neutral, leaning dislike.,-18,200,20","Alyssa","Beautiful tree,the use of water colors makes it soothing to look at,37,160,20","2"
"8571","","image-button-response_instructions","260","1949327","0.0-259.0","A1BIJGB7XA0GME","","0","instructions","","","","","","","","","","","","","","","","","","","","","","","",""
"1413","","image-button-response","261","1950796","0.0-260.0","A1BIJGB7XA0GME","","0","","","","","","","","","","","","","","","","","","","","","","","","",""
