"rt","url","trial_type","trial_index","time_elapsed","internal_node_id","participant_id","stimulus","button_pressed","Name","responses","response","key_press","variableName","fixationTime","condition","trial","photo","subjectRating","subjectResponse","agentsNames","agent_1_Response","agent_2_Response","agent_3_Response","agent_4_Response","agent_5_Response","agent_6_Response","kept_1_name","kept_1_response","kept_2_name","kept_2_response","kept_3_name","kept_3_response","errorCounter"
"25815","external_page_harvard.html","external-html","0","25886","0.0-0.0","A1C27K2DKIGN4G","","","","","","","","","","","","","","","","","","","","","","","","","","",""
"2741","","image-button-response","1","28629","0.0-1.0","A1C27K2DKIGN4G","","1","","","","","","","","","","","","","","","","","","","","","","","","",""
"2572","","image-button-response","2","31204","0.0-2.0-0.0","A1C27K2DKIGN4G","","1","phone","","","","","","","","","","","","","","","","","","","","","","","",""
"12951","","survey-text","3","44157","0.0-3.0-0.0","A1C27K2DKIGN4G","","","","{""Q0"":""A1C27K2DKIGN4G""}","","","","","","","","","","","","","","","","","","","","","","",""
"12238","","image-button-response_instructions","4","56397","0.0-4.0","A1C27K2DKIGN4G","","0","instructions","","","","","","","","","","","","","","","","","","","","","","","",""
"28535","","image-button-response_instructions","5","84933","0.0-5.0","A1C27K2DKIGN4G","img_art/ins/popularity/ins1.png","0","instructions","","","","","","","","","","","","","","","","","","","","","","","",""
"16767","","image-button-response_instructions","6","101700","0.0-6.0","A1C27K2DKIGN4G","img_art/ins/popularity/ins2.png","0","instructions","","","","","","","","","","","","","","","","","","","","","","","",""
"18824","","image-button-response_instructions","7","120524","0.0-7.0","A1C27K2DKIGN4G","img_art/ins/popularity/ins2Extreme.png","0","instructions","","","","","","","","","","","","","","","","","","","","","","","",""
"24143","","image-button-response_instructions","8","144668","0.0-8.0","A1C27K2DKIGN4G","img_art/ins/popularity/ins3KEEPpop.PNG","0","instructions","","","","","","","","","","","","","","","","","","","","","","","",""
"5958","","image-button-response_instructions","9","150628","0.0-9.0","A1C27K2DKIGN4G","img_art/ins/popularity/ins3ANamepop.PNG","0","instructions","","","","","","","","","","","","","","","","","","","","","","","",""
"7944","","image-button-response_instructions","10","158572","0.0-10.0","A1C27K2DKIGN4G","img_art/ins/popularity/ins3ARatingpop.png","0","instructions","","","","","","","","","","","","","","","","","","","","","","","",""
"3942","","image-button-response_instructions","11","162516","0.0-11.0","A1C27K2DKIGN4G","img_art/ins/popularity/ins3ATextpop.png","0","instructions","","","","","","","","","","","","","","","","","","","","","","","",""
"3144","","image-button-response_instructions","12","165660","0.0-12.0","A1C27K2DKIGN4G","img_art/ins/popularity/ins3ALikespop.png","0","instructions","","","","","","","","","","","","","","","","","","","","","","","",""
"14558","","image-button-response_instructions","13","180220","0.0-13.0","A1C27K2DKIGN4G","img_art/ins/popularity/ins3KEEPpop.PNG","0","instructions","","","","","","","","","","","","","","","","","","","","","","","",""
"19143","","image-button-response_instructions","14","199364","0.0-14.0","A1C27K2DKIGN4G","img_art/ins/popularity/ins3_5RED.png","0","instructions","","","","","","","","","","","","","","","","","","","","","","","",""
"4895","","image-button-response_instructions","15","204260","0.0-15.0","A1C27K2DKIGN4G","img_art/ins/popularity/ins3KEEPpop.PNG","0","instructions","","","","","","","","","","","","","","","","","","","","","","","",""
"6671","","image-button-response_instructions","16","210932","0.0-16.0","A1C27K2DKIGN4G","img_art/ins/popularity/ins4KEEPpop.PNG","0","instructions","","","","","","","","","","","","","","","","","","","","","","","",""
"4575","","image-button-response_instructions","17","215508","0.0-17.0","A1C27K2DKIGN4G","img_art/ins/popularity/ins5KEEPpop.PNG","0","instructions","","","","","","","","","","","","","","","","","","","","","","","",""
"1527","","image-button-response_instructions","18","217036","0.0-18.0","A1C27K2DKIGN4G","","0","instructions","","","","","","","","","","","","","","","","","","","","","","","",""
"8798","","survey-text","19","225859","0.0-19.0-0.0","A1C27K2DKIGN4G","","","","{""Q0"":""but""}","","","","","","","","","","","","","","","","","","","","","","",""
"23528","","survey-text","20","249388","0.0-20.0-0.0","A1C27K2DKIGN4G","","","","{""Q0"":""The colors look cheap and garish""}","","","","","","","","","","","","","","","","","","","","","","",""
"9277.799999952316","","image-slider-response","21","258668","0.0-21.0","A1C27K2DKIGN4G","","","","","-41","","","","","","","","","","","","","","","","","","","","","",""
"null","","image-button-response","22","263675","0.0-22.0","A1C27K2DKIGN4G","img_art/ins/1.jpg","null","","","","","","","","","","","","","","","","","","","","","","","","",""
"7694","","image-button-response","23","271372","0.0-23.0","A1C27K2DKIGN4G","img_art/ins/1.jpg","3","","","","","","","","","","","","","","","","","","","","","","","","",""
"3454","","image-button-response","24","274828","0.0-24.0-0.0","A1C27K2DKIGN4G","img_art/ins/1.jpg","2","","","","","","","","","","","","","","","","","","","","","","","","",""
"10262","","image-button-response","25","285092","0.0-25.0-0.0","A1C27K2DKIGN4G","img_art/ins/1.jpg","5","","","","","","","","","","","","","","","","","","","","","","","","",""
"null","","html-keyboard-response","26","285609","0.0-26.0","A1C27K2DKIGN4G","<p style=""font-size: 48px;"">+</p>","","","","","null","allTrialResponses","500","1","-2","img_art/ins/1.jpg","-41","The colors look cheap and garish","Allison,Ashley,Beth,Dora,Erika,Jen","looks like a lot of things going on in the mist,20,20,20","I just don't get why these type of art would be popular,-32,40,20","This color reminds me of poo,-46,60,20","looks like what my niece in 3rd grade did this afternoon,-50,80,20","I like the sophisticated brushwork,40,100,20","It reminds me of a candy land dream I had,36,120,20","Dora","looks like what my niece in 3rd grade did this afternoon,-50,80,20","Beth","This color reminds me of poo,-46,60,20","Jen","It reminds me of a candy land dream I had,36,120,20","0"
"26584","","survey-text","27","312203","0.0-27.0-0.0","A1C27K2DKIGN4G","","","","{""Q0"":""I'm attracted to the straight lines""}","","","","","","","","","","","","","","","","","","","","","","",""
"8126.200000047684","","image-slider-response","28","320331","0.0-28.0","A1C27K2DKIGN4G","","","","","21","","","","","","","","","","","","","","","","","","","","","",""
"null","","image-button-response","29","325340","0.0-29.0","A1C27K2DKIGN4G","img_art/ins/2.jpg","null","","","","","","","","","","","","","","","","","","","","","","","","",""
"2188","","image-button-response","30","327531","0.0-30.0","A1C27K2DKIGN4G","img_art/ins/2.jpg","4","","","","","","","","","","","","","","","","","","","","","","","","",""
"2366","","image-button-response","31","329899","0.0-31.0-0.0","A1C27K2DKIGN4G","img_art/ins/2.jpg","5","","","","","","","","","","","","","","","","","","","","","","","","",""
"11615","","image-button-response","32","341515","0.0-32.0-0.0","A1C27K2DKIGN4G","img_art/ins/2.jpg","3","","","","","","","","","","","","","","","","","","","","","","","","",""
"null","","html-keyboard-response","33","342025","0.0-33.0","A1C27K2DKIGN4G","<p style=""font-size: 48px;"">+</p>","","","","","null","allTrialResponses","500","1","-1","img_art/ins/2.jpg","21","I'm attracted to the straight lines","Katie,Jenna,Beth,Dora,Kara,Jen","too much color!,-28,180,20","One of my pet peevs,-48,140,20","meaningless painting,-45,60,20","looks too angry,-50,80,20","I like the blocks of color arrangements,30,160,20","It reminds me of a fireplace,36,120,20","Kara","I like the blocks of color arrangements,30,160,20","Jen","It reminds me of a fireplace,36,120,20","Dora","looks too angry,-50,80,20","0"
"20518","","survey-text","34","362555","0.0-34.0-0.0","A1C27K2DKIGN4G","","","","{""Q0"":""Pattern is good but I dislike blue""}","","","","","","","","","","","","","","","","","","","","","","",""
"6318.299999952316","","image-slider-response","35","368875","0.0-35.0","A1C27K2DKIGN4G","","","","","6","","","","","","","","","","","","","","","","","","","","","",""
"null","","image-button-response","36","373882","0.0-36.0","A1C27K2DKIGN4G","img_art/ins/3.jpg","null","","","","","","","","","","","","","","","","","","","","","","","","",""
"7221","","image-button-response","37","381107","0.0-37.0","A1C27K2DKIGN4G","img_art/ins/3.jpg","0","","","","","","","","","","","","","","","","","","","","","","","","",""
"4615","","image-button-response","38","385723","0.0-38.0-0.0","A1C27K2DKIGN4G","img_art/ins/3.jpg","1","","","","","","","","","","","","","","","","","","","","","","","","",""
"4390","","image-button-response","39","390115","0.0-39.0-0.0","A1C27K2DKIGN4G","img_art/ins/3.jpg","5","","","","","","","","","","","","","","","","","","","","","","","","",""
"null","","html-keyboard-response","40","391619","0.0-40.0","A1C27K2DKIGN4G","<p style=""font-size: 48px;"">+</p>","","","","","null","allTrialResponses","1500","1","0","img_art/ins/3.jpg","6","Pattern is good but I dislike blue","Leslie,Rose,Mary,Dora,Kara,Jen","It's an alright work,15,200,20","My daily routine, it's depressing,-20,240,20","I like the overlapping of brushes,41,220,20","My worst nightmare,-42,80,20","calming blue is very nice,36,160,20","I can feel a rainy day from this painting,18,120,20","Leslie","It's an alright work,15,200,20","Rose","My daily routine, it's depressing,-20,240,20","Jen","I can feel a rainy day from this painting,18,120,20","0"
"5765","","image-button-response_instructions","41","397395","0.0-41.0","A1C27K2DKIGN4G","","0","instructions","","","","","","","","","","","","","","","","","","","","","","","",""
"31679","","survey-likert","42","429075","0.0-42.0-0.0","A1C27K2DKIGN4G","","","","{""Q0"":"""",""Q1"":0,""Q2"":1}","","","","","","","","","","","","","","","","","","","","","","",""
"5684","","survey-text","43","434763","0.0-43.0-0.0","A1C27K2DKIGN4G","","","","{""Q0"":""rock""}","","","","","","","","","","","","","","","","","","","","","","",""
"37742","","survey-text","44","472507","0.0-44.0-0.0","A1C27K2DKIGN4G","","","","{""Q0"":""I like the green object. Looks like a crane (bird)""}","","","","","","","","","","","","","","","","","","","","","","",""
"7222.600000023842","","image-slider-response","45","479731","0.0-45.0","A1C27K2DKIGN4G","","","","","17","","","","","","","","","","","","","","","","","","","","","",""
"null","","image-button-response","46","484760","0.0-46.0","A1C27K2DKIGN4G","img_art/6.jpg","null","","","","","","","","","","","","","","","","","","","","","","","","",""
"9553","","image-button-response","47","494315","0.0-47.0","A1C27K2DKIGN4G","img_art/6.jpg","4","","","","","","","","","","","","","","","","","","","","","","","","",""
"1838","","image-button-response","48","496155","0.0-48.0-0.0","A1C27K2DKIGN4G","img_art/6.jpg","2","","","","","","","","","","","","","","","","","","","","","","","","",""
"1406","","image-button-response","49","497563","0.0-49.0-0.0","A1C27K2DKIGN4G","img_art/6.jpg","1","","","","","","","","","","","","","","","","","","","","","","","","",""
"null","","html-keyboard-response","50","498065","0.0-50.0","A1C27K2DKIGN4G","<p style=""font-size: 48px;"">+</p>","","","","","null","allTrialResponses","500","1","1","img_art/6.jpg","17","I like the green object. Looks like a crane (bird)","Hailey,Erika,Brianna,Kaitlin,Erin,Kelsey","one lonely thing trying to grow,-24,200,20","Lonesome in nature,13,100,20","Nice desert scene,10,20,20","This one also confuses me a bit.,-19,60,20","Blackbird in the desert,27,120,20","its like a jalapeno,-28,240,20","Erin","Blackbird in the desert,27,120,20","Brianna","Nice desert scene,10,20,20","Erika","Lonesome in nature,13,100,20","0"
"22008","","survey-text","51","520083","0.0-51.0-0.0","A1C27K2DKIGN4G","","","","{""Q0"":""Looks very cheap. Like sofa art""}","","","","","","","","","","","","","","","","","","","","","","",""
"4654.5","","image-slider-response","52","524739","0.0-52.0","A1C27K2DKIGN4G","","","","","-28","","","","","","","","","","","","","","","","","","","","","",""
"null","","image-button-response","53","529743","0.0-53.0","A1C27K2DKIGN4G","img_art/26.jpg","null","","","","","","","","","","","","","","","","","","","","","","","","",""
"11712","","image-button-response","54","541458","0.0-54.0","A1C27K2DKIGN4G","img_art/26.jpg","3","","","","","","","","","","","","","","","","","","","","","","","","",""
"2702","","image-button-response","55","544163","0.0-55.0-0.0","A1C27K2DKIGN4G","img_art/26.jpg","5","","","","","","","","","","","","","","","","","","","","","","","","",""
"8382","","image-button-response","56","552547","0.0-56.0-0.0","A1C27K2DKIGN4G","img_art/26.jpg","1","","","","","","","","","","","","","","","","","","","","","","","","",""
"null","","html-keyboard-response","57","554049","0.0-57.0","A1C27K2DKIGN4G","<p style=""font-size: 48px;"">+</p>","","","","","null","allTrialResponses","1500","1","2","img_art/26.jpg","-28","Looks very cheap. Like sofa art","Alexa,Erika,Brianna,Amy,Erin,Mary","Looks messy and like it was painted by a small child,-48,40,20","Feels like still life,-13,100,20","This picture is ok; just a normal city,11,20,20","The feeling that I am looking at the world through a dingy filter makes this unpleasant for me.,-20,220,20","City scene in a park,23,120,20","I can tell it's some sort of outdoor scene. It looks very amateurish.,-9,180,20","Amy","The feeling that I am looking at the world through a dingy filter makes this unpleasant for me.,-20,220,20","Mary","I can tell it's some sort of outdoor scene. It looks very amateurish.,-9,180,20","Erika","Feels like still life,-13,100,20","0"
"29022","","survey-text","58","583082","0.0-58.0-0.0","A1C27K2DKIGN4G","","","","{""Q0"":""The subject is too broad across the canvas""}","","","","","","","","","","","","","","","","","","","","","","",""
"7302.5","","image-slider-response","59","590386","0.0-59.0","A1C27K2DKIGN4G","","","","","-39","","","","","","","","","","","","","","","","","","","","","",""
"null","","image-button-response","60","595393","0.0-60.0","A1C27K2DKIGN4G","img_art/2.jpg","null","","","","","","","","","","","","","","","","","","","","","","","","",""
"9543","","image-button-response","61","604939","0.0-61.0","A1C27K2DKIGN4G","img_art/2.jpg","3","","","","","","","","","","","","","","","","","","","","","","","","",""
"9526","","image-button-response","62","614466","0.0-62.0-0.0","A1C27K2DKIGN4G","img_art/2.jpg","0","","","","","","","","","","","","","","","","","","","","","","","","",""
"1294","","image-button-response","63","615763","0.0-63.0-0.0","A1C27K2DKIGN4G","img_art/2.jpg","2","","","","","","","","","","","","","","","","","","","","","","","","",""
"null","","html-keyboard-response","64","617267","0.0-64.0","A1C27K2DKIGN4G","<p style=""font-size: 48px;"">+</p>","","","","","null","allTrialResponses","1500","1","3","img_art/2.jpg","-39","The subject is too broad across the canvas","Caroline,Erika,Alyssa,Amy,Anna,Mary","Colors are drab and cause a sense of blandness,-28,100,20","Indistinct and too bright,-21,100,20","Its meh. Doesnt illicit any strong feelings in me,1,160,20","The color palette of this painting is for me displeasing and immature.,-30,220,20","The colors are pretty but I don't really like the shapes in it.,-20,300,20","This looks like a professional abstract drawing. I like the shapes.,7,180,20","Amy","The color palette of this painting is for me displeasing and immature.,-30,220,20","Caroline","Colors are drab and cause a sense of blandness,-28,100,20","Alyssa","Its meh. Doesnt illicit any strong feelings in me,1,160,20","0"
"24477","","survey-text","65","641754","0.0-65.0-0.0","A1C27K2DKIGN4G","","","","{""Q0"":""I'm attracted to the colors and pattern""}","","","","","","","","","","","","","","","","","","","","","","",""
"6078.600000023842","","image-slider-response","66","647834","0.0-66.0","A1C27K2DKIGN4G","","","","","27","","","","","","","","","","","","","","","","","","","","","",""
"null","","image-button-response","67","652842","0.0-67.0","A1C27K2DKIGN4G","img_art/15.jpg","null","","","","","","","","","","","","","","","","","","","","","","","","",""
"10526","","image-button-response","68","663370","0.0-68.0","A1C27K2DKIGN4G","img_art/15.jpg","3","","","","","","","","","","","","","","","","","","","","","","","","",""
"695","","image-button-response","69","664067","0.0-69.0-0.0","A1C27K2DKIGN4G","img_art/15.jpg","4","","","","","","","","","","","","","","","","","","","","","","","","",""
"8950","","image-button-response","70","673019","0.0-70.0-0.0","A1C27K2DKIGN4G","img_art/15.jpg","0","","","","","","","","","","","","","","","","","","","","","","","","",""
"null","","html-keyboard-response","71","674536","0.0-71.0","A1C27K2DKIGN4G","<p style=""font-size: 48px;"">+</p>","","","","","null","allTrialResponses","1500","1","4","img_art/15.jpg","27","I'm attracted to the colors and pattern","Caroline,Kaylee,Alyssa,Amy,Jenna,Diana","Makes me think of a bush and flowers and spring and happy warm times,25,100,20","some trees in the forest,15,200,20","Uninteresting and too much black,-30,160,20","basic colors and pleasing shapes providing a calming effect,15,220,20","interesting technique. the blue is very pretty,18,360,20","There should be more space between the black marks. The black comes off harsh and the blue between the trees can barely be seen.,-21,380,20","Amy","basic colors and pleasing shapes providing a calming effect,15,220,20","Jenna","interesting technique. the blue is very pretty,18,360,20","Caroline","Makes me think of a bush and flowers and spring and happy warm times,25,100,20","0"
"32288","","survey-text","72","706834","0.0-72.0-0.0","A1C27K2DKIGN4G","","","","{""Q0"":""It looks like a line of ladies dancing""}","","","","","","","","","","","","","","","","","","","","","","",""
"8302.699999928474","","image-slider-response","73","715139","0.0-73.0","A1C27K2DKIGN4G","","","","","-6","","","","","","","","","","","","","","","","","","","","","",""
"null","","image-button-response","74","720153","0.0-74.0","A1C27K2DKIGN4G","img_art/23.jpg","null","","","","","","","","","","","","","","","","","","","","","","","","",""
"25063","","image-button-response","75","745218","0.0-75.0","A1C27K2DKIGN4G","img_art/23.jpg","3","","","","","","","","","","","","","","","","","","","","","","","","",""
"1086","","image-button-response","76","746306","0.0-76.0-0.0","A1C27K2DKIGN4G","img_art/23.jpg","5","","","","","","","","","","","","","","","","","","","","","","","","",""
"4582","","image-button-response","77","750890","0.0-77.0-0.0","A1C27K2DKIGN4G","img_art/23.jpg","1","","","","","","","","","","","","","","","","","","","","","","","","",""
"null","","html-keyboard-response","78","751394","0.0-78.0","A1C27K2DKIGN4G","<p style=""font-size: 48px;"">+</p>","","","","","null","allTrialResponses","500","1","5","img_art/23.jpg","-6","It looks like a line of ladies dancing","Caroline,Mariah,Nicole,Amy,Jenna,Gabriela","Like the colors and made me feel happy,23,100,20","It feels active and vibrant.,20,140,20","Those colors are awesome! And I love the strip of negative space that almost looks like a line of people,50,20,20","So exciting and full of the night.,20,220,20","awesome colors. love the white drawing the eye to the center. oddly comforting.,50,360,20","It looks like a parade of musicians full of excitement. Makes me feel upbeat,33,140,20","Amy","So exciting and full of the night.,20,220,20","Gabriela","It looks like a parade of musicians full of excitement. Makes me feel upbeat,33,140,20","Mariah","It feels active and vibrant.,20,140,20","0"
"6177","","survey-text","79","757594","0.0-79.0-0.0","A1C27K2DKIGN4G","","","","{""Q0"":""sky""}","","","","","","","","","","","","","","","","","","","","","","",""
"34223","","survey-text","80","791817","0.0-80.0-0.0","A1C27K2DKIGN4G","","","","{""Q0"":""Feels like I'm looking at India""}","","","","","","","","","","","","","","","","","","","","","","",""
"13310.399999976158","","image-slider-response","81","805129","0.0-81.0","A1C27K2DKIGN4G","","","","","27","","","","","","","","","","","","","","","","","","","","","",""
"null","","image-button-response","82","810143","0.0-82.0","A1C27K2DKIGN4G","img_art/19.jpg","null","","","","","","","","","","","","","","","","","","","","","","","","",""
"5920","","image-button-response","83","816066","0.0-83.0","A1C27K2DKIGN4G","img_art/19.jpg","3","","","","","","","","","","","","","","","","","","","","","","","","",""
"15702","","image-button-response","84","831769","0.0-84.0-0.0","A1C27K2DKIGN4G","img_art/19.jpg","1","","","","","","","","","","","","","","","","","","","","","","","","",""
"7494","","image-button-response","85","839265","0.0-85.0-0.0","A1C27K2DKIGN4G","img_art/19.jpg","2","","","","","","","","","","","","","","","","","","","","","","","","",""
"null","","html-keyboard-response","86","840775","0.0-86.0","A1C27K2DKIGN4G","<p style=""font-size: 48px;"">+</p>","","","","","null","allTrialResponses","1500","1","6","img_art/19.jpg","27","Feels like I'm looking at India","Katelyn,Mariah,Grace,Amy,Laura,Gabriela","I dont like the smudge effect,-7,100,20","I like the watercolor and colors, do not like the deconstructed city scene feel.,0,140,20","Looks like a child's rendering of a city street but not too sure.,0,180,20","Though provoking. Adventurous.,10,220,20","confusion, scattered and diffuse,-4,320,20","it looks messy and non-unique.,-9,140,20","Amy","Though provoking. Adventurous.,10,220,20","Mariah","I like the watercolor and colors, do not like the deconstructed city scene feel.,0,140,20","Grace","Looks like a child's rendering of a city street but not too sure.,0,180,20","0"
"23415","","survey-text","87","864202","0.0-87.0-0.0","A1C27K2DKIGN4G","","","","{""Q0"":""The elements are disjointed to each other""}","","","","","","","","","","","","","","","","","","","","","","",""
"5614.199999928474","","image-slider-response","88","869817","0.0-88.0","A1C27K2DKIGN4G","","","","","-4","","","","","","","","","","","","","","","","","","","","","",""
"null","","image-button-response","89","874834","0.0-89.0","A1C27K2DKIGN4G","img_art/20.jpg","null","","","","","","","","","","","","","","","","","","","","","","","","",""
"7620","","image-button-response","90","882458","0.0-90.0","A1C27K2DKIGN4G","img_art/20.jpg","3","","","","","","","","","","","","","","","","","","","","","","","","",""
"10718","","image-button-response","91","893177","0.0-91.0-0.0","A1C27K2DKIGN4G","img_art/20.jpg","1","","","","","","","","","","","","","","","","","","","","","","","","",""
"5702","","image-button-response","92","898882","0.0-92.0-0.0","A1C27K2DKIGN4G","img_art/20.jpg","0","","","","","","","","","","","","","","","","","","","","","","","","",""
"null","","html-keyboard-response","93","899388","0.0-93.0","A1C27K2DKIGN4G","<p style=""font-size: 48px;"">+</p>","","","","","null","allTrialResponses","500","1","7","img_art/20.jpg","-4","The elements are disjointed to each other","Jennifer,Mariah,Grace,Amy,Alexandria,Allison","Neutral, this piece doesn't strike me as particularly bad or good,0,380,20","It feels like it ""almost"" several things.,-10,140,20","Reminds me of Georgia O'Keefe.,11,180,20","Elements that are more defined are incongruous to the soft and melting nature of this painting,5,220,20","it looks like a car crash which is depressing,-19,80,20","Melty picture. Reminiscent of Dali.,10,140,20","Amy","Elements that are more defined are incongruous to the soft and melting nature of this painting,5,220,20","Mariah","It feels like it ""almost"" several things.,-10,140,20","Jennifer","Neutral, this piece doesn't strike me as particularly bad or good,0,380,20","0"
"23624","","survey-text","94","923025","0.0-94.0-0.0","A1C27K2DKIGN4G","","","","{""Q0"":""It's trying to hard to be artistic""}","","","","","","","","","","","","","","","","","","","","","","",""
"8582.700000047684","","image-slider-response","95","931609","0.0-95.0","A1C27K2DKIGN4G","","","","","-47","","","","","","","","","","","","","","","","","","","","","",""
"null","","image-button-response","96","936616","0.0-96.0","A1C27K2DKIGN4G","img_art/29.jpg","null","","","","","","","","","","","","","","","","","","","","","","","","",""
"6558","","image-button-response","97","943177","0.0-97.0","A1C27K2DKIGN4G","img_art/29.jpg","4","","","","","","","","","","","","","","","","","","","","","","","","",""
"926","","image-button-response","98","944105","0.0-98.0-0.0","A1C27K2DKIGN4G","img_art/29.jpg","5","","","","","","","","","","","","","","","","","","","","","","","","",""
"16046","","image-button-response","99","960153","0.0-99.0-0.0","A1C27K2DKIGN4G","img_art/29.jpg","2","","","","","","","","","","","","","","","","","","","","","","","","",""
"null","","html-keyboard-response","100","961170","0.0-100.0","A1C27K2DKIGN4G","<p style=""font-size: 48px;"">+</p>","","","","","null","allTrialResponses","1000","1","8","img_art/29.jpg","-47","It's trying to hard to be artistic","Jennifer,Mariah,Katherine,Amy,Kelly,Meghan","Very interesting composition,41,380,20","It feels like looking through layers of frustration.,19,140,20","I think the grey and red inspire negative feelings but it's not the worst thing.,13,120,20","The textures bring this painting alive. A window to another existence with infinite possibility.,25,220,20","Too much going on, and I don't like the colors. It looks like a crime scene.,-50,220,20","feels random and not thoughtout,-37,220,20","Kelly","Too much going on, and I don't like the colors. It looks like a crime scene.,-50,220,20","Meghan","feels random and not thoughtout,-37,220,20","Katherine","I think the grey and red inspire negative feelings but it's not the worst thing.,13,120,20","0"
"25587","","survey-text","101","986769","0.0-101.0-0.0","A1C27K2DKIGN4G","","","","{""Q0"":""Too childish and childlike""}","","","","","","","","","","","","","","","","","","","","","","",""
"9406.699999928474","","image-slider-response","102","996177","0.0-102.0","A1C27K2DKIGN4G","","","","","-42","","","","","","","","","","","","","","","","","","","","","",""
"null","","image-button-response","103","1001188","0.0-103.0","A1C27K2DKIGN4G","img_art/27.jpg","null","","","","","","","","","","","","","","","","","","","","","","","","",""
"8746","","image-button-response","104","1009937","0.0-104.0","A1C27K2DKIGN4G","img_art/27.jpg","4","","","","","","","","","","","","","","","","","","","","","","","","",""
"1278","","image-button-response","105","1011217","0.0-105.0-0.0","A1C27K2DKIGN4G","img_art/27.jpg","5","","","","","","","","","","","","","","","","","","","","","","","","",""
"4950","","image-button-response","106","1016169","0.0-106.0-0.0","A1C27K2DKIGN4G","img_art/27.jpg","0","","","","","","","","","","","","","","","","","","","","","","","","",""
"null","","html-keyboard-response","107","1016671","0.0-107.0","A1C27K2DKIGN4G","<p style=""font-size: 48px;"">+</p>","","","","","null","allTrialResponses","500","1","9","img_art/27.jpg","-42","Too childish and childlike","Cynthia,Michaela,Katherine,Madison,Kelly,Meghan","dirty and misunderstood,-47,320,20","It looks like a kid colored a picture and an adult added to it,19,260,20","it's like a weird version of heaven,16,120,20","The photographing is horribly distracting. I would feel more favorable toward the original colors/ brightness,1,60,20","The green stick drawings or whatever they are ruin it for me.,-23,220,20","again looks like childrens artwork,-40,220,20","Kelly","The green stick drawings or whatever they are ruin it for me.,-23,220,20","Meghan","again looks like childrens artwork,-40,220,20","Cynthia","dirty and misunderstood,-47,320,20","0"
"33902","","survey-text","108","1050585","0.0-108.0-0.0","A1C27K2DKIGN4G","","","","{""Q0"":""Pleasnt and peaceful. I like the 2 keys""}","","","","","","","","","","","","","","","","","","","","","","",""
"10894.299999952316","","image-slider-response","109","1061481","0.0-109.0","A1C27K2DKIGN4G","","","","","40","","","","","","","","","","","","","","","","","","","","","",""
"null","","image-button-response","110","1066493","0.0-110.0","A1C27K2DKIGN4G","img_art/22.jpg","null","","","","","","","","","","","","","","","","","","","","","","","","",""
"9554","","image-button-response","111","1076049","0.0-111.0","A1C27K2DKIGN4G","img_art/22.jpg","0","","","","","","","","","","","","","","","","","","","","","","","","",""
"8095","","image-button-response","112","1084145","0.0-112.0-0.0","A1C27K2DKIGN4G","img_art/22.jpg","5","","","","","","","","","","","","","","","","","","","","","","","","",""
"7702","","image-button-response","113","1091849","0.0-113.0-0.0","A1C27K2DKIGN4G","img_art/22.jpg","1","","","","","","","","","","","","","","","","","","","","","","","","",""
"null","","html-keyboard-response","114","1093362","0.0-114.0","A1C27K2DKIGN4G","<p style=""font-size: 48px;"">+</p>","","","","","null","allTrialResponses","1500","1","10","img_art/22.jpg","40","Pleasnt and peaceful. I like the 2 keys","Cynthia,Paige,Ashley,Morgan,Kelly,Meghan","A key to the unknown,15,320,20","Happy. I like to colors,33,60,20","Another servicable piece of abstract art?,20,320,20","Glowing city of many emotions.,10,380,20","I really enjoy the blended colors.,20,220,20","really beautiful colors and contrast,30,220,20","Cynthia","A key to the unknown,15,320,20","Meghan","really beautiful colors and contrast,30,220,20","Paige","Happy. I like to colors,33,60,20","0"
"4715","","survey-text","115","1098096","0.0-115.0-0.0","A1C27K2DKIGN4G","","","","{""Q0"":""our""}","","","","","","","","","","","","","","","","","","","","","","",""
"24871","","survey-text","116","1122969","0.0-116.0-0.0","A1C27K2DKIGN4G","","","","{""Q0"":""Sacred giant goddess""}","","","","","","","","","","","","","","","","","","","","","","",""
"6638.299999952316","","image-slider-response","117","1129608","0.0-117.0","A1C27K2DKIGN4G","","","","","50","","","","","","","","","","","","","","","","","","","","","",""
"null","","image-button-response","118","1134612","0.0-118.0","A1C27K2DKIGN4G","img_art/25.jpg","null","","","","","","","","","","","","","","","","","","","","","","","","",""
"1969","","image-button-response","119","1136585","0.0-119.0","A1C27K2DKIGN4G","img_art/25.jpg","0","","","","","","","","","","","","","","","","","","","","","","","","",""
"1574","","image-button-response","120","1138161","0.0-120.0-0.0","A1C27K2DKIGN4G","img_art/25.jpg","1","","","","","","","","","","","","","","","","","","","","","","","","",""
"9910","","image-button-response","121","1148072","0.0-121.0-0.0","A1C27K2DKIGN4G","img_art/25.jpg","0","","","","","","","","","","","","","","","","","","","","","","","","",""
"8111","","image-button-response","122","1161376","0.0-121.1-0.1","A1C27K2DKIGN4G","img_art/25.jpg","3","","","","","","","","","","","","","","","","","","","","","","","","",""
"null","","html-keyboard-response","123","1162392","0.0-122.0","A1C27K2DKIGN4G","<p style=""font-size: 48px;"">+</p>","","","","","null","allTrialResponses","1000","1","11","img_art/25.jpg","50","Sacred giant goddess","Cynthia,Paige,Hannah,Maria,Elizabeth,Meghan","Somewhat feel protected by a messenger,33,320,20","reminds me of ancient history which makes me happy,40,60,20","Looks like a voodoo figure in a New Orleans cemetery at night.,-5,240,20","I find it enjoyable - mainly because it is not art I ever expected to see,16,120,20","Love the color hues and the texture it creates,50,20,20","reminds me of a zombie,-36,220,20","Cynthia","Somewhat feel protected by a messenger,33,320,20","Paige","reminds me of ancient history which makes me happy,40,60,20","Maria","I find it enjoyable - mainly because it is not art I ever expected to see,16,120,20","2"
"29588","","survey-text","124","1191992","0.0-123.0-0.0","A1C27K2DKIGN4G","","","","{""Q0"":""Different moods of a person seeking dominence""}","","","","","","","","","","","","","","","","","","","","","","",""
"5222.399999976158","","image-slider-response","125","1197216","0.0-124.0","A1C27K2DKIGN4G","","","","","15","","","","","","","","","","","","","","","","","","","","","",""
"null","","image-button-response","126","1202224","0.0-125.0","A1C27K2DKIGN4G","img_art/12.jpg","null","","","","","","","","","","","","","","","","","","","","","","","","",""
"8878","","image-button-response","127","1211104","0.0-126.0","A1C27K2DKIGN4G","img_art/12.jpg","0","","","","","","","","","","","","","","","","","","","","","","","","",""
"6046","","image-button-response","128","1217153","0.0-127.0-0.0","A1C27K2DKIGN4G","img_art/12.jpg","2","","","","","","","","","","","","","","","","","","","","","","","","",""
"1910","","image-button-response","129","1219065","0.0-128.0-0.0","A1C27K2DKIGN4G","img_art/12.jpg","5","","","","","","","","","","","","","","","","","","","","","","","","",""
"null","","html-keyboard-response","130","1220067","0.0-129.0","A1C27K2DKIGN4G","<p style=""font-size: 48px;"">+</p>","","","","","null","allTrialResponses","1000","1","12","img_art/12.jpg","15","Different moods of a person seeking dominence","Cynthia,Paige,Victoria,Maria,Courtney,Kristen","Windows to a different story,6,320,20","do not like it. Seems too busy,-10,60,20","to contemporary for me,3,400,20","evokes the 80s, and not in a necessarily good way,-10,120,20","That is a warn quilt grama made.,11,280,20","stressful, upsetting,-10,280,20","Cynthia","Windows to a different story,6,320,20","Victoria","to contemporary for me,3,400,20","Kristen","stressful, upsetting,-10,280,20","2"
"24458","","survey-text","131","1244536","0.0-130.0-0.0","A1C27K2DKIGN4G","","","","{""Q0"":""Looks like a miscarriage or abortion""}","","","","","","","","","","","","","","","","","","","","","","",""
"4710.299999952316","","image-slider-response","132","1249248","0.0-131.0","A1C27K2DKIGN4G","","","","","-48","","","","","","","","","","","","","","","","","","","","","",""
"null","","image-button-response","133","1254251","0.0-132.0","A1C27K2DKIGN4G","img_art/28.jpg","null","","","","","","","","","","","","","","","","","","","","","","","","",""
"7387","","image-button-response","134","1261641","0.0-133.0","A1C27K2DKIGN4G","img_art/28.jpg","5","","","","","","","","","","","","","","","","","","","","","","","","",""
"8757","","image-button-response","135","1270400","0.0-134.0-0.0","A1C27K2DKIGN4G","img_art/28.jpg","1","","","","","","","","","","","","","","","","","","","","","","","","",""
"9006","","image-button-response","136","1279408","0.0-135.0-0.0","A1C27K2DKIGN4G","img_art/28.jpg","4","","","","","","","","","","","","","","","","","","","","","","","","",""
"null","","html-keyboard-response","137","1280424","0.0-136.0","A1C27K2DKIGN4G","<p style=""font-size: 48px;"">+</p>","","","","","null","allTrialResponses","1000","1","13","img_art/28.jpg","-48","Looks like a miscarriage or abortion","Cynthia,Christina,Victoria,Kylie,Andrea,Kristen","nostalgic from a memory,11,320,20","very blah colors and it's not fun,-27,240,20","drab and dreary,-21,400,20","Overpopulated city,35,300,20","It reminds me of the cantina in Star Wars.,37,240,20","almost reminds me of thomas becket getting his head cut off,21,280,20","Kristen","almost reminds me of thomas becket getting his head cut off,21,280,20","Christina","very blah colors and it's not fun,-27,240,20","Andrea","It reminds me of the cantina in Star Wars.,37,240,20","2"
"36050","","survey-text","138","1316488","0.0-137.0-0.0","A1C27K2DKIGN4G","","","","{""Q0"":""Early mans footprints fossilized in stone""}","","","","","","","","","","","","","","","","","","","","","","",""
"17286.600000023842","","image-slider-response","139","1333776","0.0-138.0","A1C27K2DKIGN4G","","","","","0","","","","","","","","","","","","","","","","","","","","","",""
"null","","image-button-response","140","1338794","0.0-139.0","A1C27K2DKIGN4G","img_art/7.jpg","null","","","","","","","","","","","","","","","","","","","","","","","","",""
"2132","","image-button-response","141","1340928","0.0-140.0","A1C27K2DKIGN4G","img_art/7.jpg","2","","","","","","","","","","","","","","","","","","","","","","","","",""
"9142","","image-button-response","142","1350072","0.0-141.0-0.0","A1C27K2DKIGN4G","img_art/7.jpg","5","","","","","","","","","","","","","","","","","","","","","","","","",""
"1750","","image-button-response","143","1351824","0.0-142.0-0.0","A1C27K2DKIGN4G","img_art/7.jpg","1","","","","","","","","","","","","","","","","","","","","","","","","",""
"null","","html-keyboard-response","144","1352328","0.0-143.0","A1C27K2DKIGN4G","<p style=""font-size: 48px;"">+</p>","","","","","null","allTrialResponses","500","1","14","img_art/7.jpg","0","Early mans footprints fossilized in stone","Crystal,Christina,Emma,Miranda,Andrea,Kristen","I thought I was looking at a satellite image of mars.,21,300,20","looks like the surface of the moon,-28,240,20","Cool, makes me think of archeology,15,60,20","This looks like a literal picture of the ground so I'm really not too sure about this one.,-42,320,20","Reminds me of mold. Repulsive.,-10,240,20","sand, beach, tranquil,10,280,20","Emma","Cool, makes me think of archeology,15,60,20","Kristen","sand, beach, tranquil,10,280,20","Christina","looks like the surface of the moon,-28,240,20","2"
"42091","","survey-text","145","1394431","0.0-144.0-0.0","A1C27K2DKIGN4G","","","","{""Q0"":""Joux de vivre""}","","","","","","","","","","","","","","","","","","","","","","",""
"3510.7000000476837","","image-slider-response","146","1397943","0.0-145.0","A1C27K2DKIGN4G","","","","","50","","","","","","","","","","","","","","","","","","","","","",""
"null","","image-button-response","147","1402959","0.0-146.0","A1C27K2DKIGN4G","img_art/4.jpg","null","","","","","","","","","","","","","","","","","","","","","","","","",""
"10830","","image-button-response","148","1413791","0.0-147.0","A1C27K2DKIGN4G","img_art/4.jpg","1","","","","","","","","","","","","","","","","","","","","","","","","",""
"1622","","image-button-response","149","1415415","0.0-148.0-0.0","A1C27K2DKIGN4G","img_art/4.jpg","2","","","","","","","","","","","","","","","","","","","","","","","","",""
"5511","","image-button-response","150","1420927","0.0-149.0-0.0","A1C27K2DKIGN4G","img_art/4.jpg","5","","","","","","","","","","","","","","","","","","","","","","","","",""
"null","","html-keyboard-response","151","1421932","0.0-150.0","A1C27K2DKIGN4G","<p style=""font-size: 48px;"">+</p>","","","","","null","allTrialResponses","1000","1","15","img_art/4.jpg","50","Joux de vivre","Jordan,Christina,Emma,Sierra,Mikayla,Kristen","The colors remind me of mcdonalds,-33,20,20","not enough color and too yellow for me. Not my favorite colors,-10,240,20","Interesting but maybe a little creepy,0,60,20","it looks like a deformed hand,-9,260,20","Not very interesting to look at.,-34,300,20","stresses me out, uncomfortable,-18,280,20","Christina","not enough color and too yellow for me. Not my favorite colors,-10,240,20","Emma","Interesting but maybe a little creepy,0,60,20","Kristen","stresses me out, uncomfortable,-18,280,20","2"
"5121","","survey-text","152","1427079","0.0-151.0-0.0","A1C27K2DKIGN4G","","","","{""Q0"":""course""}","","","","","","","","","","","","","","","","","","","","","","",""
"29831","","survey-text","153","1456911","0.0-152.0-0.0","A1C27K2DKIGN4G","","","","{""Q0"":""Looks like it's from a high school art class""}","","","","","","","","","","","","","","","","","","","","","","",""
"3718.399999976158","","image-slider-response","154","1460631","0.0-153.0","A1C27K2DKIGN4G","","","","","-22","","","","","","","","","","","","","","","","","","","","","",""
"null","","image-button-response","155","1465648","0.0-154.0","A1C27K2DKIGN4G","img_art/30.jpg","null","","","","","","","","","","","","","","","","","","","","","","","","",""
"9787","","image-button-response","156","1475439","0.0-155.0","A1C27K2DKIGN4G","img_art/30.jpg","3","","","","","","","","","","","","","","","","","","","","","","","","",""
"7358","","image-button-response","157","1482799","0.0-156.0-0.0","A1C27K2DKIGN4G","img_art/30.jpg","1","","","","","","","","","","","","","","","","","","","","","","","","",""
"7726","","image-button-response","158","1490527","0.0-157.0-0.0","A1C27K2DKIGN4G","img_art/30.jpg","0","","","","","","","","","","","","","","","","","","","","","","","","",""
"null","","html-keyboard-response","159","1491029","0.0-158.0","A1C27K2DKIGN4G","<p style=""font-size: 48px;"">+</p>","","","","","null","allTrialResponses","500","1","16","img_art/30.jpg","-22","Looks like it's from a high school art class","Caitlin,Christina,Emma,Destiny,Sophia,Kristen","My kid drew this same picture at daycare!!!,5,80,20","it looks like some thing I could make it my garage,-18,240,20","Like the design, not a big fan of the colors,20,60,20","literally stupid I made this with as seen on tv products when I was 7,-42,360,20","Hmmm. I think the artist is trying to direct me to a spreadsheet?  (s/s),-10,280,20","makes me think of a tunnel filled with graffiti,19,280,20","Destiny","literally stupid I made this with as seen on tv products when I was 7,-42,360,20","Christina","it looks like some thing I could make it my garage,-18,240,20","Caitlin","My kid drew this same picture at daycare!!!,5,80,20","2"
"28466","","survey-text","160","1519511","0.0-159.0-0.0","A1C27K2DKIGN4G","","","","{""Q0"":""Looks like someone starting a journey""}","","","","","","","","","","","","","","","","","","","","","","",""
"9118.100000023842","","image-slider-response","161","1528631","0.0-160.0","A1C27K2DKIGN4G","","","","","32","","","","","","","","","","","","","","","","","","","","","",""
"null","","image-button-response","162","1533634","0.0-161.0","A1C27K2DKIGN4G","img_art/21.jpg","null","","","","","","","","","","","","","","","","","","","","","","","","",""
"20473","","image-button-response","163","1554111","0.0-162.0","A1C27K2DKIGN4G","img_art/21.jpg","2","","","","","","","","","","","","","","","","","","","","","","","","",""
"4526","","image-button-response","164","1558639","0.0-163.0-0.0","A1C27K2DKIGN4G","img_art/21.jpg","1","","","","","","","","","","","","","","","","","","","","","","","","",""
"2814","","image-button-response","165","1561455","0.0-164.0-0.0","A1C27K2DKIGN4G","img_art/21.jpg","4","","","","","","","","","","","","","","","","","","","","","","","","",""
"null","","html-keyboard-response","166","1561956","0.0-165.0","A1C27K2DKIGN4G","<p style=""font-size: 48px;"">+</p>","","","","","null","allTrialResponses","500","1","17","img_art/21.jpg","32","Looks like someone starting a journey","Caitlin,Christina,Rebecca,Destiny,Dominique,Jasmine","Remove the rocks(?) on the lower right.,5,80,20","it has a lot of happy colors and it's very classic looking,35,240,20","stormy with gold lining,0,100,20","Pink is my favorite, against blue it looks like sunset. Seems like a boat burning down, so don't absolutely love it,23,360,20","Love the colors have to say this is my favorite above all,37,400,20","The blues make me feel sadder as my mood is already not the best right now,-10,340,20","Rebecca","stormy with gold lining,0,100,20","Christina","it has a lot of happy colors and it's very classic looking,35,240,20","Dominique","Love the colors have to say this is my favorite above all,37,400,20","2"
"20398","","survey-text","167","1582367","0.0-166.0-0.0","A1C27K2DKIGN4G","","","","{""Q0"":""Love it. So much to see""}","","","","","","","","","","","","","","","","","","","","","","",""
"3406.5999999046326","","image-slider-response","168","1585774","0.0-167.0","A1C27K2DKIGN4G","","","","","50","","","","","","","","","","","","","","","","","","","","","",""
"4446","","image-button-response","169","1590790","0.0-168.0","A1C27K2DKIGN4G","img_art/18.jpg","0","","","","","","","","","","","","","","","","","","","","","","","","",""
"14548","","image-button-response","170","1605342","0.0-169.0","A1C27K2DKIGN4G","img_art/18.jpg","2","","","","","","","","","","","","","","","","","","","","","","","","",""
"6503","","image-button-response","171","1611847","0.0-170.0-0.0","A1C27K2DKIGN4G","img_art/18.jpg","4","","","","","","","","","","","","","","","","","","","","","","","","",""
"3990","","image-button-response","172","1615839","0.0-171.0-0.0","A1C27K2DKIGN4G","img_art/18.jpg","0","","","","","","","","","","","","","","","","","","","","","","","","",""
"null","","html-keyboard-response","173","1616852","0.0-172.0","A1C27K2DKIGN4G","<p style=""font-size: 48px;"">+</p>","","","","","null","allTrialResponses","1000","1","18","img_art/18.jpg","50","Love it. So much to see","Leslie,Christina,Rebecca,Chelsea,Dominique,Savannah","This is a very energetic painting, and brings to mind scenes of battle.,50,380,20","it looks dreary and not uplifting,-10,240,20","reminds me of the little prince, with the color scheme and all,16,100,20","I like the detail but I wouldn't hang this up on my wall.,14,180,20","Very conversational and can see many different looks and feels from this .,34,400,20","Accents make this piece.,21,200,20","Rebecca","reminds me of the little prince, with the color scheme and all,16,100,20","Dominique","Very conversational and can see many different looks and feels from this .,34,400,20","Leslie","This is a very energetic painting, and brings to mind scenes of battle.,50,380,20","2"
"25679","","survey-text","174","1642543","0.0-173.0-0.0","A1C27K2DKIGN4G","","","","{""Q0"":""Feeling of wanting to belong""}","","","","","","","","","","","","","","","","","","","","","","",""
"5590.900000095367","","image-slider-response","175","1648135","0.0-174.0","A1C27K2DKIGN4G","","","","","25","","","","","","","","","","","","","","","","","","","","","",""
"null","","image-button-response","176","1653151","0.0-175.0","A1C27K2DKIGN4G","img_art/14.jpg","null","","","","","","","","","","","","","","","","","","","","","","","","",""
"5541","","image-button-response","177","1658695","0.0-176.0","A1C27K2DKIGN4G","img_art/14.jpg","3","","","","","","","","","","","","","","","","","","","","","","","","",""
"6430","","image-button-response","178","1665127","0.0-177.0-0.0","A1C27K2DKIGN4G","img_art/14.jpg","4","","","","","","","","","","","","","","","","","","","","","","","","",""
"662","","image-button-response","179","1665791","0.0-178.0-0.0","A1C27K2DKIGN4G","img_art/14.jpg","5","","","","","","","","","","","","","","","","","","","","","","","","",""
"null","","html-keyboard-response","180","1667294","0.0-179.0","A1C27K2DKIGN4G","<p style=""font-size: 48px;"">+</p>","","","","","null","allTrialResponses","1500","1","19","img_art/14.jpg","25","Feeling of wanting to belong","Leslie,Megan,Rebecca,Kaitlyn,Dominique,Amanda","This elicits no reaction in me.,0,380,20","Baby's room palette with tree confusion in a more confused substrate.,-15,200,20","medium recalls back to an oriental style,16,100,20","Focal point is interesting,5,80,20","Reminds me of the old days with my family and my grandma,41,400,20","Gorgeous use of water color,50,180,20","Kaitlyn","Focal point is interesting,5,80,20","Dominique","Reminds me of the old days with my family and my grandma,41,400,20","Amanda","Gorgeous use of water color,50,180,20","2"
"22467","","survey-text","181","1689775","0.0-180.0-0.0","A1C27K2DKIGN4G","","","","{""Q0"":""Post apocalyptic highway system""}","","","","","","","","","","","","","","","","","","","","","","",""
"5950.5","","image-slider-response","182","1695727","0.0-181.0","A1C27K2DKIGN4G","","","","","39","","","","","","","","","","","","","","","","","","","","","",""
"null","","image-button-response","183","1700740","0.0-182.0","A1C27K2DKIGN4G","img_art/11.jpg","null","","","","","","","","","","","","","","","","","","","","","","","","",""
"9296","","image-button-response","184","1710039","0.0-183.0","A1C27K2DKIGN4G","img_art/11.jpg","2","","","","","","","","","","","","","","","","","","","","","","","","",""
"1974","","image-button-response","185","1712015","0.0-184.0-0.0","A1C27K2DKIGN4G","img_art/11.jpg","1","","","","","","","","","","","","","","","","","","","","","","","","",""
"3566","","image-button-response","186","1715582","0.0-185.0-0.0","A1C27K2DKIGN4G","img_art/11.jpg","0","","","","","","","","","","","","","","","","","","","","","","","","",""
"null","","html-keyboard-response","187","1716088","0.0-186.0","A1C27K2DKIGN4G","<p style=""font-size: 48px;"">+</p>","","","","","null","allTrialResponses","500","1","20","img_art/11.jpg","39","Post apocalyptic highway system","Sarah,Emily,Rachel,Kaitlyn,Dominique,Amanda","i like the gray tones with black lines and bits of color,23,180,20","It's kind of cool and I see it looks clean.,22,40,20","Makes me think of a futuristic scene of vehicles flying in the sky in a city.,36,80,20","Interesting use of color,9,80,20","Looks like a familiar area,31,400,20","It makes me feel angry and overwhelmed,-29,180,20","Rachel","Makes me think of a futuristic scene of vehicles flying in the sky in a city.,36,80,20","Emily","It's kind of cool and I see it looks clean.,22,40,20","Sarah","i like the gray tones with black lines and bits of color,23,180,20","2"
"4590","","survey-text","188","1720703","0.0-187.0-0.0","A1C27K2DKIGN4G","","","","{""Q0"":""we""}","","","","","","","","","","","","","","","","","","","","","","",""
"23831","","survey-text","189","1744535","0.0-188.0-0.0","A1C27K2DKIGN4G","","","","{""Q0"":""too stark""}","","","","","","","","","","","","","","","","","","","","","","",""
"3974.5","","image-slider-response","190","1748511","0.0-189.0","A1C27K2DKIGN4G","","","","","-23","","","","","","","","","","","","","","","","","","","","","",""
"null","","image-button-response","191","1753529","0.0-190.0","A1C27K2DKIGN4G","img_art/3.jpg","null","","","","","","","","","","","","","","","","","","","","","","","","",""
"1707","","image-button-response","192","1755239","0.0-191.0","A1C27K2DKIGN4G","img_art/3.jpg","0","","","","","","","","","","","","","","","","","","","","","","","","",""
"13470","","image-button-response","193","1768711","0.0-192.0-0.0","A1C27K2DKIGN4G","img_art/3.jpg","2","","","","","","","","","","","","","","","","","","","","","","","","",""
"9438","","image-button-response","194","1778151","0.0-193.0-0.0","A1C27K2DKIGN4G","img_art/3.jpg","1","","","","","","","","","","","","","","","","","","","","","","","","",""
"null","","html-keyboard-response","195","1778661","0.0-194.0","A1C27K2DKIGN4G","<p style=""font-size: 48px;"">+</p>","","","","","null","allTrialResponses","500","1","21","img_art/3.jpg","-23","too stark","Sarah,Emily,Rachel,Michelle,Briana,Molly","the red is impactful but the work overall doesn't say anything to me,-8,180,20","Looks like someone mentalyl unstable drew and is ready to go a a killing spree.,-50,40,20","Too red and chaotic. Not calming.,-41,80,20","Ok, just a bunch of red lines and a grey smudge. Would pass this right by in a gallery,-12,280,20","Sharp peaks look like sharp teeth,-37,400,20","Mysterious, remarkable.,30,340,20","Sarah","the red is impactful but the work overall doesn't say anything to me,-8,180,20","Rachel","Too red and chaotic. Not calming.,-41,80,20","Emily","Looks like someone mentalyl unstable drew and is ready to go a a killing spree.,-50,40,20","2"
"20291","","survey-text","196","1798967","0.0-195.0-0.0","A1C27K2DKIGN4G","","","","{""Q0"":""musical dream guitar""}","","","","","","","","","","","","","","","","","","","","","","",""
"5094.299999952316","","image-slider-response","197","1804062","0.0-196.0","A1C27K2DKIGN4G","","","","","10","","","","","","","","","","","","","","","","","","","","","",""
"null","","image-button-response","198","1809070","0.0-197.0","A1C27K2DKIGN4G","img_art/10.jpg","null","","","","","","","","","","","","","","","","","","","","","","","","",""
"11982","","image-button-response","199","1821054","0.0-198.0","A1C27K2DKIGN4G","img_art/10.jpg","2","","","","","","","","","","","","","","","","","","","","","","","","",""
"1895","","image-button-response","200","1822950","0.0-199.0-0.0","A1C27K2DKIGN4G","img_art/10.jpg","3","","","","","","","","","","","","","","","","","","","","","","","","",""
"623","","image-button-response","201","1823574","0.0-200.0-0.0","A1C27K2DKIGN4G","img_art/10.jpg","4","","","","","","","","","","","","","","","","","","","","","","","","",""
"null","","html-keyboard-response","202","1824076","0.0-201.0","A1C27K2DKIGN4G","<p style=""font-size: 48px;"">+</p>","","","","","null","allTrialResponses","500","1","22","img_art/10.jpg","10","musical dream guitar","Sarah,Emily,Rachel,Sabrina,Jamie,Isabella","i like this, the mix of brush textures is cool,24,180,20","Ugly and low skill. I wouldn't want it.,-50,40,20","Reminds me of a terrarium with cacti inside. It reminds me of home.,27,80,20","I love the dark and edgy nature of this,50,120,20","Well done designs for being considered abstract,45,320,20","Like a decision making process,46,280,20","Rachel","Reminds me of a terrarium with cacti inside. It reminds me of home.,27,80,20","Sabrina","I love the dark and edgy nature of this,50,120,20","Jamie","Well done designs for being considered abstract,45,320,20","2"
"26212","","survey-text","203","1850302","0.0-202.0-0.0","A1C27K2DKIGN4G","","","","{""Q0"":""Feels sad and lost""}","","","","","","","","","","","","","","","","","","","","","","",""
"3958.5","","image-slider-response","204","1854262","0.0-203.0","A1C27K2DKIGN4G","","","","","-7","","","","","","","","","","","","","","","","","","","","","",""
"null","","image-button-response","205","1859272","0.0-204.0","A1C27K2DKIGN4G","img_art/1.jpg","null","","","","","","","","","","","","","","","","","","","","","","","","",""
"12162","","image-button-response","206","1871438","0.0-205.0","A1C27K2DKIGN4G","img_art/1.jpg","5","","","","","","","","","","","","","","","","","","","","","","","","",""
"4199","","image-button-response","207","1875638","0.0-206.0-0.0","A1C27K2DKIGN4G","img_art/1.jpg","2","","","","","","","","","","","","","","","","","","","","","","","","",""
"2215","","image-button-response","208","1877854","0.0-207.0-0.0","A1C27K2DKIGN4G","img_art/1.jpg","1","","","","","","","","","","","","","","","","","","","","","","","","",""
"null","","html-keyboard-response","209","1878361","0.0-208.0","A1C27K2DKIGN4G","<p style=""font-size: 48px;"">+</p>","","","","","null","allTrialResponses","500","1","23","img_art/1.jpg","-7","Feels sad and lost","Samantha,Haley,Rachel,Sabrina,Jamie,Taylor","Love the colors but it makes me feel like someone is looking at me through it,38,140,20","Pleasant, but a tad too monochromatic in some areas for my taste,7,220,20","While I like the colors, I find nothing interesting or thought provoking about it.,10,80,20","I love the calming comfort and safe feeling of this,50,120,20","Looks like just a bunch of colors with no real point,-5,320,20","Makes me think of a bad thunderstorm,11,340,20","Taylor","Makes me think of a bad thunderstorm,11,340,20","Rachel","While I like the colors, I find nothing interesting or thought provoking about it.,10,80,20","Haley","Pleasant, but a tad too monochromatic in some areas for my taste,7,220,20","2"
"28140","","survey-text","210","1906518","0.0-209.0-0.0","A1C27K2DKIGN4G","","","","{""Q0"":""A woman waiting on a couch for her lover""}","","","","","","","","","","","","","","","","","","","","","","",""
"7686.299999952316","","image-slider-response","211","1914205","0.0-210.0","A1C27K2DKIGN4G","","","","","6","","","","","","","","","","","","","","","","","","","","","",""
"null","","image-button-response","212","1919211","0.0-211.0","A1C27K2DKIGN4G","img_art/9.jpg","null","","","","","","","","","","","","","","","","","","","","","","","","",""
"1416","","image-button-response","213","1920630","0.0-212.0","A1C27K2DKIGN4G","img_art/9.jpg","2","","","","","","","","","","","","","","","","","","","","","","","","",""
"10510","","image-button-response","214","1931142","0.0-213.0-0.0","A1C27K2DKIGN4G","img_art/9.jpg","1","","","","","","","","","","","","","","","","","","","","","","","","",""
"4662","","image-button-response","215","1935806","0.0-214.0-0.0","A1C27K2DKIGN4G","img_art/9.jpg","5","","","","","","","","","","","","","","","","","","","","","","","","",""
"null","","html-keyboard-response","216","1936308","0.0-215.0","A1C27K2DKIGN4G","<p style=""font-size: 48px;"">+</p>","","","","","null","allTrialResponses","500","1","24","img_art/9.jpg","6","A woman waiting on a couch for her lover","Alexandra,Haley,Rachel,Shelby,Kimberly,Taylor","This picture is too busy and ugly,-20,60,20","I don't like the picture, but it wouldn't surprise me if someone did,-20,220,20","It looks like a lady taking a peaceful nap on a blanket in the grass.,41,80,20","A little too weird for me,-30,240,20","It's too all over the place,-37,260,20","The peacock theme gives me negative connotations of my ex-sister-in-law,-10,340,20","Rachel","It looks like a lady taking a peaceful nap on a blanket in the grass.,41,80,20","Haley","I don't like the picture, but it wouldn't surprise me if someone did,-20,220,20","Taylor","The peacock theme gives me negative connotations of my ex-sister-in-law,-10,340,20","2"
"21507","","survey-text","217","1957829","0.0-216.0-0.0","A1C27K2DKIGN4G","","","","{""Q0"":""Scary note written by a serial killer""}","","","","","","","","","","","","","","","","","","","","","","",""
"6917.900000095367","","image-slider-response","218","1964749","0.0-217.0","A1C27K2DKIGN4G","","","","","-48","","","","","","","","","","","","","","","","","","","","","",""
"null","","image-button-response","219","1969757","0.0-218.0","A1C27K2DKIGN4G","img_art/16.jpg","null","","","","","","","","","","","","","","","","","","","","","","","","",""
"14150","","image-button-response","220","1983910","0.0-219.0","A1C27K2DKIGN4G","img_art/16.jpg","3","","","","","","","","","","","","","","","","","","","","","","","","",""
"7734","","image-button-response","221","1991645","0.0-220.0-0.0","A1C27K2DKIGN4G","img_art/16.jpg","0","","","","","","","","","","","","","","","","","","","","","","","","",""
"3535","","image-button-response","222","1995181","0.0-221.0-0.0","A1C27K2DKIGN4G","img_art/16.jpg","0","","","","","","","","","","","","","","","","","","","","","","","","",""
"1295","","image-button-response","223","1999558","0.0-221.1-0.1","A1C27K2DKIGN4G","img_art/16.jpg","5","","","","","","","","","","","","","","","","","","","","","","","","",""
"null","","html-keyboard-response","224","2001068","0.0-222.0","A1C27K2DKIGN4G","<p style=""font-size: 48px;"">+</p>","","","","","null","allTrialResponses","1500","1","25","img_art/16.jpg","-48","Scary note written by a serial killer","Brooke,Haley,Rachel,Marissa,Cassidy,Taylor","Don't like teddy bears in art. I could draw that house.,-20,60,20","Makes me want to know more,5,220,20","Not pleasing to the eyes. I do like that the gun is broken though.,-28,80,20","I do not like this dark and twisted portrayal of childhood,-42,160,20","I don't know why, I just don't like it,-28,140,20","It just makes me feel uncomfortable,-25,340,20","Marissa","I do not like this dark and twisted portrayal of childhood,-42,160,20","Brooke","Don't like teddy bears in art. I could draw that house.,-20,60,20","Taylor","It just makes me feel uncomfortable,-25,340,20","4"
"5757","","survey-text","225","2006853","0.0-223.0-0.0","A1C27K2DKIGN4G","","","","{""Q0"":""table""}","","","","","","","","","","","","","","","","","","","","","","",""
"37759","","survey-text","226","2044613","0.0-224.0-0.0","A1C27K2DKIGN4G","","","","{""Q0"":""Like it. So many connections to be made""}","","","","","","","","","","","","","","","","","","","","","","",""
"6166.599999904633","","image-slider-response","227","2050782","0.0-225.0","A1C27K2DKIGN4G","","","","","38","","","","","","","","","","","","","","","","","","","","","",""
"4278","","image-button-response","228","2055785","0.0-226.0","A1C27K2DKIGN4G","img_art/8.jpg","4","","","","","","","","","","","","","","","","","","","","","","","","",""
"1521","","image-button-response","229","2057310","0.0-227.0","A1C27K2DKIGN4G","img_art/8.jpg","5","","","","","","","","","","","","","","","","","","","","","","","","",""
"7294","","image-button-response","230","2064606","0.0-228.0-0.0","A1C27K2DKIGN4G","img_art/8.jpg","2","","","","","","","","","","","","","","","","","","","","","","","","",""
"5236","","image-button-response","231","2069846","0.0-229.0-0.0","A1C27K2DKIGN4G","img_art/8.jpg","4","","","","","","","","","","","","","","","","","","","","","","","","",""
"null","","html-keyboard-response","232","2070856","0.0-230.0","A1C27K2DKIGN4G","<p style=""font-size: 48px;"">+</p>","","","","","null","allTrialResponses","1000","1","26","img_art/8.jpg","38","Like it. So many connections to be made","Brooke,Bailey,Gabrielle,Marissa,Breanna,Taylor","what's going on here. looks like scary town.,-25,60,20","Not a fan of abstract looking pieces with too many focal points. The tunnel and face, for example,-31,360,20","lots going on with great use of lots of color and geometry,24,160,20","I can't tell if this is supposed to portray just city life or a town crumbling,-5,160,20","Makes me feel nice,23,380,20","Looks like it would be an interesting place to live,35,340,20","Taylor","Looks like it would be an interesting place to live,35,340,20","Gabrielle","lots going on with great use of lots of color and geometry,24,160,20","Breanna","Makes me feel nice,23,380,20","4"
"44812","","survey-text","233","2115684","0.0-231.0-0.0","A1C27K2DKIGN4G","","","","{""Q0"":""a close up of an underwater city, calming""}","","","","","","","","","","","","","","","","","","","","","","",""
"4087","","image-slider-response","234","2119773","0.0-232.0","A1C27K2DKIGN4G","","","","","19","","","","","","","","","","","","","","","","","","","","","",""
"null","","image-button-response","235","2124782","0.0-233.0","A1C27K2DKIGN4G","img_art/13.jpg","null","","","","","","","","","","","","","","","","","","","","","","","","",""
"3812","","image-button-response","236","2128597","0.0-234.0","A1C27K2DKIGN4G","img_art/13.jpg","4","","","","","","","","","","","","","","","","","","","","","","","","",""
"918","","image-button-response","237","2129517","0.0-235.0-0.0","A1C27K2DKIGN4G","img_art/13.jpg","5","","","","","","","","","","","","","","","","","","","","","","","","",""
"5534","","image-button-response","238","2135053","0.0-236.0-0.0","A1C27K2DKIGN4G","img_art/13.jpg","0","","","","","","","","","","","","","","","","","","","","","","","","",""
"null","","html-keyboard-response","239","2136066","0.0-237.0","A1C27K2DKIGN4G","<p style=""font-size: 48px;"">+</p>","","","","","null","allTrialResponses","1000","1","27","img_art/13.jpg","19","a close up of an underwater city, calming","Alexis,Shannon,Gabrielle,Jessica,Breanna,Taylor","Simple, but pleasing. The blue gradient is a favorite of mine,32,100,20","It looks like someone splattered a bunch of different colors to make a picture; I think its ugly.,-40,220,20","kind of like the pattern and colors but don't love it,13,160,20","The paint splatter idea is kind of overused but I like how it brings the piece together,16,400,20","Makes me feel nice and calm,18,380,20","It makes me think of sitting inside on a rainy day while drinking a warm coffee,32,340,20","Breanna","Makes me feel nice and calm,18,380,20","Taylor","It makes me think of sitting inside on a rainy day while drinking a warm coffee,32,340,20","Alexis","Simple, but pleasing. The blue gradient is a favorite of mine,32,100,20","4"
"35764","","survey-text","240","2171846","0.0-238.0-0.0","A1C27K2DKIGN4G","","","","{""Q0"":""The colors are jarring and violent""}","","","","","","","","","","","","","","","","","","","","","","",""
"4542.399999976158","","image-slider-response","241","2176390","0.0-239.0","A1C27K2DKIGN4G","","","","","-50","","","","","","","","","","","","","","","","","","","","","",""
"null","","image-button-response","242","2181395","0.0-240.0","A1C27K2DKIGN4G","img_art/5.jpg","null","","","","","","","","","","","","","","","","","","","","","","","","",""
"5456","","image-button-response","243","2186853","0.0-241.0","A1C27K2DKIGN4G","img_art/5.jpg","2","","","","","","","","","","","","","","","","","","","","","","","","",""
"5815","","image-button-response","244","2192669","0.0-242.0-0.0","A1C27K2DKIGN4G","img_art/5.jpg","4","","","","","","","","","","","","","","","","","","","","","","","","",""
"4606","","image-button-response","245","2197278","0.0-243.0-0.0","A1C27K2DKIGN4G","img_art/5.jpg","1","","","","","","","","","","","","","","","","","","","","","","","","",""
"null","","html-keyboard-response","246","2198279","0.0-244.0","A1C27K2DKIGN4G","<p style=""font-size: 48px;"">+</p>","","","","","null","allTrialResponses","1000","1","28","img_art/5.jpg","-50","The colors are jarring and violent","Alexis,Danielle,Vanessa,Autumn,Breanna,Taylor","Kindergarten art. I really don't like this style.,-50,100,20","Not a fan of the themes,-30,340,20","The yellow is garish and the picture doesn't look liked anything.,-49,380,20","Appealing but shapeless,24,340,20","Makes me feel weird,-16,380,20","Doesn't make me think anything,-1,340,20","Vanessa","The yellow is garish and the picture doesn't look liked anything.,-49,380,20","Breanna","Makes me feel weird,-16,380,20","Danielle","Not a fan of the themes,-30,340,20","4"
"29650","","survey-text","247","2227948","0.0-245.0-0.0","A1C27K2DKIGN4G","","","","{""Q0"":""Mystery at the art museum, it's fun""}","","","","","","","","","","","","","","","","","","","","","","",""
"6670.600000023842","","image-slider-response","248","2234620","0.0-246.0","A1C27K2DKIGN4G","","","","","36","","","","","","","","","","","","","","","","","","","","","",""
"null","","image-button-response","249","2239635","0.0-247.0","A1C27K2DKIGN4G","img_art/17.jpg","null","","","","","","","","","","","","","","","","","","","","","","","","",""
"11591","","image-button-response","250","2251228","0.0-248.0","A1C27K2DKIGN4G","img_art/17.jpg","0","","","","","","","","","","","","","","","","","","","","","","","","",""
"2039","","image-button-response","251","2253268","0.0-249.0-0.0","A1C27K2DKIGN4G","img_art/17.jpg","3","","","","","","","","","","","","","","","","","","","","","","","","",""
"4519","","image-button-response","252","2257788","0.0-250.0-0.0","A1C27K2DKIGN4G","img_art/17.jpg","2","","","","","","","","","","","","","","","","","","","","","","","","",""
"null","","html-keyboard-response","253","2258790","0.0-251.0","A1C27K2DKIGN4G","<p style=""font-size: 48px;"">+</p>","","","","","null","allTrialResponses","1000","1","29","img_art/17.jpg","36","Mystery at the art museum, it's fun","Stephanie,Danielle,Vanessa,Sydney,Breanna,Katie","The wispy trees caught my eye.,42,300,20","It's alright, nothing I particularly like but it's just fine,-10,340,20","I want to know more about this picture and where it leads if you could get inside it.,27,380,20","This picture is calming to me, and I love the colors.,45,320,20","Very cool, makes me feel calm,43,380,20","Is it a tree/plant of some sort?  Or, I see hair?  I don't get it. But, the colors are pleasing to me.,1,160,20","Stephanie","The wispy trees caught my eye.,42,300,20","Sydney","This picture is calming to me, and I love the colors.,45,320,20","Vanessa","I want to know more about this picture and where it leads if you could get inside it.,27,380,20","4"
"16260","","survey-text","254","2275068","0.0-252.0-0.0","A1C27K2DKIGN4G","","","","{""Q0"":""Too Middle Earth feeling""}","","","","","","","","","","","","","","","","","","","","","","",""
"7422.399999976158","","image-slider-response","255","2282492","0.0-253.0","A1C27K2DKIGN4G","","","","","-48","","","","","","","","","","","","","","","","","","","","","",""
"null","","image-button-response","256","2287496","0.0-254.0","A1C27K2DKIGN4G","img_art/24.jpg","null","","","","","","","","","","","","","","","","","","","","","","","","",""
"5282","","image-button-response","257","2292781","0.0-255.0","A1C27K2DKIGN4G","img_art/24.jpg","5","","","","","","","","","","","","","","","","","","","","","","","","",""
"5414","","image-button-response","258","2298197","0.0-256.0-0.0","A1C27K2DKIGN4G","img_art/24.jpg","2","","","","","","","","","","","","","","","","","","","","","","","","",""
"2342","","image-button-response","259","2300541","0.0-257.0-0.0","A1C27K2DKIGN4G","img_art/24.jpg","3","","","","","","","","","","","","","","","","","","","","","","","","",""
"null","","html-keyboard-response","260","2302042","0.0-258.0","A1C27K2DKIGN4G","<p style=""font-size: 48px;"">+</p>","","","","","null","allTrialResponses","1500","1","30","img_art/24.jpg","-48","Too Middle Earth feeling","Stephanie,Brittany,Vanessa,Sydney,Amber,Melissa","A beautiful waterfall in the springtime.,40,300,20","Nice colors, but doesn't do much for me.,1,40,20","I love the colors, but I wish the water was less abstract.,17,380,20","I'm reminded of a waterfall, but I feel like it could've been better portrayed.,5,320,20","peaceful and calm yet joyous.,50,200,20","feels overdone, but still executed well,0,240,20","Melissa","feels overdone, but still executed well,0,240,20","Vanessa","I love the colors, but I wish the water was less abstract.,17,380,20","Sydney","I'm reminded of a waterfall, but I feel like it could've been better portrayed.,5,320,20","4"
"3759","","image-button-response_instructions","261","2305820","0.0-259.0","A1C27K2DKIGN4G","","0","instructions","","","","","","","","","","","","","","","","","","","","","","","",""
"1164","","image-button-response","262","2306988","0.0-260.0","A1C27K2DKIGN4G","","0","","","","","","","","","","","","","","","","","","","","","","","","",""
