"rt","url","trial_type","trial_index","time_elapsed","internal_node_id","participant_id","stimulus","button_pressed","Name","responses","response","key_press","variableName","fixationTime","condition","trial","photo","subjectRating","subjectResponse","agentsNames","agent_1_Response","agent_2_Response","agent_3_Response","agent_4_Response","agent_5_Response","agent_6_Response","kept_1_name","kept_1_response","kept_2_name","kept_2_response","kept_3_name","kept_3_response","errorCounter"
"4692","external_page_harvard.html","external-html","0","4800","0.0-0.0","A1C8FN01981A69","","","","","","","","","","","","","","","","","","","","","","","","","","",""
"1612","","image-button-response","1","6414","0.0-1.0","A1C8FN01981A69","","0","","","","","","","","","","","","","","","","","","","","","","","","",""
"1496","","image-button-response","2","7917","0.0-2.0-0.0","A1C8FN01981A69","","1","phone","","","","","","","","","","","","","","","","","","","","","","","",""
"9119","","survey-text","3","17038","0.0-3.0-0.0","A1C8FN01981A69","","","","{""Q0"":""A1C8FN01981A69""}","","","","","","","","","","","","","","","","","","","","","","",""
"145983","","image-button-response_instructions","4","163022","0.0-4.0","A1C8FN01981A69","","0","instructions","","","","","","","","","","","","","","","","","","","","","","","",""
"6846","","image-button-response_instructions","5","169870","0.0-5.0","A1C8FN01981A69","img_art/ins/popularity/ins1.png","0","instructions","","","","","","","","","","","","","","","","","","","","","","","",""
"2215","","image-button-response_instructions","6","172086","0.0-6.0","A1C8FN01981A69","img_art/ins/popularity/ins2.png","0","instructions","","","","","","","","","","","","","","","","","","","","","","","",""
"265319","","image-button-response_instructions","7","437405","0.0-7.0","A1C8FN01981A69","img_art/ins/popularity/ins2Extreme.png","0","instructions","","","","","","","","","","","","","","","","","","","","","","","",""
"10103","","image-button-response_instructions","8","447509","0.0-8.0","A1C8FN01981A69","img_art/ins/popularity/ins3KEEPpop.PNG","0","instructions","","","","","","","","","","","","","","","","","","","","","","","",""
"284183","","image-button-response_instructions","9","731694","0.0-9.0","A1C8FN01981A69","img_art/ins/popularity/ins3ANamepop.PNG","0","instructions","","","","","","","","","","","","","","","","","","","","","","","",""
"918","","image-button-response_instructions","10","732613","0.0-10.0","A1C8FN01981A69","img_art/ins/popularity/ins3ARatingpop.png","0","instructions","","","","","","","","","","","","","","","","","","","","","","","",""
"1070","","image-button-response_instructions","11","733685","0.0-11.0","A1C8FN01981A69","img_art/ins/popularity/ins3ATextpop.png","0","instructions","","","","","","","","","","","","","","","","","","","","","","","",""
"1207","","image-button-response_instructions","12","734893","0.0-12.0","A1C8FN01981A69","img_art/ins/popularity/ins3ALikespop.png","0","instructions","","","","","","","","","","","","","","","","","","","","","","","",""
"5449","","image-button-response_instructions","13","740349","0.0-13.0","A1C8FN01981A69","img_art/ins/popularity/ins3KEEPpop.PNG","0","instructions","","","","","","","","","","","","","","","","","","","","","","","",""
"4607","","image-button-response_instructions","14","744957","0.0-14.0","A1C8FN01981A69","img_art/ins/popularity/ins3_5RED.png","0","instructions","","","","","","","","","","","","","","","","","","","","","","","",""
"1351","","image-button-response_instructions","15","746309","0.0-15.0","A1C8FN01981A69","img_art/ins/popularity/ins3KEEPpop.PNG","0","instructions","","","","","","","","","","","","","","","","","","","","","","","",""
"950","","image-button-response_instructions","16","747261","0.0-16.0","A1C8FN01981A69","img_art/ins/popularity/ins4KEEPpop.PNG","0","instructions","","","","","","","","","","","","","","","","","","","","","","","",""
"3215","","image-button-response_instructions","17","750477","0.0-17.0","A1C8FN01981A69","img_art/ins/popularity/ins5KEEPpop.PNG","0","instructions","","","","","","","","","","","","","","","","","","","","","","","",""
"1615","","image-button-response_instructions","18","752094","0.0-18.0","A1C8FN01981A69","","0","instructions","","","","","","","","","","","","","","","","","","","","","","","",""
"7740","","survey-text","19","759869","0.0-19.0-0.0","A1C8FN01981A69","","","","{""Q0"":""but""}","","","","","","","","","","","","","","","","","","","","","","",""
"13574","","survey-text","20","773445","0.0-20.0-0.0","A1C8FN01981A69","","","","{""Q0"":""The abstract art style is somewhat unappealing to me""}","","","","","","","","","","","","","","","","","","","","","","",""
"2885","","image-slider-response","21","776333","0.0-21.0","A1C8FN01981A69","","","","","-17","","","","","","","","","","","","","","","","","","","","","",""
"null","","image-button-response","22","781336","0.0-22.0","A1C8FN01981A69","img_art/ins/1.jpg","null","","","","","","","","","","","","","","","","","","","","","","","","",""
"611","","image-button-response","23","781950","0.0-23.0","A1C8FN01981A69","img_art/ins/1.jpg","0","","","","","","","","","","","","","","","","","","","","","","","","",""
"1670","","image-button-response","24","783622","0.0-24.0-0.0","A1C8FN01981A69","img_art/ins/1.jpg","3","","","","","","","","","","","","","","","","","","","","","","","","",""
"1949","","image-button-response","25","785574","0.0-25.0-0.0","A1C8FN01981A69","img_art/ins/1.jpg","4","","","","","","","","","","","","","","","","","","","","","","","","",""
"null","","html-keyboard-response","26","787075","0.0-26.0","A1C8FN01981A69","<p style=""font-size: 48px;"">+</p>","","","","","null","allTrialResponses","1500","1","-2","img_art/ins/1.jpg","-17","The abstract art style is somewhat unappealing to me","Adam,Alex,Ben,Carl,Daniel,Jack","Seems like doodles,-20,20,20","very creative work.,36,40,20","This color reminds me of poo,-46,60,20","very calming artwork,42,80,20","It looks like a murder scene.,-48,100,20","I like the sophisticated brushwork,40,120,20","Adam","Seems like doodles,-20,20,20","Carl","very calming artwork,42,80,20","Daniel","It looks like a murder scene.,-48,100,20","0"
"330796","","survey-text","27","1117877","0.0-27.0-0.0","A1C8FN01981A69","","","","{""Q0"":""I like the colors and how they are used""}","","","","","","","","","","","","","","","","","","","","","","",""
"2301","","image-slider-response","28","1120180","0.0-28.0","A1C8FN01981A69","","","","","18","","","","","","","","","","","","","","","","","","","","","",""
"3271","","image-button-response","29","1125182","0.0-29.0","A1C8FN01981A69","img_art/ins/2.jpg","2","","","","","","","","","","","","","","","","","","","","","","","","",""
"2405","","image-button-response","30","1127590","0.0-30.0","A1C8FN01981A69","img_art/ins/2.jpg","3","","","","","","","","","","","","","","","","","","","","","","","","",""
"4158","","image-button-response","31","1131749","0.0-31.0-0.0","A1C8FN01981A69","img_art/ins/2.jpg","2","","","","","","","","","","","","","","","","","","","","","","","","",""
"2053","","image-button-response","32","1133805","0.0-32.0-0.0","A1C8FN01981A69","img_art/ins/2.jpg","1","","","","","","","","","","","","","","","","","","","","","","","","",""
"null","","html-keyboard-response","33","1134314","0.0-33.0","A1C8FN01981A69","<p style=""font-size: 48px;"">+</p>","","","","","null","allTrialResponses","500","1","-1","img_art/ins/2.jpg","18","I like the colors and how they are used","Adam,James,John,Carl,Daniel,Kyle","too much color,-18,20,20","looks too angry,-50,140,20","love the texture of paint,48,160,20","I can feel the artist's passion in it,45,80,20","One of my pet peevs,-48,100,20","Idk, it is just annoying,-32,180,20","Carl","I can feel the artist's passion in it,45,80,20","John","love the texture of paint,48,160,20","James","looks too angry,-50,140,20","0"
"9769","","survey-text","34","1144090","0.0-34.0-0.0","A1C8FN01981A69","","","","{""Q0"":""The design of the strokes is nice to look at""}","","","","","","","","","","","","","","","","","","","","","","",""
"2930","","image-slider-response","35","1147021","0.0-35.0","A1C8FN01981A69","","","","","10","","","","","","","","","","","","","","","","","","","","","",""
"3958","","image-button-response","36","1152023","0.0-36.0","A1C8FN01981A69","img_art/ins/3.jpg","0","","","","","","","","","","","","","","","","","","","","","","","","",""
"2371","","image-button-response","37","1154397","0.0-37.0","A1C8FN01981A69","img_art/ins/3.jpg","0","","","","","","","","","","","","","","","","","","","","","","","","",""
"966","","image-button-response","38","1155366","0.0-38.0-0.0","A1C8FN01981A69","img_art/ins/3.jpg","2","","","","","","","","","","","","","","","","","","","","","","","","",""
"4534","","image-button-response","39","1159902","0.0-39.0-0.0","A1C8FN01981A69","img_art/ins/3.jpg","5","","","","","","","","","","","","","","","","","","","","","","","","",""
"null","","html-keyboard-response","40","1160903","0.0-40.0","A1C8FN01981A69","<p style=""font-size: 48px;"">+</p>","","","","","null","allTrialResponses","1000","1","0","img_art/ins/3.jpg","10","The design of the strokes is nice to look at","Mike,James,John,Carl,Ron,Sam","enjoy the different shades of blue,22,200,20","My worst nightmare,-42,140,20","I like the overlapping of brushes,41,160,20","It's an alright work,15,80,20","It looks depressing,-26,220,20","I can feel a rainy day from this painting,18,240,20","Mike","enjoy the different shades of blue,22,200,20","John","I like the overlapping of brushes,41,160,20","Sam","I can feel a rainy day from this painting,18,240,20","0"
"159750","","image-button-response_instructions","41","1320661","0.0-41.0","A1C8FN01981A69","","0","instructions","","","","","","","","","","","","","","","","","","","","","","","",""
"7310","","survey-likert","42","1327974","0.0-42.0-0.0","A1C8FN01981A69","","","","{""Q0"":"""",""Q1"":0,""Q2"":1}","","","","","","","","","","","","","","","","","","","","","","",""
"2619","","survey-text","43","1330602","0.0-43.0-0.0","A1C8FN01981A69","","","","{""Q0"":""rock""}","","","","","","","","","","","","","","","","","","","","","","",""
"8110","","survey-text","44","1338714","0.0-44.0-0.0","A1C8FN01981A69","","","","{""Q0"":""The colors mesh well""}","","","","","","","","","","","","","","","","","","","","","","",""
"2416","","image-slider-response","45","1341133","0.0-45.0","A1C8FN01981A69","","","","","6","","","","","","","","","","","","","","","","","","","","","",""
"4923","","image-button-response","46","1346170","0.0-46.0","A1C8FN01981A69","img_art/22.jpg","1","","","","","","","","","","","","","","","","","","","","","","","","",""
"2649","","image-button-response","47","1348821","0.0-47.0","A1C8FN01981A69","img_art/22.jpg","1","","","","","","","","","","","","","","","","","","","","","","","","",""
"2302","","image-button-response","48","1351126","0.0-48.0-0.0","A1C8FN01981A69","img_art/22.jpg","5","","","","","","","","","","","","","","","","","","","","","","","","",""
"571","","image-button-response","49","1351701","0.0-49.0-0.0","A1C8FN01981A69","img_art/22.jpg","0","","","","","","","","","","","","","","","","","","","","","","","","",""
"null","","html-keyboard-response","50","1352702","0.0-50.0","A1C8FN01981A69","<p style=""font-size: 48px;"">+</p>","","","","","null","allTrialResponses","1000","1","1","img_art/22.jpg","6","The colors mesh well","Daniel,Eric,Adrian,Colton,Zachary,Shane","Organic sun spot on a flexible grid,18,320,20","I don't normally like bright colors, but I like them in this. Don't like the random black paint.,30,100,20","Too much contrasting colors makes me feel anxious. I don't like it.,-20,60,20","I enjoy the colors used,24,220,20","I like the vivid colors.,11,400,20","Sunsets at the beach,42,80,20","Eric","I don't normally like bright colors, but I like them in this. Don't like the random black paint.,30,100,20","Shane","Sunsets at the beach,42,80,20","Daniel","Organic sun spot on a flexible grid,18,320,20","0"
"140407","","survey-text","51","1493114","0.0-51.0-0.0","A1C8FN01981A69","","","","{""Q0"":""The red color in the center looks powerful""}","","","","","","","","","","","","","","","","","","","","","","",""
"2345","","image-slider-response","52","1495461","0.0-52.0","A1C8FN01981A69","","","","","2","","","","","","","","","","","","","","","","","","","","","",""
"null","","image-button-response","53","1500464","0.0-53.0","A1C8FN01981A69","img_art/1.jpg","null","","","","","","","","","","","","","","","","","","","","","","","","",""
"1099","","image-button-response","54","1501565","0.0-54.0","A1C8FN01981A69","img_art/1.jpg","0","","","","","","","","","","","","","","","","","","","","","","","","",""
"1109","","image-button-response","55","1502677","0.0-55.0-0.0","A1C8FN01981A69","img_art/1.jpg","4","","","","","","","","","","","","","","","","","","","","","","","","",""
"3390","","image-button-response","56","1506069","0.0-56.0-0.0","A1C8FN01981A69","img_art/1.jpg","1","","","","","","","","","","","","","","","","","","","","","","","","",""
"null","","html-keyboard-response","57","1507071","0.0-57.0","A1C8FN01981A69","<p style=""font-size: 48px;"">+</p>","","","","","null","allTrialResponses","1000","1","2","img_art/1.jpg","2","The red color in the center looks powerful","Daniel,Eric,Jesse,William,Lucas,Shane","Nice colors with some 3D effects,15,320,20","I like the way that the colors blend.,35,100,20","Im not a fan of the bluriness,-18,80,20","love how the colors blend,42,380,20","The colors match and create a nice artistic disorder.,20,380,20","Warmth of the sun,22,80,20","Daniel","Nice colors with some 3D effects,15,320,20","Lucas","The colors match and create a nice artistic disorder.,20,380,20","Eric","I like the way that the colors blend.,35,100,20","0"
"10960","","survey-text","58","1518037","0.0-58.0-0.0","A1C8FN01981A69","","","","{""Q0"":""Looks mechanic with soft edges""}","","","","","","","","","","","","","","","","","","","","","","",""
"2150","","image-slider-response","59","1520189","0.0-59.0","A1C8FN01981A69","","","","","7","","","","","","","","","","","","","","","","","","","","","",""
"3573","","image-button-response","60","1525191","0.0-60.0","A1C8FN01981A69","img_art/29.jpg","0","","","","","","","","","","","","","","","","","","","","","","","","",""
"931","","image-button-response","61","1526125","0.0-61.0","A1C8FN01981A69","img_art/29.jpg","0","","","","","","","","","","","","","","","","","","","","","","","","",""
"3878","","image-button-response","62","1530005","0.0-62.0-0.0","A1C8FN01981A69","img_art/29.jpg","1","","","","","","","","","","","","","","","","","","","","","","","","",""
"941","","image-button-response","63","1530949","0.0-63.0-0.0","A1C8FN01981A69","img_art/29.jpg","3","","","","","","","","","","","","","","","","","","","","","","","","",""
"null","","html-keyboard-response","64","1531454","0.0-64.0","A1C8FN01981A69","<p style=""font-size: 48px;"">+</p>","","","","","null","allTrialResponses","500","1","3","img_art/29.jpg","7","Looks mechanic with soft edges","Daniel,Eric,Jeffrey,Kevin,Lucas,Marcus","Pinball meets a dark dream meets whale alien, drab,13,320,20","I like that the colors are toned down even though they're everywhere.,5,100,20","Looks like an accident more than an art to me,-26,40,20","Thats a pretty wierd picture.,6,320,20","Looks kinda scary.,25,380,20","I would like this piece better without the red X across it,-10,60,20","Daniel","Pinball meets a dark dream meets whale alien, drab,13,320,20","Eric","I like that the colors are toned down even though they're everywhere.,5,100,20","Kevin","Thats a pretty wierd picture.,6,320,20","0"
"97213","","survey-text","65","1628674","0.0-65.0-0.0","A1C8FN01981A69","","","","{""Q0"":""the boxes look like photos""}","","","","","","","","","","","","","","","","","","","","","","",""
"2385","","image-slider-response","66","1631061","0.0-66.0","A1C8FN01981A69","","","","","12","","","","","","","","","","","","","","","","","","","","","",""
"null","","image-button-response","67","1636063","0.0-67.0","A1C8FN01981A69","img_art/12.jpg","null","","","","","","","","","","","","","","","","","","","","","","","","",""
"1596","","image-button-response","68","1637662","0.0-68.0","A1C8FN01981A69","img_art/12.jpg","4","","","","","","","","","","","","","","","","","","","","","","","","",""
"2029","","image-button-response","69","1639694","0.0-69.0-0.0","A1C8FN01981A69","img_art/12.jpg","3","","","","","","","","","","","","","","","","","","","","","","","","",""
"725","","image-button-response","70","1640421","0.0-70.0-0.0","A1C8FN01981A69","img_art/12.jpg","2","","","","","","","","","","","","","","","","","","","","","","","","",""
"null","","html-keyboard-response","71","1641922","0.0-71.0","A1C8FN01981A69","<p style=""font-size: 48px;"">+</p>","","","","","null","allTrialResponses","1500","1","4","img_art/12.jpg","12","the boxes look like photos","Daniel,Eric,Jose,Kevin,Angel,Mason","Blocky windowed, safe and selfish,-41,320,20","I don't like the dark black with the bright colors, but this as a whole is nice.,25,100,20","Not sure why but this is my favorite. I'd put it on my wall,50,200,20","That is a warn quilt grama made.,11,320,20","This feels cosmopolitan. Like looking at a high rise apartment at night and seeing into everyone's windows.,20,180,20","it's ok, but blocky, looks old.,3,100,20","Angel","This feels cosmopolitan. Like looking at a high rise apartment at night and seeing into everyone's windows.,20,180,20","Kevin","That is a warn quilt grama made.,11,320,20","Jose","Not sure why but this is my favorite. I'd put it on my wall,50,200,20","0"
"6214","","survey-text","72","1648141","0.0-72.0-0.0","A1C8FN01981A69","","","","{""Q0"":""Looks like a belly""}","","","","","","","","","","","","","","","","","","","","","","",""
"1742","","image-slider-response","73","1649885","0.0-73.0","A1C8FN01981A69","","","","","28","","","","","","","","","","","","","","","","","","","","","",""
"4294","","image-button-response","74","1654887","0.0-74.0","A1C8FN01981A69","img_art/9.jpg","0","","","","","","","","","","","","","","","","","","","","","","","","",""
"605","","image-button-response","75","1655493","0.0-75.0","A1C8FN01981A69","img_art/9.jpg","0","","","","","","","","","","","","","","","","","","","","","","","","",""
"902","","image-button-response","76","1656397","0.0-76.0-0.0","A1C8FN01981A69","img_art/9.jpg","2","","","","","","","","","","","","","","","","","","","","","","","","",""
"853","","image-button-response","77","1657253","0.0-77.0-0.0","A1C8FN01981A69","img_art/9.jpg","4","","","","","","","","","","","","","","","","","","","","","","","","",""
"null","","html-keyboard-response","78","1658254","0.0-78.0","A1C8FN01981A69","<p style=""font-size: 48px;"">+</p>","","","","","null","allTrialResponses","1000","1","5","img_art/9.jpg","28","Looks like a belly","Cameron,Devin,Jose,Kevin,Angel,Jake","Dark fantasy seaside cave carnival? Fun.,15,60,20","I really like the colors and details.,8,380,20","Idk what is in the middle but the blurry image makes it seem like the subject is of the painters interest,22,200,20","This is a picture of a scary mans head sideways.,-24,320,20","This feels dreamy. Like I'm seeing inside someone's head while they're sleeping.,20,180,20","The colors and image is ugly.,-7,360,20","Cameron","Dark fantasy seaside cave carnival? Fun.,15,60,20","Jose","Idk what is in the middle but the blurry image makes it seem like the subject is of the painters interest,22,200,20","Angel","This feels dreamy. Like I'm seeing inside someone's head while they're sleeping.,20,180,20","0"
"2654","","survey-text","79","1660922","0.0-79.0-0.0","A1C8FN01981A69","","","","{""Q0"":""sky""}","","","","","","","","","","","","","","","","","","","","","","",""
"209263","","survey-text","80","1870186","0.0-80.0-0.0","A1C8FN01981A69","","","","{""Q0"":""Looks like a depicition of nature""}","","","","","","","","","","","","","","","","","","","","","","",""
"1864","","image-slider-response","81","1872053","0.0-81.0","A1C8FN01981A69","","","","","7","","","","","","","","","","","","","","","","","","","","","",""
"4711","","image-button-response","82","1877054","0.0-82.0","A1C8FN01981A69","img_art/26.jpg","2","","","","","","","","","","","","","","","","","","","","","","","","",""
"1709","","image-button-response","83","1878766","0.0-83.0","A1C8FN01981A69","img_art/26.jpg","2","","","","","","","","","","","","","","","","","","","","","","","","",""
"1094","","image-button-response","84","1879862","0.0-84.0-0.0","A1C8FN01981A69","img_art/26.jpg","4","","","","","","","","","","","","","","","","","","","","","","","","",""
"1214","","image-button-response","85","1881078","0.0-85.0-0.0","A1C8FN01981A69","img_art/26.jpg","5","","","","","","","","","","","","","","","","","","","","","","","","",""
"null","","html-keyboard-response","86","1881579","0.0-86.0","A1C8FN01981A69","<p style=""font-size: 48px;"">+</p>","","","","","null","allTrialResponses","500","1","6","img_art/26.jpg","7","Looks like a depicition of nature","Cameron,Scott,Jose,Carlos,Angel,Blake","street scene is okay?,15,60,20","nothing really special, quite bland,1,20,20","This style of objects that are supposed to be something but then are blurry is interesting.,38,200,20","Pleasant but bland.,10,80,20","This piece feels pretty chill like it's just a normal day in the city.,10,180,20","bedroom in the outdoors. warm,9,280,20","Jose","This style of objects that are supposed to be something but then are blurry is interesting.,38,200,20","Angel","This piece feels pretty chill like it's just a normal day in the city.,10,180,20","Blake","bedroom in the outdoors. warm,9,280,20","0"
"13670","","survey-text","87","1895258","0.0-87.0-0.0","A1C8FN01981A69","","","","{""Q0"":""Oddly appealing like a peacock or plant""}","","","","","","","","","","","","","","","","","","","","","","",""
"2129","","image-slider-response","88","1897389","0.0-88.0","A1C8FN01981A69","","","","","30","","","","","","","","","","","","","","","","","","","","","",""
"3718","","image-button-response","89","1902391","0.0-89.0","A1C8FN01981A69","img_art/15.jpg","0","","","","","","","","","","","","","","","","","","","","","","","","",""
"612","","image-button-response","90","1903006","0.0-90.0","A1C8FN01981A69","img_art/15.jpg","0","","","","","","","","","","","","","","","","","","","","","","","","",""
"1190","","image-button-response","91","1904198","0.0-91.0-0.0","A1C8FN01981A69","img_art/15.jpg","4","","","","","","","","","","","","","","","","","","","","","","","","",""
"1262","","image-button-response","92","1905461","0.0-92.0-0.0","A1C8FN01981A69","img_art/15.jpg","1","","","","","","","","","","","","","","","","","","","","","","","","",""
"null","","html-keyboard-response","93","1906466","0.0-93.0","A1C8FN01981A69","<p style=""font-size: 48px;"">+</p>","","","","","null","allTrialResponses","1000","1","7","img_art/15.jpg","30","Oddly appealing like a peacock or plant","Logan,Brett,Jose,Justin,Angel,Blake","I couldn't tell you why but I'm really into this,39,360,20","I don't know how I feel about this,31,360,20","black dots too ant-like,-25,200,20","Color scheme and design are rather boring.,-10,280,20","This is looking at a forest from above. I can see water and some pathways throughout. Nature.,20,180,20","ugly picture and don't like it,-22,280,20","Logan","I couldn't tell you why but I'm really into this,39,360,20","Angel","This is looking at a forest from above. I can see water and some pathways throughout. Nature.,20,180,20","Brett","I don't know how I feel about this,31,360,20","0"
"386634","","survey-text","94","2293106","0.0-94.0-0.0","A1C8FN01981A69","","","","{""Q0"":""a color plant possibly in a desert""}","","","","","","","","","","","","","","","","","","","","","","",""
"2242","","image-slider-response","95","2295349","0.0-95.0","A1C8FN01981A69","","","","","30","","","","","","","","","","","","","","","","","","","","","",""
"null","","image-button-response","96","2300366","0.0-96.0","A1C8FN01981A69","img_art/14.jpg","null","","","","","","","","","","","","","","","","","","","","","","","","",""
"2893","","image-button-response","97","2303261","0.0-97.0","A1C8FN01981A69","img_art/14.jpg","3","","","","","","","","","","","","","","","","","","","","","","","","",""
"789","","image-button-response","98","2304053","0.0-98.0-0.0","A1C8FN01981A69","img_art/14.jpg","5","","","","","","","","","","","","","","","","","","","","","","","","",""
"838","","image-button-response","99","2304894","0.0-99.0-0.0","A1C8FN01981A69","img_art/14.jpg","1","","","","","","","","","","","","","","","","","","","","","","","","",""
"null","","html-keyboard-response","100","2305902","0.0-100.0","A1C8FN01981A69","<p style=""font-size: 48px;"">+</p>","","","","","null","allTrialResponses","1000","1","8","img_art/14.jpg","30","a color plant possibly in a desert","Logan,Brett,Malik,Dustin,Angel,Jordan","I dont really vibe with the grayish color palette,-7,360,20","Confusion or an explosion,40,360,20","It's alright, something I'd see in a guest bedroom,10,40,20","It represents growth. I see a plant/tree growing out of the ground. I like the rainbow of color in the painting.,31,20,20","This reminds me of a tree but the tree is sickly, and poorly cared for.,-10,180,20","Reminds me of art class,22,160,20","Dustin","It represents growth. I see a plant/tree growing out of the ground. I like the rainbow of color in the painting.,31,20,20","Jordan","Reminds me of art class,22,160,20","Brett","Confusion or an explosion,40,360,20","0"
"11188","","survey-text","101","2317098","0.0-101.0-0.0","A1C8FN01981A69","","","","{""Q0"":""a depth of struggled""}","","","","","","","","","","","","","","","","","","","","","","",""
"1809","","image-slider-response","102","2318909","0.0-102.0","A1C8FN01981A69","","","","","8","","","","","","","","","","","","","","","","","","","","","",""
"4941","","image-button-response","103","2323911","0.0-103.0","A1C8FN01981A69","img_art/18.jpg","2","","","","","","","","","","","","","","","","","","","","","","","","",""
"1299","","image-button-response","104","2325213","0.0-104.0","A1C8FN01981A69","img_art/18.jpg","2","","","","","","","","","","","","","","","","","","","","","","","","",""
"1174","","image-button-response","105","2326390","0.0-105.0-0.0","A1C8FN01981A69","img_art/18.jpg","5","","","","","","","","","","","","","","","","","","","","","","","","",""
"526","","image-button-response","106","2326918","0.0-106.0-0.0","A1C8FN01981A69","img_art/18.jpg","4","","","","","","","","","","","","","","","","","","","","","","","","",""
"null","","html-keyboard-response","107","2327419","0.0-107.0","A1C8FN01981A69","<p style=""font-size: 48px;"">+</p>","","","","","null","allTrialResponses","500","1","9","img_art/18.jpg","8","a depth of struggled","Nathaniel,Brett,Alexis,Dustin,Tyler,Jordan","Looks like a jumbled mess. I prefer a clearer picture,-18,220,20","Kind of weird in a confusing way,10,360,20","It's possibly of a mermaid luring in a ship,15,140,20","Looks messy. Reminds me of a battle or war. I have an unpleasant feeling the more I look.,-20,20,20","Pleasant design and composition, unpleasant theme and focus.,-19,320,20","Interesting and capitvating to look at,19,160,20","Alexis","It's possibly of a mermaid luring in a ship,15,140,20","Jordan","Interesting and capitvating to look at,19,160,20","Tyler","Pleasant design and composition, unpleasant theme and focus.,-19,320,20","0"
"10080","","survey-text","108","2337506","0.0-108.0-0.0","A1C8FN01981A69","","","","{""Q0"":""Looks like something tryng to escape""}","","","","","","","","","","","","","","","","","","","","","","",""
"11337","","image-slider-response","109","2348845","0.0-109.0","A1C8FN01981A69","","","","","14","","","","","","","","","","","","","","","","","","","","","",""
"null","","image-button-response","110","2353854","0.0-110.0","A1C8FN01981A69","img_art/4.jpg","null","","","","","","","","","","","","","","","","","","","","","","","","",""
"725","","image-button-response","111","2354582","0.0-111.0","A1C8FN01981A69","img_art/4.jpg","5","","","","","","","","","","","","","","","","","","","","","","","","",""
"2638","","image-button-response","112","2357221","0.0-112.0-0.0","A1C8FN01981A69","img_art/4.jpg","3","","","","","","","","","","","","","","","","","","","","","","","","",""
"1013","","image-button-response","113","2358237","0.0-113.0-0.0","A1C8FN01981A69","img_art/4.jpg","2","","","","","","","","","","","","","","","","","","","","","","","","",""
"null","","html-keyboard-response","114","2359253","0.0-114.0","A1C8FN01981A69","<p style=""font-size: 48px;"">+</p>","","","","","null","allTrialResponses","1000","1","10","img_art/4.jpg","14","Looks like something tryng to escape","Grant,Patrick,Alexis,Tanner,Tyler,Jordan","This elicits no reaction in me.,0,200,20","Random swirls again,-30,280,20","The bold colors are exciting. It looks like a statue on someone's mantle.,18,140,20","stresses me out, uncomfortable,-18,180,20","This is what makes suburban dads say, ""my 4-year-old can do that."",-49,320,20","A hand reaching for something it cannot obtain,-9,160,20","Jordan","A hand reaching for something it cannot obtain,-9,160,20","Tanner","stresses me out, uncomfortable,-18,180,20","Alexis","The bold colors are exciting. It looks like a statue on someone's mantle.,18,140,20","0"
"5737","","survey-text","115","2365002","0.0-115.0-0.0","A1C8FN01981A69","","","","{""Q0"":""our""}","","","","","","","","","","","","","","","","","","","","","","",""
"245359","","survey-text","116","2610362","0.0-116.0-0.0","A1C8FN01981A69","","","","{""Q0"":""A beautiful plant growing wildly""}","","","","","","","","","","","","","","","","","","","","","","",""
"3233","","image-slider-response","117","2613597","0.0-117.0","A1C8FN01981A69","","","","","33","","","","","","","","","","","","","","","","","","","","","",""
"3701","","image-button-response","118","2618599","0.0-118.0","A1C8FN01981A69","img_art/17.jpg","2","","","","","","","","","","","","","","","","","","","","","","","","",""
"1076","","image-button-response","119","2619677","0.0-119.0","A1C8FN01981A69","img_art/17.jpg","2","","","","","","","","","","","","","","","","","","","","","","","","",""
"854","","image-button-response","120","2620533","0.0-120.0-0.0","A1C8FN01981A69","img_art/17.jpg","0","","","","","","","","","","","","","","","","","","","","","","","","",""
"1501","","image-button-response","121","2622037","0.0-121.0-0.0","A1C8FN01981A69","img_art/17.jpg","3","","","","","","","","","","","","","","","","","","","","","","","","",""
"null","","html-keyboard-response","122","2623538","0.0-122.0","A1C8FN01981A69","<p style=""font-size: 48px;"">+</p>","","","","","null","allTrialResponses","1500","1","11","img_art/17.jpg","33","A beautiful plant growing wildly","John,Caleb,Alexis,Tanner,Dalton,Jordan","It gorgeous and i love how the tree is almost 3 dimensional.So many elements to it.,50,120,20","Not even abstract to me, very clear meaning.,44,40,20","This makes me feel inspired and happy. I love everything about this portrait,45,140,20","calm, tranquil, happy,50,180,20","Beautiful simply beautiful. i would love this,,50,300,20","Really love the branches. The bottom made it not perfect,42,160,20","Alexis","This makes me feel inspired and happy. I love everything about this portrait,45,140,20","John","It gorgeous and i love how the tree is almost 3 dimensional.So many elements to it.,50,120,20","Tanner","calm, tranquil, happy,50,180,20","0"
"27411","","survey-text","123","2650957","0.0-123.0-0.0","A1C8FN01981A69","","","","{""Q0"":""Looks like a strange outgrowth on a hill""}","","","","","","","","","","","","","","","","","","","","","","",""
"2517","","image-slider-response","124","2653477","0.0-124.0","A1C8FN01981A69","","","","","4","","","","","","","","","","","","","","","","","","","","","",""
"null","","image-button-response","125","2658479","0.0-125.0","A1C8FN01981A69","img_art/5.jpg","null","","","","","","","","","","","","","","","","","","","","","","","","",""
"828","","image-button-response","126","2659309","0.0-126.0","A1C8FN01981A69","img_art/5.jpg","0","","","","","","","","","","","","","","","","","","","","","","","","",""
"2423","","image-button-response","127","2661735","0.0-127.0-0.0","A1C8FN01981A69","img_art/5.jpg","5","","","","","","","","","","","","","","","","","","","","","","","","",""
"2854","","image-button-response","128","2664591","0.0-128.0-0.0","A1C8FN01981A69","img_art/5.jpg","2","","","","","","","","","","","","","","","","","","","","","","","","",""
"null","","html-keyboard-response","129","2665606","0.0-129.0","A1C8FN01981A69","<p style=""font-size: 48px;"">+</p>","","","","","null","allTrialResponses","1000","1","12","img_art/5.jpg","4","Looks like a strange outgrowth on a hill","John,Robert,Alexis,Tanner,Travis,Gregory","It has a sense of vague familiarity that i like.Like a stick starting a fire at a campsite.,30,120,20","This did not do a thing for me.,-50,360,20","I am confused as to what this is supposed to be,6,140,20","sharp, painful yet playful,-5,180,20","This was awful and it looked like someone took minimul effort with it... no time at all.,-49,260,20","Don't really see it and yellow/pink don't go well together,-35,220,20","John","It has a sense of vague familiarity that i like.Like a stick starting a fire at a campsite.,30,120,20","Gregory","Don't really see it and yellow/pink don't go well together,-35,220,20","Alexis","I am confused as to what this is supposed to be,6,140,20","0"
"619810","","survey-text","130","3285427","0.0-130.0-0.0","A1C8FN01981A69","","","","{""Q0"":""Looks like an internal robotic connection""}","","","","","","","","","","","","","","","","","","","","","","",""
"3313","","image-slider-response","131","3288742","0.0-131.0","A1C8FN01981A69","","","","","14","","","","","","","","","","","","","","","","","","","","","",""
"null","","image-button-response","132","3293761","0.0-132.0","A1C8FN01981A69","img_art/28.jpg","null","","","","","","","","","","","","","","","","","","","","","","","","",""
"1924","","image-button-response","133","3295687","0.0-133.0","A1C8FN01981A69","img_art/28.jpg","5","","","","","","","","","","","","","","","","","","","","","","","","",""
"1910","","image-button-response","134","3297599","0.0-134.0-0.0","A1C8FN01981A69","img_art/28.jpg","4","","","","","","","","","","","","","","","","","","","","","","","","",""
"1028","","image-button-response","135","3298630","0.0-135.0-0.0","A1C8FN01981A69","img_art/28.jpg","2","","","","","","","","","","","","","","","","","","","","","","","","",""
"null","","html-keyboard-response","136","3299131","0.0-136.0","A1C8FN01981A69","<p style=""font-size: 48px;"">+</p>","","","","","null","allTrialResponses","500","1","13","img_art/28.jpg","14","Looks like an internal robotic connection","John,Samuel,Alexis,Garrett,Timothy,Gregory","Not a fan of the bleak and dreary colors,-10,120,20","conversating means hope,15,400,20","The brown and green colors used look dull and unappealing,-30,140,20","I don't like the way the colors look; I think very disgusting colors were used.,-20,180,20","This one gives me an uneasy feeling,-10,240,20","Gloomy colors and picture,5,220,20","Gregory","Gloomy colors and picture,5,220,20","Timothy","This one gives me an uneasy feeling,-10,240,20","Alexis","The brown and green colors used look dull and unappealing,-30,140,20","0"
"28040","","survey-text","137","3327179","0.0-137.0-0.0","A1C8FN01981A69","","","","{""Q0"":""Looks like a joyful parade""}","","","","","","","","","","","","","","","","","","","","","","",""
"1937","","image-slider-response","138","3329118","0.0-138.0","A1C8FN01981A69","","","","","32","","","","","","","","","","","","","","","","","","","","","",""
"4796","","image-button-response","139","3334135","0.0-139.0","A1C8FN01981A69","img_art/23.jpg","0","","","","","","","","","","","","","","","","","","","","","","","","",""
"1892","","image-button-response","140","3336030","0.0-140.0","A1C8FN01981A69","img_art/23.jpg","0","","","","","","","","","","","","","","","","","","","","","","","","",""
"910","","image-button-response","141","3336942","0.0-141.0-0.0","A1C8FN01981A69","img_art/23.jpg","5","","","","","","","","","","","","","","","","","","","","","","","","",""
"2180","","image-button-response","142","3339126","0.0-142.0-0.0","A1C8FN01981A69","img_art/23.jpg","3","","","","","","","","","","","","","","","","","","","","","","","","",""
"null","","html-keyboard-response","143","3339627","0.0-143.0","A1C8FN01981A69","<p style=""font-size: 48px;"">+</p>","","","","","null","allTrialResponses","500","1","14","img_art/23.jpg","32","Looks like a joyful parade","Vincent,Victor,Alexis,Jonathan,Timothy,Gregory","Very happy , busy , free, and full of Hope,28,360,20","I like the colors, the tiny dots, and the contrast between the white and background,28,340,20","It looks like a parade of musicians full of excitement. Makes me feel upbeat,33,140,20","Those colors are awesome! And I love the strip of negative space that almost looks like a line of people,50,140,20","This feels so energized, i love it,50,240,20","Reminds me of outer space and the stars,30,220,20","Vincent","Very happy , busy , free, and full of Hope,28,360,20","Gregory","Reminds me of outer space and the stars,30,220,20","Jonathan","Those colors are awesome! And I love the strip of negative space that almost looks like a line of people,50,140,20","0"
"9167","","survey-text","144","3348802","0.0-144.0-0.0","A1C8FN01981A69","","","","{""Q0"":""Seems like a space landscape""}","","","","","","","","","","","","","","","","","","","","","","",""
"2033","","image-slider-response","145","3350838","0.0-145.0","A1C8FN01981A69","","","","","-6","","","","","","","","","","","","","","","","","","","","","",""
"4094","","image-button-response","146","3355839","0.0-146.0","A1C8FN01981A69","img_art/7.jpg","3","","","","","","","","","","","","","","","","","","","","","","","","",""
"636","","image-button-response","147","3356478","0.0-147.0","A1C8FN01981A69","img_art/7.jpg","3","","","","","","","","","","","","","","","","","","","","","","","","",""
"1798","","image-button-response","148","3358278","0.0-148.0-0.0","A1C8FN01981A69","img_art/7.jpg","5","","","","","","","","","","","","","","","","","","","","","","","","",""
"628","","image-button-response","149","3358909","0.0-149.0-0.0","A1C8FN01981A69","img_art/7.jpg","0","","","","","","","","","","","","","","","","","","","","","","","","",""
"null","","html-keyboard-response","150","3359410","0.0-150.0","A1C8FN01981A69","<p style=""font-size: 48px;"">+</p>","","","","","null","allTrialResponses","500","1","15","img_art/7.jpg","-6","Seems like a space landscape","Vincent,James,Brandon,Jonathan,Paul,Gregory","One I would love to own . Calm relaxing spiritual and full of love,41,360,20","Looks plain and dull, sorry.,-31,380,20","Looks like bad wallpaper,-29,320,20","Looks like the surface of mars,29,140,20","It looks like bloody scabs on skin, I don't like it,-42,300,20","Looks like a battle raging on,20,220,20","Jonathan","Looks like the surface of mars,29,140,20","Gregory","Looks like a battle raging on,20,220,20","Vincent","One I would love to own . Calm relaxing spiritual and full of love,41,360,20","0"
"2861","","survey-text","151","3362286","0.0-151.0-0.0","A1C8FN01981A69","","","","{""Q0"":""course""}","","","","","","","","","","","","","","","","","","","","","","",""
"12341","","survey-text","152","3374629","0.0-152.0-0.0","A1C8FN01981A69","","","","{""Q0"":""Seems like a splattered windshield""}","","","","","","","","","","","","","","","","","","","","","","",""
"3262","","image-slider-response","153","3377893","0.0-153.0","A1C8FN01981A69","","","","","4","","","","","","","","","","","","","","","","","","","","","",""
"4406","","image-button-response","154","3382895","0.0-154.0","A1C8FN01981A69","img_art/13.jpg","0","","","","","","","","","","","","","","","","","","","","","","","","",""
"236","","image-button-response","155","3383134","0.0-155.0","A1C8FN01981A69","img_art/13.jpg","0","","","","","","","","","","","","","","","","","","","","","","","","",""
"725","","image-button-response","156","3383861","0.0-156.0-0.0","A1C8FN01981A69","img_art/13.jpg","1","","","","","","","","","","","","","","","","","","","","","","","","",""
"670","","image-button-response","157","3384534","0.0-157.0-0.0","A1C8FN01981A69","img_art/13.jpg","4","","","","","","","","","","","","","","","","","","","","","","","","",""
"null","","html-keyboard-response","158","3385535","0.0-158.0","A1C8FN01981A69","<p style=""font-size: 48px;"">+</p>","","","","","null","allTrialResponses","1000","1","16","img_art/13.jpg","4","Seems like a splattered windshield","Vincent,Gabriel,Seth,Jonathan,Miguel,Gregory","I love the colors reminds me of a rainy day..it's calm and relaxing,32,360,20","its like the ocean,24,160,20","I really loved the color contrast. Having the white stripe in the center makes the it appear 3D.,11,60,20","It's pretty basic but it makes me feel like I'm looking at the ocean,30,140,20","Nice color abstractions.,21,160,20","Cool colors and looks like rain on a window,45,220,20","Vincent","I love the colors reminds me of a rainy day..it's calm and relaxing,32,360,20","Gabriel","its like the ocean,24,160,20","Miguel","Nice color abstractions.,21,160,20","0"
"8524","","survey-text","159","3394069","0.0-159.0-0.0","A1C8FN01981A69","","","","{""Q0"":""Seems like an abstract whale""}","","","","","","","","","","","","","","","","","","","","","","",""
"1670","","image-slider-response","160","3395741","0.0-160.0","A1C8FN01981A69","","","","","28","","","","","","","","","","","","","","","","","","","","","",""
"4414","","image-button-response","161","3400743","0.0-161.0","A1C8FN01981A69","img_art/10.jpg","1","","","","","","","","","","","","","","","","","","","","","","","","",""
"1028","","image-button-response","162","3401773","0.0-162.0","A1C8FN01981A69","img_art/10.jpg","0","","","","","","","","","","","","","","","","","","","","","","","","",""
"2527","","image-button-response","163","3404302","0.0-163.0-0.0","A1C8FN01981A69","img_art/10.jpg","1","","","","","","","","","","","","","","","","","","","","","","","","",""
"942","","image-button-response","164","3405245","0.0-164.0-0.0","A1C8FN01981A69","img_art/10.jpg","0","","","","","","","","","","","","","","","","","","","","","","","","",""
"695","","image-button-response","165","3410245","0.0-164.1-0.1","A1C8FN01981A69","img_art/10.jpg","3","","","","","","","","","","","","","","","","","","","","","","","","",""
"null","","html-keyboard-response","166","3411746","0.0-165.0","A1C8FN01981A69","<p style=""font-size: 48px;"">+</p>","","","","","null","allTrialResponses","1500","1","17","img_art/10.jpg","28","Seems like an abstract whale","Vincent,Gabriel,Joshua,Ian,Miguel,Jack","A very conversational piece could be of many different ideas,38,360,20","reminds me of a violin,9,160,20","This one is interesting. I like it.,11,240,20","It reminds me of how my dog has to run all over the place just to poop in one specific location.,-20,260,20","It just looks like a dirty stain.,-38,160,20","this piece is okay. I wish it was more colorful, but it is certainly intriguing.,23,320,20","Vincent","A very conversational piece could be of many different ideas,38,360,20","Gabriel","reminds me of a violin,9,160,20","Ian","It reminds me of how my dog has to run all over the place just to poop in one specific location.,-20,260,20","2"
"8512","","survey-text","167","3420266","0.0-166.0-0.0","A1C8FN01981A69","","","","{""Q0"":""Feels festive like a street scene""}","","","","","","","","","","","","","","","","","","","","","","",""
"2760","","image-slider-response","168","3423029","0.0-167.0","A1C8FN01981A69","","","","","18","","","","","","","","","","","","","","","","","","","","","",""
"3598","","image-button-response","169","3428032","0.0-168.0","A1C8FN01981A69","img_art/19.jpg","0","","","","","","","","","","","","","","","","","","","","","","","","",""
"987","","image-button-response","170","3429022","0.0-169.0","A1C8FN01981A69","img_art/19.jpg","0","","","","","","","","","","","","","","","","","","","","","","","","",""
"845","","image-button-response","171","3429869","0.0-170.0-0.0","A1C8FN01981A69","img_art/19.jpg","0","","","","","","","","","","","","","","","","","","","","","","","","",""
"582","","image-button-response","172","3433038","0.0-170.1-0.1","A1C8FN01981A69","img_art/19.jpg","3","","","","","","","","","","","","","","","","","","","","","","","","",""
"973","","image-button-response","173","3434013","0.0-171.0-0.0","A1C8FN01981A69","img_art/19.jpg","4","","","","","","","","","","","","","","","","","","","","","","","","",""
"null","","html-keyboard-response","174","3434515","0.0-172.0","A1C8FN01981A69","<p style=""font-size: 48px;"">+</p>","","","","","null","allTrialResponses","500","1","18","img_art/19.jpg","18","Feels festive like a street scene","Vincent,Gabriel,Corey,Ian,Peter,Juan","I really like the colors and feel of this one and alot of life,41,360,20","not sure if i like it or not,1,160,20","i think it is ugly and hate the colors,-35,260,20","It looks cool but at the time looks like it was done by a talented 5 year old.,13,260,20","Looks like hustle and bustle ,,3,320,20","Again, this is too abstract.,-10,260,20","Vincent","I really like the colors and feel of this one and alot of life,41,360,20","Ian","It looks cool but at the time looks like it was done by a talented 5 year old.,13,260,20","Peter","Looks like hustle and bustle ,,3,320,20","4"
"18952","","survey-text","175","3453475","0.0-173.0-0.0","A1C8FN01981A69","","","","{""Q0"":""The multimedia makes it confusing""}","","","","","","","","","","","","","","","","","","","","","","",""
"2537","","image-slider-response","176","3456014","0.0-174.0","A1C8FN01981A69","","","","","-14","","","","","","","","","","","","","","","","","","","","","",""
"null","","image-button-response","177","3461016","0.0-175.0","A1C8FN01981A69","img_art/16.jpg","null","","","","","","","","","","","","","","","","","","","","","","","","",""
"357","","image-button-response","178","3461374","0.0-176.0","A1C8FN01981A69","img_art/16.jpg","4","","","","","","","","","","","","","","","","","","","","","","","","",""
"581","","image-button-response","179","3461958","0.0-177.0-0.0","A1C8FN01981A69","img_art/16.jpg","3","","","","","","","","","","","","","","","","","","","","","","","","",""
"1198","","image-button-response","180","3463159","0.0-178.0-0.0","A1C8FN01981A69","img_art/16.jpg","5","","","","","","","","","","","","","","","","","","","","","","","","",""
"null","","html-keyboard-response","181","3464161","0.0-179.0","A1C8FN01981A69","<p style=""font-size: 48px;"">+</p>","","","","","null","allTrialResponses","1000","1","19","img_art/16.jpg","-14","The multimedia makes it confusing","Vincent,Brendan,Steven,Ian,Peter,Mark","Toys toys toys. Happy playful free spirit,30,360,20","cool teddy bear,50,340,20","Not interested at all,-15,160,20","This looks like it was made by an art student filled with angst,-30,260,20","It's a little unsettling,2,320,20","I think it's about child abuse. The teddy bear represents innocence and the dark shape is approaching it.,40,80,20","Peter","It's a little unsettling,2,320,20","Ian","This looks like it was made by an art student filled with angst,-30,260,20","Mark","I think it's about child abuse. The teddy bear represents innocence and the dark shape is approaching it.,40,80,20","4"
"11697","","survey-text","182","3475867","0.0-180.0-0.0","A1C8FN01981A69","","","","{""Q0"":""Seems like a bird atop a warm surface""}","","","","","","","","","","","","","","","","","","","","","","",""
"4120","","image-slider-response","183","3479990","0.0-181.0","A1C8FN01981A69","","","","","18","","","","","","","","","","","","","","","","","","","","","",""
"2638","","image-button-response","184","3485003","0.0-182.0","A1C8FN01981A69","img_art/6.jpg","1","","","","","","","","","","","","","","","","","","","","","","","","",""
"432","","image-button-response","185","3485439","0.0-183.0","A1C8FN01981A69","img_art/6.jpg","1","","","","","","","","","","","","","","","","","","","","","","","","",""
"3156","","image-button-response","186","3488598","0.0-184.0-0.0","A1C8FN01981A69","img_art/6.jpg","3","","","","","","","","","","","","","","","","","","","","","","","","",""
"589","","image-button-response","187","3489190","0.0-185.0-0.0","A1C8FN01981A69","img_art/6.jpg","5","","","","","","","","","","","","","","","","","","","","","","","","",""
"null","","html-keyboard-response","188","3490691","0.0-186.0","A1C8FN01981A69","<p style=""font-size: 48px;"">+</p>","","","","","null","allTrialResponses","1500","1","20","img_art/6.jpg","18","Seems like a bird atop a warm surface","Jesus,Ryan,Nathan,Ian,Peter,Mark","I enjoy the color contrast.,20,100,20","Makes me feel lonely,-22,380,20","Not a fan of anything in this,-43,200,20","It's slightly unnerving to look at, it looks a little creepy/eerie,-16,260,20","Don't like the black space,2,320,20","So forlorn, and beauty amid desolation.,25,80,20","Ryan","Makes me feel lonely,-22,380,20","Ian","It's slightly unnerving to look at, it looks a little creepy/eerie,-16,260,20","Mark","So forlorn, and beauty amid desolation.,25,80,20","4"
"2060","","survey-text","189","3492766","0.0-187.0-0.0","A1C8FN01981A69","","","","{""Q0"":""we""}","","","","","","","","","","","","","","","","","","","","","","",""
"6635","","survey-text","190","3499403","0.0-188.0-0.0","A1C8FN01981A69","","","","{""Q0"":""A busy city connected""}","","","","","","","","","","","","","","","","","","","","","","",""
"7377","","image-slider-response","191","3506782","0.0-189.0","A1C8FN01981A69","","","","","25","","","","","","","","","","","","","","","","","","","","","",""
"1325","","image-button-response","192","3511798","0.0-190.0","A1C8FN01981A69","img_art/11.jpg","4","","","","","","","","","","","","","","","","","","","","","","","","",""
"1334","","image-button-response","193","3513135","0.0-191.0","A1C8FN01981A69","img_art/11.jpg","4","","","","","","","","","","","","","","","","","","","","","","","","",""
"1238","","image-button-response","194","3514375","0.0-192.0-0.0","A1C8FN01981A69","img_art/11.jpg","3","","","","","","","","","","","","","","","","","","","","","","","","",""
"661","","image-button-response","195","3515038","0.0-193.0-0.0","A1C8FN01981A69","img_art/11.jpg","0","","","","","","","","","","","","","","","","","","","","","","","","",""
"null","","html-keyboard-response","196","3515540","0.0-194.0","A1C8FN01981A69","<p style=""font-size: 48px;"">+</p>","","","","","null","allTrialResponses","500","1","21","img_art/11.jpg","25","A busy city connected","Bradley,Ryan,Chase,Ian,Isaiah,Mark","WOW!  I love how the ships and the seas become one in this piece.,50,300,20","It makes me feel angry and overwhelmed,-29,380,20","It's too dark and dingy.,-30,120,20","This one is a little erie, gives me post-apocalyptic feeling,27,260,20","I feel excited, like I'm in the middle of a bustling city.,26,300,20","My initial thought was roller coasters but I see ship masts on a cloudy day too.,35,80,20","Isaiah","I feel excited, like I'm in the middle of a bustling city.,26,300,20","Ian","This one is a little erie, gives me post-apocalyptic feeling,27,260,20","Bradley","WOW!  I love how the ships and the seas become one in this piece.,50,300,20","4"
"7158","","survey-text","197","3522707","0.0-195.0-0.0","A1C8FN01981A69","","","","{""Q0"":""Chaotic and bloody""}","","","","","","","","","","","","","","","","","","","","","","",""
"2385","","image-slider-response","198","3525094","0.0-196.0","A1C8FN01981A69","","","","","14","","","","","","","","","","","","","","","","","","","","","",""
"4013","","image-button-response","199","3530096","0.0-197.0","A1C8FN01981A69","img_art/3.jpg","4","","","","","","","","","","","","","","","","","","","","","","","","",""
"1221","","image-button-response","200","3531319","0.0-198.0","A1C8FN01981A69","img_art/3.jpg","4","","","","","","","","","","","","","","","","","","","","","","","","",""
"2126","","image-button-response","201","3533447","0.0-199.0-0.0","A1C8FN01981A69","img_art/3.jpg","5","","","","","","","","","","","","","","","","","","","","","","","","",""
"1940","","image-button-response","202","3535391","0.0-200.0-0.0","A1C8FN01981A69","img_art/3.jpg","3","","","","","","","","","","","","","","","","","","","","","","","","",""
"null","","html-keyboard-response","203","3536893","0.0-201.0","A1C8FN01981A69","<p style=""font-size: 48px;"">+</p>","","","","","null","allTrialResponses","1500","1","22","img_art/3.jpg","14","Chaotic and bloody","Bradley,Bryan,Isaac,Ian,Isaiah,Alejandro","Marker gone wild?  Not sure what's going on here.,-21,300,20","Just no. I love red but this looks like blood splatter on a wall from a horrific killing.,-45,400,20","It looks like scribbles.,-40,280,20","It just makes me think of blood splattered everywhere.,-31,260,20","I feel uncomfortable, like I am looking at a crime scene.,-17,300,20","I like the abstract flowing lines. It lacks hard rigid marks and flow nicely into a piece of calamity.,32,80,20","Isaiah","I feel uncomfortable, like I am looking at a crime scene.,-17,300,20","Alejandro","I like the abstract flowing lines. It lacks hard rigid marks and flow nicely into a piece of calamity.,32,80,20","Ian","It just makes me think of blood splattered everywhere.,-31,260,20","4"
"9371","","survey-text","204","3546275","0.0-202.0-0.0","A1C8FN01981A69","","","","{""Q0"":""Some order brought about by the brushstrokes""}","","","","","","","","","","","","","","","","","","","","","","",""
"2417","","image-slider-response","205","3548695","0.0-203.0","A1C8FN01981A69","","","","","10","","","","","","","","","","","","","","","","","","","","","",""
"4477","","image-button-response","206","3553698","0.0-204.0","A1C8FN01981A69","img_art/30.jpg","1","","","","","","","","","","","","","","","","","","","","","","","","",""
"651","","image-button-response","207","3554352","0.0-205.0","A1C8FN01981A69","img_art/30.jpg","1","","","","","","","","","","","","","","","","","","","","","","","","",""
"1060","","image-button-response","208","3555415","0.0-206.0-0.0","A1C8FN01981A69","img_art/30.jpg","5","","","","","","","","","","","","","","","","","","","","","","","","",""
"782","","image-button-response","209","3556198","0.0-207.0-0.0","A1C8FN01981A69","img_art/30.jpg","0","","","","","","","","","","","","","","","","","","","","","","","","",""
"null","","html-keyboard-response","210","3557700","0.0-208.0","A1C8FN01981A69","<p style=""font-size: 48px;"">+</p>","","","","","null","allTrialResponses","1500","1","23","img_art/30.jpg","10","Some order brought about by the brushstrokes","Cody,Dylan,Aaron,Ian,Isaiah,Alejandro","Like the design, not a big fan of the colors,20,180,20","I really love the pastel colors and the 3D design in this,43,40,20","It looks like a pretty but unremarkable painting in a doctors office,15,20,20","It looks like it was made by pre-k students.,-30,260,20","The painting doesn't elicit any response from me.,0,300,20","An interesting design but don't like the colors. I value the time and effort put into it, but not a huge fan.,10,80,20","Dylan","I really love the pastel colors and the 3D design in this,43,40,20","Alejandro","An interesting design but don't like the colors. I value the time and effort put into it, but not a huge fan.,10,80,20","Cody","Like the design, not a big fan of the colors,20,180,20","4"
"11904","","survey-text","211","3569614","0.0-209.0-0.0","A1C8FN01981A69","","","","{""Q0"":""Seems like the outside of a city with a god looking down""}","","","","","","","","","","","","","","","","","","","","","","",""
"1598","","image-slider-response","212","3571214","0.0-210.0","A1C8FN01981A69","","","","","36","","","","","","","","","","","","","","","","","","","","","",""
"4429","","image-button-response","213","3576215","0.0-211.0","A1C8FN01981A69","img_art/8.jpg","5","","","","","","","","","","","","","","","","","","","","","","","","",""
"403","","image-button-response","214","3576621","0.0-212.0","A1C8FN01981A69","img_art/8.jpg","5","","","","","","","","","","","","","","","","","","","","","","","","",""
"654","","image-button-response","215","3577278","0.0-213.0-0.0","A1C8FN01981A69","img_art/8.jpg","3","","","","","","","","","","","","","","","","","","","","","","","","",""
"438","","image-button-response","216","3577718","0.0-214.0-0.0","A1C8FN01981A69","img_art/8.jpg","0","","","","","","","","","","","","","","","","","","","","","","","","",""
"null","","html-keyboard-response","217","3578219","0.0-215.0","A1C8FN01981A69","<p style=""font-size: 48px;"">+</p>","","","","","null","allTrialResponses","500","1","24","img_art/8.jpg","36","Seems like the outside of a city with a god looking down","Cody,Dylan,Sean,Charles,Jason,Alejandro","Love the colors & block-style,50,180,20","The colors are nice but the big face in the sky is creepy,-11,40,20","looks nice, like the details,25,40,20","Feels very 90's but I like the doorway,15,100,20","There are a lot of different interesting elements in the picture.,12,20,20","i like the abstract nature of a birds eye view of the city. The hard shapes and squares present with a softness rather than rigidity.,26,80,20","Alejandro","i like the abstract nature of a birds eye view of the city. The hard shapes and squares present with a softness rather than rigidity.,26,80,20","Charles","Feels very 90's but I like the doorway,15,100,20","Cody","Love the colors & block-style,50,180,20","4"
"14896","","survey-text","218","3593123","0.0-216.0-0.0","A1C8FN01981A69","","","","{""Q0"":""Reminds me of the wicker man, great colors, somewhat haunting""}","","","","","","","","","","","","","","","","","","","","","","",""
"2441","","image-slider-response","219","3595565","0.0-217.0","A1C8FN01981A69","","","","","45","","","","","","","","","","","","","","","","","","","","","",""
"4390","","image-button-response","220","3600567","0.0-218.0","A1C8FN01981A69","img_art/25.jpg","1","","","","","","","","","","","","","","","","","","","","","","","","",""
"532","","image-button-response","221","3601102","0.0-219.0","A1C8FN01981A69","img_art/25.jpg","1","","","","","","","","","","","","","","","","","","","","","","","","",""
"782","","image-button-response","222","3601886","0.0-220.0-0.0","A1C8FN01981A69","img_art/25.jpg","2","","","","","","","","","","","","","","","","","","","","","","","","",""
"862","","image-button-response","223","3602750","0.0-221.0-0.0","A1C8FN01981A69","img_art/25.jpg","3","","","","","","","","","","","","","","","","","","","","","","","","",""
"null","","html-keyboard-response","224","3603251","0.0-222.0","A1C8FN01981A69","<p style=""font-size: 48px;"">+</p>","","","","","null","allTrialResponses","500","1","25","img_art/25.jpg","45","Reminds me of the wicker man, great colors, somewhat haunting","Cody,Alexander,Anthony,Charles,Jacob,Alejandro","Like the colors and the figure,30,180,20","Ancient gods above you.,20,120,20","Spooky, but in a good way. I like the green and black color palette.,42,200,20","Cult-like, which to me makes it kind of creepy,-21,100,20","I really like how the lines form this piece.,8,340,20","Seems ritualistic and nativist,50,80,20","Alexander","Ancient gods above you.,20,120,20","Anthony","Spooky, but in a good way. I like the green and black color palette.,42,200,20","Charles","Cult-like, which to me makes it kind of creepy,-21,100,20","4"
"3070","","survey-text","225","3606341","0.0-223.0-0.0","A1C8FN01981A69","","","","{""Q0"":""table""}","","","","","","","","","","","","","","","","","","","","","","",""
"6835","","survey-text","226","3613179","0.0-224.0-0.0","A1C8FN01981A69","","","","{""Q0"":""Ghostsly desert""}","","","","","","","","","","","","","","","","","","","","","","",""
"2192","","image-slider-response","227","3615373","0.0-225.0","A1C8FN01981A69","","","","","15","","","","","","","","","","","","","","","","","","","","","",""
"4798","","image-button-response","228","3620389","0.0-226.0","A1C8FN01981A69","img_art/20.jpg","0","","","","","","","","","","","","","","","","","","","","","","","","",""
"887","","image-button-response","229","3621277","0.0-227.0","A1C8FN01981A69","img_art/20.jpg","0","","","","","","","","","","","","","","","","","","","","","","","","",""
"583","","image-button-response","230","3621862","0.0-228.0-0.0","A1C8FN01981A69","img_art/20.jpg","2","","","","","","","","","","","","","","","","","","","","","","","","",""
"662","","image-button-response","231","3622525","0.0-229.0-0.0","A1C8FN01981A69","img_art/20.jpg","5","","","","","","","","","","","","","","","","","","","","","","","","",""
"null","","html-keyboard-response","232","3623526","0.0-230.0","A1C8FN01981A69","<p style=""font-size: 48px;"">+</p>","","","","","null","allTrialResponses","1000","1","26","img_art/20.jpg","15","Ghostsly desert","Dakota,Alexander,Anthony,Charles,Ethan,Trevor","very fluid and mysterious,37,280,20","The beach and industry.,12,120,20","Neutral, this piece doesn't strike me as particularly bad or good,0,200,20","Something bad has happened TO reality,-23,100,20","I can tell this artist has experience. I just don't care for the color combo.,7,120,20","it looks like a piccasso knock off,-23,280,20","Dakota","very fluid and mysterious,37,280,20","Anthony","Neutral, this piece doesn't strike me as particularly bad or good,0,200,20","Trevor","it looks like a piccasso knock off,-23,280,20","4"
"257578","","survey-text","233","3881114","0.0-231.0-0.0","A1C8FN01981A69","","","","{""Q0"":""Chaotic colors with no connection""}","","","","","","","","","","","","","","","","","","","","","","",""
"2090","","image-slider-response","234","3883205","0.0-232.0","A1C8FN01981A69","","","","","-13","","","","","","","","","","","","","","","","","","","","","",""
"null","","image-button-response","235","3888207","0.0-233.0","A1C8FN01981A69","img_art/27.jpg","null","","","","","","","","","","","","","","","","","","","","","","","","",""
"1205","","image-button-response","236","3889414","0.0-234.0","A1C8FN01981A69","img_art/27.jpg","0","","","","","","","","","","","","","","","","","","","","","","","","",""
"3606","","image-button-response","237","3893022","0.0-235.0-0.0","A1C8FN01981A69","img_art/27.jpg","5","","","","","","","","","","","","","","","","","","","","","","","","",""
"646","","image-button-response","238","3893670","0.0-236.0-0.0","A1C8FN01981A69","img_art/27.jpg","2","","","","","","","","","","","","","","","","","","","","","","","","",""
"null","","html-keyboard-response","239","3895172","0.0-237.0","A1C8FN01981A69","<p style=""font-size: 48px;"">+</p>","","","","","null","allTrialResponses","1500","1","27","img_art/27.jpg","-13","Chaotic colors with no connection","Dakota,Michael,Anthony,Kyle,Luis,Trevor","feels like a bar scene, tucked away in the corner of a small town,-40,280,20","Anyone could do that.,-31,140,20","Somewhat boring piece,-3,200,20","I have no strong reactions to this,-1,340,20","Love the representation of home,22,400,20","I like the orange but it's a little blah,1,280,20","Dakota","feels like a bar scene, tucked away in the corner of a small town,-40,280,20","Trevor","I like the orange but it's a little blah,1,280,20","Anthony","Somewhat boring piece,-3,200,20","4"
"6267","","survey-text","240","3901450","0.0-238.0-0.0","A1C8FN01981A69","","","","{""Q0"":""Seems like a happy face""}","","","","","","","","","","","","","","","","","","","","","","",""
"1961","","image-slider-response","241","3903414","0.0-239.0","A1C8FN01981A69","","","","","7","","","","","","","","","","","","","","","","","","","","","",""
"null","","image-button-response","242","3908416","0.0-240.0","A1C8FN01981A69","img_art/2.jpg","null","","","","","","","","","","","","","","","","","","","","","","","","",""
"779","","image-button-response","243","3909198","0.0-241.0","A1C8FN01981A69","img_art/2.jpg","1","","","","","","","","","","","","","","","","","","","","","","","","",""
"942","","image-button-response","244","3910142","0.0-242.0-0.0","A1C8FN01981A69","img_art/2.jpg","5","","","","","","","","","","","","","","","","","","","","","","","","",""
"485","","image-button-response","245","3910630","0.0-243.0-0.0","A1C8FN01981A69","img_art/2.jpg","3","","","","","","","","","","","","","","","","","","","","","","","","",""
"null","","html-keyboard-response","246","3911131","0.0-244.0","A1C8FN01981A69","<p style=""font-size: 48px;"">+</p>","","","","","null","allTrialResponses","500","1","28","img_art/2.jpg","7","Seems like a happy face","Dakota,Nicholas,Anthony,Adam,Elijah,Trevor","active and kinetic- simplified,14,280,20","Cute and happy,22,240,20","Ugly color scheme,-50,200,20","Hate the vomit green.,-31,40,20","It's just a splash of paint on a canvas,-31,80,20","It looks like a little kids primary color picture,3,280,20","Nicholas","Cute and happy,22,240,20","Trevor","It looks like a little kids primary color picture,3,280,20","Adam","Hate the vomit green.,-31,40,20","4"
"13364","","survey-text","247","3924514","0.0-245.0-0.0","A1C8FN01981A69","","","","{""Q0"":""A river flowing through the lush forest""}","","","","","","","","","","","","","","","","","","","","","","",""
"2241","","image-slider-response","248","3926757","0.0-246.0","A1C8FN01981A69","","","","","31","","","","","","","","","","","","","","","","","","","","","",""
"4574","","image-button-response","249","3931759","0.0-247.0","A1C8FN01981A69","img_art/24.jpg","5","","","","","","","","","","","","","","","","","","","","","","","","",""
"492","","image-button-response","250","3932254","0.0-248.0","A1C8FN01981A69","img_art/24.jpg","5","","","","","","","","","","","","","","","","","","","","","","","","",""
"2117","","image-button-response","251","3934374","0.0-249.0-0.0","A1C8FN01981A69","img_art/24.jpg","3","","","","","","","","","","","","","","","","","","","","","","","","",""
"957","","image-button-response","252","3935334","0.0-250.0-0.0","A1C8FN01981A69","img_art/24.jpg","1","","","","","","","","","","","","","","","","","","","","","","","","",""
"null","","html-keyboard-response","253","3936837","0.0-251.0","A1C8FN01981A69","<p style=""font-size: 48px;"">+</p>","","","","","null","allTrialResponses","1500","1","29","img_art/24.jpg","31","A river flowing through the lush forest","Kenneth,Nicholas,Jeremy,Adam,Hunter,Trevor","Cute; I like what the image itself & the colors.,25,300,20","Happy and relaxing bubbling brook,37,240,20","somewhat happy. I like the colors,38,60,20","I appreciate the earth tones. Soothing.,5,40,20","feels overdone, but still executed well,0,240,20","I like how it looks like a waterfall in an exotic place,50,280,20","Trevor","I like how it looks like a waterfall in an exotic place,50,280,20","Adam","I appreciate the earth tones. Soothing.,5,40,20","Nicholas","Happy and relaxing bubbling brook,37,240,20","4"
"6770","","survey-text","254","3943618","0.0-252.0-0.0","A1C8FN01981A69","","","","{""Q0"":""Feels overwhelming colors""}","","","","","","","","","","","","","","","","","","","","","","",""
"1657","","image-slider-response","255","3945277","0.0-253.0","A1C8FN01981A69","","","","","11","","","","","","","","","","","","","","","","","","","","","",""
"4598","","image-button-response","256","3950279","0.0-254.0","A1C8FN01981A69","img_art/21.jpg","1","","","","","","","","","","","","","","","","","","","","","","","","",""
"1333","","image-button-response","257","3951614","0.0-255.0","A1C8FN01981A69","img_art/21.jpg","1","","","","","","","","","","","","","","","","","","","","","","","","",""
"486","","image-button-response","258","3952101","0.0-256.0-0.0","A1C8FN01981A69","img_art/21.jpg","0","","","","","","","","","","","","","","","","","","","","","","","","",""
"606","","image-button-response","259","3952710","0.0-257.0-0.0","A1C8FN01981A69","img_art/21.jpg","4","","","","","","","","","","","","","","","","","","","","","","","","",""
"null","","html-keyboard-response","260","3954216","0.0-258.0","A1C8FN01981A69","<p style=""font-size: 48px;"">+</p>","","","","","null","allTrialResponses","1500","1","30","img_art/21.jpg","11","Feels overwhelming colors","Alex,Nicholas,Evan,Adam,Richard,Trevor","The colors are very nice. I like the dots because they remind me of pearls,5,100,20","Love the colors and the relationship between the light and storm,50,240,20","I feel confused,-18,140,20","I like color mix here,15,40,20","setting sun sky? nice colors and blending,14,340,20","it has a lot of happy colors and it's very classic looking,35,280,20","Nicholas","Love the colors and the relationship between the light and storm,50,240,20","Alex","The colors are very nice. I like the dots because they remind me of pearls,5,100,20","Richard","setting sun sky? nice colors and blending,14,340,20","4"
"8868","","image-button-response_instructions","261","3963095","0.0-259.0","A1C8FN01981A69","","0","instructions","","","","","","","","","","","","","","","","","","","","","","","",""
"1038","","image-button-response","262","3964141","0.0-260.0","A1C8FN01981A69","","0","","","","","","","","","","","","","","","","","","","","","","","","",""
