"rt","url","trial_type","trial_index","time_elapsed","internal_node_id","participant_id","stimulus","button_pressed","Name","responses","response","key_press","variableName","fixationTime","condition","trial","photo","subjectRating","subjectResponse","agentsNames","agent_1_Response","agent_2_Response","agent_3_Response","agent_4_Response","agent_5_Response","agent_6_Response","kept_1_name","kept_1_response","kept_2_name","kept_2_response","kept_3_name","kept_3_response","errorCounter"
"6421","external_page_harvard.html","external-html","0","6759","0.0-0.0","A1CSWN23S8BHQY","","","","","","","","","","","","","","","","","","","","","","","","","","",""
"1931","","image-button-response","1","8690","0.0-1.0","A1CSWN23S8BHQY","","1","","","","","","","","","","","","","","","","","","","","","","","","",""
"1603","","image-button-response","2","10293","0.0-2.0-0.0","A1CSWN23S8BHQY","","1","phone","","","","","","","","","","","","","","","","","","","","","","","",""
"8983","","survey-text","3","19276","0.0-3.0-0.0","A1CSWN23S8BHQY","","","","{""Q0"":""A1CSWN23S8BHQY""}","","","","","","","","","","","","","","","","","","","","","","",""
"4299","","image-button-response_instructions","4","23575","0.0-4.0","A1CSWN23S8BHQY","","0","instructions","","","","","","","","","","","","","","","","","","","","","","","",""
"12614","","image-button-response_instructions","5","36189","0.0-5.0","A1CSWN23S8BHQY","img_art/ins/popularity/ins1.png","0","instructions","","","","","","","","","","","","","","","","","","","","","","","",""
"4187","","image-button-response_instructions","6","40376","0.0-6.0","A1CSWN23S8BHQY","img_art/ins/popularity/ins2.png","0","instructions","","","","","","","","","","","","","","","","","","","","","","","",""
"2369","","image-button-response_instructions","7","42745","0.0-7.0","A1CSWN23S8BHQY","img_art/ins/popularity/ins2Extreme.png","0","instructions","","","","","","","","","","","","","","","","","","","","","","","",""
"10574","","image-button-response_instructions","8","53319","0.0-8.0","A1CSWN23S8BHQY","img_art/ins/popularity/ins3KEEPpop.PNG","0","instructions","","","","","","","","","","","","","","","","","","","","","","","",""
"3900","","image-button-response_instructions","9","57219","0.0-9.0","A1CSWN23S8BHQY","img_art/ins/popularity/ins3ANamepop.PNG","0","instructions","","","","","","","","","","","","","","","","","","","","","","","",""
"1333","","image-button-response_instructions","10","58552","0.0-10.0","A1CSWN23S8BHQY","img_art/ins/popularity/ins3ARatingpop.png","0","instructions","","","","","","","","","","","","","","","","","","","","","","","",""
"904","","image-button-response_instructions","11","59456","0.0-11.0","A1CSWN23S8BHQY","img_art/ins/popularity/ins3ATextpop.png","0","instructions","","","","","","","","","","","","","","","","","","","","","","","",""
"1749","","image-button-response_instructions","12","61205","0.0-12.0","A1CSWN23S8BHQY","img_art/ins/popularity/ins3ALikespop.png","0","instructions","","","","","","","","","","","","","","","","","","","","","","","",""
"7301","","image-button-response_instructions","13","68506","0.0-13.0","A1CSWN23S8BHQY","img_art/ins/popularity/ins3KEEPpop.PNG","0","instructions","","","","","","","","","","","","","","","","","","","","","","","",""
"2412","","image-button-response_instructions","14","70918","0.0-14.0","A1CSWN23S8BHQY","img_art/ins/popularity/ins3_5RED.png","0","instructions","","","","","","","","","","","","","","","","","","","","","","","",""
"2440","","image-button-response_instructions","15","73358","0.0-15.0","A1CSWN23S8BHQY","img_art/ins/popularity/ins3KEEPpop.PNG","0","instructions","","","","","","","","","","","","","","","","","","","","","","","",""
"1515","","image-button-response_instructions","16","74873","0.0-16.0","A1CSWN23S8BHQY","img_art/ins/popularity/ins4KEEPpop.PNG","0","instructions","","","","","","","","","","","","","","","","","","","","","","","",""
"3224","","image-button-response_instructions","17","78097","0.0-17.0","A1CSWN23S8BHQY","img_art/ins/popularity/ins5KEEPpop.PNG","0","instructions","","","","","","","","","","","","","","","","","","","","","","","",""
"1156","","image-button-response_instructions","18","79254","0.0-18.0","A1CSWN23S8BHQY","","0","instructions","","","","","","","","","","","","","","","","","","","","","","","",""
"8667","","survey-text","19","88092","0.0-19.0-0.0","A1CSWN23S8BHQY","","","","{""Q0"":""but""}","","","","","","","","","","","","","","","","","","","","","","",""
"18398","","survey-text","20","106490","0.0-20.0-0.0","A1CSWN23S8BHQY","","","","{""Q0"":""It seems like a very nice but plain painting.""}","","","","","","","","","","","","","","","","","","","","","","",""
"3683","","image-slider-response","21","110173","0.0-21.0","A1CSWN23S8BHQY","","","","","14","","","","","","","","","","","","","","","","","","","","","",""
"null","","image-button-response","22","115217","0.0-22.0","A1CSWN23S8BHQY","img_art/ins/1.jpg","null","","","","","","","","","","","","","","","","","","","","","","","","",""
"2589","","image-button-response","23","117806","0.0-23.0","A1CSWN23S8BHQY","img_art/ins/1.jpg","5","","","","","","","","","","","","","","","","","","","","","","","","",""
"9200","","image-button-response","24","127022","0.0-24.0-0.0","A1CSWN23S8BHQY","img_art/ins/1.jpg","0","","","","","","","","","","","","","","","","","","","","","","","","",""
"9614","","image-button-response","25","136636","0.0-25.0-0.0","A1CSWN23S8BHQY","img_art/ins/1.jpg","4","","","","","","","","","","","","","","","","","","","","","","","","",""
"null","","html-keyboard-response","26","137170","0.0-26.0","A1CSWN23S8BHQY","<p style=""font-size: 48px;"">+</p>","","","","","null","allTrialResponses","500","1","-2","img_art/ins/1.jpg","14","It seems like a very nice but plain painting.","Allison,Ashley,Beth,Dora,Erika,Jen","looks like a lot of things going on in the mist,20,20,20","I just don't get why these type of art would be popular,-32,40,20","This color reminds me of poo,-46,60,20","looks like what my niece in 3rd grade did this afternoon,-50,80,20","I like the sophisticated brushwork,40,100,20","It reminds me of a candy land dream I had,36,120,20","Jen","It reminds me of a candy land dream I had,36,120,20","Allison","looks like a lot of things going on in the mist,20,20,20","Erika","I like the sophisticated brushwork,40,100,20","0"
"20268","","survey-text","27","157438","0.0-27.0-0.0","A1CSWN23S8BHQY","","","","{""Q0"":""Seems very delibrate and bitter""}","","","","","","","","","","","","","","","","","","","","","","",""
"1764","","image-slider-response","28","159202","0.0-28.0","A1CSWN23S8BHQY","","","","","2","","","","","","","","","","","","","","","","","","","","","",""
"4601","","image-button-response","29","164202","0.0-29.0","A1CSWN23S8BHQY","img_art/ins/2.jpg","1","","","","","","","","","","","","","","","","","","","","","","","","",""
"1252","","image-button-response","30","165454","0.0-30.0","A1CSWN23S8BHQY","img_art/ins/2.jpg","0","","","","","","","","","","","","","","","","","","","","","","","","",""
"897","","image-button-response","31","166351","0.0-31.0-0.0","A1CSWN23S8BHQY","img_art/ins/2.jpg","1","","","","","","","","","","","","","","","","","","","","","","","","",""
"4772","","image-button-response","32","171123","0.0-32.0-0.0","A1CSWN23S8BHQY","img_art/ins/2.jpg","5","","","","","","","","","","","","","","","","","","","","","","","","",""
"null","","html-keyboard-response","33","171626","0.0-33.0","A1CSWN23S8BHQY","<p style=""font-size: 48px;"">+</p>","","","","","null","allTrialResponses","500","1","-1","img_art/ins/2.jpg","2","Seems very delibrate and bitter","Allison,Kara,Katie,Jenna,Erika,Jen","I don't have strong feelings about this,10,20,20","I like the blocks of color arrangements,30,160,20","too much color!,-28,180,20","One of my pet peevs,-48,140,20","I would never be able to compose a sophisticated pallete like this,48,100,20","It reminds me of a fireplace,36,120,20","Allison","I don't have strong feelings about this,10,20,20","Kara","I like the blocks of color arrangements,30,160,20","Jen","It reminds me of a fireplace,36,120,20","0"
"11922","","survey-text","34","183553","0.0-34.0-0.0","A1CSWN23S8BHQY","","","","{""Q0"":""It remnds me of a snow storm""}","","","","","","","","","","","","","","","","","","","","","","",""
"3264","","image-slider-response","35","186817","0.0-35.0","A1CSWN23S8BHQY","","","","","25","","","","","","","","","","","","","","","","","","","","","",""
"3305","","image-button-response","36","191833","0.0-36.0","A1CSWN23S8BHQY","img_art/ins/3.jpg","0","","","","","","","","","","","","","","","","","","","","","","","","",""
"1767","","image-button-response","37","193602","0.0-37.0","A1CSWN23S8BHQY","img_art/ins/3.jpg","1","","","","","","","","","","","","","","","","","","","","","","","","",""
"2235","","image-button-response","38","195837","0.0-38.0-0.0","A1CSWN23S8BHQY","img_art/ins/3.jpg","5","","","","","","","","","","","","","","","","","","","","","","","","",""
"1432","","image-button-response","39","197269","0.0-39.0-0.0","A1CSWN23S8BHQY","img_art/ins/3.jpg","4","","","","","","","","","","","","","","","","","","","","","","","","",""
"null","","html-keyboard-response","40","198771","0.0-40.0","A1CSWN23S8BHQY","<p style=""font-size: 48px;"">+</p>","","","","","null","allTrialResponses","1500","1","0","img_art/ins/3.jpg","25","It remnds me of a snow storm","Allison,Kara,Rose,Leslie,Mary,Jen","enjoy the different shades of blue,22,20,20","calming blue is very nice,36,160,20","My daily routine, it's depressing,-20,240,20","It's an alright work,15,200,20","I like the overlapping of brushes,41,220,20","I can feel a rainy day from this painting,18,120,20","Kara","calming blue is very nice,36,160,20","Jen","I can feel a rainy day from this painting,18,120,20","Mary","I like the overlapping of brushes,41,220,20","0"
"8847","","image-button-response_instructions","41","207634","0.0-41.0","A1CSWN23S8BHQY","","0","instructions","","","","","","","","","","","","","","","","","","","","","","","",""
"11300","","survey-likert","42","218934","0.0-42.0-0.0","A1CSWN23S8BHQY","","","","{""Q0"":"""",""Q1"":0,""Q2"":1}","","","","","","","","","","","","","","","","","","","","","","",""
"5399","","survey-text","43","224333","0.0-43.0-0.0","A1CSWN23S8BHQY","","","","{""Q0"":""rock""}","","","","","","","","","","","","","","","","","","","","","","",""
"19305","","survey-text","44","243638","0.0-44.0-0.0","A1CSWN23S8BHQY","","","","{""Q0"":""Looks like a storm is coming.""}","","","","","","","","","","","","","","","","","","","","","","",""
"2910","","image-slider-response","45","246548","0.0-45.0","A1CSWN23S8BHQY","","","","","25","","","","","","","","","","","","","","","","","","","","","",""
"3434","","image-button-response","46","251601","0.0-46.0","A1CSWN23S8BHQY","img_art/21.jpg","0","","","","","","","","","","","","","","","","","","","","","","","","",""
"901","","image-button-response","47","252502","0.0-47.0","A1CSWN23S8BHQY","img_art/21.jpg","1","","","","","","","","","","","","","","","","","","","","","","","","",""
"2831","","image-button-response","48","255333","0.0-48.0-0.0","A1CSWN23S8BHQY","img_art/21.jpg","2","","","","","","","","","","","","","","","","","","","","","","","","",""
"1551","","image-button-response","49","256884","0.0-49.0-0.0","A1CSWN23S8BHQY","img_art/21.jpg","0","","","","","","","","","","","","","","","","","","","","","","","","",""
"null","","html-keyboard-response","50","257884","0.0-50.0","A1CSWN23S8BHQY","<p style=""font-size: 48px;"">+</p>","","","","","null","allTrialResponses","1000","1","1","img_art/21.jpg","25","Looks like a storm is coming.","Rachel,Jenna,Courtney,Amanda,Mary,Shelby","Looks like a body of water during a sunset. I like this piece.,21,80,20","beautiful. reminds me of a storm brewing over sea. i love the white dots.,45,360,20","Another ship on fire.,-10,280,20","Very calming and nice to look at,30,180,20","This is lovely. I like the mix of colors, the warn and cool slowly combining.,39,180,20","Very calming and soft, makes me feel good,31,240,20","Jenna","beautiful. reminds me of a storm brewing over sea. i love the white dots.,45,360,20","Courtney","Another ship on fire.,-10,280,20","Rachel","Looks like a body of water during a sunset. I like this piece.,21,80,20","0"
"20458","","survey-text","51","278348","0.0-51.0-0.0","A1CSWN23S8BHQY","","","","{""Q0"":""Looking out a car window during a storm""}","","","","","","","","","","","","","","","","","","","","","","",""
"3363","","image-slider-response","52","281711","0.0-52.0","A1CSWN23S8BHQY","","","","","30","","","","","","","","","","","","","","","","","","","","","",""
"4304","","image-button-response","53","286717","0.0-53.0","A1CSWN23S8BHQY","img_art/13.jpg","2","","","","","","","","","","","","","","","","","","","","","","","","",""
"752","","image-button-response","54","287485","0.0-54.0","A1CSWN23S8BHQY","img_art/13.jpg","2","","","","","","","","","","","","","","","","","","","","","","","","",""
"2850","","image-button-response","55","290335","0.0-55.0-0.0","A1CSWN23S8BHQY","img_art/13.jpg","5","","","","","","","","","","","","","","","","","","","","","","","","",""
"1465","","image-button-response","56","291800","0.0-56.0-0.0","A1CSWN23S8BHQY","img_art/13.jpg","4","","","","","","","","","","","","","","","","","","","","","","","","",""
"null","","html-keyboard-response","57","292300","0.0-57.0","A1CSWN23S8BHQY","<p style=""font-size: 48px;"">+</p>","","","","","null","allTrialResponses","500","1","2","img_art/13.jpg","30","Looking out a car window during a storm","Rachel,Jenna,Courtney,Tiffany,Autumn,Ashley","Peaceful colors.,20,80,20","exciting & chaotic. love the colors.,50,360,20","Debree on top of a calm pond.,18,280,20","The painting makes me feel awe and like I am very little. Like I am alone at the bottom of the ocean.,41,360,20","Nice color abstractions.,21,340,20","AWESOME! Pollack but with more direction.,32,320,20","Courtney","Debree on top of a calm pond.,18,280,20","Ashley","AWESOME! Pollack but with more direction.,32,320,20","Autumn","Nice color abstractions.,21,340,20","0"
"13074","","survey-text","58","305379","0.0-58.0-0.0","A1CSWN23S8BHQY","","","","{""Q0"":""Beautifully done""}","","","","","","","","","","","","","","","","","","","","","","",""
"2701","","image-slider-response","59","308080","0.0-59.0","A1CSWN23S8BHQY","","","","","42","","","","","","","","","","","","","","","","","","","","","",""
"2016","","image-button-response","60","313090","0.0-60.0","A1CSWN23S8BHQY","img_art/8.jpg","0","","","","","","","","","","","","","","","","","","","","","","","","",""
"1002","","image-button-response","61","314095","0.0-61.0","A1CSWN23S8BHQY","img_art/8.jpg","0","","","","","","","","","","","","","","","","","","","","","","","","",""
"918","","image-button-response","62","315014","0.0-62.0-0.0","A1CSWN23S8BHQY","img_art/8.jpg","0","","","","","","","","","","","","","","","","","","","","","","","","",""
"1794","","image-button-response","63","319994","0.0-62.1-0.1","A1CSWN23S8BHQY","img_art/8.jpg","1","","","","","","","","","","","","","","","","","","","","","","","","",""
"1987","","image-button-response","64","321997","0.0-63.0-0.0","A1CSWN23S8BHQY","img_art/8.jpg","2","","","","","","","","","","","","","","","","","","","","","","","","",""
"null","","html-keyboard-response","65","322997","0.0-64.0","A1CSWN23S8BHQY","<p style=""font-size: 48px;"">+</p>","","","","","null","allTrialResponses","1000","1","3","img_art/8.jpg","42","Beautifully done","Taylor,Mariah,Courtney,Laura,Autumn,Ashley","Looks like it would be an interesting place to live,35,340,20","Clean and stark. The colors are pleasant.,15,140,20","Now that one is wild. Looks like maybe mother nature isnt happy.,28,280,20","chaotic and disassembled,-8,320,20","Well painted. Not my style.,27,340,20","Escher? Dali? Could be their lovechild?,50,320,20","Taylor","Looks like it would be an interesting place to live,35,340,20","Mariah","Clean and stark. The colors are pleasant.,15,140,20","Courtney","Now that one is wild. Looks like maybe mother nature isnt happy.,28,280,20","2"
"16029","","survey-text","66","339031","0.0-65.0-0.0","A1CSWN23S8BHQY","","","","{""Q0"":""Not sure what I'm looking at.""}","","","","","","","","","","","","","","","","","","","","","","",""
"8565","","image-slider-response","67","347612","0.0-66.0","A1CSWN23S8BHQY","","","","","0","","","","","","","","","","","","","","","","","","","","","",""
"2936","","image-button-response","68","352612","0.0-67.0","A1CSWN23S8BHQY","img_art/7.jpg","1","","","","","","","","","","","","","","","","","","","","","","","","",""
"1213","","image-button-response","69","353828","0.0-68.0","A1CSWN23S8BHQY","img_art/7.jpg","1","","","","","","","","","","","","","","","","","","","","","","","","",""
"1635","","image-button-response","70","355463","0.0-69.0-0.0","A1CSWN23S8BHQY","img_art/7.jpg","2","","","","","","","","","","","","","","","","","","","","","","","","",""
"3266","","image-button-response","71","358729","0.0-70.0-0.0","A1CSWN23S8BHQY","img_art/7.jpg","4","","","","","","","","","","","","","","","","","","","","","","","","",""
"null","","html-keyboard-response","72","360257","0.0-71.0","A1CSWN23S8BHQY","<p style=""font-size: 48px;"">+</p>","","","","","null","allTrialResponses","1500","1","4","img_art/7.jpg","0","Not sure what I'm looking at.","Taylor,Mariah,Courtney,Megan,Chloe,Heather","It makes me think of new archaeology discoveries,15,340,20","The dried bottom of a puddle in July.,-41,140,20","That a desert floor,16,280,20","Great portrayal of solid surface,19,200,20","Like the tactile quality,30,220,20","i dont like it. it looks like rocks,-40,260,20","Mariah","The dried bottom of a puddle in July.,-41,140,20","Courtney","That a desert floor,16,280,20","Chloe","Like the tactile quality,30,220,20","2"
"10890","","survey-text","73","371180","0.0-72.0-0.0","A1CSWN23S8BHQY","","","","{""Q0"":""Lovely waterfall""}","","","","","","","","","","","","","","","","","","","","","","",""
"3951","","image-slider-response","74","375131","0.0-73.0","A1CSWN23S8BHQY","","","","","45","","","","","","","","","","","","","","","","","","","","","",""
"null","","image-button-response","75","380145","0.0-74.0","A1CSWN23S8BHQY","img_art/24.jpg","null","","","","","","","","","","","","","","","","","","","","","","","","",""
"2303","","image-button-response","76","382448","0.0-75.0","A1CSWN23S8BHQY","img_art/24.jpg","2","","","","","","","","","","","","","","","","","","","","","","","","",""
"1500","","image-button-response","77","383948","0.0-76.0-0.0","A1CSWN23S8BHQY","img_art/24.jpg","5","","","","","","","","","","","","","","","","","","","","","","","","",""
"1510","","image-button-response","78","385458","0.0-77.0-0.0","A1CSWN23S8BHQY","img_art/24.jpg","3","","","","","","","","","","","","","","","","","","","","","","","","",""
"null","","html-keyboard-response","79","386458","0.0-78.0","A1CSWN23S8BHQY","<p style=""font-size: 48px;"">+</p>","","","","","null","allTrialResponses","1000","1","5","img_art/24.jpg","45","Lovely waterfall","Leslie,Mariah,Courtney,Katherine,Chloe,Mackenzie","The colors look nice, but the painting bores me.,-20,380,20","It is like a really bad impressionist painting.,-40,140,20","What a nice refreshing waterfall.,39,280,20","The combination of nature / realism with abstract colors is unique.,39,120,20","Pretty but cheesy,-15,220,20","I like the vivid colors and different textures,32,20,20","Courtney","What a nice refreshing waterfall.,39,280,20","Mackenzie","I like the vivid colors and different textures,32,20,20","Katherine","The combination of nature / realism with abstract colors is unique.,39,120,20","2"
"3727","","survey-text","80","390193","0.0-79.0-0.0","A1CSWN23S8BHQY","","","","{""Q0"":""sky""}","","","","","","","","","","","","","","","","","","","","","","",""
"17449","","survey-text","81","407642","0.0-80.0-0.0","A1CSWN23S8BHQY","","","","{""Q0"":""Very nice""}","","","","","","","","","","","","","","","","","","","","","","",""
"2688","","image-slider-response","82","410346","0.0-81.0","A1CSWN23S8BHQY","","","","","13","","","","","","","","","","","","","","","","","","","","","",""
"3682","","image-button-response","83","415361","0.0-82.0","A1CSWN23S8BHQY","img_art/19.jpg","1","","","","","","","","","","","","","","","","","","","","","","","","",""
"566","","image-button-response","84","415927","0.0-83.0","A1CSWN23S8BHQY","img_art/19.jpg","1","","","","","","","","","","","","","","","","","","","","","","","","",""
"2513","","image-button-response","85","418440","0.0-84.0-0.0","A1CSWN23S8BHQY","img_art/19.jpg","0","","","","","","","","","","","","","","","","","","","","","","","","",""
"4719","","image-button-response","86","423159","0.0-85.0-0.0","A1CSWN23S8BHQY","img_art/19.jpg","3","","","","","","","","","","","","","","","","","","","","","","","","",""
"null","","html-keyboard-response","87","424679","0.0-86.0","A1CSWN23S8BHQY","<p style=""font-size: 48px;"">+</p>","","","","","null","allTrialResponses","1500","1","6","img_art/19.jpg","13","Very nice","Alicia,Olivia,Courtney,Katherine,Sarah,Mackenzie","calming, like the drips,25,120,20","city life energy,8,40,20","Thats a lazy town,-8,280,20","I dig the not being able to tell what anything is but knowing everything is supposed to be something,46,120,20","too much of a mix of lines and shading,-22,180,20","Shapes give it a feeling of being crowded,-18,20,20","Olivia","city life energy,8,40,20","Alicia","calming, like the drips,25,120,20","Katherine","I dig the not being able to tell what anything is but knowing everything is supposed to be something,46,120,20","2"
"9343","","survey-text","88","434022","0.0-87.0-0.0","A1CSWN23S8BHQY","","","","{""Q0"":""City in the sun""}","","","","","","","","","","","","","","","","","","","","","","",""
"11421","","image-slider-response","89","445443","0.0-88.0","A1CSWN23S8BHQY","","","","","16","","","","","","","","","","","","","","","","","","","","","",""
"4933","","image-button-response","90","450443","0.0-89.0","A1CSWN23S8BHQY","img_art/22.jpg","1","","","","","","","","","","","","","","","","","","","","","","","","",""
"3344","","image-button-response","91","453803","0.0-90.0","A1CSWN23S8BHQY","img_art/22.jpg","1","","","","","","","","","","","","","","","","","","","","","","","","",""
"2287","","image-button-response","92","456090","0.0-91.0-0.0","A1CSWN23S8BHQY","img_art/22.jpg","3","","","","","","","","","","","","","","","","","","","","","","","","",""
"1454","","image-button-response","93","457545","0.0-92.0-0.0","A1CSWN23S8BHQY","img_art/22.jpg","5","","","","","","","","","","","","","","","","","","","","","","","","",""
"null","","html-keyboard-response","94","459061","0.0-93.0","A1CSWN23S8BHQY","<p style=""font-size: 48px;"">+</p>","","","","","null","allTrialResponses","1500","1","7","img_art/22.jpg","16","City in the sun","Alicia,Olivia,Caitlin,Katherine,Jasmine,Stephanie","Could be interpreted so many ways, bold. I like it.,29,120,20","ball of light in 90s,8,40,20","Looks like the kind of art I would see at the doctor's office.,-5,80,20","Cool squares but what's the circle?,38,120,20","I appreciate the artistic effort but it's not for me,0,340,20","I don't get much of a reaction.,11,300,20","Olivia","ball of light in 90s,8,40,20","Katherine","Cool squares but what's the circle?,38,120,20","Stephanie","I don't get much of a reaction.,11,300,20","2"
"8550","","survey-text","95","467626","0.0-94.0-0.0","A1CSWN23S8BHQY","","","","{""Q0"":""Not much from this""}","","","","","","","","","","","","","","","","","","","","","","",""
"2716","","image-slider-response","96","470342","0.0-95.0","A1CSWN23S8BHQY","","","","","7","","","","","","","","","","","","","","","","","","","","","",""
"3733","","image-button-response","97","475342","0.0-96.0","A1CSWN23S8BHQY","img_art/26.jpg","3","","","","","","","","","","","","","","","","","","","","","","","","",""
"666","","image-button-response","98","476009","0.0-97.0","A1CSWN23S8BHQY","img_art/26.jpg","4","","","","","","","","","","","","","","","","","","","","","","","","",""
"869","","image-button-response","99","476878","0.0-98.0-0.0","A1CSWN23S8BHQY","img_art/26.jpg","1","","","","","","","","","","","","","","","","","","","","","","","","",""
"830","","image-button-response","100","477708","0.0-99.0-0.0","A1CSWN23S8BHQY","img_art/26.jpg","0","","","","","","","","","","","","","","","","","","","","","","","","",""
"null","","html-keyboard-response","101","478219","0.0-100.0","A1CSWN23S8BHQY","<p style=""font-size: 48px;"">+</p>","","","","","null","allTrialResponses","500","1","8","img_art/26.jpg","7","Not much from this","Cynthia,Olivia,Brooke,Katherine,Mikayla,Stephanie","dull and boring,-6,320,20","reminds me of a hometown,7,40,20","street scene is okay?,15,60,20","This style of objects that are supposed to be something but then are blurry is interesting.,38,120,20","Love the colors in this one.,22,300,20","Day just begun in the city and the stores are opening their doors.,41,300,20","Mikayla","Love the colors in this one.,22,300,20","Olivia","reminds me of a hometown,7,40,20","Cynthia","dull and boring,-6,320,20","2"
"12621","","survey-text","102","490856","0.0-101.0-0.0","A1CSWN23S8BHQY","","","","{""Q0"":""Sea serpent.""}","","","","","","","","","","","","","","","","","","","","","","",""
"3419","","image-slider-response","103","494275","0.0-102.0","A1CSWN23S8BHQY","","","","","42","","","","","","","","","","","","","","","","","","","","","",""
"2483","","image-button-response","104","499298","0.0-103.0","A1CSWN23S8BHQY","img_art/10.jpg","1","","","","","","","","","","","","","","","","","","","","","","","","",""
"710","","image-button-response","105","500008","0.0-104.0","A1CSWN23S8BHQY","img_art/10.jpg","1","","","","","","","","","","","","","","","","","","","","","","","","",""
"846","","image-button-response","106","500854","0.0-105.0-0.0","A1CSWN23S8BHQY","img_art/10.jpg","0","","","","","","","","","","","","","","","","","","","","","","","","",""
"1685","","image-button-response","107","502555","0.0-106.0-0.0","A1CSWN23S8BHQY","img_art/10.jpg","3","","","","","","","","","","","","","","","","","","","","","","","","",""
"null","","html-keyboard-response","108","503055","0.0-107.0","A1CSWN23S8BHQY","<p style=""font-size: 48px;"">+</p>","","","","","null","allTrialResponses","500","1","9","img_art/10.jpg","42","Sea serpent.","Cynthia,Olivia,Christina,Andrea,Mikayla,Sara","cultural with a symphony,40,320,20","feeling the turmoil and ride,12,40,20","It's very dark and angry looking,-31,240,20","Kraken, and I love it.,39,240,20","Kinda creepy not my favorite,-26,300,20","I don't like the colors,-20,160,20","Olivia","feeling the turmoil and ride,12,40,20","Cynthia","cultural with a symphony,40,320,20","Andrea","Kraken, and I love it.,39,240,20","2"
"13215","","survey-text","109","516276","0.0-108.0-0.0","A1CSWN23S8BHQY","","","","{""Q0"":""Very odd piece.""}","","","","","","","","","","","","","","","","","","","","","","",""
"3510","","image-slider-response","110","519786","0.0-109.0","A1CSWN23S8BHQY","","","","","-4","","","","","","","","","","","","","","","","","","","","","",""
"2853","","image-button-response","111","524788","0.0-110.0","A1CSWN23S8BHQY","img_art/16.jpg","1","","","","","","","","","","","","","","","","","","","","","","","","",""
"12991","","image-button-response","112","537786","0.0-111.0","A1CSWN23S8BHQY","img_art/16.jpg","1","","","","","","","","","","","","","","","","","","","","","","","","",""
"2634","","image-button-response","113","540420","0.0-112.0-0.0","A1CSWN23S8BHQY","img_art/16.jpg","0","","","","","","","","","","","","","","","","","","","","","","","","",""
"2249","","image-button-response","114","542670","0.0-113.0-0.0","A1CSWN23S8BHQY","img_art/16.jpg","3","","","","","","","","","","","","","","","","","","","","","","","","",""
"null","","html-keyboard-response","115","543674","0.0-114.0","A1CSWN23S8BHQY","<p style=""font-size: 48px;"">+</p>","","","","","null","allTrialResponses","1000","1","10","img_art/16.jpg","-4","Very odd piece.","Cynthia,Olivia,Julia,Andrea,Rebecca,Angela","Dreamy and chaotic,-9,320,20","childhood horror,3,40,20","I love the teddy bear,50,40,20","I think it's about child abuse. The teddy bear represents innocence and the dark shape is approaching it.,40,240,20","don't know how to feel, I mean I respect it but I honestly don't know about this,-12,100,20","Hate this, especially the jarring contrast of the super realistic teddybear face.,-50,260,20","Olivia","childhood horror,3,40,20","Cynthia","Dreamy and chaotic,-9,320,20","Andrea","I think it's about child abuse. The teddy bear represents innocence and the dark shape is approaching it.,40,240,20","2"
"5294","","survey-text","116","548984","0.0-115.0-0.0","A1CSWN23S8BHQY","","","","{""Q0"":""our""}","","","","","","","","","","","","","","","","","","","","","","",""
"9474","","survey-text","117","558460","0.0-116.0-0.0","A1CSWN23S8BHQY","","","","{""Q0"":""Weird barber chair""}","","","","","","","","","","","","","","","","","","","","","","",""
"3291","","image-slider-response","118","561754","0.0-117.0","A1CSWN23S8BHQY","","","","","7","","","","","","","","","","","","","","","","","","","","","",""
"null","","image-button-response","119","566765","0.0-118.0","A1CSWN23S8BHQY","img_art/28.jpg","null","","","","","","","","","","","","","","","","","","","","","","","","",""
"2002","","image-button-response","120","568767","0.0-119.0","A1CSWN23S8BHQY","img_art/28.jpg","5","","","","","","","","","","","","","","","","","","","","","","","","",""
"2356","","image-button-response","121","571123","0.0-120.0-0.0","A1CSWN23S8BHQY","img_art/28.jpg","3","","","","","","","","","","","","","","","","","","","","","","","","",""
"1415","","image-button-response","122","572538","0.0-121.0-0.0","A1CSWN23S8BHQY","img_art/28.jpg","1","","","","","","","","","","","","","","","","","","","","","","","","",""
"null","","html-keyboard-response","123","573038","0.0-122.0","A1CSWN23S8BHQY","<p style=""font-size: 48px;"">+</p>","","","","","null","allTrialResponses","500","1","11","img_art/28.jpg","7","Weird barber chair","Cynthia,Olivia,Diana,Andrea,Emma,Madison","nostalgic from a memory,11,320,20","conversating means hope,15,40,20","I think this piece is interesting. I love the faces drawn into it.,29,380,20","It reminds me of the cantina in Star Wars.,37,240,20","Don't love the colors,-10,60,20","It's okay. There is harmony and balance.,11,60,20","Madison","It's okay. There is harmony and balance.,11,60,20","Andrea","It reminds me of the cantina in Star Wars.,37,240,20","Olivia","conversating means hope,15,40,20","2"
"8095","","survey-text","124","581139","0.0-123.0-0.0","A1CSWN23S8BHQY","","","","{""Q0"":""Pain and dull""}","","","","","","","","","","","","","","","","","","","","","","",""
"2348","","image-slider-response","125","583487","0.0-124.0","A1CSWN23S8BHQY","","","","","-6","","","","","","","","","","","","","","","","","","","","","",""
"4252","","image-button-response","126","588488","0.0-125.0","A1CSWN23S8BHQY","img_art/5.jpg","2","","","","","","","","","","","","","","","","","","","","","","","","",""
"912","","image-button-response","127","589402","0.0-126.0","A1CSWN23S8BHQY","img_art/5.jpg","2","","","","","","","","","","","","","","","","","","","","","","","","",""
"2430","","image-button-response","128","591832","0.0-127.0-0.0","A1CSWN23S8BHQY","img_art/5.jpg","4","","","","","","","","","","","","","","","","","","","","","","","","",""
"1056","","image-button-response","129","592903","0.0-128.0-0.0","A1CSWN23S8BHQY","img_art/5.jpg","3","","","","","","","","","","","","","","","","","","","","","","","","",""
"null","","html-keyboard-response","130","593403","0.0-129.0","A1CSWN23S8BHQY","<p style=""font-size: 48px;"">+</p>","","","","","null","allTrialResponses","500","1","12","img_art/5.jpg","-6","Pain and dull","Amy,Olivia,Sophia,Andrea,Erin,Madison","Nearly white background gives a lack of context. Questionable skills,-45,220,20","a brush in time,-14,40,20","Looks like a tied up trash bag.,-10,280,20","Perfume bottle, reminds of fancy nights out.,11,240,20","Flame, candle, wind,30,120,20","Bright and luminous,31,60,20","Sophia","Looks like a tied up trash bag.,-10,280,20","Erin","Flame, candle, wind,30,120,20","Andrea","Perfume bottle, reminds of fancy nights out.,11,240,20","2"
"8730","","survey-text","131","602139","0.0-130.0-0.0","A1CSWN23S8BHQY","","","","{""Q0"":""Lovely mess""}","","","","","","","","","","","","","","","","","","","","","","",""
"2315","","image-slider-response","132","604469","0.0-131.0","A1CSWN23S8BHQY","","","","","5","","","","","","","","","","","","","","","","","","","","","",""
"null","","image-button-response","133","610693","0.0-132.0","A1CSWN23S8BHQY","img_art/18.jpg","null","","","","","","","","","","","","","","","","","","","","","","","","",""
"6874","","image-button-response","134","617569","0.0-133.0","A1CSWN23S8BHQY","img_art/18.jpg","3","","","","","","","","","","","","","","","","","","","","","","","","",""
"2183","","image-button-response","135","619752","0.0-134.0-0.0","A1CSWN23S8BHQY","img_art/18.jpg","5","","","","","","","","","","","","","","","","","","","","","","","","",""
"1899","","image-button-response","136","621651","0.0-135.0-0.0","A1CSWN23S8BHQY","img_art/18.jpg","2","","","","","","","","","","","","","","","","","","","","","","","","",""
"null","","html-keyboard-response","137","622151","0.0-136.0","A1CSWN23S8BHQY","<p style=""font-size: 48px;"">+</p>","","","","","null","allTrialResponses","500","1","13","img_art/18.jpg","5","Lovely mess","Hailey,Erica,Sophia,Andrea,Erin,Chelsea","i like the colors. outerspace,21,200,20","Makes me to look at it and investigate what it is about and what is going on,17,80,20","This one is very dark and apocalyptic indeed!,-30,280,20","I see an artistic representation of the riding of last of the four horseman. Its stunning.,45,240,20","See a weird horse,-22,120,20","I like the detail but I wouldn't hang this up on my wall.,14,180,20","Andrea","I see an artistic representation of the riding of last of the four horseman. Its stunning.,45,240,20","Chelsea","I like the detail but I wouldn't hang this up on my wall.,14,180,20","Sophia","This one is very dark and apocalyptic indeed!,-30,280,20","2"
"9176","","survey-text","138","631350","0.0-137.0-0.0","A1CSWN23S8BHQY","","","","{""Q0"":""Ghost town""}","","","","","","","","","","","","","","","","","","","","","","",""
"2918","","image-slider-response","139","634268","0.0-138.0","A1CSWN23S8BHQY","","","","","12","","","","","","","","","","","","","","","","","","","","","",""
"null","","image-button-response","140","639280","0.0-139.0","A1CSWN23S8BHQY","img_art/20.jpg","null","","","","","","","","","","","","","","","","","","","","","","","","",""
"987","","image-button-response","141","640267","0.0-140.0","A1CSWN23S8BHQY","img_art/20.jpg","1","","","","","","","","","","","","","","","","","","","","","","","","",""
"2103","","image-button-response","142","642370","0.0-141.0-0.0","A1CSWN23S8BHQY","img_art/20.jpg","4","","","","","","","","","","","","","","","","","","","","","","","","",""
"1932","","image-button-response","143","644318","0.0-142.0-0.0","A1CSWN23S8BHQY","img_art/20.jpg","5","","","","","","","","","","","","","","","","","","","","","","","","",""
"null","","html-keyboard-response","144","644817","0.0-143.0","A1CSWN23S8BHQY","<p style=""font-size: 48px;"">+</p>","","","","","null","allTrialResponses","500","1","14","img_art/20.jpg","12","Ghost town","Sabrina,Michaela,Sophia,Andrea,Kylie,Chelsea","I love the way it expresses dark nature and uncontrolled situations.,44,120,20","I can't tell what's going on but I like the colors,12,260,20","A truck rolled over?  I do like the pictures and the technique though.,25,280,20","Reminds me of persistance of time (a favorite of mine).,30,240,20","City life vs shore life,40,300,20","It is abstract but it looks neat.,15,180,20","Michaela","I can't tell what's going on but I like the colors,12,260,20","Kylie","City life vs shore life,40,300,20","Chelsea","It is abstract but it looks neat.,15,180,20","2"
"13610","","survey-text","145","658434","0.0-144.0-0.0","A1CSWN23S8BHQY","","","","{""Q0"":""Storm near a bridge""}","","","","","","","","","","","","","","","","","","","","","","",""
"1952","","image-slider-response","146","660386","0.0-145.0","A1CSWN23S8BHQY","","","","","20","","","","","","","","","","","","","","","","","","","","","",""
"4946","","image-button-response","147","665387","0.0-146.0","A1CSWN23S8BHQY","img_art/17.jpg","2","","","","","","","","","","","","","","","","","","","","","","","","",""
"946","","image-button-response","148","666333","0.0-147.0","A1CSWN23S8BHQY","img_art/17.jpg","2","","","","","","","","","","","","","","","","","","","","","","","","",""
"1085","","image-button-response","149","667418","0.0-148.0-0.0","A1CSWN23S8BHQY","img_art/17.jpg","4","","","","","","","","","","","","","","","","","","","","","","","","",""
"481","","image-button-response","150","667899","0.0-149.0-0.0","A1CSWN23S8BHQY","img_art/17.jpg","5","","","","","","","","","","","","","","","","","","","","","","","","",""
"null","","html-keyboard-response","151","668401","0.0-150.0","A1CSWN23S8BHQY","<p style=""font-size: 48px;"">+</p>","","","","","null","allTrialResponses","500","1","15","img_art/17.jpg","20","Storm near a bridge","Cheyenne,Michaela,Alyssa,Samantha,Kylie,Chelsea","I like the colorfulness.,17,200,20","I love how soft it is,35,260,20","It gorgeous and i love how the tree is almost 3 dimensional.So many elements to it.,50,160,20","Nice colors, shapes, flow,31,140,20","Looks like an explosion of pretty artwork,45,300,20","The colors are soft.,32,180,20","Alyssa","It gorgeous and i love how the tree is almost 3 dimensional.So many elements to it.,50,160,20","Kylie","Looks like an explosion of pretty artwork,45,300,20","Chelsea","The colors are soft.,32,180,20","2"
"5501","","survey-text","152","673914","0.0-151.0-0.0","A1CSWN23S8BHQY","","","","{""Q0"":""course""}","","","","","","","","","","","","","","","","","","","","","","",""
"15002","","survey-text","153","688916","0.0-152.0-0.0","A1CSWN23S8BHQY","","","","{""Q0"":""looks like wacky slides""}","","","","","","","","","","","","","","","","","","","","","","",""
"2396","","image-slider-response","154","691328","0.0-153.0","A1CSWN23S8BHQY","","","","","29","","","","","","","","","","","","","","","","","","","","","",""
"null","","image-button-response","155","696343","0.0-154.0","A1CSWN23S8BHQY","img_art/30.jpg","null","","","","","","","","","","","","","","","","","","","","","","","","",""
"899","","image-button-response","156","697249","0.0-155.0","A1CSWN23S8BHQY","img_art/30.jpg","3","","","","","","","","","","","","","","","","","","","","","","","","",""
"1684","","image-button-response","157","698933","0.0-156.0-0.0","A1CSWN23S8BHQY","img_art/30.jpg","0","","","","","","","","","","","","","","","","","","","","","","","","",""
"3280","","image-button-response","158","702213","0.0-157.0-0.0","A1CSWN23S8BHQY","img_art/30.jpg","4","","","","","","","","","","","","","","","","","","","","","","","","",""
"null","","html-keyboard-response","159","702718","0.0-158.0","A1CSWN23S8BHQY","<p style=""font-size: 48px;"">+</p>","","","","","null","allTrialResponses","500","1","16","img_art/30.jpg","29","looks like wacky slides","Danielle,Sierra,Alyssa,Molly,Kylie,Chelsea","It's okay. It should either have stuck to the grey-blue, or added more red. Seems unorganized (maybe that's the point?),-9,340,20","i dont like how the colors are mixed,-6,260,20","ugly nasty colors,-10,160,20","I like the way the artist has painted his work.,40,340,20","I can't figure this out,25,300,20","It looks like it was painted in 5 minutes.,-32,180,20","Molly","I like the way the artist has painted his work.,40,340,20","Danielle","It's okay. It should either have stuck to the grey-blue, or added more red. Seems unorganized (maybe that's the point?),-9,340,20","Kylie","I can't figure this out,25,300,20","2"
"13395","","survey-text","160","716114","0.0-159.0-0.0","A1CSWN23S8BHQY","","","","{""Q0"":""Looks like people dancing in the sky""}","","","","","","","","","","","","","","","","","","","","","","",""
"2467","","image-slider-response","161","718583","0.0-160.0","A1CSWN23S8BHQY","","","","","35","","","","","","","","","","","","","","","","","","","","","",""
"3951","","image-button-response","162","723588","0.0-161.0","A1CSWN23S8BHQY","img_art/23.jpg","4","","","","","","","","","","","","","","","","","","","","","","","","",""
"411","","image-button-response","163","723999","0.0-162.0","A1CSWN23S8BHQY","img_art/23.jpg","4","","","","","","","","","","","","","","","","","","","","","","","","",""
"982","","image-button-response","164","724981","0.0-163.0-0.0","A1CSWN23S8BHQY","img_art/23.jpg","5","","","","","","","","","","","","","","","","","","","","","","","","",""
"1154","","image-button-response","165","726150","0.0-164.0-0.0","A1CSWN23S8BHQY","img_art/23.jpg","2","","","","","","","","","","","","","","","","","","","","","","","","",""
"null","","html-keyboard-response","166","726656","0.0-165.0","A1CSWN23S8BHQY","<p style=""font-size: 48px;"">+</p>","","","","","null","allTrialResponses","500","1","17","img_art/23.jpg","35","Looks like people dancing in the sky","Danielle,Jordan,Kristen,Molly,Kylie,Claire","While I don't normally enjoy these color schemes all together, I kind of like this one,10,340,20","NO, I don't get it,-50,20,20","fsiries, happy, spiritual,16,280,20","Shocked, beautiful.,20,340,20","Universal celebration,40,300,20","the pattern is pleasing to the eye,28,260,20","Kylie","Universal celebration,40,300,20","Claire","the pattern is pleasing to the eye,28,260,20","Kristen","fsiries, happy, spiritual,16,280,20","2"
"17252","","survey-text","167","743916","0.0-166.0-0.0","A1CSWN23S8BHQY","","","","{""Q0"":""People in the park""}","","","","","","","","","","","","","","","","","","","","","","",""
"2781","","image-slider-response","168","746697","0.0-167.0","A1CSWN23S8BHQY","","","","","-2","","","","","","","","","","","","","","","","","","","","","",""
"2315","","image-button-response","169","751745","0.0-168.0","A1CSWN23S8BHQY","img_art/2.jpg","1","","","","","","","","","","","","","","","","","","","","","","","","",""
"1145","","image-button-response","170","752892","0.0-169.0","A1CSWN23S8BHQY","img_art/2.jpg","1","","","","","","","","","","","","","","","","","","","","","","","","",""
"889","","image-button-response","171","753781","0.0-170.0-0.0","A1CSWN23S8BHQY","img_art/2.jpg","4","","","","","","","","","","","","","","","","","","","","","","","","",""
"649","","image-button-response","172","754430","0.0-171.0-0.0","A1CSWN23S8BHQY","img_art/2.jpg","5","","","","","","","","","","","","","","","","","","","","","","","","",""
"null","","html-keyboard-response","173","754930","0.0-172.0","A1CSWN23S8BHQY","<p style=""font-size: 48px;"">+</p>","","","","","null","allTrialResponses","500","1","18","img_art/2.jpg","-2","People in the park","Haley,Natalie,Kristen,Kaitlin,Kylie,Claire","My first thought was that it looks like a children's art project,-30,220,20","looks like a bunch of gibberish,-39,400,20","smilely face, soulful,11,280,20","another confusing piece of art,-12,60,20","Not very appealing,-5,300,20","too blocky and don't like color combination,-32,260,20","Natalie","looks like a bunch of gibberish,-39,400,20","Kylie","Not very appealing,-5,300,20","Claire","too blocky and don't like color combination,-32,260,20","2"
"18454","","survey-text","174","773392","0.0-173.0-0.0","A1CSWN23S8BHQY","","","","{""Q0"":""Painting apocalypse""}","","","","","","","","","","","","","","","","","","","","","","",""
"1987","","image-slider-response","175","775379","0.0-174.0","A1CSWN23S8BHQY","","","","","17","","","","","","","","","","","","","","","","","","","","","",""
"null","","image-button-response","176","780399","0.0-175.0","A1CSWN23S8BHQY","img_art/29.jpg","null","","","","","","","","","","","","","","","","","","","","","","","","",""
"1012","","image-button-response","177","781411","0.0-176.0","A1CSWN23S8BHQY","img_art/29.jpg","1","","","","","","","","","","","","","","","","","","","","","","","","",""
"1516","","image-button-response","178","782942","0.0-177.0-0.0","A1CSWN23S8BHQY","img_art/29.jpg","4","","","","","","","","","","","","","","","","","","","","","","","","",""
"1573","","image-button-response","179","784515","0.0-178.0-0.0","A1CSWN23S8BHQY","img_art/29.jpg","5","","","","","","","","","","","","","","","","","","","","","","","","",""
"null","","html-keyboard-response","180","786060","0.0-179.0","A1CSWN23S8BHQY","<p style=""font-size: 48px;"">+</p>","","","","","null","allTrialResponses","1500","1","19","img_art/29.jpg","17","Painting apocalypse","Madeline,Natalie,Jacqueline,Caroline,Kylie,Claire","Looks a bit messy,-13,40,20","my response to the picture is that it looks so nice and cool and the details,34,400,20","This is ugly as fuck,-50,300,20","Depressing and with that big red x on it just makes me not like it.,-33,100,20","Reminds me of graffitti gone wrong,15,300,20","interesting, but I wouldn't put it on my wall,8,260,20","Natalie","my response to the picture is that it looks so nice and cool and the details,34,400,20","Kylie","Reminds me of graffitti gone wrong,15,300,20","Claire","interesting, but I wouldn't put it on my wall,8,260,20","2"
"9552","","survey-text","181","795612","0.0-180.0-0.0","A1CSWN23S8BHQY","","","","{""Q0"":""Nice and orderly""}","","","","","","","","","","","","","","","","","","","","","","",""
"23444","","image-slider-response","182","819057","0.0-181.0","A1CSWN23S8BHQY","","","","","2","","","","","","","","","","","","","","","","","","","","","",""
"null","","image-button-response","183","824069","0.0-182.0","A1CSWN23S8BHQY","img_art/12.jpg","null","","","","","","","","","","","","","","","","","","","","","","","","",""
"1558","","image-button-response","184","825630","0.0-183.0","A1CSWN23S8BHQY","img_art/12.jpg","2","","","","","","","","","","","","","","","","","","","","","","","","",""
"956","","image-button-response","185","826588","0.0-184.0-0.0","A1CSWN23S8BHQY","img_art/12.jpg","5","","","","","","","","","","","","","","","","","","","","","","","","",""
"591","","image-button-response","186","827181","0.0-185.0-0.0","A1CSWN23S8BHQY","img_art/12.jpg","4","","","","","","","","","","","","","","","","","","","","","","","","",""
"null","","html-keyboard-response","187","828189","0.0-186.0","A1CSWN23S8BHQY","<p style=""font-size: 48px;"">+</p>","","","","","null","allTrialResponses","1000","1","20","img_art/12.jpg","2","Nice and orderly","Lauren,Natalie,Brianna,Grace,Kylie,Claire","This doesn't invoke anything. Just a mosaic of random images.,0,340,20","my reaction is that the picture is wierd,-11,400,20","Don't like it or despise it,1,20,20","Love the colors & the abstractness.,31,180,20","Night and day, light and dark,35,300,20","i like the repetition,30,260,20","Brianna","Don't like it or despise it,1,20,20","Claire","i like the repetition,30,260,20","Kylie","Night and day, light and dark,35,300,20","2"
"3802","","survey-text","188","832001","0.0-187.0-0.0","A1CSWN23S8BHQY","","","","{""Q0"":""we""}","","","","","","","","","","","","","","","","","","","","","","",""
"10778","","survey-text","189","842782","0.0-188.0-0.0","A1CSWN23S8BHQY","","","","{""Q0"":""Monster very hungry""}","","","","","","","","","","","","","","","","","","","","","","",""
"1924","","image-slider-response","190","844718","0.0-189.0","A1CSWN23S8BHQY","","","","","6","","","","","","","","","","","","","","","","","","","","","",""
"null","","image-button-response","191","849718","0.0-190.0","A1CSWN23S8BHQY","img_art/9.jpg","null","","","","","","","","","","","","","","","","","","","","","","","","",""
"1490","","image-button-response","192","851208","0.0-191.0","A1CSWN23S8BHQY","img_art/9.jpg","1","","","","","","","","","","","","","","","","","","","","","","","","",""
"945","","image-button-response","193","852154","0.0-192.0-0.0","A1CSWN23S8BHQY","img_art/9.jpg","2","","","","","","","","","","","","","","","","","","","","","","","","",""
"1697","","image-button-response","194","853855","0.0-193.0-0.0","A1CSWN23S8BHQY","img_art/9.jpg","4","","","","","","","","","","","","","","","","","","","","","","","","",""
"null","","html-keyboard-response","195","855364","0.0-194.0","A1CSWN23S8BHQY","<p style=""font-size: 48px;"">+</p>","","","","","null","allTrialResponses","1500","1","21","img_art/9.jpg","6","Monster very hungry","Morgan,Kathryn,Brianna,Alexa,Kylie,Claire","The mouth of an ugly beast.,-25,380,20","This feels dreamy. Like I'm seeing inside someone's head while they're sleeping.,20,140,20","This has some of my favorite colors, and I like it,21,20,20","It's wild and chaotic but also beautiful and has some kind of calming factor about it,20,40,20","Peaceful dreaming,40,300,20","the colors are nice,6,260,20","Kathryn","This feels dreamy. Like I'm seeing inside someone's head while they're sleeping.,20,140,20","Brianna","This has some of my favorite colors, and I like it,21,20,20","Kylie","Peaceful dreaming,40,300,20","2"
"16804","","survey-text","196","872179","0.0-195.0-0.0","A1CSWN23S8BHQY","","","","{""Q0"":""Looks nice and fine.""}","","","","","","","","","","","","","","","","","","","","","","",""
"3216","","image-slider-response","197","875395","0.0-196.0","A1CSWN23S8BHQY","","","","","6","","","","","","","","","","","","","","","","","","","","","",""
"null","","image-button-response","198","880421","0.0-197.0","A1CSWN23S8BHQY","img_art/15.jpg","null","","","","","","","","","","","","","","","","","","","","","","","","",""
"692","","image-button-response","199","881118","0.0-198.0","A1CSWN23S8BHQY","img_art/15.jpg","2","","","","","","","","","","","","","","","","","","","","","","","","",""
"557","","image-button-response","200","881679","0.0-199.0-0.0","A1CSWN23S8BHQY","img_art/15.jpg","0","","","","","","","","","","","","","","","","","","","","","","","","",""
"468","","image-button-response","201","882150","0.0-200.0-0.0","A1CSWN23S8BHQY","img_art/15.jpg","1","","","","","","","","","","","","","","","","","","","","","","","","",""
"null","","html-keyboard-response","202","882653","0.0-201.0","A1CSWN23S8BHQY","<p style=""font-size: 48px;"">+</p>","","","","","null","allTrialResponses","500","1","22","img_art/15.jpg","6","Looks nice and fine.","Kaitlyn,Kathryn,Brianna,Brittany,Kylie,Elizabeth","Simplicity of colors is nice,11,80,20","This is looking at a forest from above. I can see water and some pathways throughout. Nature.,20,140,20","No opinion truthfully,1,20,20","Color scheme and design are rather boring.,-10,40,20","I don't know how I feel about this,31,300,20","Perfect Abstract painting,50,20,20","Brianna","No opinion truthfully,1,20,20","Kaitlyn","Simplicity of colors is nice,11,80,20","Kathryn","This is looking at a forest from above. I can see water and some pathways throughout. Nature.,20,140,20","2"
"10461","","survey-text","203","893121","0.0-202.0-0.0","A1CSWN23S8BHQY","","","","{""Q0"":""Lake on fire.""}","","","","","","","","","","","","","","","","","","","","","","",""
"2800","","image-slider-response","204","895921","0.0-203.0","A1CSWN23S8BHQY","","","","","10","","","","","","","","","","","","","","","","","","","","","",""
"null","","image-button-response","205","900940","0.0-204.0","A1CSWN23S8BHQY","img_art/1.jpg","null","","","","","","","","","","","","","","","","","","","","","","","","",""
"727","","image-button-response","206","901670","0.0-205.0","A1CSWN23S8BHQY","img_art/1.jpg","0","","","","","","","","","","","","","","","","","","","","","","","","",""
"676","","image-button-response","207","902350","0.0-206.0-0.0","A1CSWN23S8BHQY","img_art/1.jpg","1","","","","","","","","","","","","","","","","","","","","","","","","",""
"681","","image-button-response","208","903035","0.0-207.0-0.0","A1CSWN23S8BHQY","img_art/1.jpg","2","","","","","","","","","","","","","","","","","","","","","","","","",""
"null","","html-keyboard-response","209","904051","0.0-208.0","A1CSWN23S8BHQY","<p style=""font-size: 48px;"">+</p>","","","","","null","allTrialResponses","1000","1","23","img_art/1.jpg","10","Lake on fire.","Kaitlyn,Kathryn,Brianna,Briana,Shannon,Victoria","Interesting blend of colors,9,80,20","For some reason this makes me want to go ice skating. It's whimsical and free but also very smooth.,20,140,20","It's very colorful, and I like it,11,20,20","I like the colors. But it doesnt look like anything,27,400,20","I think that this picture has nice colors and its pleasing to the eyes.,20,220,20","love how the colors blend,42,400,20","Kaitlyn","Interesting blend of colors,9,80,20","Kathryn","For some reason this makes me want to go ice skating. It's whimsical and free but also very smooth.,20,140,20","Brianna","It's very colorful, and I like it,11,20,20","2"
"12194","","survey-text","210","916256","0.0-209.0-0.0","A1CSWN23S8BHQY","","","","{""Q0"":""hand dissolving.""}","","","","","","","","","","","","","","","","","","","","","","",""
"2389","","image-slider-response","211","918647","0.0-210.0","A1CSWN23S8BHQY","","","","","12","","","","","","","","","","","","","","","","","","","","","",""
"null","","image-button-response","212","923655","0.0-211.0","A1CSWN23S8BHQY","img_art/4.jpg","null","","","","","","","","","","","","","","","","","","","","","","","","",""
"406","","image-button-response","213","924063","0.0-212.0","A1CSWN23S8BHQY","img_art/4.jpg","4","","","","","","","","","","","","","","","","","","","","","","","","",""
"1539","","image-button-response","214","925610","0.0-213.0-0.0","A1CSWN23S8BHQY","img_art/4.jpg","5","","","","","","","","","","","","","","","","","","","","","","","","",""
"2264","","image-button-response","215","927875","0.0-214.0-0.0","A1CSWN23S8BHQY","img_art/4.jpg","0","","","","","","","","","","","","","","","","","","","","","","","","",""
"null","","html-keyboard-response","216","928420","0.0-215.0","A1CSWN23S8BHQY","<p style=""font-size: 48px;"">+</p>","","","","","null","allTrialResponses","500","1","24","img_art/4.jpg","12","hand dissolving.","Kaitlyn,Kathryn,Brianna,Angelica,Isabella,Kimberly","I don't understand this at all,3,80,20","I feel kind of guilty looking at this, like I'm receiving a reward I don't I deserve.,-10,140,20","Really don't care for the yellowish brown color in the center.,-19,20,20","This is ugly in color and in terms of the shape on it.,-32,280,20","Looks like a creative hand,45,280,20","It's ok, theres nothing that draws me away from it I guess,0,260,20","Isabella","Looks like a creative hand,45,280,20","Kimberly","It's ok, theres nothing that draws me away from it I guess,0,260,20","Kaitlyn","I don't understand this at all,3,80,20","2"
"19007","","survey-text","217","947437","0.0-216.0-0.0","A1CSWN23S8BHQY","","","","{""Q0"":""Looks like a creepy wickerman.""}","","","","","","","","","","","","","","","","","","","","","","",""
"5752","","image-slider-response","218","953191","0.0-217.0","A1CSWN23S8BHQY","","","","","29","","","","","","","","","","","","","","","","","","","","","",""
"null","","image-button-response","219","958194","0.0-218.0","A1CSWN23S8BHQY","img_art/25.jpg","null","","","","","","","","","","","","","","","","","","","","","","","","",""
"1844","","image-button-response","220","960041","0.0-219.0","A1CSWN23S8BHQY","img_art/25.jpg","4","","","","","","","","","","","","","","","","","","","","","","","","",""
"1163","","image-button-response","221","961206","0.0-220.0-0.0","A1CSWN23S8BHQY","img_art/25.jpg","1","","","","","","","","","","","","","","","","","","","","","","","","",""
"3594","","image-button-response","222","964804","0.0-221.0-0.0","A1CSWN23S8BHQY","img_art/25.jpg","0","","","","","","","","","","","","","","","","","","","","","","","","",""
"null","","html-keyboard-response","223","966335","0.0-222.0","A1CSWN23S8BHQY","<p style=""font-size: 48px;"">+</p>","","","","","null","allTrialResponses","1500","1","25","img_art/25.jpg","29","Looks like a creepy wickerman.","Kaitlyn,Destiny,Kayla,Katelyn,Isabella,Kimberly","Love the simplicity and lines,20,80,20","creeeeeppyyyyyyy but mad cool,-26,360,20","Ghosts are NOT my thing.,-13,180,20","Creates a bit of fear in me for some reason,-26,100,20","I love the green and the figure is black but the green makes it pop,29,280,20","Cult-like, which to me makes it kind of creepy,-21,260,20","Isabella","I love the green and the figure is black but the green makes it pop,29,280,20","Destiny","creeeeeppyyyyyyy but mad cool,-26,360,20","Kaitlyn","Love the simplicity and lines,20,80,20","2"
"4912","","survey-text","224","971265","0.0-223.0-0.0","A1CSWN23S8BHQY","","","","{""Q0"":""table""}","","","","","","","","","","","","","","","","","","","","","","",""
"10778","","survey-text","225","982054","0.0-224.0-0.0","A1CSWN23S8BHQY","","","","{""Q0"":""Train town""}","","","","","","","","","","","","","","","","","","","","","","",""
"2093","","image-slider-response","226","984151","0.0-225.0","A1CSWN23S8BHQY","","","","","21","","","","","","","","","","","","","","","","","","","","","",""
"4711","","image-button-response","227","989154","0.0-226.0","A1CSWN23S8BHQY","img_art/11.jpg","1","","","","","","","","","","","","","","","","","","","","","","","","",""
"932","","image-button-response","228","990088","0.0-227.0","A1CSWN23S8BHQY","img_art/11.jpg","1","","","","","","","","","","","","","","","","","","","","","","","","",""
"1084","","image-button-response","229","991176","0.0-228.0-0.0","A1CSWN23S8BHQY","img_art/11.jpg","2","","","","","","","","","","","","","","","","","","","","","","","","",""
"1445","","image-button-response","230","992624","0.0-229.0-0.0","A1CSWN23S8BHQY","img_art/11.jpg","3","","","","","","","","","","","","","","","","","","","","","","","","",""
"null","","html-keyboard-response","231","994126","0.0-230.0","A1CSWN23S8BHQY","<p style=""font-size: 48px;"">+</p>","","","","","null","allTrialResponses","1500","1","26","img_art/11.jpg","21","Train town","Kaitlyn,Destiny,Emily,Anna,Isabella,Alexis","Interesting use of color,9,80,20","life is a highway,12,360,20","It's kind of cool and I see it looks clean.,22,40,20","It makes me think of a coastal sea town.,50,300,20","City on a hill, tranquility,42,280,20","Don't like cityscapes, which this picture reminds me of,-29,100,20","Destiny","life is a highway,12,360,20","Emily","It's kind of cool and I see it looks clean.,22,40,20","Anna","It makes me think of a coastal sea town.,50,300,20","2"
"8545","","survey-text","232","1002685","0.0-231.0-0.0","A1CSWN23S8BHQY","","","","{""Q0"":""Weird and dull""}","","","","","","","","","","","","","","","","","","","","","","",""
"2330","","image-slider-response","233","1005018","0.0-232.0","A1CSWN23S8BHQY","","","","","-7","","","","","","","","","","","","","","","","","","","","","",""
"null","","image-button-response","234","1010031","0.0-233.0","A1CSWN23S8BHQY","img_art/14.jpg","null","","","","","","","","","","","","","","","","","","","","","","","","",""
"910","","image-button-response","235","1010943","0.0-234.0","A1CSWN23S8BHQY","img_art/14.jpg","1","","","","","","","","","","","","","","","","","","","","","","","","",""
"1158","","image-button-response","236","1012103","0.0-235.0-0.0","A1CSWN23S8BHQY","img_art/14.jpg","5","","","","","","","","","","","","","","","","","","","","","","","","",""
"953","","image-button-response","237","1013065","0.0-236.0-0.0","A1CSWN23S8BHQY","img_art/14.jpg","4","","","","","","","","","","","","","","","","","","","","","","","","",""
"null","","html-keyboard-response","238","1013570","0.0-237.0","A1CSWN23S8BHQY","<p style=""font-size: 48px;"">+</p>","","","","","null","allTrialResponses","500","1","27","img_art/14.jpg","-7","Weird and dull","Catherine,Destiny,Emily,Anna,Michelle,Hannah","Tornado, nature. trees falling and displaced creatures. Love the colors though.,1,160,20","I dont really vibe with the grayish color palette,-7,360,20","Looks like there is some skill but also at the same time parts look unskilled.,-16,40,20","It reminds me of a tree in the desert.,15,300,20","Too abstract with annoying little details. Just draw a regular tree already,-6,280,20","This doesn't speak to me on an emotional level,-6,240,20","Destiny","I dont really vibe with the grayish color palette,-7,360,20","Hannah","This doesn't speak to me on an emotional level,-6,240,20","Michelle","Too abstract with annoying little details. Just draw a regular tree already,-6,280,20","2"
"20849","","survey-text","239","1034432","0.0-238.0-0.0","A1CSWN23S8BHQY","","","","{""Q0"":""Weird and don't understand""}","","","","","","","","","","","","","","","","","","","","","","",""
"2811","","image-slider-response","240","1037246","0.0-239.0","A1CSWN23S8BHQY","","","","","-4","","","","","","","","","","","","","","","","","","","","","",""
"4221","","image-button-response","241","1042251","0.0-240.0","A1CSWN23S8BHQY","img_art/27.jpg","1","","","","","","","","","","","","","","","","","","","","","","","","",""
"548","","image-button-response","242","1042802","0.0-241.0","A1CSWN23S8BHQY","img_art/27.jpg","1","","","","","","","","","","","","","","","","","","","","","","","","",""
"1005","","image-button-response","243","1043809","0.0-242.0-0.0","A1CSWN23S8BHQY","img_art/27.jpg","2","","","","","","","","","","","","","","","","","","","","","","","","",""
"1398","","image-button-response","244","1045210","0.0-243.0-0.0","A1CSWN23S8BHQY","img_art/27.jpg","5","","","","","","","","","","","","","","","","","","","","","","","","",""
"null","","html-keyboard-response","245","1046735","0.0-244.0","A1CSWN23S8BHQY","<p style=""font-size: 48px;"">+</p>","","","","","null","allTrialResponses","1500","1","28","img_art/27.jpg","-4","Weird and don't understand","Gabriela,Destiny,Crystal,Melissa,Michelle,Hannah","I like hoe it looks like a fall day in a city,45,140,20","demon vs angel brawl over lemon lime sprite,-10,360,20","Muddied and directionless. Like someone dragged a brush across the paper for the sake of doing something.,-50,300,20","reminds me of kandinsky,10,240,20","very abstract, I don't understand it, but I like the bright, cheerful colors,14,280,20","Reminds me of something I'd see in a gold frame from the Eighties.,-9,240,20","Destiny","demon vs angel brawl over lemon lime sprite,-10,360,20","Crystal","Muddied and directionless. Like someone dragged a brush across the paper for the sake of doing something.,-50,300,20","Hannah","Reminds me of something I'd see in a gold frame from the Eighties.,-9,240,20","2"
"12074","","survey-text","246","1058819","0.0-245.0-0.0","A1CSWN23S8BHQY","","","","{""Q0"":""Blood stained mess""}","","","","","","","","","","","","","","","","","","","","","","",""
"4805","","image-slider-response","247","1063626","0.0-246.0","A1CSWN23S8BHQY","","","","","-2","","","","","","","","","","","","","","","","","","","","","",""
"3545","","image-button-response","248","1068639","0.0-247.0","A1CSWN23S8BHQY","img_art/3.jpg","2","","","","","","","","","","","","","","","","","","","","","","","","",""
"746","","image-button-response","249","1069392","0.0-248.0","A1CSWN23S8BHQY","img_art/3.jpg","2","","","","","","","","","","","","","","","","","","","","","","","","",""
"967","","image-button-response","250","1070361","0.0-249.0-0.0","A1CSWN23S8BHQY","img_art/3.jpg","4","","","","","","","","","","","","","","","","","","","","","","","","",""
"677","","image-button-response","251","1071049","0.0-250.0-0.0","A1CSWN23S8BHQY","img_art/3.jpg","3","","","","","","","","","","","","","","","","","","","","","","","","",""
"null","","html-keyboard-response","252","1072065","0.0-251.0","A1CSWN23S8BHQY","<p style=""font-size: 48px;"">+</p>","","","","","null","allTrialResponses","1000","1","29","img_art/3.jpg","-2","Blood stained mess","Erika,Destiny,Crystal,Amber,Gabrielle,Hannah","Unaure what the artist  was doing, needs context,11,100,20","im just getting more agitated and less appreciative of art. I have absolutely no scale to base on,-34,360,20","I like the abstract flowing lines. It lacks hard rigid marks and flow nicely into a piece of calamity.,32,300,20","seems to be a lot of angry scribble.,-20,200,20","7th grade art, not much effort to do this.,-39,160,20","Looks like a Basquiat but just not my cup of tea.,-29,240,20","Crystal","I like the abstract flowing lines. It lacks hard rigid marks and flow nicely into a piece of calamity.,32,300,20","Gabrielle","7th grade art, not much effort to do this.,-39,160,20","Amber","seems to be a lot of angry scribble.,-20,200,20","2"
"10592","","survey-text","253","1082711","0.0-252.0-0.0","A1CSWN23S8BHQY","","","","{""Q0"":""Crow on the sun""}","","","","","","","","","","","","","","","","","","","","","","",""
"3087","","image-slider-response","254","1085802","0.0-253.0","A1CSWN23S8BHQY","","","","","3","","","","","","","","","","","","","","","","","","","","","",""
"4745","","image-button-response","255","1090816","0.0-254.0","A1CSWN23S8BHQY","img_art/6.jpg","4","","","","","","","","","","","","","","","","","","","","","","","","",""
"705","","image-button-response","256","1091530","0.0-255.0","A1CSWN23S8BHQY","img_art/6.jpg","4","","","","","","","","","","","","","","","","","","","","","","","","",""
"2585","","image-button-response","257","1094119","0.0-256.0-0.0","A1CSWN23S8BHQY","img_art/6.jpg","2","","","","","","","","","","","","","","","","","","","","","","","","",""
"2315","","image-button-response","258","1096438","0.0-257.0-0.0","A1CSWN23S8BHQY","img_art/6.jpg","5","","","","","","","","","","","","","","","","","","","","","","","","",""
"null","","html-keyboard-response","259","1097458","0.0-258.0","A1CSWN23S8BHQY","<p style=""font-size: 48px;"">+</p>","","","","","null","allTrialResponses","1000","1","30","img_art/6.jpg","3","Crow on the sun","Paige,Dominique,Crystal,Amber,Gabrielle,Alexandra","Kind of boring. I don't care for many abstracts,1,60,20","Calm and catching,30,400,20","Gives me a feeling of solitude and nothingness,11,300,20","Something very simplistic about it. The colors mesh well.,10,200,20","simplistic but reminds me of a crow in a field,-10,160,20","this is interesting and unique,11,60,20","Gabrielle","simplistic but reminds me of a crow in a field,-10,160,20","Crystal","Gives me a feeling of solitude and nothingness,11,300,20","Alexandra","this is interesting and unique,11,60,20","2"
"3103","","image-button-response_instructions","260","1100572","0.0-259.0","A1CSWN23S8BHQY","","0","instructions","","","","","","","","","","","","","","","","","","","","","","","",""
"1276","","image-button-response","261","1101857","0.0-260.0","A1CSWN23S8BHQY","","0","","","","","","","","","","","","","","","","","","","","","","","","",""
