"rt","url","trial_type","trial_index","time_elapsed","internal_node_id","participant_id","stimulus","button_pressed","Name","responses","response","key_press","variableName","fixationTime","condition","trial","photo","subjectRating","subjectResponse","agentsNames","agent_1_Response","agent_2_Response","agent_3_Response","agent_4_Response","agent_5_Response","agent_6_Response","kept_1_name","kept_1_response","kept_2_name","kept_2_response","kept_3_name","kept_3_response","errorCounter"
"18049","external_page_harvard.html","external-html","0","18215","0.0-0.0","A1DKS1KI6S93HF","","","","","","","","","","","","","","","","","","","","","","","","","","",""
"1744","","image-button-response","1","19961","0.0-1.0","A1DKS1KI6S93HF","","0","","","","","","","","","","","","","","","","","","","","","","","","",""
"4133","","image-button-response","2","24100","0.0-2.0-0.0","A1DKS1KI6S93HF","","1","phone","","","","","","","","","","","","","","","","","","","","","","","",""
"9609","","survey-text","3","33712","0.0-3.0-0.0","A1DKS1KI6S93HF","","","","{""Q0"":""A1DKS1KI6S93HF""}","","","","","","","","","","","","","","","","","","","","","","",""
"10693","","image-button-response_instructions","4","44408","0.0-4.0","A1DKS1KI6S93HF","","0","instructions","","","","","","","","","","","","","","","","","","","","","","","",""
"25254","","image-button-response_instructions","5","69664","0.0-5.0","A1DKS1KI6S93HF","img_art/ins/popularity/ins1.png","0","instructions","","","","","","","","","","","","","","","","","","","","","","","",""
"9887","","image-button-response_instructions","6","79552","0.0-6.0","A1DKS1KI6S93HF","img_art/ins/popularity/ins2.png","0","instructions","","","","","","","","","","","","","","","","","","","","","","","",""
"13087","","image-button-response_instructions","7","92640","0.0-7.0","A1DKS1KI6S93HF","img_art/ins/popularity/ins2Extreme.png","0","instructions","","","","","","","","","","","","","","","","","","","","","","","",""
"26527","","image-button-response_instructions","8","119168","0.0-8.0","A1DKS1KI6S93HF","img_art/ins/popularity/ins3KEEPpop.PNG","0","instructions","","","","","","","","","","","","","","","","","","","","","","","",""
"5657","","image-button-response_instructions","9","124827","0.0-9.0","A1DKS1KI6S93HF","img_art/ins/popularity/ins3ANamepop.PNG","0","instructions","","","","","","","","","","","","","","","","","","","","","","","",""
"4001","","image-button-response_instructions","10","128829","0.0-10.0","A1DKS1KI6S93HF","img_art/ins/popularity/ins3ARatingpop.png","0","instructions","","","","","","","","","","","","","","","","","","","","","","","",""
"6592","","image-button-response_instructions","11","135423","0.0-11.0","A1DKS1KI6S93HF","img_art/ins/popularity/ins3ATextpop.png","0","instructions","","","","","","","","","","","","","","","","","","","","","","","",""
"15850","","image-button-response_instructions","12","151275","0.0-12.0","A1DKS1KI6S93HF","img_art/ins/popularity/ins3ALikespop.png","0","instructions","","","","","","","","","","","","","","","","","","","","","","","",""
"29757","","image-button-response_instructions","13","181033","0.0-13.0","A1DKS1KI6S93HF","img_art/ins/popularity/ins3KEEPpop.PNG","0","instructions","","","","","","","","","","","","","","","","","","","","","","","",""
"12729","","image-button-response_instructions","14","193763","0.0-14.0","A1DKS1KI6S93HF","img_art/ins/popularity/ins3_5RED.png","0","instructions","","","","","","","","","","","","","","","","","","","","","","","",""
"8466","","image-button-response_instructions","15","202230","0.0-15.0","A1DKS1KI6S93HF","img_art/ins/popularity/ins3KEEPpop.PNG","0","instructions","","","","","","","","","","","","","","","","","","","","","","","",""
"17175","","image-button-response_instructions","16","219407","0.0-16.0","A1DKS1KI6S93HF","img_art/ins/popularity/ins4KEEPpop.PNG","0","instructions","","","","","","","","","","","","","","","","","","","","","","","",""
"6702","","image-button-response_instructions","17","226111","0.0-17.0","A1DKS1KI6S93HF","img_art/ins/popularity/ins5KEEPpop.PNG","0","instructions","","","","","","","","","","","","","","","","","","","","","","","",""
"2785","","image-button-response_instructions","18","228897","0.0-18.0","A1DKS1KI6S93HF","","0","instructions","","","","","","","","","","","","","","","","","","","","","","","",""
"7138","","survey-text","19","236055","0.0-19.0-0.0","A1DKS1KI6S93HF","","","","{""Q0"":""but""}","","","","","","","","","","","","","","","","","","","","","","",""
"67139","","survey-text","20","303197","0.0-20.0-0.0","A1DKS1KI6S93HF","","","","{""Q0"":""It looks like a wall at an abandoned building that is covered in grafitti""}","","","","","","","","","","","","","","","","","","","","","","",""
"7415.299999952316","","image-slider-response","21","310614","0.0-21.0","A1DKS1KI6S93HF","","","","","24","","","","","","","","","","","","","","","","","","","","","",""
"4298","","image-button-response","22","315620","0.0-22.0","A1DKS1KI6S93HF","img_art/ins/1.jpg","5","","","","","","","","","","","","","","","","","","","","","","","","",""
"1229","","image-button-response","23","316854","0.0-23.0","A1DKS1KI6S93HF","img_art/ins/1.jpg","5","","","","","","","","","","","","","","","","","","","","","","","","",""
"5719","","image-button-response","24","322575","0.0-24.0-0.0","A1DKS1KI6S93HF","img_art/ins/1.jpg","1","","","","","","","","","","","","","","","","","","","","","","","","",""
"4302","","image-button-response","25","326879","0.0-25.0-0.0","A1DKS1KI6S93HF","img_art/ins/1.jpg","3","","","","","","","","","","","","","","","","","","","","","","","","",""
"null","","html-keyboard-response","26","328395","0.0-26.0","A1DKS1KI6S93HF","<p style=""font-size: 48px;"">+</p>","","","","","null","allTrialResponses","1500","1","-2","img_art/ins/1.jpg","24","It looks like a wall at an abandoned building that is covered in grafitti","Adam,Alex,Ben,Carl,Daniel,Jack","Seems like doodles,-20,20,20","very creative work.,36,40,20","This color reminds me of poo,-46,60,20","very calming artwork,42,80,20","It looks like a murder scene.,-48,100,20","I like the sophisticated brushwork,40,120,20","Jack","I like the sophisticated brushwork,40,120,20","Alex","very creative work.,36,40,20","Carl","very calming artwork,42,80,20","0"
"64771","","survey-text","27","393172","0.0-27.0-0.0","A1DKS1KI6S93HF","","","","{""Q0"":""I see a man in a chair. I like the brushwork and colors.""}","","","","","","","","","","","","","","","","","","","","","","",""
"9967.399999976158","","image-slider-response","28","403141","0.0-28.0","A1DKS1KI6S93HF","","","","","26","","","","","","","","","","","","","","","","","","","","","",""
"null","","image-button-response","29","408145","0.0-29.0","A1DKS1KI6S93HF","img_art/ins/2.jpg","null","","","","","","","","","","","","","","","","","","","","","","","","",""
"4921","","image-button-response","30","413067","0.0-30.0","A1DKS1KI6S93HF","img_art/ins/2.jpg","5","","","","","","","","","","","","","","","","","","","","","","","","",""
"2458","","image-button-response","31","415526","0.0-31.0-0.0","A1DKS1KI6S93HF","img_art/ins/2.jpg","4","","","","","","","","","","","","","","","","","","","","","","","","",""
"12179","","image-button-response","32","427707","0.0-32.0-0.0","A1DKS1KI6S93HF","img_art/ins/2.jpg","1","","","","","","","","","","","","","","","","","","","","","","","","",""
"null","","html-keyboard-response","33","428209","0.0-33.0","A1DKS1KI6S93HF","<p style=""font-size: 48px;"">+</p>","","","","","null","allTrialResponses","500","1","-1","img_art/ins/2.jpg","26","I see a man in a chair. I like the brushwork and colors.","James,Alex,Kyle,Carl,John,Jack","looks too angry,-50,140,20","I like the blocks of color arrangements,30,40,20","Idk, it is just annoying,-32,180,20","I can feel the artist's passion in it,45,80,20","love the texture of paint,48,160,20","I would never be able to compose a sophisticated pallete like this,48,120,20","Jack","I would never be able to compose a sophisticated pallete like this,48,120,20","John","love the texture of paint,48,160,20","Alex","I like the blocks of color arrangements,30,40,20","0"
"21361","","survey-text","34","449572","0.0-34.0-0.0","A1DKS1KI6S93HF","","","","{""Q0"":""Too much blue.""}","","","","","","","","","","","","","","","","","","","","","","",""
"6659.300000071526","","image-slider-response","35","456233","0.0-35.0","A1DKS1KI6S93HF","","","","","-12","","","","","","","","","","","","","","","","","","","","","",""
"null","","image-button-response","36","461251","0.0-36.0","A1DKS1KI6S93HF","img_art/ins/3.jpg","null","","","","","","","","","","","","","","","","","","","","","","","","",""
"8245","","image-button-response","37","469499","0.0-37.0","A1DKS1KI6S93HF","img_art/ins/3.jpg","5","","","","","","","","","","","","","","","","","","","","","","","","",""
"893","","image-button-response","38","470395","0.0-38.0-0.0","A1DKS1KI6S93HF","img_art/ins/3.jpg","4","","","","","","","","","","","","","","","","","","","","","","","","",""
"2385","","image-button-response","39","472783","0.0-39.0-0.0","A1DKS1KI6S93HF","img_art/ins/3.jpg","1","","","","","","","","","","","","","","","","","","","","","","","","",""
"null","","html-keyboard-response","40","473285","0.0-40.0","A1DKS1KI6S93HF","<p style=""font-size: 48px;"">+</p>","","","","","null","allTrialResponses","500","1","0","img_art/ins/3.jpg","-12","Too much blue.","Sam,Alex,Ron,Mike,John,Jack","I can feel a rainy day from this painting,18,240,20","calming blue is very nice,36,40,20","It looks depressing,-26,220,20","enjoy the different shades of blue,22,200,20","I like the overlapping of brushes,41,160,20","I feel connected to the artist,40,120,20","Jack","I feel connected to the artist,40,120,20","John","I like the overlapping of brushes,41,160,20","Alex","calming blue is very nice,36,40,20","0"
"8675","","image-button-response_instructions","41","481970","0.0-41.0","A1DKS1KI6S93HF","","0","instructions","","","","","","","","","","","","","","","","","","","","","","","",""
"36486","","survey-likert","42","518459","0.0-42.0-0.0","A1DKS1KI6S93HF","","","","{""Q0"":"""",""Q1"":0,""Q2"":1}","","","","","","","","","","","","","","","","","","","","","","",""
"6113","","survey-text","43","524578","0.0-43.0-0.0","A1DKS1KI6S93HF","","","","{""Q0"":""rock""}","","","","","","","","","","","","","","","","","","","","","","",""
"38458","","survey-text","44","563038","0.0-44.0-0.0","A1DKS1KI6S93HF","","","","{""Q0"":""I like the contrast between the gray, black and blue colors.""}","","","","","","","","","","","","","","","","","","","","","","",""
"6003.399999976158","","image-slider-response","45","569043","0.0-45.0","A1DKS1KI6S93HF","","","","","10","","","","","","","","","","","","","","","","","","","","","",""
"null","","image-button-response","46","574078","0.0-46.0","A1DKS1KI6S93HF","img_art/15.jpg","null","","","","","","","","","","","","","","","","","","","","","","","","",""
"5909","","image-button-response","47","579990","0.0-47.0","A1DKS1KI6S93HF","img_art/15.jpg","5","","","","","","","","","","","","","","","","","","","","","","","","",""
"26031","","image-button-response","48","606023","0.0-48.0-0.0","A1DKS1KI6S93HF","img_art/15.jpg","3","","","","","","","","","","","","","","","","","","","","","","","","",""
"3162","","image-button-response","49","609188","0.0-49.0-0.0","A1DKS1KI6S93HF","img_art/15.jpg","0","","","","","","","","","","","","","","","","","","","","","","","","",""
"null","","html-keyboard-response","50","610205","0.0-50.0","A1DKS1KI6S93HF","<p style=""font-size: 48px;"">+</p>","","","","","null","allTrialResponses","1000","1","1","img_art/15.jpg","10","I like the contrast between the gray, black and blue colors.","Anthony,Matthew,Miguel,Thomas,Kevin,Noah","This piece isn't particularly attractive, but it's not ugly either.,1,200,20","I think of birds, nature, levels of space.,18,120,20","Simple but not good,-34,160,20","Interesting, and I don't dislike it.,9,220,20","Weird fuzzball bush.,22,320,20","i enjoy its apaprent simplicity (of colour and shape),32,260,20","Noah","i enjoy its apaprent simplicity (of colour and shape),32,260,20","Thomas","Interesting, and I don't dislike it.,9,220,20","Anthony","This piece isn't particularly attractive, but it's not ugly either.,1,200,20","0"
"115649","","survey-text","51","725858","0.0-51.0-0.0","A1DKS1KI6S93HF","","","","{""Q0"":""I find this interesting, but confusing.""}","","","","","","","","","","","","","","","","","","","","","","",""
"5772.899999976158","","image-slider-response","52","731633","0.0-52.0","A1DKS1KI6S93HF","","","","","10","","","","","","","","","","","","","","","","","","","","","",""
"null","","image-button-response","53","736642","0.0-53.0","A1DKS1KI6S93HF","img_art/22.jpg","null","","","","","","","","","","","","","","","","","","","","","","","","",""
"21535","","image-button-response","54","758180","0.0-54.0","A1DKS1KI6S93HF","img_art/22.jpg","3","","","","","","","","","","","","","","","","","","","","","","","","",""
"2027","","image-button-response","55","760208","0.0-55.0-0.0","A1DKS1KI6S93HF","img_art/22.jpg","0","","","","","","","","","","","","","","","","","","","","","","","","",""
"2994","","image-button-response","56","763205","0.0-56.0-0.0","A1DKS1KI6S93HF","img_art/22.jpg","2","","","","","","","","","","","","","","","","","","","","","","","","",""
"null","","html-keyboard-response","57","764712","0.0-57.0","A1DKS1KI6S93HF","<p style=""font-size: 48px;"">+</p>","","","","","null","allTrialResponses","1500","1","2","img_art/22.jpg","10","I find this interesting, but confusing.","Anthony,Jordan,Bradley,Thomas,Alexis,Noah","Colors are subdued yet vibrant,30,200,20","The colors are too dark, too much red,2,160,20","I like this one. There is a lot to see if you keep looking for it.,27,300,20","Beautiful. I love the color contrast and gradients.,50,220,20","Neither like nor dislike it. The red, yellow and blue colors are bright but I don't know what it's meant to be.,1,140,20","displeasure - not a fan of the colour or the shapes,-18,260,20","Thomas","Beautiful. I love the color contrast and gradients.,50,220,20","Anthony","Colors are subdued yet vibrant,30,200,20","Bradley","I like this one. There is a lot to see if you keep looking for it.,27,300,20","0"
"29426","","survey-text","58","794143","0.0-58.0-0.0","A1DKS1KI6S93HF","","","","{""Q0"":""I like it.  Looks like total disorder.""}","","","","","","","","","","","","","","","","","","","","","","",""
"6038.299999952316","","image-slider-response","59","800183","0.0-59.0","A1DKS1KI6S93HF","","","","","29","","","","","","","","","","","","","","","","","","","","","",""
"null","","image-button-response","60","805185","0.0-60.0","A1DKS1KI6S93HF","img_art/10.jpg","null","","","","","","","","","","","","","","","","","","","","","","","","",""
"9122","","image-button-response","61","814309","0.0-61.0","A1DKS1KI6S93HF","img_art/10.jpg","3","","","","","","","","","","","","","","","","","","","","","","","","",""
"1101","","image-button-response","62","815412","0.0-62.0-0.0","A1DKS1KI6S93HF","img_art/10.jpg","0","","","","","","","","","","","","","","","","","","","","","","","","",""
"4654","","image-button-response","63","820069","0.0-63.0-0.0","A1DKS1KI6S93HF","img_art/10.jpg","2","","","","","","","","","","","","","","","","","","","","","","","","",""
"null","","html-keyboard-response","64","820572","0.0-64.0","A1DKS1KI6S93HF","<p style=""font-size: 48px;"">+</p>","","","","","null","allTrialResponses","500","1","3","img_art/10.jpg","29","I like it.  Looks like total disorder.","Anthony,Jason,Bradley,Thomas,Victor,Ian","I am neutral towards the artwork,1,200,20","Picture looks smudged,-7,20,20","This piece is very intriguing to me.,3,300,20","Makes me want to know more about it, and potentially the artist.,20,220,20","Looks like someone just smeared some paint and called it good. Do not like.,-6,340,20","It reminds me of how my dog has to run all over the place just to poop in one specific location.,-20,260,20","Thomas","Makes me want to know more about it, and potentially the artist.,20,220,20","Anthony","I am neutral towards the artwork,1,200,20","Bradley","This piece is very intriguing to me.,3,300,20","0"
"104070","","survey-text","65","924652","0.0-65.0-0.0","A1DKS1KI6S93HF","","","","{""Q0"":""The colors are distributed in an interesting manner. Enough detail to make me like this.""}","","","","","","","","","","","","","","","","","","","","","","",""
"8369.399999976158","","image-slider-response","66","933024","0.0-66.0","A1DKS1KI6S93HF","","","","","36","","","","","","","","","","","","","","","","","","","","","",""
"null","","image-button-response","67","938030","0.0-67.0","A1DKS1KI6S93HF","img_art/19.jpg","null","","","","","","","","","","","","","","","","","","","","","","","","",""
"40708","","image-button-response","68","978742","0.0-68.0","A1DKS1KI6S93HF","img_art/19.jpg","4","","","","","","","","","","","","","","","","","","","","","","","","",""
"1845","","image-button-response","69","980590","0.0-69.0-0.0","A1DKS1KI6S93HF","img_art/19.jpg","1","","","","","","","","","","","","","","","","","","","","","","","","",""
"12741","","image-button-response","70","993333","0.0-70.0-0.0","A1DKS1KI6S93HF","img_art/19.jpg","2","","","","","","","","","","","","","","","","","","","","","","","","",""
"null","","html-keyboard-response","71","993835","0.0-71.0","A1DKS1KI6S93HF","<p style=""font-size: 48px;"">+</p>","","","","","null","allTrialResponses","500","1","4","img_art/19.jpg","36","The colors are distributed in an interesting manner. Enough detail to make me like this.","Anthony,Edward,Bradley,Thomas,Seth,Garrett","Very, very ugly and sloppy,-31,200,20","It's ok but it's nothing I would hang on my wall,11,60,20","This looks like a child's piece. I appreciate the artistic value, but not for me.,-20,300,20","I like this as a whole, but the longer I look at it, the less it pleases me,-10,220,20","I wasn't sure if I liked it or hated it. It oddly reminds me of a clothing store.,11,60,20","This looks like a bunch of weird blobs and the colors don't go great together.,-10,180,20","Seth","I wasn't sure if I liked it or hated it. It oddly reminds me of a clothing store.,11,60,20","Edward","It's ok but it's nothing I would hang on my wall,11,60,20","Bradley","This looks like a child's piece. I appreciate the artistic value, but not for me.,-20,300,20","0"
"22398","","survey-text","72","1016244","0.0-72.0-0.0","A1DKS1KI6S93HF","","","","{""Q0"":""The red reminds me of blood.  Not for me.""}","","","","","","","","","","","","","","","","","","","","","","",""
"5035.399999976158","","image-slider-response","73","1021281","0.0-73.0","A1DKS1KI6S93HF","","","","","-19","","","","","","","","","","","","","","","","","","","","","",""
"null","","image-button-response","74","1026288","0.0-74.0","A1DKS1KI6S93HF","img_art/3.jpg","null","","","","","","","","","","","","","","","","","","","","","","","","",""
"16526","","image-button-response","75","1042818","0.0-75.0","A1DKS1KI6S93HF","img_art/3.jpg","4","","","","","","","","","","","","","","","","","","","","","","","","",""
"9736","","image-button-response","76","1052557","0.0-76.0-0.0","A1DKS1KI6S93HF","img_art/3.jpg","2","","","","","","","","","","","","","","","","","","","","","","","","",""
"5756","","image-button-response","77","1058317","0.0-77.0-0.0","A1DKS1KI6S93HF","img_art/3.jpg","1","","","","","","","","","","","","","","","","","","","","","","","","",""
"null","","html-keyboard-response","78","1059828","0.0-78.0","A1DKS1KI6S93HF","<p style=""font-size: 48px;"">+</p>","","","","","null","allTrialResponses","1500","1","5","img_art/3.jpg","-19","The red reminds me of blood.  Not for me.","Jonathan,Edward,Bradley,Brendan,Seth,Shawn","Something I'd paint when I'm mad. I feel that,20,140,20","It looks like someone took a red sharpie and just scribbled angrily,-20,60,20","Marker gone wild?  Not sure what's going on here.,-21,300,20","i really cant get it,-44,340,20","I didn't feel the color choice when I first looked. I did however like the placement of the gray.,-28,60,20","Powerful lines but seems incomplete,-10,100,20","Seth","I didn't feel the color choice when I first looked. I did however like the placement of the gray.,-28,60,20","Bradley","Marker gone wild?  Not sure what's going on here.,-21,300,20","Edward","It looks like someone took a red sharpie and just scribbled angrily,-20,60,20","0"
"11681","","survey-text","79","1071518","0.0-79.0-0.0","A1DKS1KI6S93HF","","","","{""Q0"":""sky""}","","","","","","","","","","","","","","","","","","","","","","",""
"61540","","survey-text","80","1133060","0.0-80.0-0.0","A1DKS1KI6S93HF","","","","{""Q0"":""I like the feeling of a canopy of trees.""}","","","","","","","","","","","","","","","","","","","","","","",""
"6164","","image-slider-response","81","1139226","0.0-81.0","A1DKS1KI6S93HF","","","","","25","","","","","","","","","","","","","","","","","","","","","",""
"4860","","image-button-response","82","1144233","0.0-82.0","A1DKS1KI6S93HF","img_art/17.jpg","1","","","","","","","","","","","","","","","","","","","","","","","","",""
"6510","","image-button-response","83","1150747","0.0-83.0","A1DKS1KI6S93HF","img_art/17.jpg","5","","","","","","","","","","","","","","","","","","","","","","","","",""
"19839","","image-button-response","84","1170589","0.0-84.0-0.0","A1DKS1KI6S93HF","img_art/17.jpg","4","","","","","","","","","","","","","","","","","","","","","","","","",""
"797","","image-button-response","85","1171389","0.0-85.0-0.0","A1DKS1KI6S93HF","img_art/17.jpg","3","","","","","","","","","","","","","","","","","","","","","","","","",""
"null","","html-keyboard-response","86","1172396","0.0-86.0","A1DKS1KI6S93HF","<p style=""font-size: 48px;"">+</p>","","","","","null","allTrialResponses","1000","1","6","img_art/17.jpg","25","I like the feeling of a canopy of trees.","Cole,Edward,Bradley,Mitchell,Seth,David","It looks unfinished,-7,200,20","I love how soft it is,35,60,20","It kind of pulls you in to float away with it.,9,300,20","Nature coming to the inside of your space that you are locked into.,50,180,20","I really enjoyed this piece, it's a play on bringing the outside indoors.,32,60,20","I like how the image gives an impression of gaseous tree.,15,340,20","David","I like how the image gives an impression of gaseous tree.,15,340,20","Seth","I really enjoyed this piece, it's a play on bringing the outside indoors.,32,60,20","Mitchell","Nature coming to the inside of your space that you are locked into.,50,180,20","0"
"34210","","survey-text","87","1206612","0.0-87.0-0.0","A1DKS1KI6S93HF","","","","{""Q0"":""Looks like a floor design. Wouldn't want this piece.""}","","","","","","","","","","","","","","","","","","","","","","",""
"5357.5","","image-slider-response","88","1211972","0.0-88.0","A1DKS1KI6S93HF","","","","","-16","","","","","","","","","","","","","","","","","","","","","",""
"null","","image-button-response","89","1216984","0.0-89.0","A1DKS1KI6S93HF","img_art/7.jpg","null","","","","","","","","","","","","","","","","","","","","","","","","",""
"15309","","image-button-response","90","1232296","0.0-90.0","A1DKS1KI6S93HF","img_art/7.jpg","1","","","","","","","","","","","","","","","","","","","","","","","","",""
"2501","","image-button-response","91","1234800","0.0-91.0-0.0","A1DKS1KI6S93HF","img_art/7.jpg","2","","","","","","","","","","","","","","","","","","","","","","","","",""
"7366","","image-button-response","92","1242170","0.0-92.0-0.0","A1DKS1KI6S93HF","img_art/7.jpg","0","","","","","","","","","","","","","","","","","","","","","","","","",""
"null","","html-keyboard-response","93","1242672","0.0-93.0","A1DKS1KI6S93HF","<p style=""font-size: 48px;"">+</p>","","","","","null","allTrialResponses","500","1","7","img_art/7.jpg","-16","Looks like a floor design. Wouldn't want this piece.","Alex,Devon,Charles,Mitchell,Seth,David","Hmm interesting, looks like mars or something terrestrial. Too abstract for me and too much brown,4,100,20","I'm not too sure about this one,-10,400,20","Looks like a bad picture of a beach,-21,100,20","Looking through a microscope at the ground at a beach.,20,180,20","This piece reminds me of ants and it makes my skin crawl.,-37,60,20","I like how the image has a sense of history, since the style looks like it came from stone.,20,340,20","Devon","I'm not too sure about this one,-10,400,20","Charles","Looks like a bad picture of a beach,-21,100,20","Alex","Hmm interesting, looks like mars or something terrestrial. Too abstract for me and too much brown,4,100,20","0"
"66381","","survey-text","94","1309060","0.0-94.0-0.0","A1DKS1KI6S93HF","","","","{""Q0"":""I like the color contrast and the brushstrokes. ""}","","","","","","","","","","","","","","","","","","","","","","",""
"5723.5","","image-slider-response","95","1314786","0.0-95.0","A1DKS1KI6S93HF","","","","","28","","","","","","","","","","","","","","","","","","","","","",""
"null","","image-button-response","96","1319797","0.0-96.0","A1DKS1KI6S93HF","img_art/30.jpg","null","","","","","","","","","","","","","","","","","","","","","","","","",""
"3664","","image-button-response","97","1323464","0.0-97.0","A1DKS1KI6S93HF","img_art/30.jpg","5","","","","","","","","","","","","","","","","","","","","","","","","",""
"11804","","image-button-response","98","1335271","0.0-98.0-0.0","A1DKS1KI6S93HF","img_art/30.jpg","3","","","","","","","","","","","","","","","","","","","","","","","","",""
"1166","","image-button-response","99","1336440","0.0-99.0-0.0","A1DKS1KI6S93HF","img_art/30.jpg","1","","","","","","","","","","","","","","","","","","","","","","","","",""
"null","","html-keyboard-response","100","1336941","0.0-100.0","A1DKS1KI6S93HF","<p style=""font-size: 48px;"">+</p>","","","","","null","allTrialResponses","500","1","8","img_art/30.jpg","28","I like the color contrast and the brushstrokes. ","Alex,Devon,Charles,Zachary,Colton,Christian","Don't like it at all, looks like a someone smeared paint with their fingers,-25,100,20","the different roads to take in life,10,400,20","looks like eels,-20,100,20","I like this one because I am a mom and it reminds me of a child finger-painting.,20,400,20","too segmented, looks sloppy,-37,220,20","don't know but it somehow speaks to me,29,140,20","Christian","don't know but it somehow speaks to me,29,140,20","Zachary","I like this one because I am a mom and it reminds me of a child finger-painting.,20,400,20","Devon","the different roads to take in life,10,400,20","0"
"36168","","survey-text","101","1373112","0.0-101.0-0.0","A1DKS1KI6S93HF","","","","{""Q0"":""Colors are okay but it looks like a jumbled mess to me.""}","","","","","","","","","","","","","","","","","","","","","","",""
"12197.5","","image-slider-response","102","1385312","0.0-102.0","A1DKS1KI6S93HF","","","","","-8","","","","","","","","","","","","","","","","","","","","","",""
"null","","image-button-response","103","1390325","0.0-103.0","A1DKS1KI6S93HF","img_art/2.jpg","null","","","","","","","","","","","","","","","","","","","","","","","","",""
"12472","","image-button-response","104","1402800","0.0-104.0","A1DKS1KI6S93HF","img_art/2.jpg","5","","","","","","","","","","","","","","","","","","","","","","","","",""
"4654","","image-button-response","105","1407457","0.0-105.0-0.0","A1DKS1KI6S93HF","img_art/2.jpg","1","","","","","","","","","","","","","","","","","","","","","","","","",""
"4416","","image-button-response","106","1411876","0.0-106.0-0.0","A1DKS1KI6S93HF","img_art/2.jpg","3","","","","","","","","","","","","","","","","","","","","","","","","",""
"null","","html-keyboard-response","107","1412890","0.0-107.0","A1DKS1KI6S93HF","<p style=""font-size: 48px;"">+</p>","","","","","null","allTrialResponses","1000","1","9","img_art/2.jpg","-8","Colors are okay but it looks like a jumbled mess to me.","Antonio,Devon,Samuel,Zachary,Dakota,Christian","Colors are drab and cause a sense of blandness,-28,220,20","another confusing piece of art,-12,400,20","i liked the bright colors,13,400,20","I am not a fan of the color story. I am confused by the piece and therefore do not like it.,-21,400,20","active and kinetic- simplified,14,280,20","do not understand,-21,140,20","Christian","do not understand,-21,140,20","Devon","another confusing piece of art,-12,400,20","Zachary","I am not a fan of the color story. I am confused by the piece and therefore do not like it.,-21,400,20","0"
"90903","","survey-text","108","1503799","0.0-108.0-0.0","A1DKS1KI6S93HF","","","","{""Q0"":""I like this one. Looks like a forest scene with blocks of different color schemes.""}","","","","","","","","","","","","","","","","","","","","","","",""
"10321.399999976158","","image-slider-response","109","1514123","0.0-109.0","A1DKS1KI6S93HF","","","","","35","","","","","","","","","","","","","","","","","","","","","",""
"null","","image-button-response","110","1519131","0.0-110.0","A1DKS1KI6S93HF","img_art/12.jpg","null","","","","","","","","","","","","","","","","","","","","","","","","",""
"9145","","image-button-response","111","1528280","0.0-111.0","A1DKS1KI6S93HF","img_art/12.jpg","4","","","","","","","","","","","","","","","","","","","","","","","","",""
"5181","","image-button-response","112","1533464","0.0-112.0-0.0","A1DKS1KI6S93HF","img_art/12.jpg","5","","","","","","","","","","","","","","","","","","","","","","","","",""
"3008","","image-button-response","113","1536476","0.0-113.0-0.0","A1DKS1KI6S93HF","img_art/12.jpg","0","","","","","","","","","","","","","","","","","","","","","","","","",""
"null","","html-keyboard-response","114","1536979","0.0-114.0","A1DKS1KI6S93HF","<p style=""font-size: 48px;"">+</p>","","","","","null","allTrialResponses","500","1","10","img_art/12.jpg","35","I like this one. Looks like a forest scene with blocks of different color schemes.","Angel,Devon,Dalton,Zachary,Alejandro,Christian","This feels cosmopolitan. Like looking at a high rise apartment at night and seeing into everyone's windows.,20,180,20","too much - just overcrowded,-20,400,20","beautiful also reminds me of a quilt,1,300,20","I like how it's split into tiny squares, but otherwise, not very intriguing.,-18,400,20","I like the sectioned nature of the squares and curves. Not my favorite but still a good one.,27,80,20","so many different available interpretations for this, would love to closer.,24,140,20","Alejandro","I like the sectioned nature of the squares and curves. Not my favorite but still a good one.,27,80,20","Christian","so many different available interpretations for this, would love to closer.,24,140,20","Angel","This feels cosmopolitan. Like looking at a high rise apartment at night and seeing into everyone's windows.,20,180,20","0"
"7238","","survey-text","115","1544236","0.0-115.0-0.0","A1DKS1KI6S93HF","","","","{""Q0"":""our""}","","","","","","","","","","","","","","","","","","","","","","",""
"38050","","survey-text","116","1582287","0.0-116.0-0.0","A1DKS1KI6S93HF","","","","{""Q0"":""Too dark. If it was brighter it would be a much better painting.""}","","","","","","","","","","","","","","","","","","","","","","",""
"5357.899999976158","","image-slider-response","117","1587648","0.0-117.0","A1DKS1KI6S93HF","","","","","-19","","","","","","","","","","","","","","","","","","","","","",""
"null","","image-button-response","118","1592657","0.0-118.0","A1DKS1KI6S93HF","img_art/27.jpg","null","","","","","","","","","","","","","","","","","","","","","","","","",""
"14756","","image-button-response","119","1607416","0.0-119.0","A1DKS1KI6S93HF","img_art/27.jpg","5","","","","","","","","","","","","","","","","","","","","","","","","",""
"8961","","image-button-response","120","1616379","0.0-120.0-0.0","A1DKS1KI6S93HF","img_art/27.jpg","3","","","","","","","","","","","","","","","","","","","","","","","","",""
"3394","","image-button-response","121","1619776","0.0-121.0-0.0","A1DKS1KI6S93HF","img_art/27.jpg","4","","","","","","","","","","","","","","","","","","","","","","","","",""
"null","","html-keyboard-response","122","1620788","0.0-122.0","A1DKS1KI6S93HF","<p style=""font-size: 48px;"">+</p>","","","","","null","allTrialResponses","1000","1","11","img_art/27.jpg","-19","Too dark. If it was brighter it would be a much better painting.","Angel,Joseph,Ethan,Mason,Alejandro,Christian","Makes me think of Japanese food. I perceive it as comfortable and healthy.,20,180,20","Don't know what it is, but I do like it.,10,220,20","I like the layer upon layer of different mediums used here.,21,120,20","dont like it, don't hate it, meh.,2,100,20","Muddied and directionless. Like someone dragged a brush across the paper for the sake of doing something.,-50,80,20","don't understand, the green induces confusion,1,140,20","Christian","don't understand, the green induces confusion,1,140,20","Mason","dont like it, don't hate it, meh.,2,100,20","Alejandro","Muddied and directionless. Like someone dragged a brush across the paper for the sake of doing something.,-50,80,20","0"
"51361","","survey-text","123","1672157","0.0-123.0-0.0","A1DKS1KI6S93HF","","","","{""Q0"":""I like the splashes of paint against the background.""}","","","","","","","","","","","","","","","","","","","","","","",""
"9612.899999976158","","image-slider-response","124","1681771","0.0-124.0","A1DKS1KI6S93HF","","","","","30","","","","","","","","","","","","","","","","","","","","","",""
"null","","image-button-response","125","1686787","0.0-125.0","A1DKS1KI6S93HF","img_art/13.jpg","null","","","","","","","","","","","","","","","","","","","","","","","","",""
"9305","","image-button-response","126","1696095","0.0-126.0","A1DKS1KI6S93HF","img_art/13.jpg","1","","","","","","","","","","","","","","","","","","","","","","","","",""
"5895","","image-button-response","127","1701992","0.0-127.0-0.0","A1DKS1KI6S93HF","img_art/13.jpg","0","","","","","","","","","","","","","","","","","","","","","","","","",""
"893","","image-button-response","128","1702888","0.0-128.0-0.0","A1DKS1KI6S93HF","img_art/13.jpg","4","","","","","","","","","","","","","","","","","","","","","","","","",""
"null","","html-keyboard-response","129","1704394","0.0-129.0","A1DKS1KI6S93HF","<p style=""font-size: 48px;"">+</p>","","","","","null","allTrialResponses","1500","1","12","img_art/13.jpg","30","I like the splashes of paint against the background.","Tyler,Carlos,Jake,Mason,Alejandro,Christian","Pollock? Love the juxtaposition of colors. Soothing and stirring, a beautiful inexplicable paradox.,50,320,20","Rain on a cold window.,22,80,20","It's too violent looking and there's too much contrast between the white/black.,-21,360,20","meh, 80's. retro,-9,100,20","Reminiscent of Jackson Pollock and gives me a feeling of chaotic satisfaction,50,80,20","love the style but not very novel,9,140,20","Carlos","Rain on a cold window.,22,80,20","Tyler","Pollock? Love the juxtaposition of colors. Soothing and stirring, a beautiful inexplicable paradox.,50,320,20","Alejandro","Reminiscent of Jackson Pollock and gives me a feeling of chaotic satisfaction,50,80,20","0"
"50397","","survey-text","130","1754795","0.0-130.0-0.0","A1DKS1KI6S93HF","","","","{""Q0"":""Not sure why but I somewhat like this painting.""}","","","","","","","","","","","","","","","","","","","","","","",""
"5621.600000023842","","image-slider-response","131","1760419","0.0-131.0","A1DKS1KI6S93HF","","","","","10","","","","","","","","","","","","","","","","","","","","","",""
"null","","image-button-response","132","1765427","0.0-132.0","A1DKS1KI6S93HF","img_art/11.jpg","null","","","","","","","","","","","","","","","","","","","","","","","","",""
"14270","","image-button-response","133","1779699","0.0-133.0","A1DKS1KI6S93HF","img_art/11.jpg","4","","","","","","","","","","","","","","","","","","","","","","","","",""
"4371","","image-button-response","134","1784073","0.0-134.0-0.0","A1DKS1KI6S93HF","img_art/11.jpg","0","","","","","","","","","","","","","","","","","","","","","","","","",""
"3405","","image-button-response","135","1787479","0.0-135.0-0.0","A1DKS1KI6S93HF","img_art/11.jpg","0","","","","","","","","","","","","","","","","","","","","","","","","",""
"4794","","image-button-response","136","1800607","0.0-135.1-0.1","A1DKS1KI6S93HF","img_art/11.jpg","1","","","","","","","","","","","","","","","","","","","","","","","","",""
"null","","html-keyboard-response","137","1802113","0.0-136.0","A1DKS1KI6S93HF","<p style=""font-size: 48px;"">+</p>","","","","","null","allTrialResponses","1500","1","13","img_art/11.jpg","10","Not sure why but I somewhat like this painting.","Tyler,Carlos,Jack,Taylor,Alejandro,Gregory","Rainy day at an urban sea port. Portugal?,30,320,20","The colors are lovely. February getting ready to yield to March.,41,80,20","makes me think of city highways & bridges on a rainy, foggy day. I like the melancholy it evokes.,43,320,20","Busy, busy oceanside city.,-10,200,20","Enjoyed the lines representing different paths that encompass different entities,20,80,20","Looks like a cityscape,25,220,20","Alejandro","Enjoyed the lines representing different paths that encompass different entities,20,80,20","Tyler","Rainy day at an urban sea port. Portugal?,30,320,20","Carlos","The colors are lovely. February getting ready to yield to March.,41,80,20","2"
"89797","","survey-text","138","1891915","0.0-137.0-0.0","A1DKS1KI6S93HF","","","","{""Q0"":""I don't like this one. Reminds me of the devil.""}","","","","","","","","","","","","","","","","","","","","","","",""
"5501.700000047684","","image-slider-response","139","1897419","0.0-138.0","A1DKS1KI6S93HF","","","","","-13","","","","","","","","","","","","","","","","","","","","","",""
"null","","image-button-response","140","1902431","0.0-139.0","A1DKS1KI6S93HF","img_art/1.jpg","null","","","","","","","","","","","","","","","","","","","","","","","","",""
"7376","","image-button-response","141","1909810","0.0-140.0","A1DKS1KI6S93HF","img_art/1.jpg","2","","","","","","","","","","","","","","","","","","","","","","","","",""
"3969","","image-button-response","142","1913781","0.0-141.0-0.0","A1DKS1KI6S93HF","img_art/1.jpg","3","","","","","","","","","","","","","","","","","","","","","","","","",""
"9923","","image-button-response","143","1923707","0.0-142.0-0.0","A1DKS1KI6S93HF","img_art/1.jpg","4","","","","","","","","","","","","","","","","","","","","","","","","",""
"null","","html-keyboard-response","144","1925213","0.0-143.0","A1DKS1KI6S93HF","<p style=""font-size: 48px;"">+</p>","","","","","null","allTrialResponses","1500","1","14","img_art/1.jpg","-13","I don't like this one. Reminds me of the devil.","Tyler,Carlos,Jeremy,Christopher,Alejandro,Richard","This looks like the same artist as the first picture, but cropped? Looks incomplete.,28,320,20","Colors are pleasant, but feels incredibly generic.,9,80,20","fearful. Makes me think of fire,-10,60,20","it's boring despite all the colors,-2,160,20","Interesting color scheme but to bled to me,11,80,20","nice piece, fall like,31,340,20","Jeremy","fearful. Makes me think of fire,-10,60,20","Christopher","it's boring despite all the colors,-2,160,20","Alejandro","Interesting color scheme but to bled to me,11,80,20","2"
"88167","","survey-text","145","2013387","0.0-144.0-0.0","A1DKS1KI6S93HF","","","","{""Q0"":""I like the 3D feeling of this piece. ""}","","","","","","","","","","","","","","","","","","","","","","",""
"4701.300000071526","","image-slider-response","146","2018091","0.0-145.0","A1DKS1KI6S93HF","","","","","22","","","","","","","","","","","","","","","","","","","","","",""
"null","","image-button-response","147","2023101","0.0-146.0","A1DKS1KI6S93HF","img_art/29.jpg","null","","","","","","","","","","","","","","","","","","","","","","","","",""
"1290","","image-button-response","148","2024395","0.0-147.0","A1DKS1KI6S93HF","img_art/29.jpg","5","","","","","","","","","","","","","","","","","","","","","","","","",""
"10577","","image-button-response","149","2034975","0.0-148.0-0.0","A1DKS1KI6S93HF","img_art/29.jpg","0","","","","","","","","","","","","","","","","","","","","","","","","",""
"5310","","image-button-response","150","2040287","0.0-149.0-0.0","A1DKS1KI6S93HF","img_art/29.jpg","3","","","","","","","","","","","","","","","","","","","","","","","","",""
"null","","html-keyboard-response","151","2041290","0.0-150.0","A1DKS1KI6S93HF","<p style=""font-size: 48px;"">+</p>","","","","","null","allTrialResponses","1000","1","15","img_art/29.jpg","22","I like the 3D feeling of this piece. ","Aaron,Nathaniel,Jeremy,Christopher,Alejandro,Tristan","I like the texture and colors and how it makes me feel. I like how it's different from other abstract art.,45,20,20","Giant messy blob. Looks like it tries to be edgy, but fails.,-40,220,20","unhappy. Looking at this all the time would depress me.,-11,60,20","it's interesting but not my style,9,160,20","Reminiscent of Jackson Pollock with a hint of abstract structure with the bordering.,32,80,20","The textures bring this painting alive. A window to another existence with infinite possibility.,25,300,20","Tristan","The textures bring this painting alive. A window to another existence with infinite possibility.,25,300,20","Aaron","I like the texture and colors and how it makes me feel. I like how it's different from other abstract art.,45,20,20","Christopher","it's interesting but not my style,9,160,20","2"
"6869","","survey-text","152","2048168","0.0-151.0-0.0","A1DKS1KI6S93HF","","","","{""Q0"":""course""}","","","","","","","","","","","","","","","","","","","","","","",""
"45985","","survey-text","153","2094155","0.0-152.0-0.0","A1DKS1KI6S93HF","","","","{""Q0"":""I like it. A large wave pounding against a hillside during a strong storm.""}","","","","","","","","","","","","","","","","","","","","","","",""
"4483.600000023842","","image-slider-response","154","2098640","0.0-153.0","A1DKS1KI6S93HF","","","","","22","","","","","","","","","","","","","","","","","","","","","",""
"2332","","image-button-response","155","2103643","0.0-154.0","A1DKS1KI6S93HF","img_art/21.jpg","5","","","","","","","","","","","","","","","","","","","","","","","","",""
"3406","","image-button-response","156","2107052","0.0-155.0","A1DKS1KI6S93HF","img_art/21.jpg","5","","","","","","","","","","","","","","","","","","","","","","","","",""
"18088","","image-button-response","157","2125142","0.0-156.0-0.0","A1DKS1KI6S93HF","img_art/21.jpg","0","","","","","","","","","","","","","","","","","","","","","","","","",""
"7425","","image-button-response","158","2132571","0.0-157.0-0.0","A1DKS1KI6S93HF","img_art/21.jpg","3","","","","","","","","","","","","","","","","","","","","","","","","",""
"null","","html-keyboard-response","159","2133573","0.0-158.0","A1DKS1KI6S93HF","<p style=""font-size: 48px;"">+</p>","","","","","null","allTrialResponses","1000","1","16","img_art/21.jpg","22","I like it. A large wave pounding against a hillside during a strong storm.","Aaron,Malik,Brett,Christopher,Luke,Tristan","I love the colors and the differences between the left and right sides.,22,20,20","Indistinct, but beautiful hues,10,40,20","Makes me think of a battleship targeting a beautiful mountainside,0,360,20","I love the section of blues, the colors overall are really lovely,31,160,20","the vast colors make me happy,15,20,20","A landscape that leaves me inspired and hopeful.,20,300,20","Tristan","A landscape that leaves me inspired and hopeful.,20,300,20","Aaron","I love the colors and the differences between the left and right sides.,22,20,20","Christopher","I love the section of blues, the colors overall are really lovely,31,160,20","2"
"57876","","survey-text","160","2191456","0.0-159.0-0.0","A1DKS1KI6S93HF","","","","{""Q0"":""Love it.  Great colors make me wonder if this is a waterfall in a forest or the coloring on a pheasant.""}","","","","","","","","","","","","","","","","","","","","","","",""
"5283.100000023842","","image-slider-response","161","2196742","0.0-160.0","A1DKS1KI6S93HF","","","","","36","","","","","","","","","","","","","","","","","","","","","",""
"null","","image-button-response","162","2201751","0.0-161.0","A1DKS1KI6S93HF","img_art/24.jpg","null","","","","","","","","","","","","","","","","","","","","","","","","",""
"7684","","image-button-response","163","2209438","0.0-162.0","A1DKS1KI6S93HF","img_art/24.jpg","4","","","","","","","","","","","","","","","","","","","","","","","","",""
"10829","","image-button-response","164","2220269","0.0-163.0-0.0","A1DKS1KI6S93HF","img_art/24.jpg","1","","","","","","","","","","","","","","","","","","","","","","","","",""
"5566","","image-button-response","165","2225838","0.0-164.0-0.0","A1DKS1KI6S93HF","img_art/24.jpg","2","","","","","","","","","","","","","","","","","","","","","","","","",""
"null","","html-keyboard-response","166","2227353","0.0-165.0","A1DKS1KI6S93HF","<p style=""font-size: 48px;"">+</p>","","","","","null","allTrialResponses","1500","1","17","img_art/24.jpg","36","Love it.  Great colors make me wonder if this is a waterfall in a forest or the coloring on a pheasant.","Aaron,Isaiah,Adrian,Christopher,Vincent,Tristan","I like how it evokes the feeling of being in a forest. The colors are pretty,31,20,20","I feel relaxed and happy, looking at the stream, but it feels hollow, like something is fake.,5,300,20","I like the colors and see a stream in a wooded setting. Makes me feel calm and cheerful.,27,60,20","it's fine, the colors are pleasing, but not my taste,9,160,20","Spending a day in nature,21,360,20","The contorted angles of the flowing water upset the harmony,-20,300,20","Vincent","Spending a day in nature,21,360,20","Isaiah","I feel relaxed and happy, looking at the stream, but it feels hollow, like something is fake.,5,300,20","Adrian","I like the colors and see a stream in a wooded setting. Makes me feel calm and cheerful.,27,60,20","2"
"47949","","survey-text","167","2275310","0.0-166.0-0.0","A1DKS1KI6S93HF","","","","{""Q0"":""Interesting blend of the brown tones. Gives me a sense of curiousity.""}","","","","","","","","","","","","","","","","","","","","","","",""
"6273.5","","image-slider-response","168","2281586","0.0-167.0","A1DKS1KI6S93HF","","","","","13","","","","","","","","","","","","","","","","","","","","","",""
"null","","image-button-response","169","2286589","0.0-168.0","A1DKS1KI6S93HF","img_art/4.jpg","null","","","","","","","","","","","","","","","","","","","","","","","","",""
"1321","","image-button-response","170","2287914","0.0-169.0","A1DKS1KI6S93HF","img_art/4.jpg","4","","","","","","","","","","","","","","","","","","","","","","","","",""
"11101","","image-button-response","171","2299017","0.0-170.0-0.0","A1DKS1KI6S93HF","img_art/4.jpg","0","","","","","","","","","","","","","","","","","","","","","","","","",""
"878","","image-button-response","172","2299896","0.0-171.0-0.0","A1DKS1KI6S93HF","img_art/4.jpg","3","","","","","","","","","","","","","","","","","","","","","","","","",""
"null","","html-keyboard-response","173","2301410","0.0-172.0","A1DKS1KI6S93HF","<p style=""font-size: 48px;"">+</p>","","","","","null","allTrialResponses","1500","1","18","img_art/4.jpg","13","Interesting blend of the brown tones. Gives me a sense of curiousity.","Sean,Isaiah,Adrian,Jared,Vincent,Trevor","dont know what im looking at,1,40,20","The sickly looking colors make me feel very uncomfortable.,-35,300,20","Looks like feces smeared on the canvas. I hate it.,-50,60,20","it looks like a deformed hand,-9,400,20","I like it not sure much of how I feel about it,7,360,20","not enough color and too yellow for me. Not my favorite colors,-10,280,20","Vincent","I like it not sure much of how I feel about it,7,360,20","Sean","dont know what im looking at,1,40,20","Jared","it looks like a deformed hand,-9,400,20","2"
"33700","","survey-text","174","2335118","0.0-173.0-0.0","A1DKS1KI6S93HF","","","","{""Q0"":""Don't like this one. Teddy bear looks so real it is almost scary.""}","","","","","","","","","","","","","","","","","","","","","","",""
"5501.600000023842","","image-slider-response","175","2340622","0.0-174.0","A1DKS1KI6S93HF","","","","","-35","","","","","","","","","","","","","","","","","","","","","",""
"null","","image-button-response","176","2345636","0.0-175.0","A1DKS1KI6S93HF","img_art/16.jpg","null","","","","","","","","","","","","","","","","","","","","","","","","",""
"8906","","image-button-response","177","2354544","0.0-176.0","A1DKS1KI6S93HF","img_art/16.jpg","3","","","","","","","","","","","","","","","","","","","","","","","","",""
"4444","","image-button-response","178","2358990","0.0-177.0-0.0","A1DKS1KI6S93HF","img_art/16.jpg","0","","","","","","","","","","","","","","","","","","","","","","","","",""
"7220","","image-button-response","179","2366213","0.0-178.0-0.0","A1DKS1KI6S93HF","img_art/16.jpg","2","","","","","","","","","","","","","","","","","","","","","","","","",""
"null","","html-keyboard-response","180","2366730","0.0-179.0","A1DKS1KI6S93HF","<p style=""font-size: 48px;"">+</p>","","","","","null","allTrialResponses","500","1","19","img_art/16.jpg","-35","Don't like this one. Teddy bear looks so real it is almost scary.","Sean,Steven,Jorge,Jared,Vincent,Scott","my reaction is that the picture is creepy,-19,40,20","Not interested at all,-15,160,20","Dreamy and chaotic,-9,180,20","it looks psychotic,-31,400,20","Toys toys toys. Happy playful free spirit,30,360,20","feels chaotic and morbid,-39,20,20","Jared","it looks psychotic,-31,400,20","Sean","my reaction is that the picture is creepy,-19,40,20","Jorge","Dreamy and chaotic,-9,180,20","2"
"39609","","survey-text","181","2406347","0.0-180.0-0.0","A1DKS1KI6S93HF","","","","{""Q0"":""Lover the colors and the images. Looks like an orchestra playing festive music.""}","","","","","","","","","","","","","","","","","","","","","","",""
"5528.799999952316","","image-slider-response","182","2411877","0.0-181.0","A1DKS1KI6S93HF","","","","","32","","","","","","","","","","","","","","","","","","","","","",""
"null","","image-button-response","183","2416886","0.0-182.0","A1DKS1KI6S93HF","img_art/23.jpg","null","","","","","","","","","","","","","","","","","","","","","","","","",""
"4991","","image-button-response","184","2421879","0.0-183.0","A1DKS1KI6S93HF","img_art/23.jpg","2","","","","","","","","","","","","","","","","","","","","","","","","",""
"7473","","image-button-response","185","2429353","0.0-184.0-0.0","A1DKS1KI6S93HF","img_art/23.jpg","1","","","","","","","","","","","","","","","","","","","","","","","","",""
"882","","image-button-response","186","2430238","0.0-185.0-0.0","A1DKS1KI6S93HF","img_art/23.jpg","4","","","","","","","","","","","","","","","","","","","","","","","","",""
"null","","html-keyboard-response","187","2431252","0.0-186.0","A1DKS1KI6S93HF","<p style=""font-size: 48px;"">+</p>","","","","","null","allTrialResponses","1000","1","20","img_art/23.jpg","32","Lover the colors and the images. Looks like an orchestra playing festive music.","Sean,Caleb,Jorge,Jared,Paul,Peter","so much detail .,31,40,20","Very colorful. Nice contrasts.,26,40,20","puzzled with curiosity,31,180,20","it makes me aggitated,-21,400,20","I like the sharp contrast of the white on the colorful background,27,300,20","Reminds me of disco/70's, not my favorite design,-12,320,20","Jorge","puzzled with curiosity,31,180,20","Caleb","Very colorful. Nice contrasts.,26,40,20","Paul","I like the sharp contrast of the white on the colorful background,27,300,20","2"
"5393","","survey-text","188","2436661","0.0-187.0-0.0","A1DKS1KI6S93HF","","","","{""Q0"":""we""}","","","","","","","","","","","","","","","","","","","","","","",""
"61855","","survey-text","189","2498518","0.0-188.0-0.0","A1DKS1KI6S93HF","","","","{""Q0"":""I am split on this. I would like a brighter tone of color.""}","","","","","","","","","","","","","","","","","","","","","","",""
"4797.5","","image-slider-response","190","2503318","0.0-189.0","A1DKS1KI6S93HF","","","","","-9","","","","","","","","","","","","","","","","","","","","","",""
"null","","image-button-response","191","2508326","0.0-190.0","A1DKS1KI6S93HF","img_art/26.jpg","null","","","","","","","","","","","","","","","","","","","","","","","","",""
"8180","","image-button-response","192","2516510","0.0-191.0","A1DKS1KI6S93HF","img_art/26.jpg","2","","","","","","","","","","","","","","","","","","","","","","","","",""
"1097","","image-button-response","193","2517610","0.0-192.0-0.0","A1DKS1KI6S93HF","img_art/26.jpg","5","","","","","","","","","","","","","","","","","","","","","","","","",""
"539","","image-button-response","194","2518152","0.0-193.0-0.0","A1DKS1KI6S93HF","img_art/26.jpg","4","","","","","","","","","","","","","","","","","","","","","","","","",""
"null","","html-keyboard-response","195","2519662","0.0-194.0","A1DKS1KI6S93HF","<p style=""font-size: 48px;"">+</p>","","","","","null","allTrialResponses","1500","1","21","img_art/26.jpg","-9","I am split on this. I would like a brighter tone of color.","Stephen,Caleb,Jorge,Kyle,Paul,Cody","No strong reaction but the color scheme is nice,10,140,20","Appears childish and unfinished.,-20,40,20","dull and boring,-6,180,20","This seems like a quiet painting,11,340,20","It looks empty and unfinished,-28,300,20","Looks unfinished,-31,180,20","Jorge","dull and boring,-6,180,20","Cody","Looks unfinished,-31,180,20","Paul","It looks empty and unfinished,-28,300,20","2"
"64603","","survey-text","196","2584272","0.0-195.0-0.0","A1DKS1KI6S93HF","","","","{""Q0"":""Confusing picture. Too much blank space.""}","","","","","","","","","","","","","","","","","","","","","","",""
"6621.5","","image-slider-response","197","2590896","0.0-196.0","A1DKS1KI6S93HF","","","","","-20","","","","","","","","","","","","","","","","","","","","","",""
"null","","image-button-response","198","2595914","0.0-197.0","A1DKS1KI6S93HF","img_art/5.jpg","null","","","","","","","","","","","","","","","","","","","","","","","","",""
"2242","","image-button-response","199","2598158","0.0-198.0","A1DKS1KI6S93HF","img_art/5.jpg","2","","","","","","","","","","","","","","","","","","","","","","","","",""
"5353","","image-button-response","200","2603513","0.0-199.0-0.0","A1DKS1KI6S93HF","img_art/5.jpg","3","","","","","","","","","","","","","","","","","","","","","","","","",""
"14930","","image-button-response","201","2618444","0.0-200.0-0.0","A1DKS1KI6S93HF","img_art/5.jpg","1","","","","","","","","","","","","","","","","","","","","","","","","",""
"null","","html-keyboard-response","202","2619450","0.0-201.0","A1DKS1KI6S93HF","<p style=""font-size: 48px;"">+</p>","","","","","null","allTrialResponses","1000","1","22","img_art/5.jpg","-20","Confusing picture. Too much blank space.","Logan,Joshua,Jorge,Chase,Paul,Cody","Just doesn't do a whole lot for me. I see Cinderellas broom,-11,360,20","Very basic, but at least has some color to it.,-9,240,20","boring and unsure,-25,180,20","Seems very basic and uninteresting.,-15,120,20","I like how simple it is and the pink brushstrokes are nice,27,300,20","Kind of ugly ....,-21,180,20","Jorge","boring and unsure,-25,180,20","Chase","Seems very basic and uninteresting.,-15,120,20","Joshua","Very basic, but at least has some color to it.,-9,240,20","2"
"92440","","survey-text","203","2711897","0.0-202.0-0.0","A1DKS1KI6S93HF","","","","{""Q0"":""This is confusing and I am not a fan of the color.  Needs a little more detail.""}","","","","","","","","","","","","","","","","","","","","","","",""
"8625.100000023842","","image-slider-response","204","2720524","0.0-203.0","A1DKS1KI6S93HF","","","","","-10","","","","","","","","","","","","","","","","","","","","","",""
"2410","","image-button-response","205","2725528","0.0-204.0","A1DKS1KI6S93HF","img_art/28.jpg","0","","","","","","","","","","","","","","","","","","","","","","","","",""
"912","","image-button-response","206","2726443","0.0-205.0","A1DKS1KI6S93HF","img_art/28.jpg","0","","","","","","","","","","","","","","","","","","","","","","","","",""
"14818","","image-button-response","207","2741262","0.0-206.0-0.0","A1DKS1KI6S93HF","img_art/28.jpg","3","","","","","","","","","","","","","","","","","","","","","","","","",""
"3643","","image-button-response","208","2744908","0.0-207.0-0.0","A1DKS1KI6S93HF","img_art/28.jpg","1","","","","","","","","","","","","","","","","","","","","","","","","",""
"null","","html-keyboard-response","209","2746418","0.0-208.0","A1DKS1KI6S93HF","<p style=""font-size: 48px;"">+</p>","","","","","null","allTrialResponses","1500","1","23","img_art/28.jpg","-10","This is confusing and I am not a fan of the color.  Needs a little more detail.","Evan,Joshua,Jorge,Chase,Elijah,Blake","It feels very blah,-10,140,20","The colors are drab and a little depressing.,-20,240,20","nostalgic from a memory,11,180,20","I don't like the washed out colors.,-15,120,20","The colors are depressing,-5,80,20","an old woman in a wheelchair. sad,-35,280,20","Evan","It feels very blah,-10,140,20","Chase","I don't like the washed out colors.,-15,120,20","Joshua","The colors are drab and a little depressing.,-20,240,20","2"
"67439","","survey-text","210","2813862","0.0-209.0-0.0","A1DKS1KI6S93HF","","","","{""Q0"":""I like the border and the contrast in colors. Not sure what it is but I could stare at this a long time.""}","","","","","","","","","","","","","","","","","","","","","","",""
"9204.800000071526","","image-slider-response","211","2823069","0.0-210.0","A1DKS1KI6S93HF","","","","","25","","","","","","","","","","","","","","","","","","","","","",""
"null","","image-button-response","212","2828077","0.0-211.0","A1DKS1KI6S93HF","img_art/20.jpg","null","","","","","","","","","","","","","","","","","","","","","","","","",""
"9697","","image-button-response","213","2837777","0.0-212.0","A1DKS1KI6S93HF","img_art/20.jpg","0","","","","","","","","","","","","","","","","","","","","","","","","",""
"1298","","image-button-response","214","2839077","0.0-213.0-0.0","A1DKS1KI6S93HF","img_art/20.jpg","1","","","","","","","","","","","","","","","","","","","","","","","","",""
"2459","","image-button-response","215","2841538","0.0-214.0-0.0","A1DKS1KI6S93HF","img_art/20.jpg","5","","","","","","","","","","","","","","","","","","","","","","","","",""
"null","","html-keyboard-response","216","2842548","0.0-215.0","A1DKS1KI6S93HF","<p style=""font-size: 48px;"">+</p>","","","","","null","allTrialResponses","1000","1","24","img_art/20.jpg","25","I like the border and the contrast in colors. Not sure what it is but I could stare at this a long time.","Evan,Joshua,Hunter,Chase,Nicholas,Jesse","I feel intrigued and impressed,34,140,20","Reminds me of the Southwest; i.e. New Mexico or Arizona. It's interesting.,12,240,20","feels underdeveloped,-11,240,20","Looks like a refinery dumping shit into the water.,-40,120,20","Use of white on foreground is too big and steals eyes away from rest of painting,2,240,20","I do at least like the dark colors blending,6,80,20","Evan","I feel intrigued and impressed,34,140,20","Joshua","Reminds me of the Southwest; i.e. New Mexico or Arizona. It's interesting.,12,240,20","Jesse","I do at least like the dark colors blending,6,80,20","2"
"88967","","survey-text","217","2931524","0.0-216.0-0.0","A1DKS1KI6S93HF","","","","{""Q0"":""I like the colors and the details. Looks like a woman lying down next to some flowers. I like the color schemes.""}","","","","","","","","","","","","","","","","","","","","","","",""
"6746.899999976158","","image-slider-response","218","2938273","0.0-217.0","A1DKS1KI6S93HF","","","","","31","","","","","","","","","","","","","","","","","","","","","",""
"null","","image-button-response","219","2943284","0.0-218.0","A1DKS1KI6S93HF","img_art/9.jpg","null","","","","","","","","","","","","","","","","","","","","","","","","",""
"7401","","image-button-response","220","2950688","0.0-219.0","A1DKS1KI6S93HF","img_art/9.jpg","3","","","","","","","","","","","","","","","","","","","","","","","","",""
"1181","","image-button-response","221","2951872","0.0-220.0-0.0","A1DKS1KI6S93HF","img_art/9.jpg","0","","","","","","","","","","","","","","","","","","","","","","","","",""
"12094","","image-button-response","222","2963968","0.0-221.0-0.0","A1DKS1KI6S93HF","img_art/9.jpg","2","","","","","","","","","","","","","","","","","","","","","","","","",""
"null","","html-keyboard-response","223","2965479","0.0-222.0","A1DKS1KI6S93HF","<p style=""font-size: 48px;"">+</p>","","","","","null","allTrialResponses","1500","1","25","img_art/9.jpg","31","I like the colors and the details. Looks like a woman lying down next to some flowers. I like the color schemes.","Evan,Joshua,Eric,James,Dylan,Jesse","It makes me think of Snow White sleeping,11,140,20","Someone lying in bed?  Don't care for it.,-14,240,20","I see some of my favorite colors which I like, but I don't like what's portrayed.,35,100,20","This has some of my favorite colors, and I like it,21,380,20","This picture is too busy and ugly,-20,40,20","The lack of concrete form kind of turns me off,-2,80,20","James","This has some of my favorite colors, and I like it,21,380,20","Evan","It makes me think of Snow White sleeping,11,140,20","Eric","I see some of my favorite colors which I like, but I don't like what's portrayed.,35,100,20","2"
"5713","","survey-text","224","2971206","0.0-223.0-0.0","A1DKS1KI6S93HF","","","","{""Q0"":""table""}","","","","","","","","","","","","","","","","","","","","","","",""
"29144","","survey-text","225","3000352","0.0-224.0-0.0","A1DKS1KI6S93HF","","","","{""Q0"":""Black on green. I like the colors.""}","","","","","","","","","","","","","","","","","","","","","","",""
"7373.799999952316","","image-slider-response","226","3007728","0.0-225.0","A1DKS1KI6S93HF","","","","","25","","","","","","","","","","","","","","","","","","","","","",""
"3431","","image-button-response","227","3012739","0.0-226.0","A1DKS1KI6S93HF","img_art/25.jpg","0","","","","","","","","","","","","","","","","","","","","","","","","",""
"3346","","image-button-response","228","3016088","0.0-227.0","A1DKS1KI6S93HF","img_art/25.jpg","0","","","","","","","","","","","","","","","","","","","","","","","","",""
"9331","","image-button-response","229","3025421","0.0-228.0-0.0","A1DKS1KI6S93HF","img_art/25.jpg","3","","","","","","","","","","","","","","","","","","","","","","","","",""
"2345","","image-button-response","230","3027769","0.0-229.0-0.0","A1DKS1KI6S93HF","img_art/25.jpg","5","","","","","","","","","","","","","","","","","","","","","","","","",""
"null","","html-keyboard-response","231","3028786","0.0-230.0","A1DKS1KI6S93HF","<p style=""font-size: 48px;"">+</p>","","","","","null","allTrialResponses","1000","1","26","img_art/25.jpg","25","Black on green. I like the colors.","Evan,Bryan,Eric,James,Brian,Spencer","I really like the green and the fact that it is tattered on the edges,23,140,20","Scary. Something out of a Stephen King book/movie.,-31,400,20","This piece gives me a lot of questions which I kind of like.,10,100,20","This would definitely be hanging in my bedroom in my house,50,380,20","the color is pleasing and draws out the contrast of the lines,10,380,20","I really like it, very simple, very tribal,38,120,20","Evan","I really like the green and the fact that it is tattered on the edges,23,140,20","James","This would definitely be hanging in my bedroom in my house,50,380,20","Spencer","I really like it, very simple, very tribal,38,120,20","2"
"58310","","survey-text","232","3087104","0.0-231.0-0.0","A1DKS1KI6S93HF","","","","{""Q0"":""I don't know why but I like this. I don't know what this is supposed to depict.""}","","","","","","","","","","","","","","","","","","","","","","",""
"7412.799999952316","","image-slider-response","233","3094520","0.0-232.0","A1DKS1KI6S93HF","","","","","10","","","","","","","","","","","","","","","","","","","","","",""
"null","","image-button-response","234","3099524","0.0-233.0","A1DKS1KI6S93HF","img_art/18.jpg","null","","","","","","","","","","","","","","","","","","","","","","","","",""
"481","","image-button-response","235","3100008","0.0-234.0","A1DKS1KI6S93HF","img_art/18.jpg","1","","","","","","","","","","","","","","","","","","","","","","","","",""
"9321","","image-button-response","236","3109332","0.0-235.0-0.0","A1DKS1KI6S93HF","img_art/18.jpg","4","","","","","","","","","","","","","","","","","","","","","","","","",""
"2655","","image-button-response","237","3111991","0.0-236.0-0.0","A1DKS1KI6S93HF","img_art/18.jpg","3","","","","","","","","","","","","","","","","","","","","","","","","",""
"null","","html-keyboard-response","238","3113001","0.0-237.0","A1DKS1KI6S93HF","<p style=""font-size: 48px;"">+</p>","","","","","null","allTrialResponses","1000","1","27","img_art/18.jpg","10","I don't know why but I like this. I don't know what this is supposed to depict.","Evan,Nathan,Timothy,James,Daniel,Spencer","This brings to mind the four horsemen of the apocalypse,8,140,20","Doesn't really speak to me well but I can appreciate it,10,200,20","This gives a very ominous feeling,-30,240,20","Very eerie and it's spooky,11,380,20","Nice palette with complexity becoming nice at the center,34,320,20","I really like it, like hells drivers,43,120,20","Nathan","Doesn't really speak to me well but I can appreciate it,10,200,20","Daniel","Nice palette with complexity becoming nice at the center,34,320,20","James","Very eerie and it's spooky,11,380,20","2"
"142634","","survey-text","239","3255643","0.0-238.0-0.0","A1DKS1KI6S93HF","","","","{""Q0"":""I see a city that has been built with the grief and suffering of its inhabitants. City looks bright but the suffering is shown by the dark tones.""}","","","","","","","","","","","","","","","","","","","","","","",""
"5677.5","","image-slider-response","240","3261323","0.0-239.0","A1DKS1KI6S93HF","","","","","25","","","","","","","","","","","","","","","","","","","","","",""
"null","","image-button-response","241","3266336","0.0-240.0","A1DKS1KI6S93HF","img_art/8.jpg","null","","","","","","","","","","","","","","","","","","","","","","","","",""
"13616","","image-button-response","242","3279956","0.0-241.0","A1DKS1KI6S93HF","img_art/8.jpg","2","","","","","","","","","","","","","","","","","","","","","","","","",""
"909","","image-button-response","243","3280868","0.0-242.0-0.0","A1DKS1KI6S93HF","img_art/8.jpg","1","","","","","","","","","","","","","","","","","","","","","","","","",""
"5925","","image-button-response","244","3286796","0.0-243.0-0.0","A1DKS1KI6S93HF","img_art/8.jpg","5","","","","","","","","","","","","","","","","","","","","","","","","",""
"null","","html-keyboard-response","245","3288302","0.0-244.0","A1DKS1KI6S93HF","<p style=""font-size: 48px;"">+</p>","","","","","null","allTrialResponses","1500","1","28","img_art/8.jpg","25","I see a city that has been built with the grief and suffering of its inhabitants. City looks bright but the suffering is shown by the dark tones.","Cameron,Nathan,Justin,James,Daniel,Jacob","what's going on here. looks like scary town.,-25,60,20","Enjoy this, it looks like a rushing water pool, surrounded by mountains and buildings, hiding details such as faces.,30,200,20","Interesting to look at, there are many things happening in the painting.,32,280,20","It's very odd and I don't really like it,-30,380,20","Cortez's influence with fair color choices,10,320,20","Very cool! I like this piece,9,340,20","Justin","Interesting to look at, there are many things happening in the painting.,32,280,20","Nathan","Enjoy this, it looks like a rushing water pool, surrounded by mountains and buildings, hiding details such as faces.,30,200,20","Jacob","Very cool! I like this piece,9,340,20","2"
"92080","","survey-text","246","3380391","0.0-245.0-0.0","A1DKS1KI6S93HF","","","","{""Q0"":""I like the simplicity of the picture.  The brushstrokes under the surface make me wonder if there is more to know.""}","","","","","","","","","","","","","","","","","","","","","","",""
"5901.100000023842","","image-slider-response","247","3386295","0.0-246.0","A1DKS1KI6S93HF","","","","","26","","","","","","","","","","","","","","","","","","","","","",""
"null","","image-button-response","248","3391309","0.0-247.0","A1DKS1KI6S93HF","img_art/6.jpg","null","","","","","","","","","","","","","","","","","","","","","","","","",""
"1831","","image-button-response","249","3393144","0.0-248.0","A1DKS1KI6S93HF","img_art/6.jpg","4","","","","","","","","","","","","","","","","","","","","","","","","",""
"4316","","image-button-response","250","3397463","0.0-249.0-0.0","A1DKS1KI6S93HF","img_art/6.jpg","0","","","","","","","","","","","","","","","","","","","","","","","","",""
"5925","","image-button-response","251","3403391","0.0-250.0-0.0","A1DKS1KI6S93HF","img_art/6.jpg","5","","","","","","","","","","","","","","","","","","","","","","","","",""
"null","","html-keyboard-response","252","3404402","0.0-251.0","A1DKS1KI6S93HF","<p style=""font-size: 48px;"">+</p>","","","","","null","allTrialResponses","1000","1","29","img_art/6.jpg","26","I like the simplicity of the picture.  The brushstrokes under the surface make me wonder if there is more to know.","Patrick,Nathan,Justin,Devin,Luis,Jacob","It looks sad and scary at the same time,11,280,20","Not a fan of anything in this,-43,200,20","It's alright. I imagined the peach from James and the Giant Peach.,1,280,20","Looks a bit like a pickle or something?,-16,380,20","I love the representation of death and life.,50,400,20","Is this a leaf?,4,340,20","Luis","I love the representation of death and life.,50,400,20","Patrick","It looks sad and scary at the same time,11,280,20","Jacob","Is this a leaf?,4,340,20","2"
"39264","","survey-text","253","3443674","0.0-252.0-0.0","A1DKS1KI6S93HF","","","","{""Q0"":""I like this. Looks like a bush or tree that has a story to tell.""}","","","","","","","","","","","","","","","","","","","","","","",""
"5564.900000095367","","image-slider-response","254","3449242","0.0-253.0","A1DKS1KI6S93HF","","","","","37","","","","","","","","","","","","","","","","","","","","","",""
"2530","","image-button-response","255","3454255","0.0-254.0","A1DKS1KI6S93HF","img_art/14.jpg","0","","","","","","","","","","","","","","","","","","","","","","","","",""
"3109","","image-button-response","256","3457367","0.0-255.0","A1DKS1KI6S93HF","img_art/14.jpg","2","","","","","","","","","","","","","","","","","","","","","","","","",""
"2939","","image-button-response","257","3460307","0.0-256.0-0.0","A1DKS1KI6S93HF","img_art/14.jpg","4","","","","","","","","","","","","","","","","","","","","","","","","",""
"2098","","image-button-response","258","3462407","0.0-257.0-0.0","A1DKS1KI6S93HF","img_art/14.jpg","0","","","","","","","","","","","","","","","","","","","","","","","","",""
"null","","html-keyboard-response","259","3462908","0.0-258.0","A1DKS1KI6S93HF","<p style=""font-size: 48px;"">+</p>","","","","","null","allTrialResponses","500","1","30","img_art/14.jpg","37","I like this. Looks like a bush or tree that has a story to tell.","Patrick,Corey,Lucas,Kenneth,Luis,Jacob","It uplifts my mood due to the color scheme,32,280,20","its okay. pretty bland but looks like nature,8,260,20","In my opinion it's spectacular.,35,380,20","Its cute, but not my favorite.,8,300,20","Love the assortment of colors and flowers, expressing gentle and caring,50,400,20","I kind of like it!,6,340,20","Lucas","In my opinion it's spectacular.,35,380,20","Luis","Love the assortment of colors and flowers, expressing gentle and caring,50,400,20","Patrick","It uplifts my mood due to the color scheme,32,280,20","2"
"4511","","image-button-response_instructions","260","3467434","0.0-259.0","A1DKS1KI6S93HF","","0","instructions","","","","","","","","","","","","","","","","","","","","","","","",""
"1836","","image-button-response","261","3469278","0.0-260.0","A1DKS1KI6S93HF","","0","","","","","","","","","","","","","","","","","","","","","","","","",""
