"rt","url","trial_type","trial_index","time_elapsed","internal_node_id","participant_id","stimulus","button_pressed","Name","responses","response","key_press","variableName","fixationTime","condition","trial","photo","subjectRating","subjectResponse","agentsNames","agent_1_Response","agent_2_Response","agent_3_Response","agent_4_Response","agent_5_Response","agent_6_Response","kept_1_name","kept_1_response","kept_2_name","kept_2_response","kept_3_name","kept_3_response","errorCounter"
"33455","external_page_harvard.html","external-html","0","33565","0.0-0.0","A1E31V4KC175MR","","","","","","","","","","","","","","","","","","","","","","","","","","",""
"1880","","image-button-response","1","35446","0.0-1.0","A1E31V4KC175MR","","0","","","","","","","","","","","","","","","","","","","","","","","","",""
"2573","","image-button-response","2","38024","0.0-2.0-0.0","A1E31V4KC175MR","","1","phone","","","","","","","","","","","","","","","","","","","","","","","",""
"6836","","survey-text","3","44862","0.0-3.0-0.0","A1E31V4KC175MR","","","","{""Q0"":""A1E31V4KC175MR""}","","","","","","","","","","","","","","","","","","","","","","",""
"11327","","image-button-response_instructions","4","56192","0.0-4.0","A1E31V4KC175MR","","0","instructions","","","","","","","","","","","","","","","","","","","","","","","",""
"11372","","image-button-response_instructions","5","67566","0.0-5.0","A1E31V4KC175MR","img_art/ins/popularity/ins1.png","0","instructions","","","","","","","","","","","","","","","","","","","","","","","",""
"8412","","image-button-response_instructions","6","75979","0.0-6.0","A1E31V4KC175MR","img_art/ins/popularity/ins2.png","0","instructions","","","","","","","","","","","","","","","","","","","","","","","",""
"5179","","image-button-response_instructions","7","81160","0.0-7.0","A1E31V4KC175MR","img_art/ins/popularity/ins2Extreme.png","0","instructions","","","","","","","","","","","","","","","","","","","","","","","",""
"20169","","image-button-response_instructions","8","101330","0.0-8.0","A1E31V4KC175MR","img_art/ins/popularity/ins3KEEPpop.PNG","0","instructions","","","","","","","","","","","","","","","","","","","","","","","",""
"4695","","image-button-response_instructions","9","106026","0.0-9.0","A1E31V4KC175MR","img_art/ins/popularity/ins3ANamepop.PNG","0","instructions","","","","","","","","","","","","","","","","","","","","","","","",""
"3953","","image-button-response_instructions","10","109979","0.0-10.0","A1E31V4KC175MR","img_art/ins/popularity/ins3ARatingpop.png","0","instructions","","","","","","","","","","","","","","","","","","","","","","","",""
"2667","","image-button-response_instructions","11","112648","0.0-11.0","A1E31V4KC175MR","img_art/ins/popularity/ins3ATextpop.png","0","instructions","","","","","","","","","","","","","","","","","","","","","","","",""
"7762","","image-button-response_instructions","12","120411","0.0-12.0","A1E31V4KC175MR","img_art/ins/popularity/ins3ALikespop.png","0","instructions","","","","","","","","","","","","","","","","","","","","","","","",""
"18488","","image-button-response_instructions","13","138901","0.0-13.0","A1E31V4KC175MR","img_art/ins/popularity/ins3KEEPpop.PNG","0","instructions","","","","","","","","","","","","","","","","","","","","","","","",""
"9445","","image-button-response_instructions","14","148347","0.0-14.0","A1E31V4KC175MR","img_art/ins/popularity/ins3_5RED.png","0","instructions","","","","","","","","","","","","","","","","","","","","","","","",""
"4271","","image-button-response_instructions","15","152619","0.0-15.0","A1E31V4KC175MR","img_art/ins/popularity/ins3KEEPpop.PNG","0","instructions","","","","","","","","","","","","","","","","","","","","","","","",""
"13003","","image-button-response_instructions","16","165623","0.0-16.0","A1E31V4KC175MR","img_art/ins/popularity/ins4KEEPpop.PNG","0","instructions","","","","","","","","","","","","","","","","","","","","","","","",""
"4255","","image-button-response_instructions","17","169879","0.0-17.0","A1E31V4KC175MR","img_art/ins/popularity/ins5KEEPpop.PNG","0","instructions","","","","","","","","","","","","","","","","","","","","","","","",""
"1765","","image-button-response_instructions","18","171645","0.0-18.0","A1E31V4KC175MR","","0","instructions","","","","","","","","","","","","","","","","","","","","","","","",""
"6086","","survey-text","19","177759","0.0-19.0-0.0","A1E31V4KC175MR","","","","{""Q0"":""but""}","","","","","","","","","","","","","","","","","","","","","","",""
"14828","","survey-text","20","192588","0.0-20.0-0.0","A1E31V4KC175MR","","","","{""Q0"":""third grade art""}","","","","","","","","","","","","","","","","","","","","","","",""
"3649.7999999523163","","image-slider-response","21","196240","0.0-21.0","A1E31V4KC175MR","","","","","-16","","","","","","","","","","","","","","","","","","","","","",""
"null","","image-button-response","22","201246","0.0-22.0","A1E31V4KC175MR","img_art/ins/1.jpg","null","","","","","","","","","","","","","","","","","","","","","","","","",""
"10682","","image-button-response","23","211931","0.0-23.0","A1E31V4KC175MR","img_art/ins/1.jpg","5","","","","","","","","","","","","","","","","","","","","","","","","",""
"7392","","image-button-response","24","219324","0.0-24.0-0.0","A1E31V4KC175MR","img_art/ins/1.jpg","4","","","","","","","","","","","","","","","","","","","","","","","","",""
"3821","","image-button-response","25","223148","0.0-25.0-0.0","A1E31V4KC175MR","img_art/ins/1.jpg","0","","","","","","","","","","","","","","","","","","","","","","","","",""
"null","","html-keyboard-response","26","223663","0.0-26.0","A1E31V4KC175MR","<p style=""font-size: 48px;"">+</p>","","","","","null","allTrialResponses","500","1","-2","img_art/ins/1.jpg","-16","third grade art","Adam,Alex,Ben,Carl,Daniel,Jack","Seems like doodles,-20,20,20","very creative work.,36,40,20","This color reminds me of poo,-46,60,20","very calming artwork,42,80,20","It looks like a murder scene.,-48,100,20","I like the sophisticated brushwork,40,120,20","Jack","I like the sophisticated brushwork,40,120,20","Daniel","It looks like a murder scene.,-48,100,20","Adam","Seems like doodles,-20,20,20","0"
"11550","","survey-text","27","235222","0.0-27.0-0.0","A1E31V4KC175MR","","","","{""Q0"":""textured""}","","","","","","","","","","","","","","","","","","","","","","",""
"4164.300000071526","","image-slider-response","28","239388","0.0-28.0","A1E31V4KC175MR","","","","","4","","","","","","","","","","","","","","","","","","","","","",""
"3988","","image-button-response","29","244398","0.0-29.0","A1E31V4KC175MR","img_art/ins/2.jpg","1","","","","","","","","","","","","","","","","","","","","","","","","",""
"1055","","image-button-response","30","245456","0.0-30.0","A1E31V4KC175MR","img_art/ins/2.jpg","1","","","","","","","","","","","","","","","","","","","","","","","","",""
"8012","","image-button-response","31","253471","0.0-31.0-0.0","A1E31V4KC175MR","img_art/ins/2.jpg","5","","","","","","","","","","","","","","","","","","","","","","","","",""
"15200","","image-button-response","32","268673","0.0-32.0-0.0","A1E31V4KC175MR","img_art/ins/2.jpg","3","","","","","","","","","","","","","","","","","","","","","","","","",""
"null","","html-keyboard-response","33","270175","0.0-33.0","A1E31V4KC175MR","<p style=""font-size: 48px;"">+</p>","","","","","null","allTrialResponses","1500","1","-1","img_art/ins/2.jpg","4","textured","Adam,John,Kyle,James,Daniel,Jack","too much color,-18,20,20","love the texture of paint,48,160,20","Idk, it is just annoying,-32,180,20","looks too angry,-50,140,20","One of my pet peevs,-48,100,20","I would never be able to compose a sophisticated pallete like this,48,120,20","John","love the texture of paint,48,160,20","Jack","I would never be able to compose a sophisticated pallete like this,48,120,20","James","looks too angry,-50,140,20","0"
"11459","","survey-text","34","281640","0.0-34.0-0.0","A1E31V4KC175MR","","","","{""Q0"":""Brilliant""}","","","","","","","","","","","","","","","","","","","","","","",""
"3886.7000000476837","","image-slider-response","35","285528","0.0-35.0","A1E31V4KC175MR","","","","","32","","","","","","","","","","","","","","","","","","","","","",""
"null","","image-button-response","36","290542","0.0-36.0","A1E31V4KC175MR","img_art/ins/3.jpg","null","","","","","","","","","","","","","","","","","","","","","","","","",""
"8642","","image-button-response","37","299186","0.0-37.0","A1E31V4KC175MR","img_art/ins/3.jpg","2","","","","","","","","","","","","","","","","","","","","","","","","",""
"3508","","image-button-response","38","302697","0.0-38.0-0.0","A1E31V4KC175MR","img_art/ins/3.jpg","0","","","","","","","","","","","","","","","","","","","","","","","","",""
"1466","","image-button-response","39","304165","0.0-39.0-0.0","A1E31V4KC175MR","img_art/ins/3.jpg","0","","","","","","","","","","","","","","","","","","","","","","","","",""
"3683","","image-button-response","40","314003","0.0-39.1-0.1","A1E31V4KC175MR","img_art/ins/3.jpg","5","","","","","","","","","","","","","","","","","","","","","","","","",""
"null","","html-keyboard-response","41","314506","0.0-40.0","A1E31V4KC175MR","<p style=""font-size: 48px;"">+</p>","","","","","null","allTrialResponses","500","1","0","img_art/ins/3.jpg","32","Brilliant","Sam,John,Mike,James,Ron,Jack","I can feel a rainy day from this painting,18,240,20","I like the overlapping of brushes,41,160,20","enjoy the different shades of blue,22,200,20","My worst nightmare,-42,140,20","It looks depressing,-26,220,20","I feel connected to the artist,40,120,20","Mike","enjoy the different shades of blue,22,200,20","Sam","I can feel a rainy day from this painting,18,240,20","Jack","I feel connected to the artist,40,120,20","2"
"4350","","image-button-response_instructions","42","318865","0.0-41.0","A1E31V4KC175MR","","0","instructions","","","","","","","","","","","","","","","","","","","","","","","",""
"9351","","survey-likert","43","328217","0.0-42.0-0.0","A1E31V4KC175MR","","","","{""Q0"":"""",""Q1"":0,""Q2"":1}","","","","","","","","","","","","","","","","","","","","","","",""
"5296","","survey-text","44","333518","0.0-43.0-0.0","A1E31V4KC175MR","","","","{""Q0"":""rock""}","","","","","","","","","","","","","","","","","","","","","","",""
"14479","","survey-text","45","347999","0.0-44.0-0.0","A1E31V4KC175MR","","","","{""Q0"":""Armageddon""}","","","","","","","","","","","","","","","","","","","","","","",""
"3459.9000000953674","","image-slider-response","46","351461","0.0-45.0","A1E31V4KC175MR","","","","","-24","","","","","","","","","","","","","","","","","","","","","",""
"null","","image-button-response","47","356492","0.0-46.0","A1E31V4KC175MR","img_art/21.jpg","null","","","","","","","","","","","","","","","","","","","","","","","","",""
"7071","","image-button-response","48","363566","0.0-47.0","A1E31V4KC175MR","img_art/21.jpg","5","","","","","","","","","","","","","","","","","","","","","","","","",""
"8291","","image-button-response","49","371860","0.0-48.0-0.0","A1E31V4KC175MR","img_art/21.jpg","0","","","","","","","","","","","","","","","","","","","","","","","","",""
"7953","","image-button-response","50","379816","0.0-49.0-0.0","A1E31V4KC175MR","img_art/21.jpg","1","","","","","","","","","","","","","","","","","","","","","","","","",""
"null","","html-keyboard-response","51","380318","0.0-50.0","A1E31V4KC175MR","<p style=""font-size: 48px;"">+</p>","","","","","null","allTrialResponses","500","1","1","img_art/21.jpg","-24","Armageddon","Connor,Bryce,Ryan,Trevor,Vincent,Nicholas","Love the colors and hue, ocean,38,240,20","Nothing exciting in this one.,-36,20,20","Very calming and nice to look at,30,380,20","it has a lot of happy colors and it's very classic looking,35,280,20","Love the colors have to say this is my favorite above all,37,360,20","Love the colors and the relationship between the light and storm,50,240,20","Nicholas","Love the colors and the relationship between the light and storm,50,240,20","Connor","Love the colors and hue, ocean,38,240,20","Bryce","Nothing exciting in this one.,-36,20,20","2"
"15621","","survey-text","52","395950","0.0-51.0-0.0","A1E31V4KC175MR","","","","{""Q0"":""Looks like my niece did it""}","","","","","","","","","","","","","","","","","","","","","","",""
"2970.3000000715256","","image-slider-response","53","398922","0.0-52.0","A1E31V4KC175MR","","","","","3","","","","","","","","","","","","","","","","","","","","","",""
"null","","image-button-response","54","403939","0.0-53.0","A1E31V4KC175MR","img_art/26.jpg","null","","","","","","","","","","","","","","","","","","","","","","","","",""
"2203","","image-button-response","55","406144","0.0-54.0","A1E31V4KC175MR","img_art/26.jpg","2","","","","","","","","","","","","","","","","","","","","","","","","",""
"7093","","image-button-response","56","413238","0.0-55.0-0.0","A1E31V4KC175MR","img_art/26.jpg","3","","","","","","","","","","","","","","","","","","","","","","","","",""
"1249","","image-button-response","57","414490","0.0-56.0-0.0","A1E31V4KC175MR","img_art/26.jpg","4","","","","","","","","","","","","","","","","","","","","","","","","",""
"null","","html-keyboard-response","58","415998","0.0-57.0","A1E31V4KC175MR","<p style=""font-size: 48px;"">+</p>","","","","","null","allTrialResponses","1500","1","2","img_art/26.jpg","3","Looks like my niece did it","Connor,Bryce,Jared,Matthew,Noah,Nicholas","City scene in a park,23,240,20","Love the colors in this one.,22,20,20","soothing and subtle,1,400,20","Telented watercolor artist or second grader.,18,120,20","fairly neutral, really,8,260,20","I like the colors and trees. Seems cheap vintage retail store art but i love it anyways,50,240,20","Jared","soothing and subtle,1,400,20","Matthew","Telented watercolor artist or second grader.,18,120,20","Noah","fairly neutral, really,8,260,20","2"
"27699","","survey-text","59","443704","0.0-58.0-0.0","A1E31V4KC175MR","","","","{""Q0"":""Like when you were four and just scribbled all over the page""}","","","","","","","","","","","","","","","","","","","","","","",""
"3063.600000023842","","image-slider-response","60","446770","0.0-59.0","A1E31V4KC175MR","","","","","-9","","","","","","","","","","","","","","","","","","","","","",""
"null","","image-button-response","61","451793","0.0-60.0","A1E31V4KC175MR","img_art/1.jpg","null","","","","","","","","","","","","","","","","","","","","","","","","",""
"10453","","image-button-response","62","462249","0.0-61.0","A1E31V4KC175MR","img_art/1.jpg","5","","","","","","","","","","","","","","","","","","","","","","","","",""
"10782","","image-button-response","63","473032","0.0-62.0-0.0","A1E31V4KC175MR","img_art/1.jpg","2","","","","","","","","","","","","","","","","","","","","","","","","",""
"3762","","image-button-response","64","476796","0.0-63.0-0.0","A1E31V4KC175MR","img_art/1.jpg","4","","","","","","","","","","","","","","","","","","","","","","","","",""
"null","","html-keyboard-response","65","477298","0.0-64.0","A1E31V4KC175MR","<p style=""font-size: 48px;"">+</p>","","","","","null","allTrialResponses","500","1","3","img_art/1.jpg","-9","Like when you were four and just scribbled all over the page","Kenneth,Daniel,Jared,Matthew,Noah,Brett","I love colorful photos and I like this one a lot.,25,300,20","Nice colors with some 3D effects,15,320,20","there isnt anything clear to look at,-2,400,20","More passable, colorful, abstract.,13,120,20","the bright colours evoke the 90s, and not their best part,-10,260,20","I don't know how I feel about this,1,360,20","Brett","I don't know how I feel about this,1,360,20","Jared","there isnt anything clear to look at,-2,400,20","Noah","the bright colours evoke the 90s, and not their best part,-10,260,20","2"
"15225","","survey-text","66","492534","0.0-65.0-0.0","A1E31V4KC175MR","","","","{""Q0"":""Missed a spot""}","","","","","","","","","","","","","","","","","","","","","","",""
"3948.5","","image-slider-response","67","496484","0.0-66.0","A1E31V4KC175MR","","","","","6","","","","","","","","","","","","","","","","","","","","","",""
"null","","image-button-response","68","501497","0.0-67.0","A1E31V4KC175MR","img_art/23.jpg","null","","","","","","","","","","","","","","","","","","","","","","","","",""
"12891","","image-button-response","69","514390","0.0-68.0","A1E31V4KC175MR","img_art/23.jpg","4","","","","","","","","","","","","","","","","","","","","","","","","",""
"2220","","image-button-response","70","516613","0.0-69.0-0.0","A1E31V4KC175MR","img_art/23.jpg","0","","","","","","","","","","","","","","","","","","","","","","","","",""
"4612","","image-button-response","71","521226","0.0-70.0-0.0","A1E31V4KC175MR","img_art/23.jpg","2","","","","","","","","","","","","","","","","","","","","","","","","",""
"null","","html-keyboard-response","72","522738","0.0-71.0","A1E31V4KC175MR","<p style=""font-size: 48px;"">+</p>","","","","","null","allTrialResponses","1500","1","4","img_art/23.jpg","6","Missed a spot","Jack,Jacob,Jared,Andrew,Noah,Brett","awesome colors. love the white drawing the eye to the center. oddly comforting.,50,320,20","This is very cool!,24,340,20","it makes me aggitated,-21,400,20","The color contrast makes me happy,40,160,20","the pattern of colours imbues in me a sense of infinity, which I find soothing,10,260,20","Universal celebration,40,360,20","Noah","the pattern of colours imbues in me a sense of infinity, which I find soothing,10,260,20","Jack","awesome colors. love the white drawing the eye to the center. oddly comforting.,50,320,20","Jared","it makes me aggitated,-21,400,20","2"
"9636","","survey-text","73","532380","0.0-72.0-0.0","A1E31V4KC175MR","","","","{""Q0"":""I like it""}","","","","","","","","","","","","","","","","","","","","","","",""
"2744","","image-slider-response","74","535126","0.0-73.0","A1E31V4KC175MR","","","","","34","","","","","","","","","","","","","","","","","","","","","",""
"null","","image-button-response","75","540130","0.0-74.0","A1E31V4KC175MR","img_art/13.jpg","null","","","","","","","","","","","","","","","","","","","","","","","","",""
"8766","","image-button-response","76","548899","0.0-75.0","A1E31V4KC175MR","img_art/13.jpg","5","","","","","","","","","","","","","","","","","","","","","","","","",""
"2738","","image-button-response","77","551638","0.0-76.0-0.0","A1E31V4KC175MR","img_art/13.jpg","0","","","","","","","","","","","","","","","","","","","","","","","","",""
"6248","","image-button-response","78","557889","0.0-77.0-0.0","A1E31V4KC175MR","img_art/13.jpg","3","","","","","","","","","","","","","","","","","","","","","","","","",""
"null","","html-keyboard-response","79","558390","0.0-78.0","A1E31V4KC175MR","<p style=""font-size: 48px;"">+</p>","","","","","null","allTrialResponses","500","1","5","img_art/13.jpg","34","I like it","Jack,Caleb,Jared,Cody,Noah,Dustin","exciting & chaotic. love the colors.,50,320,20","Lots of depth and character.,30,40,20","the blues are soothing but the splatters are too much,-3,400,20","It's pretty ...........,41,180,20","evokes a dampening feeling,-9,260,20","Cool and calming colors. I like splatter art.,10,20,20","Dustin","Cool and calming colors. I like splatter art.,10,20,20","Jack","exciting & chaotic. love the colors.,50,320,20","Cody","It's pretty ...........,41,180,20","2"
"4383","","survey-text","80","562796","0.0-79.0-0.0","A1E31V4KC175MR","","","","{""Q0"":""sky""}","","","","","","","","","","","","","","","","","","","","","","",""
"18257","","survey-text","81","581055","0.0-80.0-0.0","A1E31V4KC175MR","","","","{""Q0"":""what do you see here?""}","","","","","","","","","","","","","","","","","","","","","","",""
"2566.100000023842","","image-slider-response","82","583623","0.0-81.0","A1E31V4KC175MR","","","","","14","","","","","","","","","","","","","","","","","","","","","",""
"null","","image-button-response","83","588631","0.0-82.0","A1E31V4KC175MR","img_art/11.jpg","null","","","","","","","","","","","","","","","","","","","","","","","","",""
"13459","","image-button-response","84","602093","0.0-83.0","A1E31V4KC175MR","img_art/11.jpg","3","","","","","","","","","","","","","","","","","","","","","","","","",""
"1536","","image-button-response","85","603631","0.0-84.0-0.0","A1E31V4KC175MR","img_art/11.jpg","0","","","","","","","","","","","","","","","","","","","","","","","","",""
"22524","","image-button-response","86","626157","0.0-85.0-0.0","A1E31V4KC175MR","img_art/11.jpg","1","","","","","","","","","","","","","","","","","","","","","","","","",""
"null","","html-keyboard-response","87","626665","0.0-86.0","A1E31V4KC175MR","<p style=""font-size: 48px;"">+</p>","","","","","null","allTrialResponses","500","1","6","img_art/11.jpg","14","what do you see here?","Jack,Ethan,Cameron,Cody,Seth,Dustin","makes me think of city highways & bridges on a rainy, foggy day. I like the melancholy it evokes.,43,320,20","I don't care for the color combo. The wavy lines give dimension though.,-13,120,20","futuristic arching railways,25,60,20","Pretty, interesting, feels like a city, feels like home,50,180,20","It makes my head feel dizzy. So I rated it lower.,-25,60,20","Dark and dreary. Makes me think of rain/water. I see grey clouds and high waves. Looks unsettling.,-20,20,20","Cody","Pretty, interesting, feels like a city, feels like home,50,180,20","Jack","makes me think of city highways & bridges on a rainy, foggy day. I like the melancholy it evokes.,43,320,20","Ethan","I don't care for the color combo. The wavy lines give dimension though.,-13,120,20","2"
"13154","","survey-text","88","639829","0.0-87.0-0.0","A1E31V4KC175MR","","","","{""Q0"":""A guitar on lsd""}","","","","","","","","","","","","","","","","","","","","","","",""
"2810.600000023842","","image-slider-response","89","642641","0.0-88.0","A1E31V4KC175MR","","","","","8","","","","","","","","","","","","","","","","","","","","","",""
"null","","image-button-response","90","647656","0.0-89.0","A1E31V4KC175MR","img_art/10.jpg","null","","","","","","","","","","","","","","","","","","","","","","","","",""
"26178","","image-button-response","91","673837","0.0-90.0","A1E31V4KC175MR","img_art/10.jpg","2","","","","","","","","","","","","","","","","","","","","","","","","",""
"3740","","image-button-response","92","677579","0.0-91.0-0.0","A1E31V4KC175MR","img_art/10.jpg","0","","","","","","","","","","","","","","","","","","","","","","","","",""
"4958","","image-button-response","93","682539","0.0-92.0-0.0","A1E31V4KC175MR","img_art/10.jpg","3","","","","","","","","","","","","","","","","","","","","","","","","",""
"null","","html-keyboard-response","94","683042","0.0-93.0","A1E31V4KC175MR","<p style=""font-size: 48px;"">+</p>","","","","","null","allTrialResponses","500","1","7","img_art/10.jpg","8","A guitar on lsd","Jack,Ethan,Hunter,Cody,Adam,Spencer","this piece is okay. I wish it was more colorful, but it is certainly intriguing.,23,320,20","The flow of lines is off. There are curvy and straight angry lines. It's not flattering at all.,-27,120,20","shapes are appealing/relationship between the beige square and the black lines,24,240,20","Feels musical .....,40,180,20","I like the contrast,10,40,20","Dark with no object, looks like experimentation, slightly like a storm on the ocean,-21,120,20","Hunter","shapes are appealing/relationship between the beige square and the black lines,24,240,20","Jack","this piece is okay. I wish it was more colorful, but it is certainly intriguing.,23,320,20","Cody","Feels musical .....,40,180,20","2"
"7927","","survey-text","95","690980","0.0-94.0-0.0","A1E31V4KC175MR","","","","{""Q0"":""Classical""}","","","","","","","","","","","","","","","","","","","","","","",""
"3608.4000000953674","","image-slider-response","96","694590","0.0-95.0","A1E31V4KC175MR","","","","","22","","","","","","","","","","","","","","","","","","","","","",""
"null","","image-button-response","97","699598","0.0-96.0","A1E31V4KC175MR","img_art/17.jpg","null","","","","","","","","","","","","","","","","","","","","","","","","",""
"13438","","image-button-response","98","713039","0.0-97.0","A1E31V4KC175MR","img_art/17.jpg","0","","","","","","","","","","","","","","","","","","","","","","","","",""
"7550","","image-button-response","99","720591","0.0-98.0-0.0","A1E31V4KC175MR","img_art/17.jpg","3","","","","","","","","","","","","","","","","","","","","","","","","",""
"1636","","image-button-response","100","722229","0.0-99.0-0.0","A1E31V4KC175MR","img_art/17.jpg","5","","","","","","","","","","","","","","","","","","","","","","","","",""
"null","","html-keyboard-response","101","723231","0.0-100.0","A1E31V4KC175MR","<p style=""font-size: 48px;"">+</p>","","","","","null","allTrialResponses","1000","1","8","img_art/17.jpg","22","Classical","Jack,Chase,Hunter,Cody,William,Travis","stunning. makes me feel happy, hopeful, serene, and a little wistful.,50,320,20","It's okay, I just don't see much too it.,7,120,20","impressive attention to subtleties,15,240,20","Love the colors and the movement,46,180,20","love the wispyness of it,34,380,20","Very pretty...the colors and good and flow well.,33,260,20","Jack","stunning. makes me feel happy, hopeful, serene, and a little wistful.,50,320,20","Cody","Love the colors and the movement,46,180,20","Travis","Very pretty...the colors and good and flow well.,33,260,20","2"
"16887","","survey-text","102","740124","0.0-101.0-0.0","A1E31V4KC175MR","","","","{""Q0"":""Caught my hand in the pasta maker again""}","","","","","","","","","","","","","","","","","","","","","","",""
"7362.300000071526","","image-slider-response","103","747489","0.0-102.0","A1E31V4KC175MR","","","","","-18","","","","","","","","","","","","","","","","","","","","","",""
"null","","image-button-response","104","752497","0.0-103.0","A1E31V4KC175MR","img_art/4.jpg","null","","","","","","","","","","","","","","","","","","","","","","","","",""
"20819","","image-button-response","105","773319","0.0-104.0","A1E31V4KC175MR","img_art/4.jpg","2","","","","","","","","","","","","","","","","","","","","","","","","",""
"6676","","image-button-response","106","779997","0.0-105.0-0.0","A1E31V4KC175MR","img_art/4.jpg","0","","","","","","","","","","","","","","","","","","","","","","","","",""
"2320","","image-button-response","107","782319","0.0-106.0-0.0","A1E31V4KC175MR","img_art/4.jpg","5","","","","","","","","","","","","","","","","","","","","","","","","",""
"null","","html-keyboard-response","108","783321","0.0-107.0","A1E31V4KC175MR","<p style=""font-size: 48px;"">+</p>","","","","","null","allTrialResponses","1000","1","9","img_art/4.jpg","-18","Caught my hand in the pasta maker again","Jack,Angel,Ian,Cody,Alejandro,Travis","creepy, looks like a deformed hand, but the background is pretty,5,320,20","I feel kind of guilty looking at this, like I'm receiving a reward I don't I deserve.,-10,180,20","I just don't understand this one at all, I do not like it,-43,260,20","Interesting but maybe a little creepy,0,180,20","Looks like finger nails from the Guinness world record book.,-30,80,20","I don't like this...a mustardy scibble.,-47,260,20","Ian","I just don't understand this one at all, I do not like it,-43,260,20","Jack","creepy, looks like a deformed hand, but the background is pretty,5,320,20","Travis","I don't like this...a mustardy scibble.,-47,260,20","2"
"32857","","survey-text","109","816190","0.0-108.0-0.0","A1E31V4KC175MR","","","","{""Q0"":""now we are at middle school watercolor at least""}","","","","","","","","","","","","","","","","","","","","","","",""
"2872.399999976158","","image-slider-response","110","819064","0.0-109.0","A1E31V4KC175MR","","","","","11","","","","","","","","","","","","","","","","","","","","","",""
"null","","image-button-response","111","824074","0.0-110.0","A1E31V4KC175MR","img_art/24.jpg","null","","","","","","","","","","","","","","","","","","","","","","","","",""
"10691","","image-button-response","112","834767","0.0-111.0","A1E31V4KC175MR","img_art/24.jpg","4","","","","","","","","","","","","","","","","","","","","","","","","",""
"716","","image-button-response","113","835485","0.0-112.0-0.0","A1E31V4KC175MR","img_art/24.jpg","5","","","","","","","","","","","","","","","","","","","","","","","","",""
"2966","","image-button-response","114","838452","0.0-113.0-0.0","A1E31V4KC175MR","img_art/24.jpg","0","","","","","","","","","","","","","","","","","","","","","","","","",""
"null","","html-keyboard-response","115","838954","0.0-114.0","A1E31V4KC175MR","<p style=""font-size: 48px;"">+</p>","","","","","null","allTrialResponses","500","1","10","img_art/24.jpg","11","now we are at middle school watercolor at least","Jack,Charles,Ian,Shawn,Zachary,Travis","colors are a bit cramped together. really unique take on a waterfall though.,32,320,20","It just feels a little bland for me,-23,100,20","I find the colors work really well. It's very pretty but I have no idea as what it is.,34,260,20","Pretty but cheesy,-15,100,20","Looks like a beautiful stream rolling through terrain of rocks and flowers.,43,400,20","I like it...looks like a waterfall.,11,260,20","Zachary","Looks like a beautiful stream rolling through terrain of rocks and flowers.,43,400,20","Travis","I like it...looks like a waterfall.,11,260,20","Jack","colors are a bit cramped together. really unique take on a waterfall though.,32,320,20","2"
"3935","","survey-text","116","842910","0.0-115.0-0.0","A1E31V4KC175MR","","","","{""Q0"":""our""}","","","","","","","","","","","","","","","","","","","","","","",""
"25153","","survey-text","117","868064","0.0-116.0-0.0","A1E31V4KC175MR","","","","{""Q0"":""I bet this is supposed to be genius...but it's not""}","","","","","","","","","","","","","","","","","","","","","","",""
"2748.399999976158","","image-slider-response","118","870814","0.0-117.0","A1E31V4KC175MR","","","","","-14","","","","","","","","","","","","","","","","","","","","","",""
"null","","image-button-response","119","875825","0.0-118.0","A1E31V4KC175MR","img_art/3.jpg","null","","","","","","","","","","","","","","","","","","","","","","","","",""
"2921","","image-button-response","120","878748","0.0-119.0","A1E31V4KC175MR","img_art/3.jpg","2","","","","","","","","","","","","","","","","","","","","","","","","",""
"46583","","image-button-response","121","925333","0.0-120.0-0.0","A1E31V4KC175MR","img_art/3.jpg","5","","","","","","","","","","","","","","","","","","","","","","","","",""
"809","","image-button-response","122","926145","0.0-121.0-0.0","A1E31V4KC175MR","img_art/3.jpg","1","","","","","","","","","","","","","","","","","","","","","","","","",""
"null","","html-keyboard-response","123","927647","0.0-122.0","A1E31V4KC175MR","<p style=""font-size: 48px;"">+</p>","","","","","null","allTrialResponses","1500","1","11","img_art/3.jpg","-14","I bet this is supposed to be genius...but it's not","Jack,Tristan,Brendan,Richard,Zachary,Travis","unique & stylized. interesting. another one I could keep staring at.,50,320,20","i like the colors particulairly the contrast of foreground to background. Exciting and thoughtful.,10,300,20","i really cant get it,-44,340,20","7th grade art, not much effort to do this.,-39,340,20","Too red and chaotic. Not calming.,-41,400,20","I hate this...just a scribble of red.,-50,260,20","Brendan","i really cant get it,-44,340,20","Travis","I hate this...just a scribble of red.,-50,260,20","Tristan","i like the colors particulairly the contrast of foreground to background. Exciting and thoughtful.,10,300,20","2"
"42760","","survey-text","124","970415","0.0-123.0-0.0","A1E31V4KC175MR","","","","{""Q0"":""colors are too similar and blended together""}","","","","","","","","","","","","","","","","","","","","","","",""
"3464.1999999284744","","image-slider-response","125","973881","0.0-124.0","A1E31V4KC175MR","","","","","-7","","","","","","","","","","","","","","","","","","","","","",""
"2020","","image-button-response","126","978887","0.0-125.0","A1E31V4KC175MR","img_art/28.jpg","0","","","","","","","","","","","","","","","","","","","","","","","","",""
"736","","image-button-response","127","979627","0.0-126.0","A1E31V4KC175MR","img_art/28.jpg","0","","","","","","","","","","","","","","","","","","","","","","","","",""
"9200","","image-button-response","128","988829","0.0-127.0-0.0","A1E31V4KC175MR","img_art/28.jpg","4","","","","","","","","","","","","","","","","","","","","","","","","",""
"1504","","image-button-response","129","990335","0.0-128.0-0.0","A1E31V4KC175MR","img_art/28.jpg","2","","","","","","","","","","","","","","","","","","","","","","","","",""
"null","","html-keyboard-response","130","991341","0.0-129.0","A1E31V4KC175MR","<p style=""font-size: 48px;"">+</p>","","","","","null","allTrialResponses","1000","1","12","img_art/28.jpg","-7","colors are too similar and blended together","Jesse,Tristan,Brendan,Elijah,Jose,Travis","Just all blurs together for me. No substance.,-23,80,20","Contemplative and a little dark. The muted colors and subject create a sense of mystery.,15,300,20","i dont understand it,-34,340,20","The colors are depressing,-5,80,20","Eh it's just kinda brown and muddy and not very nice looking,-18,200,20","Hate it...brown and drab,-37,260,20","Jesse","Just all blurs together for me. No substance.,-23,80,20","Jose","Eh it's just kinda brown and muddy and not very nice looking,-18,200,20","Brendan","i dont understand it,-34,340,20","2"
"29368","","survey-text","131","1020717","0.0-130.0-0.0","A1E31V4KC175MR","","","","{""Q0"":""Haunting....grandma, is that you?""}","","","","","","","","","","","","","","","","","","","","","","",""
"3503.899999976158","","image-slider-response","132","1024223","0.0-131.0","A1E31V4KC175MR","","","","","3","","","","","","","","","","","","","","","","","","","","","",""
"null","","image-button-response","133","1029240","0.0-132.0","A1E31V4KC175MR","img_art/25.jpg","null","","","","","","","","","","","","","","","","","","","","","","","","",""
"14042","","image-button-response","134","1043287","0.0-133.0","A1E31V4KC175MR","img_art/25.jpg","0","","","","","","","","","","","","","","","","","","","","","","","","",""
"2702","","image-button-response","135","1045991","0.0-134.0-0.0","A1E31V4KC175MR","img_art/25.jpg","2","","","","","","","","","","","","","","","","","","","","","","","","",""
"4032","","image-button-response","136","1050025","0.0-135.0-0.0","A1E31V4KC175MR","img_art/25.jpg","4","","","","","","","","","","","","","","","","","","","","","","","","",""
"null","","html-keyboard-response","137","1050539","0.0-136.0","A1E31V4KC175MR","<p style=""font-size: 48px;"">+</p>","","","","","null","allTrialResponses","500","1","13","img_art/25.jpg","3","Haunting....grandma, is that you?","Jesse,Dakota,Brendan,Isaiah,Jose,Brandon","Creates a bit of fear in me for some reason,-26,80,20","I think of death,-28,280,20","is this an ancient woman?,-16,340,20","I feel little to no emotion looking at this painting.,0,300,20","That's pretty awesome. I love the green and black combo, reminds me of one of those cartoon creepy movies,47,200,20","Reminds me of cave drawings,21,320,20","Jesse","Creates a bit of fear in me for some reason,-26,80,20","Brendan","is this an ancient woman?,-16,340,20","Jose","That's pretty awesome. I love the green and black combo, reminds me of one of those cartoon creepy movies,47,200,20","2"
"22076","","survey-text","138","1072623","0.0-137.0-0.0","A1E31V4KC175MR","","","","{""Q0"":""i think this is supposed to be a masterpiece""}","","","","","","","","","","","","","","","","","","","","","","",""
"2937.600000023842","","image-slider-response","139","1075563","0.0-138.0","A1E31V4KC175MR","","","","","-13","","","","","","","","","","","","","","","","","","","","","",""
"null","","image-button-response","140","1080565","0.0-139.0","A1E31V4KC175MR","img_art/22.jpg","null","","","","","","","","","","","","","","","","","","","","","","","","",""
"13067","","image-button-response","141","1093635","0.0-140.0","A1E31V4KC175MR","img_art/22.jpg","5","","","","","","","","","","","","","","","","","","","","","","","","",""
"4498","","image-button-response","142","1098135","0.0-141.0-0.0","A1E31V4KC175MR","img_art/22.jpg","0","","","","","","","","","","","","","","","","","","","","","","","","",""
"3284","","image-button-response","143","1101421","0.0-142.0-0.0","A1E31V4KC175MR","img_art/22.jpg","1","","","","","","","","","","","","","","","","","","","","","","","","",""
"null","","html-keyboard-response","144","1102925","0.0-143.0","A1E31V4KC175MR","<p style=""font-size: 48px;"">+</p>","","","","","null","allTrialResponses","1500","1","14","img_art/22.jpg","-13","i think this is supposed to be a masterpiece","Jesse,Nathan,Brendan,Dylan,Jose,Taylor","I usually dont like blurry pieces but the colors are amazing in this,14,80,20","A bit colorful, but slightly enjoyable, almost gives off castle/sunset vibes,10,200,20","its just ugly for me,-50,340,20","The colors in this picture are nice.,32,40,20","Cool squares but what's the circle?,38,200,20","Looks like the kind of art I would see at the doctor's office.,-5,200,20","Taylor","Looks like the kind of art I would see at the doctor's office.,-5,200,20","Jesse","I usually dont like blurry pieces but the colors are amazing in this,14,80,20","Nathan","A bit colorful, but slightly enjoyable, almost gives off castle/sunset vibes,10,200,20","2"
"15790","","survey-text","145","1118723","0.0-144.0-0.0","A1E31V4KC175MR","","","","{""Q0"":""I could put this on my wall""}","","","","","","","","","","","","","","","","","","","","","","",""
"6159.900000095367","","image-slider-response","146","1124885","0.0-145.0","A1E31V4KC175MR","","","","","28","","","","","","","","","","","","","","","","","","","","","",""
"null","","image-button-response","147","1129888","0.0-146.0","A1E31V4KC175MR","img_art/12.jpg","null","","","","","","","","","","","","","","","","","","","","","","","","",""
"3422","","image-button-response","148","1133313","0.0-147.0","A1E31V4KC175MR","img_art/12.jpg","1","","","","","","","","","","","","","","","","","","","","","","","","",""
"5798","","image-button-response","149","1139113","0.0-148.0-0.0","A1E31V4KC175MR","img_art/12.jpg","4","","","","","","","","","","","","","","","","","","","","","","","","",""
"16193","","image-button-response","150","1155309","0.0-149.0-0.0","A1E31V4KC175MR","img_art/12.jpg","5","","","","","","","","","","","","","","","","","","","","","","","","",""
"null","","html-keyboard-response","151","1156325","0.0-150.0","A1E31V4KC175MR","<p style=""font-size: 48px;"">+</p>","","","","","null","allTrialResponses","1000","1","15","img_art/12.jpg","28","I could put this on my wall","Jesse,Nathan,Evan,James,Bryan,Taylor","Just confuses me overall,-11,80,20","Kind of interesting, seems almost nostalgic in a way to me.,10,200,20","It reminds me of the documentary Paris is Burning, though I'm not sure why,11,140,20","Don't like it or despise it,1,380,20","Love the colors & the abstractness.,31,400,20","Just wish it was more colorful.,20,200,20","Nathan","Kind of interesting, seems almost nostalgic in a way to me.,10,200,20","Bryan","Love the colors & the abstractness.,31,400,20","Taylor","Just wish it was more colorful.,20,200,20","2"
"4975","","survey-text","152","1161313","0.0-151.0-0.0","A1E31V4KC175MR","","","","{""Q0"":""course""}","","","","","","","","","","","","","","","","","","","","","","",""
"26048","","survey-text","153","1187363","0.0-152.0-0.0","A1E31V4KC175MR","","","","{""Q0"":""why did that teddy bear kill all the animals?""}","","","","","","","","","","","","","","","","","","","","","","",""
"2764.2999999523163","","image-slider-response","154","1190129","0.0-153.0","A1E31V4KC175MR","","","","","-5","","","","","","","","","","","","","","","","","","","","","",""
"null","","image-button-response","155","1195145","0.0-154.0","A1E31V4KC175MR","img_art/16.jpg","null","","","","","","","","","","","","","","","","","","","","","","","","",""
"25859","","image-button-response","156","1221007","0.0-155.0","A1E31V4KC175MR","img_art/16.jpg","4","","","","","","","","","","","","","","","","","","","","","","","","",""
"21712","","image-button-response","157","1242721","0.0-156.0-0.0","A1E31V4KC175MR","img_art/16.jpg","0","","","","","","","","","","","","","","","","","","","","","","","","",""
"1098","","image-button-response","158","1243821","0.0-157.0-0.0","A1E31V4KC175MR","img_art/16.jpg","2","","","","","","","","","","","","","","","","","","","","","","","","",""
"null","","html-keyboard-response","159","1244823","0.0-158.0","A1E31V4KC175MR","<p style=""font-size: 48px;"">+</p>","","","","","null","allTrialResponses","1000","1","16","img_art/16.jpg","-5","why did that teddy bear kill all the animals?","Sean,Nathan,Adrian,Tyler,Bryan,Taylor","my reaction is that the picture is creepy,-19,40,20","I enjoy how slightly strange this is, while seeming to still have some message,20,200,20","It's depressing. Probably achieved its goal. But I wouldn't want it hanging in my home.,-31,60,20","Pop art, Tate Modern horse dung.,-50,320,20","Something terrible happened. Either the figure on the right is the victim or another shredded toy.,-49,400,20","It is sick to put a teddy bear and a gun on the same piece of canvas.,-40,200,20","Bryan","Something terrible happened. Either the figure on the right is the victim or another shredded toy.,-49,400,20","Sean","my reaction is that the picture is creepy,-19,40,20","Adrian","It's depressing. Probably achieved its goal. But I wouldn't want it hanging in my home.,-31,60,20","2"
"17467","","survey-text","160","1262298","0.0-159.0-0.0","A1E31V4KC175MR","","","","{""Q0"":""mixed bag. I'll pass""}","","","","","","","","","","","","","","","","","","","","","","",""
"2608.2000000476837","","image-slider-response","161","1264908","0.0-160.0","A1E31V4KC175MR","","","","","-7","","","","","","","","","","","","","","","","","","","","","",""
"null","","image-button-response","162","1269919","0.0-161.0","A1E31V4KC175MR","img_art/27.jpg","null","","","","","","","","","","","","","","","","","","","","","","","","",""
"803","","image-button-response","163","1270725","0.0-162.0","A1E31V4KC175MR","img_art/27.jpg","3","","","","","","","","","","","","","","","","","","","","","","","","",""
"4923","","image-button-response","164","1275649","0.0-163.0-0.0","A1E31V4KC175MR","img_art/27.jpg","4","","","","","","","","","","","","","","","","","","","","","","","","",""
"4661","","image-button-response","165","1280313","0.0-164.0-0.0","A1E31V4KC175MR","img_art/27.jpg","1","","","","","","","","","","","","","","","","","","","","","","","","",""
"null","","html-keyboard-response","166","1280823","0.0-165.0","A1E31V4KC175MR","<p style=""font-size: 48px;"">+</p>","","","","","null","allTrialResponses","500","1","17","img_art/27.jpg","-7","mixed bag. I'll pass","Sean,Luke,Adrian,Malik,Bryan,Joseph","also gives me anxiety,-21,40,20","it looks very simple and childlike,-31,20,20","Looks like my niece's doodles.,-50,60,20","Nice color, but too vague,-12,40,20","Not fond of the bad pencil drawing mixed with the drab colors.,-21,400,20","Don't know what it is, but I do like it.,10,220,20","Malik","Nice color, but too vague,-12,40,20","Bryan","Not fond of the bad pencil drawing mixed with the drab colors.,-21,400,20","Luke","it looks very simple and childlike,-31,20,20","2"
"20122","","survey-text","167","1300959","0.0-166.0-0.0","A1E31V4KC175MR","","","","{""Q0"":""Energetic""}","","","","","","","","","","","","","","","","","","","","","","",""
"2754.7999999523163","","image-slider-response","168","1303715","0.0-167.0","A1E31V4KC175MR","","","","","7","","","","","","","","","","","","","","","","","","","","","",""
"null","","image-button-response","169","1308726","0.0-168.0","A1E31V4KC175MR","img_art/18.jpg","null","","","","","","","","","","","","","","","","","","","","","","","","",""
"3594","","image-button-response","170","1312323","0.0-169.0","A1E31V4KC175MR","img_art/18.jpg","1","","","","","","","","","","","","","","","","","","","","","","","","",""
"17021","","image-button-response","171","1329347","0.0-170.0-0.0","A1E31V4KC175MR","img_art/18.jpg","2","","","","","","","","","","","","","","","","","","","","","","","","",""
"2865","","image-button-response","172","1332215","0.0-171.0-0.0","A1E31V4KC175MR","img_art/18.jpg","3","","","","","","","","","","","","","","","","","","","","","","","","",""
"null","","html-keyboard-response","173","1333723","0.0-172.0","A1E31V4KC175MR","<p style=""font-size: 48px;"">+</p>","","","","","null","allTrialResponses","1500","1","18","img_art/18.jpg","7","Energetic","Timothy,Luke,Aaron,Malik,Bryan,Antonio","This gives a very ominous feeling,-30,240,20","the harsh lines with the smooth lines makes me think of wild animals,20,20,20","I could spend a long time looking at it and see different things in the shapes.,21,20,20","Gently chaotic and beautiful,40,40,20","First saw sailing ship in bad weather but then saw woman in upper left - not sure what I'm seeing.,21,400,20","I think of the ocean and a boat tossed about on the waves. In the upper left is a figure. It is pleasant,30,220,20","Luke","the harsh lines with the smooth lines makes me think of wild animals,20,20,20","Aaron","I could spend a long time looking at it and see different things in the shapes.,21,20,20","Malik","Gently chaotic and beautiful,40,40,20","2"
"37190","","survey-text","174","1370923","0.0-173.0-0.0","A1E31V4KC175MR","","","","{""Q0"":""Threw in some blue so it wouldn't be all black""}","","","","","","","","","","","","","","","","","","","","","","",""
"2632.2999999523163","","image-slider-response","175","1373557","0.0-174.0","A1E31V4KC175MR","","","","","-2","","","","","","","","","","","","","","","","","","","","","",""
"null","","image-button-response","176","1378564","0.0-175.0","A1E31V4KC175MR","img_art/15.jpg","null","","","","","","","","","","","","","","","","","","","","","","","","",""
"9122","","image-button-response","177","1387689","0.0-176.0","A1E31V4KC175MR","img_art/15.jpg","4","","","","","","","","","","","","","","","","","","","","","","","","",""
"3692","","image-button-response","178","1391383","0.0-177.0-0.0","A1E31V4KC175MR","img_art/15.jpg","5","","","","","","","","","","","","","","","","","","","","","","","","",""
"24692","","image-button-response","179","1416077","0.0-178.0-0.0","A1E31V4KC175MR","img_art/15.jpg","2","","","","","","","","","","","","","","","","","","","","","","","","",""
"null","","html-keyboard-response","180","1417087","0.0-179.0","A1E31V4KC175MR","<p style=""font-size: 48px;"">+</p>","","","","","null","allTrialResponses","1000","1","19","img_art/15.jpg","-2","Threw in some blue so it wouldn't be all black","Alexis,Luke,Aaron,Malik,Mark,Nathaniel","it is dark and gloomy,-9,140,20","it looks like trees but they are up to interpretation,16,20,20","I like how it's simple but beautiful.,40,20,20","I like the dense patterns and the splashes  of blue,38,40,20","Chameleons on reeds. Nice but doesn't really make me feel anything.,11,80,20","This is passable, but personally it just has nothing I'd like to see.,-14,220,20","Mark","Chameleons on reeds. Nice but doesn't really make me feel anything.,11,80,20","Nathaniel","This is passable, but personally it just has nothing I'd like to see.,-14,220,20","Aaron","I like how it's simple but beautiful.,40,20,20","2"
"19268","","survey-text","181","1436365","0.0-180.0-0.0","A1E31V4KC175MR","","","","{""Q0"":""Mommy, I drew you while you were sleeping""}","","","","","","","","","","","","","","","","","","","","","","",""
"3540.1999999284744","","image-slider-response","182","1439907","0.0-181.0","A1E31V4KC175MR","","","","","-11","","","","","","","","","","","","","","","","","","","","","",""
"null","","image-button-response","183","1444925","0.0-182.0","A1E31V4KC175MR","img_art/9.jpg","null","","","","","","","","","","","","","","","","","","","","","","","","",""
"5491","","image-button-response","184","1450419","0.0-183.0","A1E31V4KC175MR","img_art/9.jpg","1","","","","","","","","","","","","","","","","","","","","","","","","",""
"1064","","image-button-response","185","1451485","0.0-184.0-0.0","A1E31V4KC175MR","img_art/9.jpg","2","","","","","","","","","","","","","","","","","","","","","","","","",""
"15078","","image-button-response","186","1466565","0.0-185.0-0.0","A1E31V4KC175MR","img_art/9.jpg","0","","","","","","","","","","","","","","","","","","","","","","","","",""
"null","","html-keyboard-response","187","1467575","0.0-186.0","A1E31V4KC175MR","<p style=""font-size: 48px;"">+</p>","","","","","null","allTrialResponses","1000","1","20","img_art/9.jpg","-11","Mommy, I drew you while you were sleeping","Alex,Dalton,Aaron,Logan,Mark,Nathaniel","Alright, I can see a reclining lady, I'm just glad to be able to tell what's in the picture,5,100,20","a mother in bed surrounded by emotions,1,300,20","It looks like a child's crayon drawing.,-10,20,20","is that sleeping beauty,33,360,20","Sleeping woman in a cave. Makes me feel safe.,20,80,20","Not very enticing. No real substance other than a lady laying down,-35,220,20","Dalton","a mother in bed surrounded by emotions,1,300,20","Aaron","It looks like a child's crayon drawing.,-10,20,20","Alex","Alright, I can see a reclining lady, I'm just glad to be able to tell what's in the picture,5,100,20","2"
"4364","","survey-text","188","1471953","0.0-187.0-0.0","A1E31V4KC175MR","","","","{""Q0"":""we""}","","","","","","","","","","","","","","","","","","","","","","",""
"35694","","survey-text","189","1507648","0.0-188.0-0.0","A1E31V4KC175MR","","","","{""Q0"":""da fuq is this?""}","","","","","","","","","","","","","","","","","","","","","","",""
"3814.399999976158","","image-slider-response","190","1511464","0.0-189.0","A1E31V4KC175MR","","","","","-38","","","","","","","","","","","","","","","","","","","","","",""
"null","","image-button-response","191","1516467","0.0-190.0","A1E31V4KC175MR","img_art/5.jpg","null","","","","","","","","","","","","","","","","","","","","","","","","",""
"10133","","image-button-response","192","1526602","0.0-191.0","A1E31V4KC175MR","img_art/5.jpg","5","","","","","","","","","","","","","","","","","","","","","","","","",""
"4378","","image-button-response","193","1530983","0.0-192.0-0.0","A1E31V4KC175MR","img_art/5.jpg","0","","","","","","","","","","","","","","","","","","","","","","","","",""
"1960","","image-button-response","194","1532945","0.0-193.0-0.0","A1E31V4KC175MR","img_art/5.jpg","1","","","","","","","","","","","","","","","","","","","","","","","","",""
"null","","html-keyboard-response","195","1533947","0.0-194.0","A1E31V4KC175MR","<p style=""font-size: 48px;"">+</p>","","","","","null","allTrialResponses","1000","1","21","img_art/5.jpg","-38","da fuq is this?","Alex,Dalton,Aaron,Shane,Alexander,Devon","What is this? It looks like no effort was put into this work,-2,100,20","its something. i just dont know what it is.,1,300,20","It's kind of boring.,-20,20,20","Seems clean and neat,11,80,20","Dull pyramid that says nothing.,7,120,20","a bit confused about this picture,-9,400,20","Devon","a bit confused about this picture,-9,400,20","Alex","What is this? It looks like no effort was put into this work,-2,100,20","Dalton","its something. i just dont know what it is.,1,300,20","2"
"16136","","survey-text","196","1550090","0.0-195.0-0.0","A1E31V4KC175MR","","","","{""Q0"":""I like it except for that face""}","","","","","","","","","","","","","","","","","","","","","","",""
"2912.1999999284744","","image-slider-response","197","1553004","0.0-196.0","A1E31V4KC175MR","","","","","4","","","","","","","","","","","","","","","","","","","","","",""
"null","","image-button-response","198","1558012","0.0-197.0","A1E31V4KC175MR","img_art/8.jpg","null","","","","","","","","","","","","","","","","","","","","","","","","",""
"7675","","image-button-response","199","1565689","0.0-198.0","A1E31V4KC175MR","img_art/8.jpg","5","","","","","","","","","","","","","","","","","","","","","","","","",""
"18322","","image-button-response","200","1584013","0.0-199.0-0.0","A1E31V4KC175MR","img_art/8.jpg","4","","","","","","","","","","","","","","","","","","","","","","","","",""
"3002","","image-button-response","201","1587016","0.0-200.0-0.0","A1E31V4KC175MR","img_art/8.jpg","1","","","","","","","","","","","","","","","","","","","","","","","","",""
"null","","html-keyboard-response","202","1588018","0.0-201.0","A1E31V4KC175MR","<p style=""font-size: 48px;"">+</p>","","","","","null","allTrialResponses","1000","1","22","img_art/8.jpg","4","I like it except for that face","Alex,Dalton,Edward,Brian,Tanner,Devon","I appreciate the complexity of this piece but it's too cubist for me,3,100,20","woman looking over a the community,1,300,20","It's too boxy for my taste,-10,60,20","it's a little too classical for my tastes,-25,380,20","mothe nature/godess, watching over you,21,180,20","wow - the colors were very well mixed,12,400,20","Devon","wow - the colors were very well mixed,12,400,20","Tanner","mothe nature/godess, watching over you,21,180,20","Dalton","woman looking over a the community,1,300,20","2"
"20082","","survey-text","203","1608114","0.0-202.0-0.0","A1E31V4KC175MR","","","","{""Q0"":""crap, I spilled paint all over my picture""}","","","","","","","","","","","","","","","","","","","","","","",""
"2578.399999976158","","image-slider-response","204","1610694","0.0-203.0","A1E31V4KC175MR","","","","","-21","","","","","","","","","","","","","","","","","","","","","",""
"null","","image-button-response","205","1615709","0.0-204.0","A1E31V4KC175MR","img_art/2.jpg","null","","","","","","","","","","","","","","","","","","","","","","","","",""
"5769","","image-button-response","206","1621481","0.0-205.0","A1E31V4KC175MR","img_art/2.jpg","5","","","","","","","","","","","","","","","","","","","","","","","","",""
"1996","","image-button-response","207","1623478","0.0-206.0-0.0","A1E31V4KC175MR","img_art/2.jpg","0","","","","","","","","","","","","","","","","","","","","","","","","",""
"6896","","image-button-response","208","1630377","0.0-207.0-0.0","A1E31V4KC175MR","img_art/2.jpg","4","","","","","","","","","","","","","","","","","","","","","","","","",""
"null","","html-keyboard-response","209","1631883","0.0-208.0","A1E31V4KC175MR","<p style=""font-size: 48px;"">+</p>","","","","","null","allTrialResponses","1500","1","23","img_art/2.jpg","-21","crap, I spilled paint all over my picture","Justin,Dalton,Austin,Stephen,Tanner,Devon","This one feels rather flat and not engaging.,-15,280,20","i like the colors and again can make out my own picture,38,300,20","Good color pallette,12,240,20","Colors mix nicely.,5,140,20","smilely face, soulful,11,180,20","another confusing piece of art,-12,400,20","Devon","another confusing piece of art,-12,400,20","Justin","This one feels rather flat and not engaging.,-15,280,20","Tanner","smilely face, soulful,11,180,20","2"
"30083","","survey-text","210","1661974","0.0-209.0-0.0","A1E31V4KC175MR","","","","{""Q0"":""headless bird or very ugly tree""}","","","","","","","","","","","","","","","","","","","","","","",""
"2380","","image-slider-response","211","1664356","0.0-210.0","A1E31V4KC175MR","","","","","-23","","","","","","","","","","","","","","","","","","","","","",""
"null","","image-button-response","212","1669358","0.0-211.0","A1E31V4KC175MR","img_art/6.jpg","null","","","","","","","","","","","","","","","","","","","","","","","","",""
"12485","","image-button-response","213","1681846","0.0-212.0","A1E31V4KC175MR","img_art/6.jpg","4","","","","","","","","","","","","","","","","","","","","","","","","",""
"889","","image-button-response","214","1682736","0.0-213.0-0.0","A1E31V4KC175MR","img_art/6.jpg","5","","","","","","","","","","","","","","","","","","","","","","","","",""
"2414","","image-button-response","215","1685152","0.0-214.0-0.0","A1E31V4KC175MR","img_art/6.jpg","3","","","","","","","","","","","","","","","","","","","","","","","","",""
"null","","html-keyboard-response","216","1685653","0.0-215.0","A1E31V4KC175MR","<p style=""font-size: 48px;"">+</p>","","","","","null","allTrialResponses","500","1","24","img_art/6.jpg","-23","headless bird or very ugly tree","Justin,Carlos,John,Christopher,Tanner,Devon","It's alright. I imagined the peach from James and the Giant Peach.,1,280,20","Clean and simple, a pleasant resting place for the eyes.,21,80,20","It makes me stop and think about what the artist is trying to say.It creates a feeling of solitude and tranqulity,30,120,20","it's interesting but I don't love it,10,160,20","loneliness, fragile, forever alone, a girl who's been there for eternity, only think tracking time is the length of her hair,9,180,20","This one also confuses me a bit.,-19,400,20","Tanner","loneliness, fragile, forever alone, a girl who's been there for eternity, only think tracking time is the length of her hair,9,180,20","Devon","This one also confuses me a bit.,-19,400,20","Christopher","it's interesting but I don't love it,10,160,20","2"
"17324","","survey-text","217","1702990","0.0-216.0-0.0","A1E31V4KC175MR","","","","{""Q0"":""incongruent""}","","","","","","","","","","","","","","","","","","","","","","",""
"3640.2999999523163","","image-slider-response","218","1706632","0.0-217.0","A1E31V4KC175MR","","","","","-7","","","","","","","","","","","","","","","","","","","","","",""
"null","","image-button-response","219","1711635","0.0-218.0","A1E31V4KC175MR","img_art/20.jpg","null","","","","","","","","","","","","","","","","","","","","","","","","",""
"7337","","image-button-response","220","1718975","0.0-219.0","A1E31V4KC175MR","img_art/20.jpg","2","","","","","","","","","","","","","","","","","","","","","","","","",""
"7812","","image-button-response","221","1726789","0.0-220.0-0.0","A1E31V4KC175MR","img_art/20.jpg","5","","","","","","","","","","","","","","","","","","","","","","","","",""
"2399","","image-button-response","222","1729191","0.0-221.0-0.0","A1E31V4KC175MR","img_art/20.jpg","3","","","","","","","","","","","","","","","","","","","","","","","","",""
"null","","html-keyboard-response","223","1729692","0.0-222.0","A1E31V4KC175MR","<p style=""font-size: 48px;"">+</p>","","","","","null","allTrialResponses","500","1","25","img_art/20.jpg","-7","incongruent","Bradley,Patrick,Jesus,Christopher,Tanner,Devon","A truck rolled over?  I do like the pictures and the technique though.,25,300,20","Looks calm but a bit dark,21,280,20","Shapes are fun to interpret,21,100,20","i ind of like this, it's saying something but not my style,6,160,20","danger, car crash, stressful,-12,180,20","i can feel the intensity in this,11,400,20","Jesus","Shapes are fun to interpret,21,100,20","Devon","i can feel the intensity in this,11,400,20","Christopher","i ind of like this, it's saying something but not my style,6,160,20","2"
"7864","","survey-text","224","1737567","0.0-223.0-0.0","A1E31V4KC175MR","","","","{""Q0"":""table""}","","","","","","","","","","","","","","","","","","","","","","",""
"33754","","survey-text","225","1771322","0.0-224.0-0.0","A1E31V4KC175MR","","","","{""Q0"":""Very dimensional""}","","","","","","","","","","","","","","","","","","","","","","",""
"3672.2999999523163","","image-slider-response","226","1774996","0.0-225.0","A1E31V4KC175MR","","","","","18","","","","","","","","","","","","","","","","","","","","","",""
"3982","","image-button-response","227","1780010","0.0-226.0","A1E31V4KC175MR","img_art/30.jpg","2","","","","","","","","","","","","","","","","","","","","","","","","",""
"611","","image-button-response","228","1780625","0.0-227.0","A1E31V4KC175MR","img_art/30.jpg","2","","","","","","","","","","","","","","","","","","","","","","","","",""
"4330","","image-button-response","229","1784957","0.0-228.0-0.0","A1E31V4KC175MR","img_art/30.jpg","4","","","","","","","","","","","","","","","","","","","","","","","","",""
"5602","","image-button-response","230","1790561","0.0-229.0-0.0","A1E31V4KC175MR","img_art/30.jpg","5","","","","","","","","","","","","","","","","","","","","","","","","",""
"null","","html-keyboard-response","231","1792069","0.0-230.0","A1E31V4KC175MR","<p style=""font-size: 48px;"">+</p>","","","","","null","allTrialResponses","1500","1","26","img_art/30.jpg","18","Very dimensional","Jake,Cole,Jesus,Christopher,Gregory,Devon","This is just simple and ugly.,-2,360,20","Its ugly. Too simple,-23,200,20","I like the forefront design.,10,100,20","looks simple, I can't see a lot of care going into this,-33,160,20","Cool design and contrast of colors,30,220,20","the different roads to take in life,10,400,20","Jesus","I like the forefront design.,10,100,20","Gregory","Cool design and contrast of colors,30,220,20","Devon","the different roads to take in life,10,400,20","2"
"15708","","survey-text","232","1807791","0.0-231.0-0.0","A1E31V4KC175MR","","","","{""Q0"":""Teacher was kind of harsh on this one""}","","","","","","","","","","","","","","","","","","","","","","",""
"2562.2999999523163","","image-slider-response","233","1810355","0.0-232.0","A1E31V4KC175MR","","","","","15","","","","","","","","","","","","","","","","","","","","","",""
"null","","image-button-response","234","1815360","0.0-233.0","A1E31V4KC175MR","img_art/29.jpg","null","","","","","","","","","","","","","","","","","","","","","","","","",""
"8605","","image-button-response","235","1823969","0.0-234.0","A1E31V4KC175MR","img_art/29.jpg","4","","","","","","","","","","","","","","","","","","","","","","","","",""
"5434","","image-button-response","236","1829405","0.0-235.0-0.0","A1E31V4KC175MR","img_art/29.jpg","3","","","","","","","","","","","","","","","","","","","","","","","","",""
"16410","","image-button-response","237","1845817","0.0-236.0-0.0","A1E31V4KC175MR","img_art/29.jpg","0","","","","","","","","","","","","","","","","","","","","","","","","",""
"null","","html-keyboard-response","238","1847328","0.0-237.0","A1E31V4KC175MR","<p style=""font-size: 48px;"">+</p>","","","","","null","allTrialResponses","1500","1","27","img_art/29.jpg","15","Teacher was kind of harsh on this one","Anthony,Jeffrey,Jesus,Joshua,Gregory,Devon","Very interesting composition,41,200,20","Looks like an accident more than an art to me,-26,40,20","The light source is confusing, but still interesting to look at,11,100,20","I don't like the red X through it.,-20,240,20","3D looks is really cool,30,220,20","seems fun, looks like a battle zone,22,400,20","Gregory","3D looks is really cool,30,220,20","Joshua","I don't like the red X through it.,-20,240,20","Anthony","Very interesting composition,41,200,20","2"
"23720","","survey-text","239","1871056","0.0-238.0-0.0","A1E31V4KC175MR","","","","{""Q0"":""is that a monkey?""}","","","","","","","","","","","","","","","","","","","","","","",""
"2232.2999999523163","","image-slider-response","240","1873290","0.0-239.0","A1E31V4KC175MR","","","","","-15","","","","","","","","","","","","","","","","","","","","","",""
"null","","image-button-response","241","1878297","0.0-240.0","A1E31V4KC175MR","img_art/19.jpg","null","","","","","","","","","","","","","","","","","","","","","","","","",""
"4301","","image-button-response","242","1882601","0.0-241.0","A1E31V4KC175MR","img_art/19.jpg","3","","","","","","","","","","","","","","","","","","","","","","","","",""
"8415","","image-button-response","243","1891019","0.0-242.0-0.0","A1E31V4KC175MR","img_art/19.jpg","0","","","","","","","","","","","","","","","","","","","","","","","","",""
"5302","","image-button-response","244","1896323","0.0-243.0-0.0","A1E31V4KC175MR","img_art/19.jpg","5","","","","","","","","","","","","","","","","","","","","","","","","",""
"null","","html-keyboard-response","245","1896826","0.0-244.0","A1E31V4KC175MR","<p style=""font-size: 48px;"">+</p>","","","","","null","allTrialResponses","500","1","28","img_art/19.jpg","-15","is that a monkey?","Anthony,Juan,Kevin,Joshua,Gregory,Kyle","Very, very ugly and sloppy,-31,200,20","Again, this is too abstract.,-10,260,20","Thats a lazy town,-8,320,20","Just don't like this one.,-9,240,20","Looks like a busy port,10,220,20","Just stirred a negative reaction. Don't really like it perhaps because of the structure?,-8,340,20","Joshua","Just don't like this one.,-9,240,20","Anthony","Very, very ugly and sloppy,-31,200,20","Kyle","Just stirred a negative reaction. Don't really like it perhaps because of the structure?,-8,340,20","2"
"20019","","survey-text","246","1916862","0.0-245.0-0.0","A1E31V4KC175MR","","","","{""Q0"":""belongs in a bathroom""}","","","","","","","","","","","","","","","","","","","","","","",""
"2068.1999999284744","","image-slider-response","247","1918932","0.0-246.0","A1E31V4KC175MR","","","","","4","","","","","","","","","","","","","","","","","","","","","",""
"null","","image-button-response","248","1923950","0.0-247.0","A1E31V4KC175MR","img_art/7.jpg","null","","","","","","","","","","","","","","","","","","","","","","","","",""
"3022","","image-button-response","249","1926974","0.0-248.0","A1E31V4KC175MR","img_art/7.jpg","2","","","","","","","","","","","","","","","","","","","","","","","","",""
"2130","","image-button-response","250","1929106","0.0-249.0-0.0","A1E31V4KC175MR","img_art/7.jpg","3","","","","","","","","","","","","","","","","","","","","","","","","",""
"762","","image-button-response","251","1929870","0.0-250.0-0.0","A1E31V4KC175MR","img_art/7.jpg","4","","","","","","","","","","","","","","","","","","","","","","","","",""
"null","","html-keyboard-response","252","1931374","0.0-251.0","A1E31V4KC175MR","<p style=""font-size: 48px;"">+</p>","","","","","null","allTrialResponses","1500","1","29","img_art/7.jpg","4","belongs in a bathroom","Anthony,Scott,Steven,Joshua,Miguel,Kyle","Very, very dull compared to the other paintings,-36,200,20","I don't like the texture,-49,20,20","looks like the surface of the moon.,1,160,20","Looks almost like a photograph of nature.,11,240,20","Well done minimalism.,35,160,20","It just reminds me of dirt,-10,340,20","Steven","looks like the surface of the moon.,1,160,20","Joshua","Looks almost like a photograph of nature.,11,240,20","Miguel","Well done minimalism.,35,160,20","2"
"16455","","survey-text","253","1947838","0.0-252.0-0.0","A1E31V4KC175MR","","","","{""Q0"":""Why am I tilting my head suddenly?""}","","","","","","","","","","","","","","","","","","","","","","",""
"4374.399999976158","","image-slider-response","254","1952214","0.0-253.0","A1E31V4KC175MR","","","","","4","","","","","","","","","","","","","","","","","","","","","",""
"null","","image-button-response","255","1957226","0.0-254.0","A1E31V4KC175MR","img_art/14.jpg","null","","","","","","","","","","","","","","","","","","","","","","","","",""
"15048","","image-button-response","256","1972277","0.0-255.0","A1E31V4KC175MR","img_art/14.jpg","0","","","","","","","","","","","","","","","","","","","","","","","","",""
"13782","","image-button-response","257","1986061","0.0-256.0-0.0","A1E31V4KC175MR","img_art/14.jpg","1","","","","","","","","","","","","","","","","","","","","","","","","",""
"3913","","image-button-response","258","1989977","0.0-257.0-0.0","A1E31V4KC175MR","img_art/14.jpg","4","","","","","","","","","","","","","","","","","","","","","","","","",""
"null","","html-keyboard-response","259","1990989","0.0-258.0","A1E31V4KC175MR","<p style=""font-size: 48px;"">+</p>","","","","","null","allTrialResponses","1000","1","30","img_art/14.jpg","4","Why am I tilting my head suddenly?","Victor,Mitchell,Steven,Joshua,Miguel,Robert","Meh. Pleasant to look at. Colors are nice,6,340,20","Tornado, nature. trees falling and displaced creatures. Love the colors though.,1,180,20","this one isn't bad, reminds me a tree that gives life, and people are waiting for someone new to be born,27,160,20","This doesn't speak to me on an emotional level,-6,240,20","It's too basic.,23,160,20","Late Winter when things are just starting to bloom.,21,360,20","Victor","Meh. Pleasant to look at. Colors are nice,6,340,20","Mitchell","Tornado, nature. trees falling and displaced creatures. Love the colors though.,1,180,20","Miguel","It's too basic.,23,160,20","2"
"3767","","image-button-response_instructions","260","1994769","0.0-259.0","A1E31V4KC175MR","","0","instructions","","","","","","","","","","","","","","","","","","","","","","","",""
"1444","","image-button-response","261","1996219","0.0-260.0","A1E31V4KC175MR","","0","","","","","","","","","","","","","","","","","","","","","","","","",""
