"rt","url","trial_type","trial_index","time_elapsed","internal_node_id","participant_id","stimulus","button_pressed","Name","responses","response","key_press","variableName","fixationTime","condition","trial","photo","subjectRating","subjectResponse","agentsNames","agent_1_Response","agent_2_Response","agent_3_Response","agent_4_Response","agent_5_Response","agent_6_Response","kept_1_name","kept_1_response","kept_2_name","kept_2_response","kept_3_name","kept_3_response","errorCounter"
"4178","external_page_harvard.html","external-html","0","4221","0.0-0.0","A1EHEQSM7S7PLO","","","","","","","","","","","","","","","","","","","","","","","","","","",""
"1314","","image-button-response","1","5538","0.0-1.0","A1EHEQSM7S7PLO","","0","","","","","","","","","","","","","","","","","","","","","","","","",""
"1616","","image-button-response","2","7162","0.0-2.0-0.0","A1EHEQSM7S7PLO","","1","phone","","","","","","","","","","","","","","","","","","","","","","","",""
"4814","","survey-text","3","11977","0.0-3.0-0.0","A1EHEQSM7S7PLO","","","","{""Q0"":""A1EHEQSM7S7PLO""}","","","","","","","","","","","","","","","","","","","","","","",""
"3436","","image-button-response_instructions","4","15417","0.0-4.0","A1EHEQSM7S7PLO","","0","instructions","","","","","","","","","","","","","","","","","","","","","","","",""
"10550","","image-button-response_instructions","5","25969","0.0-5.0","A1EHEQSM7S7PLO","img_art/ins/popularity/ins1.png","0","instructions","","","","","","","","","","","","","","","","","","","","","","","",""
"2758","","image-button-response_instructions","6","28728","0.0-6.0","A1EHEQSM7S7PLO","img_art/ins/popularity/ins2.png","0","instructions","","","","","","","","","","","","","","","","","","","","","","","",""
"3047","","image-button-response_instructions","7","31776","0.0-7.0","A1EHEQSM7S7PLO","img_art/ins/popularity/ins2Extreme.png","0","instructions","","","","","","","","","","","","","","","","","","","","","","","",""
"5205","","image-button-response_instructions","8","36984","0.0-8.0","A1EHEQSM7S7PLO","img_art/ins/popularity/ins3KEEPpop.PNG","0","instructions","","","","","","","","","","","","","","","","","","","","","","","",""
"2310","","image-button-response_instructions","9","39296","0.0-9.0","A1EHEQSM7S7PLO","img_art/ins/popularity/ins3ANamepop.PNG","0","instructions","","","","","","","","","","","","","","","","","","","","","","","",""
"2758","","image-button-response_instructions","10","42056","0.0-10.0","A1EHEQSM7S7PLO","img_art/ins/popularity/ins3ARatingpop.png","0","instructions","","","","","","","","","","","","","","","","","","","","","","","",""
"1622","","image-button-response_instructions","11","43680","0.0-11.0","A1EHEQSM7S7PLO","img_art/ins/popularity/ins3ATextpop.png","0","instructions","","","","","","","","","","","","","","","","","","","","","","","",""
"2878","","image-button-response_instructions","12","46560","0.0-12.0","A1EHEQSM7S7PLO","img_art/ins/popularity/ins3ALikespop.png","0","instructions","","","","","","","","","","","","","","","","","","","","","","","",""
"4686","","image-button-response_instructions","13","51248","0.0-13.0","A1EHEQSM7S7PLO","img_art/ins/popularity/ins3KEEPpop.PNG","0","instructions","","","","","","","","","","","","","","","","","","","","","","","",""
"5181","","image-button-response_instructions","14","56431","0.0-14.0","A1EHEQSM7S7PLO","img_art/ins/popularity/ins3_5RED.png","0","instructions","","","","","","","","","","","","","","","","","","","","","","","",""
"2569","","image-button-response_instructions","15","59003","0.0-15.0","A1EHEQSM7S7PLO","img_art/ins/popularity/ins3KEEPpop.PNG","0","instructions","","","","","","","","","","","","","","","","","","","","","","","",""
"3686","","image-button-response_instructions","16","62691","0.0-16.0","A1EHEQSM7S7PLO","img_art/ins/popularity/ins4KEEPpop.PNG","0","instructions","","","","","","","","","","","","","","","","","","","","","","","",""
"2086","","image-button-response_instructions","17","64778","0.0-17.0","A1EHEQSM7S7PLO","img_art/ins/popularity/ins5KEEPpop.PNG","0","instructions","","","","","","","","","","","","","","","","","","","","","","","",""
"2062","","image-button-response_instructions","18","66842","0.0-18.0","A1EHEQSM7S7PLO","","0","instructions","","","","","","","","","","","","","","","","","","","","","","","",""
"6487","","survey-text","19","73370","0.0-19.0-0.0","A1EHEQSM7S7PLO","","","","{""Q0"":""but""}","","","","","","","","","","","","","","","","","","","","","","",""
"14301","","survey-text","20","87673","0.0-20.0-0.0","A1EHEQSM7S7PLO","","","","{""Q0"":""Good colors, calming.""}","","","","","","","","","","","","","","","","","","","","","","",""
"2843.800000000745","","image-slider-response","21","90521","0.0-21.0","A1EHEQSM7S7PLO","","","","","28","","","","","","","","","","","","","","","","","","","","","",""
"2473","","image-button-response","22","95528","0.0-22.0","A1EHEQSM7S7PLO","img_art/ins/1.jpg","1","","","","","","","","","","","","","","","","","","","","","","","","",""
"1565","","image-button-response","23","97098","0.0-23.0","A1EHEQSM7S7PLO","img_art/ins/1.jpg","1","","","","","","","","","","","","","","","","","","","","","","","","",""
"2003","","image-button-response","24","99106","0.0-24.0-0.0","A1EHEQSM7S7PLO","img_art/ins/1.jpg","5","","","","","","","","","","","","","","","","","","","","","","","","",""
"602","","image-button-response","25","99714","0.0-25.0-0.0","A1EHEQSM7S7PLO","img_art/ins/1.jpg","3","","","","","","","","","","","","","","","","","","","","","","","","",""
"null","","html-keyboard-response","26","101217","0.0-26.0","A1EHEQSM7S7PLO","<p style=""font-size: 48px;"">+</p>","","","","","null","allTrialResponses","1500","1","-2","img_art/ins/1.jpg","28","Good colors, calming.","Adam,Alex,Ben,Carl,Daniel,Jack","Seems like doodles,-20,20,20","very creative work.,36,40,20","This color reminds me of poo,-46,60,20","very calming artwork,42,80,20","It looks like a murder scene.,-48,100,20","I like the sophisticated brushwork,40,120,20","Alex","very creative work.,36,40,20","Jack","I like the sophisticated brushwork,40,120,20","Carl","very calming artwork,42,80,20","0"
"19904","","survey-text","27","121131","0.0-27.0-0.0","A1EHEQSM7S7PLO","","","","{""Q0"":""Great texture and use of warm colors.""}","","","","","","","","","","","","","","","","","","","","","","",""
"2109.0999999996275","","image-slider-response","28","123243","0.0-28.0","A1EHEQSM7S7PLO","","","","","39","","","","","","","","","","","","","","","","","","","","","",""
"null","","image-button-response","29","128248","0.0-29.0","A1EHEQSM7S7PLO","img_art/ins/2.jpg","null","","","","","","","","","","","","","","","","","","","","","","","","",""
"512","","image-button-response","30","128764","0.0-30.0","A1EHEQSM7S7PLO","img_art/ins/2.jpg","5","","","","","","","","","","","","","","","","","","","","","","","","",""
"1044","","image-button-response","31","129812","0.0-31.0-0.0","A1EHEQSM7S7PLO","img_art/ins/2.jpg","4","","","","","","","","","","","","","","","","","","","","","","","","",""
"635","","image-button-response","32","130451","0.0-32.0-0.0","A1EHEQSM7S7PLO","img_art/ins/2.jpg","3","","","","","","","","","","","","","","","","","","","","","","","","",""
"null","","html-keyboard-response","33","131954","0.0-33.0","A1EHEQSM7S7PLO","<p style=""font-size: 48px;"">+</p>","","","","","null","allTrialResponses","1500","1","-1","img_art/ins/2.jpg","39","Great texture and use of warm colors.","James,Alex,Kyle,Carl,John,Jack","looks too angry,-50,140,20","I like the blocks of color arrangements,30,40,20","Idk, it is just annoying,-32,180,20","I can feel the artist's passion in it,45,80,20","love the texture of paint,48,160,20","I would never be able to compose a sophisticated pallete like this,48,120,20","Jack","I would never be able to compose a sophisticated pallete like this,48,120,20","John","love the texture of paint,48,160,20","Carl","I can feel the artist's passion in it,45,80,20","0"
"35918","","survey-text","34","167881","0.0-34.0-0.0","A1EHEQSM7S7PLO","","","","{""Q0"":""I enjoy the use of cool colors, and organization of brushstrokes. ""}","","","","","","","","","","","","","","","","","","","","","","",""
"3557","","image-slider-response","35","171441","0.0-35.0","A1EHEQSM7S7PLO","","","","","42","","","","","","","","","","","","","","","","","","","","","",""
"1956","","image-button-response","36","176445","0.0-36.0","A1EHEQSM7S7PLO","img_art/ins/3.jpg","1","","","","","","","","","","","","","","","","","","","","","","","","",""
"680","","image-button-response","37","177129","0.0-37.0","A1EHEQSM7S7PLO","img_art/ins/3.jpg","1","","","","","","","","","","","","","","","","","","","","","","","","",""
"893","","image-button-response","38","178025","0.0-38.0-0.0","A1EHEQSM7S7PLO","img_art/ins/3.jpg","0","","","","","","","","","","","","","","","","","","","","","","","","",""
"2039","","image-button-response","39","180068","0.0-39.0-0.0","A1EHEQSM7S7PLO","img_art/ins/3.jpg","4","","","","","","","","","","","","","","","","","","","","","","","","",""
"null","","html-keyboard-response","40","180570","0.0-40.0","A1EHEQSM7S7PLO","<p style=""font-size: 48px;"">+</p>","","","","","null","allTrialResponses","500","1","0","img_art/ins/3.jpg","42","I enjoy the use of cool colors, and organization of brushstrokes. ","Mike,Sam,Ron,Carl,John,Jack","enjoy the different shades of blue,22,200,20","I can feel a rainy day from this painting,18,240,20","It looks depressing,-26,220,20","It's an alright work,15,80,20","I like the overlapping of brushes,41,160,20","I feel connected to the artist,40,120,20","Sam","I can feel a rainy day from this painting,18,240,20","Mike","enjoy the different shades of blue,22,200,20","John","I like the overlapping of brushes,41,160,20","0"
"3430","","image-button-response_instructions","41","184011","0.0-41.0","A1EHEQSM7S7PLO","","0","instructions","","","","","","","","","","","","","","","","","","","","","","","",""
"12917","","survey-likert","42","196931","0.0-42.0-0.0","A1EHEQSM7S7PLO","","","","{""Q0"":"""",""Q1"":0,""Q2"":1}","","","","","","","","","","","","","","","","","","","","","","",""
"3389","","survey-text","43","200338","0.0-43.0-0.0","A1EHEQSM7S7PLO","","","","{""Q0"":""rock""}","","","","","","","","","","","","","","","","","","","","","","",""
"15206","","survey-text","44","215545","0.0-44.0-0.0","A1EHEQSM7S7PLO","","","","{""Q0"":""Looks like floor tile, dull colors. ""}","","","","","","","","","","","","","","","","","","","","","","",""
"2140.9000000003725","","image-slider-response","45","217689","0.0-45.0","A1EHEQSM7S7PLO","","","","","-39","","","","","","","","","","","","","","","","","","","","","",""
"null","","image-button-response","46","222715","0.0-46.0","A1EHEQSM7S7PLO","img_art/7.jpg","null","","","","","","","","","","","","","","","","","","","","","","","","",""
"1715","","image-button-response","47","224434","0.0-47.0","A1EHEQSM7S7PLO","img_art/7.jpg","5","","","","","","","","","","","","","","","","","","","","","","","","",""
"915","","image-button-response","48","225353","0.0-48.0-0.0","A1EHEQSM7S7PLO","img_art/7.jpg","1","","","","","","","","","","","","","","","","","","","","","","","","",""
"740","","image-button-response","49","226097","0.0-49.0-0.0","A1EHEQSM7S7PLO","img_art/7.jpg","3","","","","","","","","","","","","","","","","","","","","","","","","",""
"null","","html-keyboard-response","50","226601","0.0-50.0","A1EHEQSM7S7PLO","<p style=""font-size: 48px;"">+</p>","","","","","null","allTrialResponses","500","1","1","img_art/7.jpg","-39","Looks like floor tile, dull colors. ","Devin,Adrian,Paul,Eric,John,Jack","Not very big on the sameness here,-20,380,20","It's dirty. I don't mind the colors so much as the way they are put together in this dirty-looking pattern.,-41,60,20","It looks like bloody scabs on skin, I don't like it,-42,300,20","This piece is really simple but the colors and texture work well together.,20,100,20","It looks like someone took a picture of a muddy ground and called it art.,-41,120,20","reminds me of a desert from far above,23,320,20","Jack","reminds me of a desert from far above,23,320,20","Adrian","It's dirty. I don't mind the colors so much as the way they are put together in this dirty-looking pattern.,-41,60,20","Eric","This piece is really simple but the colors and texture work well together.,20,100,20","0"
"11597","","survey-text","51","238208","0.0-51.0-0.0","A1EHEQSM7S7PLO","","","","{""Q0"":""Very busy for watercolor, too much going on. ""}","","","","","","","","","","","","","","","","","","","","","","",""
"1885.5","","image-slider-response","52","240106","0.0-52.0","A1EHEQSM7S7PLO","","","","","-35","","","","","","","","","","","","","","","","","","","","","",""
"null","","image-button-response","53","245111","0.0-53.0","A1EHEQSM7S7PLO","img_art/19.jpg","null","","","","","","","","","","","","","","","","","","","","","","","","",""
"5440","","image-button-response","54","250555","0.0-54.0","A1EHEQSM7S7PLO","img_art/19.jpg","2","","","","","","","","","","","","","","","","","","","","","","","","",""
"1811","","image-button-response","55","252371","0.0-55.0-0.0","A1EHEQSM7S7PLO","img_art/19.jpg","5","","","","","","","","","","","","","","","","","","","","","","","","",""
"547","","image-button-response","56","252922","0.0-56.0-0.0","A1EHEQSM7S7PLO","img_art/19.jpg","1","","","","","","","","","","","","","","","","","","","","","","","","",""
"null","","html-keyboard-response","57","253925","0.0-57.0","A1EHEQSM7S7PLO","<p style=""font-size: 48px;"">+</p>","","","","","null","allTrialResponses","1000","1","2","img_art/19.jpg","-35","Very busy for watercolor, too much going on. ","Dalton,Adrian,James,Eric,Aaron,Jack","love the images I can pick out of this art,1,300,20","Pleasant colors with just enough detail to be recognizable. I can see a scene in it that tells a story.,7,60,20","I don't know what's going on, and I realise that I don't like it,-21,380,20","I like the color and the mix of sketches along with paint.,30,100,20","I like the shapes.,22,20,20","love the muted colors and added sketchy lines. calming without being boring.,50,320,20","James","I don't know what's going on, and I realise that I don't like it,-21,380,20","Jack","love the muted colors and added sketchy lines. calming without being boring.,50,320,20","Adrian","Pleasant colors with just enough detail to be recognizable. I can see a scene in it that tells a story.,7,60,20","0"
"27114","","survey-text","58","281049","0.0-58.0-0.0","A1EHEQSM7S7PLO","","","","{""Q0"":""I enjoy the distortion of a realistic scene, good minimal use of color.""}","","","","","","","","","","","","","","","","","","","","","","",""
"3013.0999999996275","","image-slider-response","59","284065","0.0-59.0","A1EHEQSM7S7PLO","","","","","11","","","","","","","","","","","","","","","","","","","","","",""
"null","","image-button-response","60","289069","0.0-60.0","A1EHEQSM7S7PLO","img_art/11.jpg","null","","","","","","","","","","","","","","","","","","","","","","","","",""
"2048","","image-button-response","61","291120","0.0-61.0","A1EHEQSM7S7PLO","img_art/11.jpg","0","","","","","","","","","","","","","","","","","","","","","","","","",""
"1772","","image-button-response","62","292897","0.0-62.0-0.0","A1EHEQSM7S7PLO","img_art/11.jpg","5","","","","","","","","","","","","","","","","","","","","","","","","",""
"3459","","image-button-response","63","296360","0.0-63.0-0.0","A1EHEQSM7S7PLO","img_art/11.jpg","2","","","","","","","","","","","","","","","","","","","","","","","","",""
"null","","html-keyboard-response","64","297864","0.0-64.0","A1EHEQSM7S7PLO","<p style=""font-size: 48px;"">+</p>","","","","","null","allTrialResponses","1500","1","3","img_art/11.jpg","11","I enjoy the distortion of a realistic scene, good minimal use of color.","Joshua,Adrian,James,Chase,Brandon,Jack","Is interesting. Wouldn't bother me to have this hanging where I'd see it every day.,11,240,20","Not a fan of the colors but it looks interesting.,-31,60,20","I like dark colors.,31,380,20","It's too dark and dingy.,-30,120,20","Don't like cityscapes, which this picture reminds me of,-29,320,20","makes me think of city highways & bridges on a rainy, foggy day. I like the melancholy it evokes.,43,320,20","Joshua","Is interesting. Wouldn't bother me to have this hanging where I'd see it every day.,11,240,20","Jack","makes me think of city highways & bridges on a rainy, foggy day. I like the melancholy it evokes.,43,320,20","James","I like dark colors.,31,380,20","0"
"25224","","survey-text","65","323100","0.0-65.0-0.0","A1EHEQSM7S7PLO","","","","{""Q0"":""Good juxtaposition of dark color with neon green. Do not like the figure presented though.""}","","","","","","","","","","","","","","","","","","","","","","",""
"2629","","image-slider-response","66","325731","0.0-66.0","A1EHEQSM7S7PLO","","","","","-8","","","","","","","","","","","","","","","","","","","","","",""
"null","","image-button-response","67","330736","0.0-67.0","A1EHEQSM7S7PLO","img_art/25.jpg","null","","","","","","","","","","","","","","","","","","","","","","","","",""
"1249","","image-button-response","68","331988","0.0-68.0","A1EHEQSM7S7PLO","img_art/25.jpg","0","","","","","","","","","","","","","","","","","","","","","","","","",""
"2077","","image-button-response","69","334068","0.0-69.0-0.0","A1EHEQSM7S7PLO","img_art/25.jpg","4","","","","","","","","","","","","","","","","","","","","","","","","",""
"1411","","image-button-response","70","335484","0.0-70.0-0.0","A1EHEQSM7S7PLO","img_art/25.jpg","2","","","","","","","","","","","","","","","","","","","","","","","","",""
"null","","html-keyboard-response","71","335986","0.0-71.0","A1EHEQSM7S7PLO","<p style=""font-size: 48px;"">+</p>","","","","","null","allTrialResponses","500","1","4","img_art/25.jpg","-8","Good juxtaposition of dark color with neon green. Do not like the figure presented though.","Joshua,Jake,James,Brendan,Kyle,Jack","Looks like a voodoo figure in a New Orleans cemetery at night.,-5,240,20","This is strange and poorly done.,-2,360,20","This would definitely be hanging in my bedroom in my house,50,380,20","is this an ancient woman?,-16,340,20","I liked it as it seems unique in a way,21,340,20","beautiful in a primitive way,10,320,20","Joshua","Looks like a voodoo figure in a New Orleans cemetery at night.,-5,240,20","Kyle","I liked it as it seems unique in a way,21,340,20","James","This would definitely be hanging in my bedroom in my house,50,380,20","0"
"17124","","survey-text","72","353122","0.0-72.0-0.0","A1EHEQSM7S7PLO","","","","{""Q0"":""Too abstract without enough going on to justify it. ""}","","","","","","","","","","","","","","","","","","","","","","",""
"1957.3999999985099","","image-slider-response","73","355082","0.0-73.0","A1EHEQSM7S7PLO","","","","","-38","","","","","","","","","","","","","","","","","","","","","",""
"4176","","image-button-response","74","360092","0.0-74.0","A1EHEQSM7S7PLO","img_art/5.jpg","0","","","","","","","","","","","","","","","","","","","","","","","","",""
"424","","image-button-response","75","360519","0.0-75.0","A1EHEQSM7S7PLO","img_art/5.jpg","0","","","","","","","","","","","","","","","","","","","","","","","","",""
"3534","","image-button-response","76","364056","0.0-76.0-0.0","A1EHEQSM7S7PLO","img_art/5.jpg","5","","","","","","","","","","","","","","","","","","","","","","","","",""
"836","","image-button-response","77","364896","0.0-77.0-0.0","A1EHEQSM7S7PLO","img_art/5.jpg","3","","","","","","","","","","","","","","","","","","","","","","","","",""
"null","","html-keyboard-response","78","366024","0.0-78.0","A1EHEQSM7S7PLO","<p style=""font-size: 48px;"">+</p>","","","","","null","allTrialResponses","1000","1","5","img_art/5.jpg","-38","Too abstract without enough going on to justify it. ","Joshua,Colton,James,Spencer,Kyle,Thomas","Very basic, but at least has some color to it.,-9,240,20","I like the strokes and colors used,20,220,20","Very bright and has colors you wouldn't think would go together,11,380,20","Boring, no flow except the pink feathery band,-42,120,20","Not sure what to say about this piece honestly. It's okay I guess.,0,340,20","I'm confused by what I am looking at,-3,220,20","Joshua","Very basic, but at least has some color to it.,-9,240,20","Thomas","I'm confused by what I am looking at,-3,220,20","Spencer","Boring, no flow except the pink feathery band,-42,120,20","0"
"258200","","survey-text","79","624248","0.0-79.0-0.0","A1EHEQSM7S7PLO","","","","{""Q0"":""sky""}","","","","","","","","","","","","","","","","","","","","","","",""
"18556","","survey-text","80","642807","0.0-80.0-0.0","A1EHEQSM7S7PLO","","","","{""Q0"":""Gret use of brushwork, enjoy the blues and dark colors""}","","","","","","","","","","","","","","","","","","","","","","",""
"2213.300000000745","","image-slider-response","81","645023","0.0-81.0","A1EHEQSM7S7PLO","","","","","22","","","","","","","","","","","","","","","","","","","","","",""
"null","","image-button-response","82","650027","0.0-82.0","A1EHEQSM7S7PLO","img_art/20.jpg","null","","","","","","","","","","","","","","","","","","","","","","","","",""
"1121","","image-button-response","83","651151","0.0-83.0","A1EHEQSM7S7PLO","img_art/20.jpg","1","","","","","","","","","","","","","","","","","","","","","","","","",""
"1852","","image-button-response","84","653008","0.0-84.0-0.0","A1EHEQSM7S7PLO","img_art/20.jpg","5","","","","","","","","","","","","","","","","","","","","","","","","",""
"1843","","image-button-response","85","654855","0.0-85.0-0.0","A1EHEQSM7S7PLO","img_art/20.jpg","0","","","","","","","","","","","","","","","","","","","","","","","","",""
"null","","html-keyboard-response","86","655357","0.0-86.0","A1EHEQSM7S7PLO","<p style=""font-size: 48px;"">+</p>","","","","","null","allTrialResponses","500","1","6","img_art/20.jpg","22","Gret use of brushwork, enjoy the blues and dark colors","Joshua,Michael,Kevin,Spencer,Luke,Thomas","Reminds me of the Southwest; i.e. New Mexico or Arizona. It's interesting.,12,240,20","Brings about an emotion response of dspair. Loose lines but yet has a cohesion.,8,140,20","The beast is running after you.,33,320,20","A sad past town, pollution, guess I like happier scenes,-30,120,20","it looks like a car crash which is depressing,-19,20,20","I really enjoy the contrast of colors (blue/red/orange),30,220,20","Michael","Brings about an emotion response of dspair. Loose lines but yet has a cohesion.,8,140,20","Thomas","I really enjoy the contrast of colors (blue/red/orange),30,220,20","Joshua","Reminds me of the Southwest; i.e. New Mexico or Arizona. It's interesting.,12,240,20","0"
"27951","","survey-text","87","683322","0.0-87.0-0.0","A1EHEQSM7S7PLO","","","","{""Q0"":""Enjoy the abstract coming from an empty space""}","","","","","","","","","","","","","","","","","","","","","","",""
"1684.800000000745","","image-slider-response","88","685010","0.0-88.0","A1EHEQSM7S7PLO","","","","","11","","","","","","","","","","","","","","","","","","","","","",""
"3595","","image-button-response","89","690015","0.0-89.0","A1EHEQSM7S7PLO","img_art/17.jpg","1","","","","","","","","","","","","","","","","","","","","","","","","",""
"432","","image-button-response","90","690450","0.0-90.0","A1EHEQSM7S7PLO","img_art/17.jpg","1","","","","","","","","","","","","","","","","","","","","","","","","",""
"1172","","image-button-response","91","691627","0.0-91.0-0.0","A1EHEQSM7S7PLO","img_art/17.jpg","4","","","","","","","","","","","","","","","","","","","","","","","","",""
"1691","","image-button-response","92","693323","0.0-92.0-0.0","A1EHEQSM7S7PLO","img_art/17.jpg","5","","","","","","","","","","","","","","","","","","","","","","","","",""
"null","","html-keyboard-response","93","694325","0.0-93.0","A1EHEQSM7S7PLO","<p style=""font-size: 48px;"">+</p>","","","","","null","allTrialResponses","1000","1","7","img_art/17.jpg","11","Enjoy the abstract coming from an empty space","Joshua,Michael,Dustin,Christian,Jeffrey,Thomas","Looks like an abandoned building that is being overtaken by nature.,-10,240,20","There is better structure and direction in this one.,19,140,20","Is it a tree/plant of some sort?  Or, I see hair?  I don't get it. But, the colors are pleasing to me.,1,20,20","tree sprouting out of a box (house) the invasion of nature?,39,140,20","Makes me warm and cozy just by looking at it,29,40,20","Colors and composition are beautiful. I would hang this in my home.,50,220,20","Michael","There is better structure and direction in this one.,19,140,20","Jeffrey","Makes me warm and cozy just by looking at it,29,40,20","Thomas","Colors and composition are beautiful. I would hang this in my home.,50,220,20","0"
"28405","","survey-text","94","722744","0.0-94.0-0.0","A1EHEQSM7S7PLO","","","","{""Q0"":""too busy and confusing. Looks like something a child would make""}","","","","","","","","","","","","","","","","","","","","","","",""
"1957.4000000003725","","image-slider-response","95","724704","0.0-95.0","A1EHEQSM7S7PLO","","","","","-46","","","","","","","","","","","","","","","","","","","","","",""
"4676","","image-button-response","96","729710","0.0-96.0","A1EHEQSM7S7PLO","img_art/9.jpg","1","","","","","","","","","","","","","","","","","","","","","","","","",""
"1399","","image-button-response","97","731113","0.0-97.0","A1EHEQSM7S7PLO","img_art/9.jpg","1","","","","","","","","","","","","","","","","","","","","","","","","",""
"4532","","image-button-response","98","735649","0.0-98.0-0.0","A1EHEQSM7S7PLO","img_art/9.jpg","5","","","","","","","","","","","","","","","","","","","","","","","","",""
"594","","image-button-response","99","736249","0.0-99.0-0.0","A1EHEQSM7S7PLO","img_art/9.jpg","4","","","","","","","","","","","","","","","","","","","","","","","","",""
"null","","html-keyboard-response","100","736752","0.0-100.0","A1EHEQSM7S7PLO","<p style=""font-size: 48px;"">+</p>","","","","","null","allTrialResponses","500","1","8","img_art/9.jpg","-46","too busy and confusing. Looks like something a child would make","Garrett,Michael,Austin,Jorge,Jeffrey,Thomas","This looks like someone sleeping in a bed, and I think the colors make it look interesting.,20,180,20","Looks like a young child drew it.,-45,140,20","Love the uniqueness,21,240,20","curious and unsure,12,180,20","Looks very relaxing; someone laying in a meadow,13,40,20","I don't like the picture, but it wouldn't surprise me if someone did,-20,220,20","Michael","Looks like a young child drew it.,-45,140,20","Thomas","I don't like the picture, but it wouldn't surprise me if someone did,-20,220,20","Jeffrey","Looks very relaxing; someone laying in a meadow,13,40,20","0"
"18101","","survey-text","101","754868","0.0-101.0-0.0","A1EHEQSM7S7PLO","","","","{""Q0"":""The background does not match the splatter, its too distracting.""}","","","","","","","","","","","","","","","","","","","","","","",""
"2044.6000000014901","","image-slider-response","102","756916","0.0-102.0","A1EHEQSM7S7PLO","","","","","-33","","","","","","","","","","","","","","","","","","","","","",""
"null","","image-button-response","103","761921","0.0-103.0","A1EHEQSM7S7PLO","img_art/13.jpg","null","","","","","","","","","","","","","","","","","","","","","","","","",""
"656","","image-button-response","104","762581","0.0-104.0","A1EHEQSM7S7PLO","img_art/13.jpg","5","","","","","","","","","","","","","","","","","","","","","","","","",""
"780","","image-button-response","105","763365","0.0-105.0-0.0","A1EHEQSM7S7PLO","img_art/13.jpg","4","","","","","","","","","","","","","","","","","","","","","","","","",""
"1659","","image-button-response","106","765028","0.0-106.0-0.0","A1EHEQSM7S7PLO","img_art/13.jpg","3","","","","","","","","","","","","","","","","","","","","","","","","",""
"null","","html-keyboard-response","107","765530","0.0-107.0","A1EHEQSM7S7PLO","<p style=""font-size: 48px;"">+</p>","","","","","null","allTrialResponses","500","1","9","img_art/13.jpg","-33","The background does not match the splatter, its too distracting.","Edward,Michael,Jose,Patrick,Jeffrey,Thomas","The colors are really pretty together,39,60,20","I don't car for it but it does seem organized and like it took considereably more skill that others.,9,140,20","Best color combo. i love this.,50,200,20","I love the different blue shades,31,280,20","Messy but organised, helps me to relax and observe,8,40,20","Nothing about this stands out to me,-10,220,20","Thomas","Nothing about this stands out to me,-10,220,20","Jeffrey","Messy but organised, helps me to relax and observe,8,40,20","Patrick","I love the different blue shades,31,280,20","0"
"16177","","survey-text","108","781723","0.0-108.0-0.0","A1EHEQSM7S7PLO","","","","{""Q0"":""Felt like this was almost something I could like, but didn't get there""}","","","","","","","","","","","","","","","","","","","","","","",""
"1565","","image-slider-response","109","783291","0.0-109.0","A1EHEQSM7S7PLO","","","","","-27","","","","","","","","","","","","","","","","","","","","","",""
"4860","","image-button-response","110","788295","0.0-110.0","A1EHEQSM7S7PLO","img_art/15.jpg","4","","","","","","","","","","","","","","","","","","","","","","","","",""
"601","","image-button-response","111","788899","0.0-111.0","A1EHEQSM7S7PLO","img_art/15.jpg","3","","","","","","","","","","","","","","","","","","","","","","","","",""
"998","","image-button-response","112","789899","0.0-112.0-0.0","A1EHEQSM7S7PLO","img_art/15.jpg","2","","","","","","","","","","","","","","","","","","","","","","","","",""
"460","","image-button-response","113","790364","0.0-113.0-0.0","A1EHEQSM7S7PLO","img_art/15.jpg","4","","","","","","","","","","","","","","","","","","","","","","","","",""
"null","","html-keyboard-response","114","791366","0.0-114.0","A1EHEQSM7S7PLO","<p style=""font-size: 48px;"">+</p>","","","","","null","allTrialResponses","1000","1","10","img_art/15.jpg","-27","Felt like this was almost something I could like, but didn't get there","Jeremy,Alexander,Elijah,Patrick,Jeffrey,Thomas","I feel nothing when looking at this,1,60,20","Leafs spread on the ground.,27,120,20","Makes me feel weird,-16,80,20","I don't like the black dots,-19,280,20","dark and I can not see a meaning behind it,-31,40,20","Interesting, and I don't dislike it.,9,220,20","Patrick","I don't like the black dots,-19,280,20","Elijah","Makes me feel weird,-16,80,20","Jeffrey","dark and I can not see a meaning behind it,-31,40,20","0"
"3352","","survey-text","115","794746","0.0-115.0-0.0","A1EHEQSM7S7PLO","","","","{""Q0"":""our""}","","","","","","","","","","","","","","","","","","","","","","",""
"45960","","survey-text","116","840709","0.0-116.0-0.0","A1EHEQSM7S7PLO","","","","{""Q0"":""I like the depth that this one with the abstract presentation. Death rides a pale horse""}","","","","","","","","","","","","","","","","","","","","","","",""
"2420.9000000003725","","image-slider-response","117","843133","0.0-117.0","A1EHEQSM7S7PLO","","","","","50","","","","","","","","","","","","","","","","","","","","","",""
"null","","image-button-response","118","848137","0.0-118.0","A1EHEQSM7S7PLO","img_art/18.jpg","null","","","","","","","","","","","","","","","","","","","","","","","","",""
"945","","image-button-response","119","849085","0.0-119.0","A1EHEQSM7S7PLO","img_art/18.jpg","0","","","","","","","","","","","","","","","","","","","","","","","","",""
"1220","","image-button-response","120","850309","0.0-120.0-0.0","A1EHEQSM7S7PLO","img_art/18.jpg","0","","","","","","","","","","","","","","","","","","","","","","","","",""
"639","","image-button-response","121","855629","0.0-120.1-0.1","A1EHEQSM7S7PLO","img_art/18.jpg","0","","","","","","","","","","","","","","","","","","","","","","","","",""
"1374","","image-button-response","122","859629","0.0-120.2-0.2","A1EHEQSM7S7PLO","img_art/18.jpg","2","","","","","","","","","","","","","","","","","","","","","","","","",""
"3017","","image-button-response","123","862650","0.0-121.0-0.0","A1EHEQSM7S7PLO","img_art/18.jpg","4","","","","","","","","","","","","","","","","","","","","","","","","",""
"null","","html-keyboard-response","124","863653","0.0-122.0","A1EHEQSM7S7PLO","<p style=""font-size: 48px;"">+</p>","","","","","null","allTrialResponses","1000","1","11","img_art/18.jpg","50","I like the depth that this one with the abstract presentation. Death rides a pale horse","Daniel,Benjamin,Elijah,Patrick,Jeffrey,Ryan","Nice palette with complexity becoming nice at the center,34,320,20","ugly and lots of movement,-6,260,20","Makes me feel confused,16,80,20","Too abstract and swirly,-21,280,20","Makes me to look at it and investigate what it is about and what is going on,17,40,20","Too political, not my cup of tea,-50,380,20","Daniel","Nice palette with complexity becoming nice at the center,34,320,20","Elijah","Makes me feel confused,16,80,20","Jeffrey","Makes me to look at it and investigate what it is about and what is going on,17,40,20","4"
"18585","","survey-text","125","882256","0.0-123.0-0.0","A1EHEQSM7S7PLO","","","","{""Q0"":""Too abstract, muted colors, not a lot going on""}","","","","","","","","","","","","","","","","","","","","","","",""
"1517.800000000745","","image-slider-response","126","883776","0.0-124.0","A1EHEQSM7S7PLO","","","","","-39","","","","","","","","","","","","","","","","","","","","","",""
"null","","image-button-response","127","888781","0.0-125.0","A1EHEQSM7S7PLO","img_art/28.jpg","null","","","","","","","","","","","","","","","","","","","","","","","","",""
"2704","","image-button-response","128","891488","0.0-126.0","A1EHEQSM7S7PLO","img_art/28.jpg","3","","","","","","","","","","","","","","","","","","","","","","","","",""
"1037","","image-button-response","129","892528","0.0-127.0-0.0","A1EHEQSM7S7PLO","img_art/28.jpg","0","","","","","","","","","","","","","","","","","","","","","","","","",""
"829","","image-button-response","130","893360","0.0-128.0-0.0","A1EHEQSM7S7PLO","img_art/28.jpg","2","","","","","","","","","","","","","","","","","","","","","","","","",""
"null","","html-keyboard-response","131","893862","0.0-129.0","A1EHEQSM7S7PLO","<p style=""font-size: 48px;"">+</p>","","","","","null","allTrialResponses","500","1","12","img_art/28.jpg","-39","Too abstract, muted colors, not a lot going on","Daniel,Mark,Elijah,Juan,Jeffrey,Tristan","Compact grey mess lack negative space,-10,320,20","It reminds me of the cantina in Star Wars.,37,80,20","The colors are depressing,-5,80,20","It's such a blah piece and way too abstract.,-50,260,20","Nothing calls my attention,15,40,20","Contemplative and a little dark. The muted colors and subject create a sense of mystery.,15,300,20","Juan","It's such a blah piece and way too abstract.,-50,260,20","Daniel","Compact grey mess lack negative space,-10,320,20","Elijah","The colors are depressing,-5,80,20","4"
"14895","","survey-text","132","908774","0.0-130.0-0.0","A1EHEQSM7S7PLO","","","","{""Q0"":""Not enough going on for this level of abstract.""}","","","","","","","","","","","","","","","","","","","","","","",""
"1860.8999999985099","","image-slider-response","133","910638","0.0-131.0","A1EHEQSM7S7PLO","","","","","-26","","","","","","","","","","","","","","","","","","","","","",""
"null","","image-button-response","134","915643","0.0-132.0","A1EHEQSM7S7PLO","img_art/3.jpg","null","","","","","","","","","","","","","","","","","","","","","","","","",""
"1161","","image-button-response","135","916806","0.0-133.0","A1EHEQSM7S7PLO","img_art/3.jpg","0","","","","","","","","","","","","","","","","","","","","","","","","",""
"1124","","image-button-response","136","917935","0.0-134.0-0.0","A1EHEQSM7S7PLO","img_art/3.jpg","3","","","","","","","","","","","","","","","","","","","","","","","","",""
"1139","","image-button-response","137","919078","0.0-135.0-0.0","A1EHEQSM7S7PLO","img_art/3.jpg","1","","","","","","","","","","","","","","","","","","","","","","","","",""
"null","","html-keyboard-response","138","920086","0.0-136.0","A1EHEQSM7S7PLO","<p style=""font-size: 48px;"">+</p>","","","","","null","allTrialResponses","1000","1","13","img_art/3.jpg","-26","Not enough going on for this level of abstract.","Daniel,Blake,Elijah,Juan,Robert,Christopher","5 min scribble by a 3 year old,-46,320,20","painted by a 2 year old. cold and boring,-30,280,20","Somebody scribbled on a piece of paper,-35,80,20","It makes me think of just an angry scribble. There's no beauty to it for me.,-50,260,20","I think of an angry child,-50,360,20","the red is impactful but the work overall doesn't say anything to me,-8,160,20","Daniel","5 min scribble by a 3 year old,-46,320,20","Juan","It makes me think of just an angry scribble. There's no beauty to it for me.,-50,260,20","Blake","painted by a 2 year old. cold and boring,-30,280,20","4"
"17578","","survey-text","139","937682","0.0-137.0-0.0","A1EHEQSM7S7PLO","","","","{""Q0"":""Good use of color, but do not like the perspective""}","","","","","","","","","","","","","","","","","","","","","","",""
"1428.9000000003725","","image-slider-response","140","939114","0.0-138.0","A1EHEQSM7S7PLO","","","","","-33","","","","","","","","","","","","","","","","","","","","","",""
"null","","image-button-response","141","944118","0.0-139.0","A1EHEQSM7S7PLO","img_art/24.jpg","null","","","","","","","","","","","","","","","","","","","","","","","","",""
"1569","","image-button-response","142","945691","0.0-140.0","A1EHEQSM7S7PLO","img_art/24.jpg","5","","","","","","","","","","","","","","","","","","","","","","","","",""
"1380","","image-button-response","143","947074","0.0-141.0-0.0","A1EHEQSM7S7PLO","img_art/24.jpg","3","","","","","","","","","","","","","","","","","","","","","","","","",""
"3308","","image-button-response","144","950386","0.0-142.0-0.0","A1EHEQSM7S7PLO","img_art/24.jpg","0","","","","","","","","","","","","","","","","","","","","","","","","",""
"null","","html-keyboard-response","145","951888","0.0-143.0","A1EHEQSM7S7PLO","<p style=""font-size: 48px;"">+</p>","","","","","null","allTrialResponses","1500","1","14","img_art/24.jpg","-33","Good use of color, but do not like the perspective","Daniel,Blake,William,Juan,Nathan,Richard","Classic palette lacks real world 3d construction,19,320,20","warm spring day after a rain. soft,20,280,20","very peaceful and serene,47,380,20","I love the colors, but I wish the water was less abstract.,17,260,20","Looks like a mystical type of forest/waterfall. Love it,40,200,20","flowing water part is good, some of the rest is ok but dark,14,340,20","Richard","flowing water part is good, some of the rest is ok but dark,14,340,20","Juan","I love the colors, but I wish the water was less abstract.,17,260,20","Daniel","Classic palette lacks real world 3d construction,19,320,20","4"
"18716","","survey-text","146","970625","0.0-144.0-0.0","A1EHEQSM7S7PLO","","","","{""Q0"":""Weird for the sake of being weird, falls flat.""}","","","","","","","","","","","","","","","","","","","","","","",""
"1588.9000000003725","","image-slider-response","147","972216","0.0-145.0","A1EHEQSM7S7PLO","","","","","-42","","","","","","","","","","","","","","","","","","","","","",""
"null","","image-button-response","148","977221","0.0-146.0","A1EHEQSM7S7PLO","img_art/16.jpg","null","","","","","","","","","","","","","","","","","","","","","","","","",""
"1426","","image-button-response","149","978649","0.0-147.0","A1EHEQSM7S7PLO","img_art/16.jpg","5","","","","","","","","","","","","","","","","","","","","","","","","",""
"892","","image-button-response","150","979544","0.0-148.0-0.0","A1EHEQSM7S7PLO","img_art/16.jpg","0","","","","","","","","","","","","","","","","","","","","","","","","",""
"646","","image-button-response","151","980195","0.0-149.0-0.0","A1EHEQSM7S7PLO","img_art/16.jpg","3","","","","","","","","","","","","","","","","","","","","","","","","",""
"null","","html-keyboard-response","152","980697","0.0-150.0","A1EHEQSM7S7PLO","<p style=""font-size: 48px;"">+</p>","","","","","null","allTrialResponses","500","1","15","img_art/16.jpg","-42","Weird for the sake of being weird, falls flat.","Daniel,Jesse,Bryce,Juan,Seth,Richard","Ugly, broken up and mismatched,-50,320,20","I dont feel any real response,5,80,20","The teddy bear is scary as hell.,-44,20,20","This is too bizarre.,-39,260,20","This one isn't for me. It came off as strange but not in a good way.,-44,60,20","nonsense art, not really art,-44,340,20","Richard","nonsense art, not really art,-44,340,20","Daniel","Ugly, broken up and mismatched,-50,320,20","Juan","This is too bizarre.,-39,260,20","4"
"3061","","survey-text","153","983793","0.0-151.0-0.0","A1EHEQSM7S7PLO","","","","{""Q0"":""course""}","","","","","","","","","","","","","","","","","","","","","","",""
"16877","","survey-text","154","1000673","0.0-152.0-0.0","A1EHEQSM7S7PLO","","","","{""Q0"":""Great blending of one color to another, very peaceful""}","","","","","","","","","","","","","","","","","","","","","","",""
"2317.0999999996275","","image-slider-response","155","1002992","0.0-153.0","A1EHEQSM7S7PLO","","","","","34","","","","","","","","","","","","","","","","","","","","","",""
"null","","image-button-response","156","1007997","0.0-154.0","A1EHEQSM7S7PLO","img_art/21.jpg","null","","","","","","","","","","","","","","","","","","","","","","","","",""
"1225","","image-button-response","157","1009225","0.0-155.0","A1EHEQSM7S7PLO","img_art/21.jpg","5","","","","","","","","","","","","","","","","","","","","","","","","",""
"772","","image-button-response","158","1010000","0.0-156.0-0.0","A1EHEQSM7S7PLO","img_art/21.jpg","0","","","","","","","","","","","","","","","","","","","","","","","","",""
"460","","image-button-response","159","1010465","0.0-157.0-0.0","A1EHEQSM7S7PLO","img_art/21.jpg","2","","","","","","","","","","","","","","","","","","","","","","","","",""
"null","","html-keyboard-response","160","1010967","0.0-158.0","A1EHEQSM7S7PLO","<p style=""font-size: 48px;"">+</p>","","","","","null","allTrialResponses","500","1","16","img_art/21.jpg","34","Great blending of one color to another, very peaceful","Daniel,Ethan,Gabriel,Juan,Antonio,Richard","Nice asymmetry with maritime colors city meets the sea,34,320,20","This is lovely. I like the mix of colors, the warn and cool slowly combining.,39,120,20","i like watercolor,22,160,20","The colors and softness work together to make something that's lovely.,42,260,20","the colors are pretty but I did not feel any thing looking at it,33,220,20","setting sun sky? nice colors and blending,14,340,20","Richard","setting sun sky? nice colors and blending,14,340,20","Daniel","Nice asymmetry with maritime colors city meets the sea,34,320,20","Gabriel","i like watercolor,22,160,20","4"
"18819","","survey-text","161","1029807","0.0-159.0-0.0","A1EHEQSM7S7PLO","","","","{""Q0"":""Enjoy the colors and blend, but the presentation and design do not do it for me""}","","","","","","","","","","","","","","","","","","","","","","",""
"1765.2000000011176","","image-slider-response","162","1031575","0.0-160.0","A1EHEQSM7S7PLO","","","","","-26","","","","","","","","","","","","","","","","","","","","","",""
"null","","image-button-response","163","1036579","0.0-161.0","A1EHEQSM7S7PLO","img_art/22.jpg","null","","","","","","","","","","","","","","","","","","","","","","","","",""
"888","","image-button-response","164","1037472","0.0-162.0","A1EHEQSM7S7PLO","img_art/22.jpg","2","","","","","","","","","","","","","","","","","","","","","","","","",""
"4051","","image-button-response","165","1041527","0.0-163.0-0.0","A1EHEQSM7S7PLO","img_art/22.jpg","4","","","","","","","","","","","","","","","","","","","","","","","","",""
"979","","image-button-response","166","1042511","0.0-164.0-0.0","A1EHEQSM7S7PLO","img_art/22.jpg","5","","","","","","","","","","","","","","","","","","","","","","","","",""
"null","","html-keyboard-response","167","1043013","0.0-165.0","A1EHEQSM7S7PLO","<p style=""font-size: 48px;"">+</p>","","","","","null","allTrialResponses","500","1","17","img_art/22.jpg","-26","Enjoy the colors and blend, but the presentation and design do not do it for me","Daniel,Jonathan,Gabriel,Scott,Victor,Richard","Organic sun spot on a flexible grid,18,320,20","The warm and color colors together in this way feels exciting,39,140,20","its messy, like a child painted it,-14,160,20","really beautiful colors and contrast,30,20,20","I don't really know why, I just like looking at it,10,340,20","another OK work, mostly because of the blend of colors,12,340,20","Gabriel","its messy, like a child painted it,-14,160,20","Victor","I don't really know why, I just like looking at it,10,340,20","Richard","another OK work, mostly because of the blend of colors,12,340,20","4"
"14323","","survey-text","168","1057357","0.0-166.0-0.0","A1EHEQSM7S7PLO","","","","{""Q0"":""Too simple, not enough going on.""}","","","","","","","","","","","","","","","","","","","","","","",""
"1557.5","","image-slider-response","169","1058917","0.0-167.0","A1EHEQSM7S7PLO","","","","","-26","","","","","","","","","","","","","","","","","","","","","",""
"null","","image-button-response","170","1063922","0.0-168.0","A1EHEQSM7S7PLO","img_art/6.jpg","null","","","","","","","","","","","","","","","","","","","","","","","","",""
"2152","","image-button-response","171","1066077","0.0-169.0","A1EHEQSM7S7PLO","img_art/6.jpg","0","","","","","","","","","","","","","","","","","","","","","","","","",""
"1293","","image-button-response","172","1067373","0.0-170.0-0.0","A1EHEQSM7S7PLO","img_art/6.jpg","2","","","","","","","","","","","","","","","","","","","","","","","","",""
"676","","image-button-response","173","1068053","0.0-171.0-0.0","A1EHEQSM7S7PLO","img_art/6.jpg","5","","","","","","","","","","","","","","","","","","","","","","","","",""
"null","","html-keyboard-response","174","1069056","0.0-172.0","A1EHEQSM7S7PLO","<p style=""font-size: 48px;"">+</p>","","","","","null","allTrialResponses","1000","1","18","img_art/6.jpg","-26","Too simple, not enough going on.","Timothy,Corey,Gabriel,Zachary,Victor,Richard","I dont feel much of a responce or connection to this one,0,240,20","reminds me of a happy edgar allen poe poem,8,260,20","its like a jalapeno,-28,160,20","Reminds me of a plant poking through the soil. It reminds me of new life.,31,400,20","The background on the upper half is nice. I also like the contrast of the top and bottom halves,5,340,20","simplistic but reminds me of a crow in a field,-10,340,20","Timothy","I dont feel much of a responce or connection to this one,0,240,20","Gabriel","its like a jalapeno,-28,160,20","Richard","simplistic but reminds me of a crow in a field,-10,340,20","4"
"17534","","survey-text","175","1086611","0.0-173.0-0.0","A1EHEQSM7S7PLO","","","","{""Q0"":""Looks like a tie-dye shirt""}","","","","","","","","","","","","","","","","","","","","","","",""
"1398","","image-slider-response","176","1088011","0.0-174.0","A1EHEQSM7S7PLO","","","","","-32","","","","","","","","","","","","","","","","","","","","","",""
"null","","image-button-response","177","1093017","0.0-175.0","A1EHEQSM7S7PLO","img_art/1.jpg","null","","","","","","","","","","","","","","","","","","","","","","","","",""
"1080","","image-button-response","178","1094100","0.0-176.0","A1EHEQSM7S7PLO","img_art/1.jpg","1","","","","","","","","","","","","","","","","","","","","","","","","",""
"676","","image-button-response","179","1094780","0.0-177.0-0.0","A1EHEQSM7S7PLO","img_art/1.jpg","5","","","","","","","","","","","","","","","","","","","","","","","","",""
"307","","image-button-response","180","1095092","0.0-178.0-0.0","A1EHEQSM7S7PLO","img_art/1.jpg","4","","","","","","","","","","","","","","","","","","","","","","","","",""
"null","","html-keyboard-response","181","1096595","0.0-179.0","A1EHEQSM7S7PLO","<p style=""font-size: 48px;"">+</p>","","","","","null","allTrialResponses","1500","1","19","img_art/1.jpg","-32","Looks like a tie-dye shirt","Timothy,Mitchell,Gabriel,Peter,Jesus,Richard","This one has a pleasent energy,15,240,20","confused,animal like brain fog,0,180,20","this ones alright,10,160,20","Nothing whatsoever,2,320,20","I like the simple aspect to the design,21,100,20","nice piece, fall like,31,340,20","Mitchell","confused,animal like brain fog,0,180,20","Richard","nice piece, fall like,31,340,20","Jesus","I like the simple aspect to the design,21,100,20","4"
"15096","","survey-text","182","1111713","0.0-180.0-0.0","A1EHEQSM7S7PLO","","","","{""Q0"":""Enjoy the texture, but the design is too chaotic and distracting""}","","","","","","","","","","","","","","","","","","","","","","",""
"1269.6000000014901","","image-slider-response","183","1112985","0.0-181.0","A1EHEQSM7S7PLO","","","","","-35","","","","","","","","","","","","","","","","","","","","","",""
"null","","image-button-response","184","1117989","0.0-182.0","A1EHEQSM7S7PLO","img_art/29.jpg","null","","","","","","","","","","","","","","","","","","","","","","","","",""
"3905","","image-button-response","185","1121897","0.0-183.0","A1EHEQSM7S7PLO","img_art/29.jpg","2","","","","","","","","","","","","","","","","","","","","","","","","",""
"1509","","image-button-response","186","1123409","0.0-184.0-0.0","A1EHEQSM7S7PLO","img_art/29.jpg","1","","","","","","","","","","","","","","","","","","","","","","","","",""
"381","","image-button-response","187","1123792","0.0-185.0-0.0","A1EHEQSM7S7PLO","img_art/29.jpg","0","","","","","","","","","","","","","","","","","","","","","","","","",""
"null","","html-keyboard-response","188","1124795","0.0-186.0","A1EHEQSM7S7PLO","<p style=""font-size: 48px;"">+</p>","","","","","null","allTrialResponses","1000","1","20","img_art/29.jpg","-35","Enjoy the texture, but the design is too chaotic and distracting","Shane,Mitchell,Tyler,Stephen,Jesus,Richard","Darkness and torment,-50,80,20","death, darkness, negative picture,-31,180,20","Well if the artist themself is crossing it out, why should I pay any mind?,-30,320,20","Really enjoy everything about this one.,50,140,20","The light source is confusing, but still interesting to look at,11,100,20","it's OK, no clue to what's going on but good use of light and dark,4,340,20","Tyler","Well if the artist themself is crossing it out, why should I pay any mind?,-30,320,20","Mitchell","death, darkness, negative picture,-31,180,20","Shane","Darkness and torment,-50,80,20","4"
"2773","","survey-text","189","1127600","0.0-187.0-0.0","A1EHEQSM7S7PLO","","","","{""Q0"":""we""}","","","","","","","","","","","","","","","","","","","","","","",""
"20270","","survey-text","190","1147871","0.0-188.0-0.0","A1EHEQSM7S7PLO","","","","{""Q0"":""Invokes the design of a guitar, nice abstract piece""}","","","","","","","","","","","","","","","","","","","","","","",""
"1957","","image-slider-response","191","1149831","0.0-189.0","A1EHEQSM7S7PLO","","","","","31","","","","","","","","","","","","","","","","","","","","","",""
"null","","image-button-response","192","1154836","0.0-190.0","A1EHEQSM7S7PLO","img_art/10.jpg","null","","","","","","","","","","","","","","","","","","","","","","","","",""
"2144","","image-button-response","193","1156984","0.0-191.0","A1EHEQSM7S7PLO","img_art/10.jpg","4","","","","","","","","","","","","","","","","","","","","","","","","",""
"724","","image-button-response","194","1157711","0.0-192.0-0.0","A1EHEQSM7S7PLO","img_art/10.jpg","1","","","","","","","","","","","","","","","","","","","","","","","","",""
"1227","","image-button-response","195","1158944","0.0-193.0-0.0","A1EHEQSM7S7PLO","img_art/10.jpg","5","","","","","","","","","","","","","","","","","","","","","","","","",""
"null","","html-keyboard-response","196","1159446","0.0-194.0","A1EHEQSM7S7PLO","<p style=""font-size: 48px;"">+</p>","","","","","null","allTrialResponses","500","1","21","img_art/10.jpg","31","Invokes the design of a guitar, nice abstract piece","Shane,Mitchell,Tyler,Luis,Bryan,Carlos","Like a decision making process,46,80,20","Circle of life, with highs and lows, good and bad. You always weather the storm and come out on top.,40,180,20","In proper lighting I might enjoy this,11,320,20","I love the dark and edgy nature of this,50,400,20","First impression was musical instrument then, because of the gray colors, death.,5,400,20","The colors and shapes are soothing but also disconcerting.,21,80,20","Bryan","First impression was musical instrument then, because of the gray colors, death.,5,400,20","Mitchell","Circle of life, with highs and lows, good and bad. You always weather the storm and come out on top.,40,180,20","Carlos","The colors and shapes are soothing but also disconcerting.,21,80,20","4"
"631560","","survey-text","197","1791030","0.0-195.0-0.0","A1EHEQSM7S7PLO","","","","{""Q0"":""The green parts kind of ruin an otherwise solid painting, both in color and design.""}","","","","","","","","","","","","","","","","","","","","","","",""
"1436.7000000011176","","image-slider-response","198","1792469","0.0-196.0","A1EHEQSM7S7PLO","","","","","-21","","","","","","","","","","","","","","","","","","","","","",""
"null","","image-button-response","199","1797475","0.0-197.0","A1EHEQSM7S7PLO","img_art/27.jpg","null","","","","","","","","","","","","","","","","","","","","","","","","",""
"2216","","image-button-response","200","1799694","0.0-198.0","A1EHEQSM7S7PLO","img_art/27.jpg","4","","","","","","","","","","","","","","","","","","","","","","","","",""
"1451","","image-button-response","201","1801150","0.0-199.0-0.0","A1EHEQSM7S7PLO","img_art/27.jpg","5","","","","","","","","","","","","","","","","","","","","","","","","",""
"3186","","image-button-response","202","1804342","0.0-200.0-0.0","A1EHEQSM7S7PLO","img_art/27.jpg","3","","","","","","","","","","","","","","","","","","","","","","","","",""
"null","","html-keyboard-response","203","1805845","0.0-201.0","A1EHEQSM7S7PLO","<p style=""font-size: 48px;"">+</p>","","","","","null","allTrialResponses","1500","1","22","img_art/27.jpg","-21","The green parts kind of ruin an otherwise solid painting, both in color and design.","Logan,Mitchell,Jason,Angel,Bryan,Carlos","demon vs angel brawl over lemon lime sprite,-10,360,20","Angelic, childlike. happiness but also with sadness.,40,180,20","The variation of orange is nice,9,20,20","Makes me think of Japanese food. I perceive it as comfortable and healthy.,20,180,20","Not fond of the bad pencil drawing mixed with the drab colors.,-21,400,20","The green lines disrupt the image in an unpleasant and hurried way.,-30,80,20","Bryan","Not fond of the bad pencil drawing mixed with the drab colors.,-21,400,20","Carlos","The green lines disrupt the image in an unpleasant and hurried way.,-30,80,20","Angel","Makes me think of Japanese food. I perceive it as comfortable and healthy.,20,180,20","4"
"22911","","survey-text","204","1828780","0.0-202.0-0.0","A1EHEQSM7S7PLO","","","","{""Q0"":""Good gradient of color, but too much white space. ""}","","","","","","","","","","","","","","","","","","","","","","",""
"2092.89999999851","","image-slider-response","205","1830875","0.0-203.0","A1EHEQSM7S7PLO","","","","","-8","","","","","","","","","","","","","","","","","","","","","",""
"null","","image-button-response","206","1835880","0.0-204.0","A1EHEQSM7S7PLO","img_art/12.jpg","null","","","","","","","","","","","","","","","","","","","","","","","","",""
"1457","","image-button-response","207","1837340","0.0-205.0","A1EHEQSM7S7PLO","img_art/12.jpg","2","","","","","","","","","","","","","","","","","","","","","","","","",""
"1645","","image-button-response","208","1838987","0.0-206.0-0.0","A1EHEQSM7S7PLO","img_art/12.jpg","0","","","","","","","","","","","","","","","","","","","","","","","","",""
"1500","","image-button-response","209","1840491","0.0-207.0-0.0","A1EHEQSM7S7PLO","img_art/12.jpg","0","","","","","","","","","","","","","","","","","","","","","","","","",""
"407","","image-button-response","210","1843028","0.0-207.1-0.1","A1EHEQSM7S7PLO","img_art/12.jpg","3","","","","","","","","","","","","","","","","","","","","","","","","",""
"null","","html-keyboard-response","211","1844530","0.0-208.0","A1EHEQSM7S7PLO","<p style=""font-size: 48px;"">+</p>","","","","","null","allTrialResponses","1500","1","23","img_art/12.jpg","-8","Good gradient of color, but too much white space. ","Alejandro,Evan,Dylan,Angel,Bryan,Carlos","I like the sectioned nature of the squares and curves. Not my favorite but still a good one.,27,80,20","It reminds me of the documentary Paris is Burning, though I'm not sure why,11,140,20","I like the pattern of this picture, but the colors could be nicer,11,40,20","This feels cosmopolitan. Like looking at a high rise apartment at night and seeing into everyone's windows.,20,180,20","Love the colors & the abstractness.,31,400,20","It is very bland and the colors are not cohesive.,-20,80,20","Dylan","I like the pattern of this picture, but the colors could be nicer,11,40,20","Alejandro","I like the sectioned nature of the squares and curves. Not my favorite but still a good one.,27,80,20","Angel","This feels cosmopolitan. Like looking at a high rise apartment at night and seeing into everyone's windows.,20,180,20","6"
"13983","","survey-text","212","1858538","0.0-209.0-0.0","A1EHEQSM7S7PLO","","","","{""Q0"":""The color palette ruins this one for me. ""}","","","","","","","","","","","","","","","","","","","","","","",""
"1285.2000000011176","","image-slider-response","213","1859826","0.0-210.0","A1EHEQSM7S7PLO","","","","","-34","","","","","","","","","","","","","","","","","","","","","",""
"null","","image-button-response","214","1864831","0.0-211.0","A1EHEQSM7S7PLO","img_art/2.jpg","null","","","","","","","","","","","","","","","","","","","","","","","","",""
"608","","image-button-response","215","1865443","0.0-212.0","A1EHEQSM7S7PLO","img_art/2.jpg","1","","","","","","","","","","","","","","","","","","","","","","","","",""
"1868","","image-button-response","216","1867315","0.0-213.0-0.0","A1EHEQSM7S7PLO","img_art/2.jpg","5","","","","","","","","","","","","","","","","","","","","","","","","",""
"587","","image-button-response","217","1867906","0.0-214.0-0.0","A1EHEQSM7S7PLO","img_art/2.jpg","0","","","","","","","","","","","","","","","","","","","","","","","","",""
"null","","html-keyboard-response","218","1869409","0.0-215.0","A1EHEQSM7S7PLO","<p style=""font-size: 48px;"">+</p>","","","","","null","allTrialResponses","1500","1","24","img_art/2.jpg","-34","The color palette ruins this one for me. ","Alejandro,Sean,Dylan,Angel,Isaac,David","Looks contrived and like someone tried to hard to make it abstract,-31,80,20","looks like a bunch of gibberish,-39,40,20","This is ugly- too plain and busy at the same time,-9,40,20","I think I'm put off by the clashing colors here. It feels discombobulated and sick.,-10,180,20","Not sure what is happening. I'm not a big fan of the colors but they don't bother me either.,1,280,20","I feel that its too abstract for me to understand what I'm looking at.,-15,340,20","Sean","looks like a bunch of gibberish,-39,40,20","David","I feel that its too abstract for me to understand what I'm looking at.,-15,340,20","Alejandro","Looks contrived and like someone tried to hard to make it abstract,-31,80,20","6"
"18639","","survey-text","219","1888072","0.0-216.0-0.0","A1EHEQSM7S7PLO","","","","{""Q0"":""Looks like a toddlers finger painting of Winnie the Pooh""}","","","","","","","","","","","","","","","","","","","","","","",""
"2325.0999999996275","","image-slider-response","220","1890399","0.0-217.0","A1EHEQSM7S7PLO","","","","","-50","","","","","","","","","","","","","","","","","","","","","",""
"null","","image-button-response","221","1895404","0.0-218.0","A1EHEQSM7S7PLO","img_art/4.jpg","null","","","","","","","","","","","","","","","","","","","","","","","","",""
"1545","","image-button-response","222","1896952","0.0-219.0","A1EHEQSM7S7PLO","img_art/4.jpg","0","","","","","","","","","","","","","","","","","","","","","","","","",""
"1997","","image-button-response","223","1898952","0.0-220.0-0.0","A1EHEQSM7S7PLO","img_art/4.jpg","2","","","","","","","","","","","","","","","","","","","","","","","","",""
"877","","image-button-response","224","1899832","0.0-221.0-0.0","A1EHEQSM7S7PLO","img_art/4.jpg","1","","","","","","","","","","","","","","","","","","","","","","","","",""
"null","","html-keyboard-response","225","1900334","0.0-222.0","A1EHEQSM7S7PLO","<p style=""font-size: 48px;"">+</p>","","","","","null","allTrialResponses","500","1","25","img_art/4.jpg","-50","Looks like a toddlers finger painting of Winnie the Pooh","Alejandro,Sean,Brian,Charles,Connor,David","Looks like finger nails from the Guinness world record book.,-30,80,20","dont know what im looking at,1,40,20","it reminds me of McDonalds, and not in a good way.,-34,380,20","It's ok, theres nothing that draws me away from it I guess,0,100,20","Seems simplistic,-8,240,20","I like the design. It can be interpreted in various ways, such as a hand of horror or still piece.,15,340,20","Alejandro","Looks like finger nails from the Guinness world record book.,-30,80,20","Brian","it reminds me of McDonalds, and not in a good way.,-34,380,20","Sean","dont know what im looking at,1,40,20","6"
"3116","","survey-text","226","1903503","0.0-223.0-0.0","A1EHEQSM7S7PLO","","","","{""Q0"":""table""}","","","","","","","","","","","","","","","","","","","","","","",""
"22404","","survey-text","227","1925910","0.0-224.0-0.0","A1EHEQSM7S7PLO","","","","{""Q0"":""Solid for an amateur watercolor scene. ""}","","","","","","","","","","","","","","","","","","","","","","",""
"1805.0999999996275","","image-slider-response","228","1927718","0.0-225.0","A1EHEQSM7S7PLO","","","","","5","","","","","","","","","","","","","","","","","","","","","",""
"null","","image-button-response","229","1932723","0.0-226.0","A1EHEQSM7S7PLO","img_art/26.jpg","null","","","","","","","","","","","","","","","","","","","","","","","","",""
"2048","","image-button-response","230","1934774","0.0-227.0","A1EHEQSM7S7PLO","img_art/26.jpg","1","","","","","","","","","","","","","","","","","","","","","","","","",""
"715","","image-button-response","231","1935495","0.0-228.0-0.0","A1EHEQSM7S7PLO","img_art/26.jpg","3","","","","","","","","","","","","","","","","","","","","","","","","",""
"1931","","image-button-response","232","1937429","0.0-229.0-0.0","A1EHEQSM7S7PLO","img_art/26.jpg","5","","","","","","","","","","","","","","","","","","","","","","","","",""
"null","","html-keyboard-response","233","1938932","0.0-230.0","A1EHEQSM7S7PLO","<p style=""font-size: 48px;"">+</p>","","","","","null","allTrialResponses","1500","1","26","img_art/26.jpg","5","Solid for an amateur watercolor scene. ","Alejandro,Sean,Brian,Gregory,Nicholas,Ian","Do not like water colors at all,-50,80,20","picture looks alright,1,40,20","I'm not really into landscapes unless I have a personal connection to them,-21,380,20","Street corner on a sunny day,5,220,20","I like the colors and trees. Seems cheap vintage retail store art but i love it anyways,50,240,20","This seems pretty and sweet, it's something I would like to actually see.,31,260,20","Sean","picture looks alright,1,40,20","Gregory","Street corner on a sunny day,5,220,20","Ian","This seems pretty and sweet, it's something I would like to actually see.,31,260,20","6"
"23826","","survey-text","234","1962787","0.0-231.0-0.0","A1EHEQSM7S7PLO","","","","{""Q0"":""Very busy, but I like the use of white here against the chaos behind it.""}","","","","","","","","","","","","","","","","","","","","","","",""
"2340.9000000003725","","image-slider-response","235","1965131","0.0-232.0","A1EHEQSM7S7PLO","","","","","28","","","","","","","","","","","","","","","","","","","","","",""
"null","","image-button-response","236","1970135","0.0-233.0","A1EHEQSM7S7PLO","img_art/23.jpg","null","","","","","","","","","","","","","","","","","","","","","","","","",""
"1969","","image-button-response","237","1972107","0.0-234.0","A1EHEQSM7S7PLO","img_art/23.jpg","1","","","","","","","","","","","","","","","","","","","","","","","","",""
"820","","image-button-response","238","1972931","0.0-235.0-0.0","A1EHEQSM7S7PLO","img_art/23.jpg","0","","","","","","","","","","","","","","","","","","","","","","","","",""
"732","","image-button-response","239","1973668","0.0-236.0-0.0","A1EHEQSM7S7PLO","img_art/23.jpg","5","","","","","","","","","","","","","","","","","","","","","","","","",""
"null","","html-keyboard-response","240","1974670","0.0-237.0","A1EHEQSM7S7PLO","<p style=""font-size: 48px;"">+</p>","","","","","null","allTrialResponses","1000","1","27","img_art/23.jpg","28","Very busy, but I like the use of white here against the chaos behind it.","Isaiah,Sean,Joseph,Gregory,Cole,Ian","I feel happy and a little excited. Like watching fireworks with family.,26,300,20","so much detail .,31,40,20","Like a wound that has been sutured. Pain, but also healing.,5,220,20","Reminds me of outer space and the stars,30,220,20","White in the middle look like people dancing naked,19,200,20","It's very colorful and different, the white looks like people dancing,26,260,20","Sean","so much detail .,31,40,20","Isaiah","I feel happy and a little excited. Like watching fireworks with family.,26,300,20","Ian","It's very colorful and different, the white looks like people dancing,26,260,20","6"
"17009","","survey-text","241","1991706","0.0-238.0-0.0","A1EHEQSM7S7PLO","","","","{""Q0"":""Seems...lazy. Do not like the use of red here. ""}","","","","","","","","","","","","","","","","","","","","","","",""
"1773.3999999985099","","image-slider-response","242","1993481","0.0-239.0","A1EHEQSM7S7PLO","","","","","-31","","","","","","","","","","","","","","","","","","","","","",""
"null","","image-button-response","243","1998485","0.0-240.0","A1EHEQSM7S7PLO","img_art/30.jpg","null","","","","","","","","","","","","","","","","","","","","","","","","",""
"1952","","image-button-response","244","2000440","0.0-241.0","A1EHEQSM7S7PLO","img_art/30.jpg","5","","","","","","","","","","","","","","","","","","","","","","","","",""
"582","","image-button-response","245","2001025","0.0-242.0-0.0","A1EHEQSM7S7PLO","img_art/30.jpg","4","","","","","","","","","","","","","","","","","","","","","","","","",""
"828","","image-button-response","246","2001856","0.0-243.0-0.0","A1EHEQSM7S7PLO","img_art/30.jpg","0","","","","","","","","","","","","","","","","","","","","","","","","",""
"null","","html-keyboard-response","247","2002859","0.0-244.0","A1EHEQSM7S7PLO","<p style=""font-size: 48px;"">+</p>","","","","","null","allTrialResponses","1000","1","28","img_art/30.jpg","-31","Seems...lazy. Do not like the use of red here. ","Isaiah,Sean,Vincent,Lucas,Jordan,Ian","The painting doesn't elicit any response from me.,0,300,20","the colors look nice,19,40,20","Personal , calming conservative signature business ideal.,32,360,20","I like the way the artist has painted his work.,40,380,20","Combination of colors arent good,-6,160,20","It looks like it was made by pre-k students.,-30,260,20","Ian","It looks like it was made by pre-k students.,-30,260,20","Jordan","Combination of colors arent good,-6,160,20","Isaiah","The painting doesn't elicit any response from me.,0,300,20","6"
"17407","","survey-text","248","2020295","0.0-245.0-0.0","A1EHEQSM7S7PLO","","","","{""Q0"":""I enjoy the simplicity, but it could use a little more going on here.""}","","","","","","","","","","","","","","","","","","","","","","",""
"1165.199999999255","","image-slider-response","249","2021463","0.0-246.0","A1EHEQSM7S7PLO","","","","","-16","","","","","","","","","","","","","","","","","","","","","",""
"null","","image-button-response","250","2026468","0.0-247.0","A1EHEQSM7S7PLO","img_art/14.jpg","null","","","","","","","","","","","","","","","","","","","","","","","","",""
"537","","image-button-response","251","2027008","0.0-248.0","A1EHEQSM7S7PLO","img_art/14.jpg","5","","","","","","","","","","","","","","","","","","","","","","","","",""
"524","","image-button-response","252","2027535","0.0-249.0-0.0","A1EHEQSM7S7PLO","img_art/14.jpg","3","","","","","","","","","","","","","","","","","","","","","","","","",""
"596","","image-button-response","253","2028135","0.0-250.0-0.0","A1EHEQSM7S7PLO","img_art/14.jpg","0","","","","","","","","","","","","","","","","","","","","","","","","",""
"null","","html-keyboard-response","254","2029637","0.0-251.0","A1EHEQSM7S7PLO","<p style=""font-size: 48px;"">+</p>","","","","","null","allTrialResponses","1500","1","29","img_art/14.jpg","-16","I enjoy the simplicity, but it could use a little more going on here.","Isaiah,Cameron,Bradley,Alex,Jordan,Ian","I feel uncomfortable looking at this painting, it is a mess that needs to be cleaned up.,-16,300,20","cotton candy skies. pretty.,35,60,20","I don't know why, but this piece makes me happy.,20,300,20","Too abstract with annoying little details. Just draw a regular tree already,-6,100,20","Reminds me of art class,22,160,20","This just looks like a kids watercolor painting.,-30,260,20","Ian","This just looks like a kids watercolor painting.,-30,260,20","Alex","Too abstract with annoying little details. Just draw a regular tree already,-6,100,20","Isaiah","I feel uncomfortable looking at this painting, it is a mess that needs to be cleaned up.,-16,300,20","6"
"25891","","survey-text","255","2055557","0.0-252.0-0.0","A1EHEQSM7S7PLO","","","","{""Q0"":""Great detail and perspective here. Very Surreal ""}","","","","","","","","","","","","","","","","","","","","","","",""
"1741.2000000011176","","image-slider-response","256","2057301","0.0-253.0","A1EHEQSM7S7PLO","","","","","34","","","","","","","","","","","","","","","","","","","","","",""
"null","","image-button-response","257","2062304","0.0-254.0","A1EHEQSM7S7PLO","img_art/8.jpg","null","","","","","","","","","","","","","","","","","","","","","","","","",""
"2729","","image-button-response","258","2065036","0.0-255.0","A1EHEQSM7S7PLO","img_art/8.jpg","1","","","","","","","","","","","","","","","","","","","","","","","","",""
"756","","image-button-response","259","2065797","0.0-256.0-0.0","A1EHEQSM7S7PLO","img_art/8.jpg","5","","","","","","","","","","","","","","","","","","","","","","","","",""
"939","","image-button-response","260","2066741","0.0-257.0-0.0","A1EHEQSM7S7PLO","img_art/8.jpg","4","","","","","","","","","","","","","","","","","","","","","","","","",""
"null","","html-keyboard-response","261","2067743","0.0-258.0","A1EHEQSM7S7PLO","<p style=""font-size: 48px;"">+</p>","","","","","null","allTrialResponses","1000","1","30","img_art/8.jpg","34","Great detail and perspective here. Very Surreal ","Isaiah,Justin,Brett,Alex,Caleb,Ian","It makes me feel nervous. I can't tell ifI'm looking at an apartment, or a hellscape.,-18,300,20","Interesting to look at, there are many things happening in the painting.,32,280,20","Very abstract and seems symbolic,45,360,20","I appreciate the complexity of this piece but it's too cubist for me,3,100,20","Despite the detail, this picture is very abstract!,31,40,20","I like this, the longer I look at in the more details I see.,41,260,20","Justin","Interesting to look at, there are many things happening in the painting.,32,280,20","Ian","I like this, the longer I look at in the more details I see.,41,260,20","Caleb","Despite the detail, this picture is very abstract!,31,40,20","6"
"3798","","image-button-response_instructions","262","2071572","0.0-259.0","A1EHEQSM7S7PLO","","0","instructions","","","","","","","","","","","","","","","","","","","","","","","",""
"1625","","image-button-response","263","2073220","0.0-260.0","A1EHEQSM7S7PLO","","0","","","","","","","","","","","","","","","","","","","","","","","","",""
