"rt","url","trial_type","trial_index","time_elapsed","internal_node_id","participant_id","stimulus","button_pressed","Name","responses","response","key_press","variableName","fixationTime","condition","trial","photo","subjectRating","subjectResponse","agentsNames","agent_1_Response","agent_2_Response","agent_3_Response","agent_4_Response","agent_5_Response","agent_6_Response","kept_1_name","kept_1_response","kept_2_name","kept_2_response","kept_3_name","kept_3_response","errorCounter"
"9808","external_page_harvard.html","external-html","0","9905","0.0-0.0","A1EU2GVLVPXVQ3","","","","","","","","","","","","","","","","","","","","","","","","","","",""
"2135","","image-button-response","1","12042","0.0-1.0","A1EU2GVLVPXVQ3","","0","","","","","","","","","","","","","","","","","","","","","","","","",""
"1916","","image-button-response","2","13962","0.0-2.0-0.0","A1EU2GVLVPXVQ3","","1","phone","","","","","","","","","","","","","","","","","","","","","","","",""
"5070","","survey-text","3","19033","0.0-3.0-0.0","A1EU2GVLVPXVQ3","","","","{""Q0"":""A1EU2GVLVPXVQ3""}","","","","","","","","","","","","","","","","","","","","","","",""
"8707","","image-button-response_instructions","4","27744","0.0-4.0","A1EU2GVLVPXVQ3","","0","instructions","","","","","","","","","","","","","","","","","","","","","","","",""
"14961","","image-button-response_instructions","5","42706","0.0-5.0","A1EU2GVLVPXVQ3","img_art/ins/popularity/ins1.png","0","instructions","","","","","","","","","","","","","","","","","","","","","","","",""
"9232","","image-button-response_instructions","6","51940","0.0-6.0","A1EU2GVLVPXVQ3","img_art/ins/popularity/ins2.png","0","instructions","","","","","","","","","","","","","","","","","","","","","","","",""
"7654","","image-button-response_instructions","7","59595","0.0-7.0","A1EU2GVLVPXVQ3","img_art/ins/popularity/ins2Extreme.png","0","instructions","","","","","","","","","","","","","","","","","","","","","","","",""
"7163","","image-button-response_instructions","8","66759","0.0-8.0","A1EU2GVLVPXVQ3","img_art/ins/popularity/ins3KEEPpop.PNG","0","instructions","","","","","","","","","","","","","","","","","","","","","","","",""
"6015","","image-button-response_instructions","9","72775","0.0-9.0","A1EU2GVLVPXVQ3","img_art/ins/popularity/ins3ANamepop.PNG","0","instructions","","","","","","","","","","","","","","","","","","","","","","","",""
"3937","","image-button-response_instructions","10","76714","0.0-10.0","A1EU2GVLVPXVQ3","img_art/ins/popularity/ins3ARatingpop.png","0","instructions","","","","","","","","","","","","","","","","","","","","","","","",""
"4826","","image-button-response_instructions","11","81541","0.0-11.0","A1EU2GVLVPXVQ3","img_art/ins/popularity/ins3ATextpop.png","0","instructions","","","","","","","","","","","","","","","","","","","","","","","",""
"7273","","image-button-response_instructions","12","88816","0.0-12.0","A1EU2GVLVPXVQ3","img_art/ins/popularity/ins3ALikespop.png","0","instructions","","","","","","","","","","","","","","","","","","","","","","","",""
"8826","","image-button-response_instructions","13","97643","0.0-13.0","A1EU2GVLVPXVQ3","img_art/ins/popularity/ins3KEEPpop.PNG","0","instructions","","","","","","","","","","","","","","","","","","","","","","","",""
"7147","","image-button-response_instructions","14","104791","0.0-14.0","A1EU2GVLVPXVQ3","img_art/ins/popularity/ins3_5RED.png","0","instructions","","","","","","","","","","","","","","","","","","","","","","","",""
"5297","","image-button-response_instructions","15","110089","0.0-15.0","A1EU2GVLVPXVQ3","img_art/ins/popularity/ins3KEEPpop.PNG","0","instructions","","","","","","","","","","","","","","","","","","","","","","","",""
"9109","","image-button-response_instructions","16","119199","0.0-16.0","A1EU2GVLVPXVQ3","img_art/ins/popularity/ins4KEEPpop.PNG","0","instructions","","","","","","","","","","","","","","","","","","","","","","","",""
"3545","","image-button-response_instructions","17","122745","0.0-17.0","A1EU2GVLVPXVQ3","img_art/ins/popularity/ins5KEEPpop.PNG","0","instructions","","","","","","","","","","","","","","","","","","","","","","","",""
"1983","","image-button-response_instructions","18","124729","0.0-18.0","A1EU2GVLVPXVQ3","","0","instructions","","","","","","","","","","","","","","","","","","","","","","","",""
"5579","","survey-text","19","130329","0.0-19.0-0.0","A1EU2GVLVPXVQ3","","","","{""Q0"":""but""}","","","","","","","","","","","","","","","","","","","","","","",""
"24511","","survey-text","20","154841","0.0-20.0-0.0","A1EU2GVLVPXVQ3","","","","{""Q0"":""Not to stimulating.  Kind of dull.""}","","","","","","","","","","","","","","","","","","","","","","",""
"5730.5","","image-slider-response","21","160576","0.0-21.0","A1EU2GVLVPXVQ3","","","","","-21","","","","","","","","","","","","","","","","","","","","","",""
"null","","image-button-response","22","165585","0.0-22.0","A1EU2GVLVPXVQ3","img_art/ins/1.jpg","null","","","","","","","","","","","","","","","","","","","","","","","","",""
"7153","","image-button-response","23","172740","0.0-23.0","A1EU2GVLVPXVQ3","img_art/ins/1.jpg","3","","","","","","","","","","","","","","","","","","","","","","","","",""
"1239","","image-button-response","24","173982","0.0-24.0-0.0","A1EU2GVLVPXVQ3","img_art/ins/1.jpg","3","","","","","","","","","","","","","","","","","","","","","","","","",""
"2388","","image-button-response","25","179543","0.0-24.1-0.1","A1EU2GVLVPXVQ3","img_art/ins/1.jpg","3","","","","","","","","","","","","","","","","","","","","","","","","",""
"641","","image-button-response","26","183248","0.0-24.2-0.2","A1EU2GVLVPXVQ3","img_art/ins/1.jpg","4","","","","","","","","","","","","","","","","","","","","","","","","",""
"2128","","image-button-response","27","185380","0.0-25.0-0.0","A1EU2GVLVPXVQ3","img_art/ins/1.jpg","2","","","","","","","","","","","","","","","","","","","","","","","","",""
"null","","html-keyboard-response","28","185882","0.0-26.0","A1EU2GVLVPXVQ3","<p style=""font-size: 48px;"">+</p>","","","","","null","allTrialResponses","500","1","-2","img_art/ins/1.jpg","-21","Not to stimulating.  Kind of dull.","Adam,Alex,Ben,Carl,Daniel,Jack","Seems like doodles,-20,20,20","very creative work.,36,40,20","This color reminds me of poo,-46,60,20","very calming artwork,42,80,20","It looks like a murder scene.,-48,100,20","I like the sophisticated brushwork,40,120,20","Carl","very calming artwork,42,80,20","Daniel","It looks like a murder scene.,-48,100,20","Ben","This color reminds me of poo,-46,60,20","4"
"32272","","survey-text","29","218163","0.0-27.0-0.0","A1EU2GVLVPXVQ3","","","","{""Q0"":""Interesting use of textures.  Colors are subdued though. ""}","","","","","","","","","","","","","","","","","","","","","","",""
"4575.299999952316","","image-slider-response","30","222741","0.0-28.0","A1EU2GVLVPXVQ3","","","","","28","","","","","","","","","","","","","","","","","","","","","",""
"null","","image-button-response","31","227745","0.0-29.0","A1EU2GVLVPXVQ3","img_art/ins/2.jpg","null","","","","","","","","","","","","","","","","","","","","","","","","",""
"306","","image-button-response","32","228054","0.0-30.0","A1EU2GVLVPXVQ3","img_art/ins/2.jpg","0","","","","","","","","","","","","","","","","","","","","","","","","",""
"6404","","image-button-response","33","234460","0.0-31.0-0.0","A1EU2GVLVPXVQ3","img_art/ins/2.jpg","3","","","","","","","","","","","","","","","","","","","","","","","","",""
"2115","","image-button-response","34","236577","0.0-32.0-0.0","A1EU2GVLVPXVQ3","img_art/ins/2.jpg","0","","","","","","","","","","","","","","","","","","","","","","","","",""
"11953","","image-button-response","35","251345","0.0-32.1-0.1","A1EU2GVLVPXVQ3","img_art/ins/2.jpg","5","","","","","","","","","","","","","","","","","","","","","","","","",""
"null","","html-keyboard-response","36","251848","0.0-33.0","A1EU2GVLVPXVQ3","<p style=""font-size: 48px;"">+</p>","","","","","null","allTrialResponses","500","1","-1","img_art/ins/2.jpg","28","Interesting use of textures.  Colors are subdued though. ","John,James,Ben,Carl,Daniel,Kyle","love the texture of paint,48,160,20","looks too angry,-50,140,20","meaningless painting,-45,60,20","I can feel the artist's passion in it,45,80,20","One of my pet peevs,-48,100,20","Idk, it is just annoying,-32,180,20","John","love the texture of paint,48,160,20","Carl","I can feel the artist's passion in it,45,80,20","Kyle","Idk, it is just annoying,-32,180,20","6"
"24606","","survey-text","37","276464","0.0-34.0-0.0","A1EU2GVLVPXVQ3","","","","{""Q0"":""If you like blues this will work for you.""}","","","","","","","","","","","","","","","","","","","","","","",""
"16645.799999952316","","image-slider-response","38","293112","0.0-35.0","A1EU2GVLVPXVQ3","","","","","0","","","","","","","","","","","","","","","","","","","","","",""
"null","","image-button-response","39","298118","0.0-36.0","A1EU2GVLVPXVQ3","img_art/ins/3.jpg","null","","","","","","","","","","","","","","","","","","","","","","","","",""
"538","","image-button-response","40","298659","0.0-37.0","A1EU2GVLVPXVQ3","img_art/ins/3.jpg","3","","","","","","","","","","","","","","","","","","","","","","","","",""
"2450","","image-button-response","41","301112","0.0-38.0-0.0","A1EU2GVLVPXVQ3","img_art/ins/3.jpg","2","","","","","","","","","","","","","","","","","","","","","","","","",""
"3997","","image-button-response","42","305112","0.0-39.0-0.0","A1EU2GVLVPXVQ3","img_art/ins/3.jpg","1","","","","","","","","","","","","","","","","","","","","","","","","",""
"null","","html-keyboard-response","43","306115","0.0-40.0","A1EU2GVLVPXVQ3","<p style=""font-size: 48px;"">+</p>","","","","","null","allTrialResponses","1000","1","0","img_art/ins/3.jpg","0","If you like blues this will work for you.","John,Mike,Sam,Carl,Ron,Kyle","I like the overlapping of brushes,41,160,20","enjoy the different shades of blue,22,200,20","I can feel a rainy day from this painting,18,240,20","It's an alright work,15,80,20","It looks depressing,-26,220,20","It looks like a playground for bats,-36,180,20","Carl","It's an alright work,15,80,20","Sam","I can feel a rainy day from this painting,18,240,20","Mike","enjoy the different shades of blue,22,200,20","6"
"7803","","image-button-response_instructions","44","313928","0.0-41.0","A1EU2GVLVPXVQ3","","0","instructions","","","","","","","","","","","","","","","","","","","","","","","",""
"17762","","survey-likert","45","331692","0.0-42.0-0.0","A1EU2GVLVPXVQ3","","","","{""Q0"":"""",""Q1"":0,""Q2"":1}","","","","","","","","","","","","","","","","","","","","","","",""
"5494","","survey-text","46","337192","0.0-43.0-0.0","A1EU2GVLVPXVQ3","","","","{""Q0"":""rock""}","","","","","","","","","","","","","","","","","","","","","","",""
"28894","","survey-text","47","366087","0.0-44.0-0.0","A1EU2GVLVPXVQ3","","","","{""Q0"":""I don't understand the thought behind this one.""}","","","","","","","","","","","","","","","","","","","","","","",""
"4920.100000023842","","image-slider-response","48","371010","0.0-45.0","A1EU2GVLVPXVQ3","","","","","-39","","","","","","","","","","","","","","","","","","","","","",""
"null","","image-button-response","49","376032","0.0-46.0","A1EU2GVLVPXVQ3","img_art/21.jpg","null","","","","","","","","","","","","","","","","","","","","","","","","",""
"4302","","image-button-response","50","380339","0.0-47.0","A1EU2GVLVPXVQ3","img_art/21.jpg","4","","","","","","","","","","","","","","","","","","","","","","","","",""
"7774","","image-button-response","51","388115","0.0-48.0-0.0","A1EU2GVLVPXVQ3","img_art/21.jpg","1","","","","","","","","","","","","","","","","","","","","","","","","",""
"1748","","image-button-response","52","389866","0.0-49.0-0.0","A1EU2GVLVPXVQ3","img_art/21.jpg","0","","","","","","","","","","","","","","","","","","","","","","","","",""
"null","","html-keyboard-response","53","391371","0.0-50.0","A1EU2GVLVPXVQ3","<p style=""font-size: 48px;"">+</p>","","","","","null","allTrialResponses","1500","1","1","img_art/21.jpg","-39","I don't understand the thought behind this one.","Zachary,Travis,Jacob,Andrew,Brian,Matthew","Looks like a body of water during a sunset. I like this piece.,21,400,20","I liked it...it looked like a storm raging.,12,260,20","I like how the colors blend together like a beautiful sunset.,25,340,20","I love the contrasting tones between the two sides,36,160,20","there's not enough fine detail in this one,-27,380,20","Disturbing, land meets ocean, lvoely really.,43,120,20","Brian","there's not enough fine detail in this one,-27,380,20","Travis","I liked it...it looked like a storm raging.,12,260,20","Zachary","Looks like a body of water during a sunset. I like this piece.,21,400,20","6"
"37230","","survey-text","54","428609","0.0-51.0-0.0","A1EU2GVLVPXVQ3","","","","{""Q0"":""Looks like a little town in a forest.  Marginal.""}","","","","","","","","","","","","","","","","","","","","","","",""
"11788.300000011921","","image-slider-response","55","440400","0.0-52.0","A1EU2GVLVPXVQ3","","","","","4","","","","","","","","","","","","","","","","","","","","","",""
"null","","image-button-response","56","445414","0.0-53.0","A1EU2GVLVPXVQ3","img_art/27.jpg","null","","","","","","","","","","","","","","","","","","","","","","","","",""
"3520","","image-button-response","57","448938","0.0-54.0","A1EU2GVLVPXVQ3","img_art/27.jpg","5","","","","","","","","","","","","","","","","","","","","","","","","",""
"4357","","image-button-response","58","453298","0.0-55.0-0.0","A1EU2GVLVPXVQ3","img_art/27.jpg","3","","","","","","","","","","","","","","","","","","","","","","","","",""
"168","","image-button-response","59","453470","0.0-56.0-0.0","A1EU2GVLVPXVQ3","img_art/27.jpg","3","","","","","","","","","","","","","","","","","","","","","","","","",""
"11508","","image-button-response","60","468588","0.0-56.1-0.1","A1EU2GVLVPXVQ3","img_art/27.jpg","0","","","","","","","","","","","","","","","","","","","","","","","","",""
"null","","html-keyboard-response","61","469591","0.0-57.0","A1EU2GVLVPXVQ3","<p style=""font-size: 48px;"">+</p>","","","","","null","allTrialResponses","1000","1","2","img_art/27.jpg","4","Looks like a little town in a forest.  Marginal.","Zachary,Travis,Jesus,Cody,Brian,Jake","Color story is boring in nature, and I feel nothing but boredom from this piece.,-20,400,20","I don't like any of it...just scibbles.,-37,260,20","The color palette isn't my taste,-24,100,20","Not sure how I feel about this. Messy, even for art. But good colors.,0,180,20","Colors could be more pleasing, but I really like the thinner lines superimposed over the background,25,380,20","This looks like a poor copy of Cy Twombly's style.,-3,360,20","Jake","This looks like a poor copy of Cy Twombly's style.,-3,360,20","Cody","Not sure how I feel about this. Messy, even for art. But good colors.,0,180,20","Zachary","Color story is boring in nature, and I feel nothing but boredom from this piece.,-20,400,20","8"
"23165","","survey-text","62","492764","0.0-58.0-0.0","A1EU2GVLVPXVQ3","","","","{""Q0"":""Looks like finger painting.  Not very colorful.""}","","","","","","","","","","","","","","","","","","","","","","",""
"4459.699999988079","","image-slider-response","63","497226","0.0-59.0","A1EU2GVLVPXVQ3","","","","","-21","","","","","","","","","","","","","","","","","","","","","",""
"null","","image-button-response","64","502241","0.0-60.0","A1EU2GVLVPXVQ3","img_art/30.jpg","null","","","","","","","","","","","","","","","","","","","","","","","","",""
"741","","image-button-response","65","502985","0.0-61.0","A1EU2GVLVPXVQ3","img_art/30.jpg","1","","","","","","","","","","","","","","","","","","","","","","","","",""
"2191","","image-button-response","66","505179","0.0-62.0-0.0","A1EU2GVLVPXVQ3","img_art/30.jpg","5","","","","","","","","","","","","","","","","","","","","","","","","",""
"2325","","image-button-response","67","507507","0.0-63.0-0.0","A1EU2GVLVPXVQ3","img_art/30.jpg","4","","","","","","","","","","","","","","","","","","","","","","","","",""
"null","","html-keyboard-response","68","508510","0.0-64.0","A1EU2GVLVPXVQ3","<p style=""font-size: 48px;"">+</p>","","","","","null","allTrialResponses","1000","1","3","img_art/30.jpg","-21","Looks like finger painting.  Not very colorful.","Zachary,Shane,James,Cody,Scott,Jake","I like this one because I am a mom and it reminds me of a child finger-painting.,20,400,20","I like the back but the red lines in the front distress me,-7,80,20","I like the fact that it's a painting.,21,380,20","Like the design, not a big fan of the colors,20,180,20","nothing special about it,1,20,20","This is just simple and ugly.,-2,360,20","Shane","I like the back but the red lines in the front distress me,-7,80,20","Jake","This is just simple and ugly.,-2,360,20","Scott","nothing special about it,1,20,20","8"
"26957","","survey-text","69","535474","0.0-65.0-0.0","A1EU2GVLVPXVQ3","","","","{""Q0"":""Not very expressive.  Dull colors.""}","","","","","","","","","","","","","","","","","","","","","","",""
"4506.399999976158","","image-slider-response","70","539982","0.0-66.0","A1EU2GVLVPXVQ3","","","","","-21","","","","","","","","","","","","","","","","","","","","","",""
"null","","image-button-response","71","544987","0.0-67.0","A1EU2GVLVPXVQ3","img_art/12.jpg","null","","","","","","","","","","","","","","","","","","","","","","","","",""
"243","","image-button-response","72","545233","0.0-68.0","A1EU2GVLVPXVQ3","img_art/12.jpg","4","","","","","","","","","","","","","","","","","","","","","","","","",""
"2880","","image-button-response","73","548115","0.0-69.0-0.0","A1EU2GVLVPXVQ3","img_art/12.jpg","2","","","","","","","","","","","","","","","","","","","","","","","","",""
"3521","","image-button-response","74","551639","0.0-70.0-0.0","A1EU2GVLVPXVQ3","img_art/12.jpg","1","","","","","","","","","","","","","","","","","","","","","","","","",""
"null","","html-keyboard-response","75","553149","0.0-71.0","A1EU2GVLVPXVQ3","<p style=""font-size: 48px;"">+</p>","","","","","null","allTrialResponses","1500","1","4","img_art/12.jpg","-21","Not very expressive.  Dull colors.","Gregory,Shane,Noah,Evan,Scott,Jake","Black and white contrast with color looks nice,15,220,20","Something you would see in a government building hallway,3,80,20","evokes the 80s, and not in a necessarily good way,-10,260,20","It reminds me of the documentary Paris is Burning, though I'm not sure why,11,140,20","I don't like the pattern or color choice,-41,20,20","It's strange looking and unappealing.,-4,360,20","Scott","I don't like the pattern or color choice,-41,20,20","Noah","evokes the 80s, and not in a necessarily good way,-10,260,20","Shane","Something you would see in a government building hallway,3,80,20","8"
"27791","","survey-text","76","580942","0.0-72.0-0.0","A1EU2GVLVPXVQ3","","","","{""Q0"":""Quite abstract.  Good use of subtle colors.""}","","","","","","","","","","","","","","","","","","","","","","",""
"5183.699999988079","","image-slider-response","77","586128","0.0-73.0","A1EU2GVLVPXVQ3","","","","","22","","","","","","","","","","","","","","","","","","","","","",""
"null","","image-button-response","78","591144","0.0-74.0","A1EU2GVLVPXVQ3","img_art/8.jpg","null","","","","","","","","","","","","","","","","","","","","","","","","",""
"4873","","image-button-response","79","596019","0.0-75.0","A1EU2GVLVPXVQ3","img_art/8.jpg","1","","","","","","","","","","","","","","","","","","","","","","","","",""
"1441","","image-button-response","80","597463","0.0-76.0-0.0","A1EU2GVLVPXVQ3","img_art/8.jpg","5","","","","","","","","","","","","","","","","","","","","","","","","",""
"5669","","image-button-response","81","603135","0.0-77.0-0.0","A1EU2GVLVPXVQ3","img_art/8.jpg","3","","","","","","","","","","","","","","","","","","","","","","","","",""
"null","","html-keyboard-response","82","604138","0.0-78.0","A1EU2GVLVPXVQ3","<p style=""font-size: 48px;"">+</p>","","","","","null","allTrialResponses","1000","1","5","img_art/8.jpg","22","Quite abstract.  Good use of subtle colors.","Charles,Shane,Noah,Jorge,Scott,Jared","Feels very 90's but I like the doorway,15,100,20","Ancient city looked after by diety,38,80,20","not sure what to make of this - just neutral again,-1,260,20","New power in the community,22,180,20","the face is creepy,-49,20,20","i love the colors, the church and the face,42,400,20","Shane","Ancient city looked after by diety,38,80,20","Jared","i love the colors, the church and the face,42,400,20","Jorge","New power in the community,22,180,20","8"
"7038","","survey-text","83","611181","0.0-79.0-0.0","A1EU2GVLVPXVQ3","","","","{""Q0"":""sky""}","","","","","","","","","","","","","","","","","","","","","","",""
"29748","","survey-text","84","640932","0.0-80.0-0.0","A1EU2GVLVPXVQ3","","","","{""Q0"":""Different.  Don't understand the thought behind it.""}","","","","","","","","","","","","","","","","","","","","","","",""
"5616.399999976158","","image-slider-response","85","646549","0.0-81.0","A1EU2GVLVPXVQ3","","","","","-17","","","","","","","","","","","","","","","","","","","","","",""
"4514","","image-button-response","86","651552","0.0-82.0","A1EU2GVLVPXVQ3","img_art/4.jpg","5","","","","","","","","","","","","","","","","","","","","","","","","",""
"946","","image-button-response","87","652502","0.0-83.0","A1EU2GVLVPXVQ3","img_art/4.jpg","5","","","","","","","","","","","","","","","","","","","","","","","","",""
"857","","image-button-response","88","653362","0.0-84.0-0.0","A1EU2GVLVPXVQ3","img_art/4.jpg","4","","","","","","","","","","","","","","","","","","","","","","","","",""
"3896","","image-button-response","89","657260","0.0-85.0-0.0","A1EU2GVLVPXVQ3","img_art/4.jpg","3","","","","","","","","","","","","","","","","","","","","","","","","",""
"null","","html-keyboard-response","90","658762","0.0-86.0","A1EU2GVLVPXVQ3","<p style=""font-size: 48px;"">+</p>","","","","","null","allTrialResponses","1500","1","6","img_art/4.jpg","-17","Different.  Don't understand the thought behind it.","Alexis,Shane,Jeremy,Jorge,Connor,Jared","The bold colors are exciting. It looks like a statue on someone's mantle.,18,140,20","Looks like a creative hand,45,80,20","the colors are calming,31,60,20","creepy as it looks like fingernails,-23,180,20","Seems simplistic,-8,240,20","it looks like a deformed hand,-9,400,20","Jared","it looks like a deformed hand,-9,400,20","Connor","Seems simplistic,-8,240,20","Jorge","creepy as it looks like fingernails,-23,180,20","8"
"29534","","survey-text","91","688302","0.0-87.0-0.0","A1EU2GVLVPXVQ3","","","","{""Q0"":""Looks to be a city scape at dusk.""}","","","","","","","","","","","","","","","","","","","","","","",""
"8279.599999964237","","image-slider-response","92","696584","0.0-88.0","A1EU2GVLVPXVQ3","","","","","0","","","","","","","","","","","","","","","","","","","","","",""
"null","","image-button-response","93","701592","0.0-89.0","A1EU2GVLVPXVQ3","img_art/22.jpg","null","","","","","","","","","","","","","","","","","","","","","","","","",""
"388","","image-button-response","94","701983","0.0-90.0","A1EU2GVLVPXVQ3","img_art/22.jpg","1","","","","","","","","","","","","","","","","","","","","","","","","",""
"3506","","image-button-response","95","705491","0.0-91.0-0.0","A1EU2GVLVPXVQ3","img_art/22.jpg","5","","","","","","","","","","","","","","","","","","","","","","","","",""
"12091","","image-button-response","96","717585","0.0-92.0-0.0","A1EU2GVLVPXVQ3","img_art/22.jpg","3","","","","","","","","","","","","","","","","","","","","","","","","",""
"null","","html-keyboard-response","97","718087","0.0-93.0","A1EU2GVLVPXVQ3","<p style=""font-size: 48px;"">+</p>","","","","","null","allTrialResponses","500","1","7","img_art/22.jpg","0","Looks to be a city scape at dusk.","Spencer,Taylor,Alejandro,Jorge,Connor,Jared","Pretty colors but too blocky for me,-19,120,20","Looks like the kind of art I would see at the doctor's office.,-5,200,20","Beautiful use of chalk or pastels. Love the abstract nature.,35,80,20","A key to the unknown,15,180,20","Seems dated with geometic forms,-20,240,20","colorful. but not much happening,1,400,20","Taylor","Looks like the kind of art I would see at the doctor's office.,-5,200,20","Jared","colorful. but not much happening,1,400,20","Jorge","A key to the unknown,15,180,20","8"
"24917","","survey-text","98","743014","0.0-94.0-0.0","A1EU2GVLVPXVQ3","","","","{""Q0"":""Nice waterfall scene.  Interesting use of colors.""}","","","","","","","","","","","","","","","","","","","","","","",""
"4850","","image-slider-response","99","747866","0.0-95.0","A1EU2GVLVPXVQ3","","","","","16","","","","","","","","","","","","","","","","","","","","","",""
"null","","image-button-response","100","752869","0.0-96.0","A1EU2GVLVPXVQ3","img_art/24.jpg","null","","","","","","","","","","","","","","","","","","","","","","","","",""
"414","","image-button-response","101","753288","0.0-97.0","A1EU2GVLVPXVQ3","img_art/24.jpg","1","","","","","","","","","","","","","","","","","","","","","","","","",""
"4513","","image-button-response","102","757804","0.0-98.0-0.0","A1EU2GVLVPXVQ3","img_art/24.jpg","5","","","","","","","","","","","","","","","","","","","","","","","","",""
"5201","","image-button-response","103","763008","0.0-99.0-0.0","A1EU2GVLVPXVQ3","img_art/24.jpg","3","","","","","","","","","","","","","","","","","","","","","","","","",""
"null","","html-keyboard-response","104","763511","0.0-100.0","A1EU2GVLVPXVQ3","<p style=""font-size: 48px;"">+</p>","","","","","null","allTrialResponses","500","1","8","img_art/24.jpg","16","Nice waterfall scene.  Interesting use of colors.","Logan,Taylor,Brett,Jorge,Jordan,Jared","brick wall waterfall girl you think you got it all,50,360,20","I actually like this one. You can tell what it is.,25,200,20","Forest waterfall,40,360,20","Interested in visiting this place,18,180,20","Beautiful waterfall I like waterfalls,39,160,20","i like that the water seems in motion,6,400,20","Taylor","I actually like this one. You can tell what it is.,25,200,20","Jared","i like that the water seems in motion,6,400,20","Jorge","Interested in visiting this place,18,180,20","8"
"30169","","survey-text","105","793688","0.0-101.0-0.0","A1EU2GVLVPXVQ3","","","","{""Q0"":""Not very original.  Seems like I've seen it before.""}","","","","","","","","","","","","","","","","","","","","","","",""
"3779.7999999523163","","image-slider-response","106","797470","0.0-102.0","A1EU2GVLVPXVQ3","","","","","-16","","","","","","","","","","","","","","","","","","","","","",""
"null","","image-button-response","107","802487","0.0-103.0","A1EU2GVLVPXVQ3","img_art/1.jpg","null","","","","","","","","","","","","","","","","","","","","","","","","",""
"3333","","image-button-response","108","805822","0.0-104.0","A1EU2GVLVPXVQ3","img_art/1.jpg","1","","","","","","","","","","","","","","","","","","","","","","","","",""
"5317","","image-button-response","109","811142","0.0-105.0-0.0","A1EU2GVLVPXVQ3","img_art/1.jpg","2","","","","","","","","","","","","","","","","","","","","","","","","",""
"5186","","image-button-response","110","816331","0.0-106.0-0.0","A1EU2GVLVPXVQ3","img_art/1.jpg","5","","","","","","","","","","","","","","","","","","","","","","","","",""
"null","","html-keyboard-response","111","816847","0.0-107.0","A1EU2GVLVPXVQ3","<p style=""font-size: 48px;"">+</p>","","","","","null","allTrialResponses","500","1","9","img_art/1.jpg","-16","Not very original.  Seems like I've seen it before.","Marcus,Taylor,Tyler,Jorge,Garrett,Jared","Like the colors very much, and this piece makes me feel peaceful.,29,60,20","Deja vu. Haven't I seen this one before? Not bad for those living in the backwoods.,10,200,20","This looks like the same artist as the first picture, but cropped? Looks incomplete.,28,320,20","fishing on the lake surrounded by trees,42,180,20","I think that this picture has nice colors and its pleasing to the eyes.,20,180,20","there isnt anything clear to look at,-2,400,20","Taylor","Deja vu. Haven't I seen this one before? Not bad for those living in the backwoods.,10,200,20","Tyler","This looks like the same artist as the first picture, but cropped? Looks incomplete.,28,320,20","Jared","there isnt anything clear to look at,-2,400,20","8"
"20425","","survey-text","112","837278","0.0-108.0-0.0","A1EU2GVLVPXVQ3","","","","{""Q0"":""I like this one.  Reminds me of a cold winter day.""}","","","","","","","","","","","","","","","","","","","","","","",""
"4350","","image-slider-response","113","841630","0.0-109.0","A1EU2GVLVPXVQ3","","","","","25","","","","","","","","","","","","","","","","","","","","","",""
"null","","image-button-response","114","846639","0.0-110.0","A1EU2GVLVPXVQ3","img_art/17.jpg","null","","","","","","","","","","","","","","","","","","","","","","","","",""
"11634","","image-button-response","115","858276","0.0-111.0","A1EU2GVLVPXVQ3","img_art/17.jpg","3","","","","","","","","","","","","","","","","","","","","","","","","",""
"4497","","image-button-response","116","862776","0.0-112.0-0.0","A1EU2GVLVPXVQ3","img_art/17.jpg","4","","","","","","","","","","","","","","","","","","","","","","","","",""
"8974","","image-button-response","117","871754","0.0-113.0-0.0","A1EU2GVLVPXVQ3","img_art/17.jpg","5","","","","","","","","","","","","","","","","","","","","","","","","",""
"null","","html-keyboard-response","118","872756","0.0-114.0","A1EU2GVLVPXVQ3","<p style=""font-size: 48px;"">+</p>","","","","","null","allTrialResponses","1000","1","10","img_art/17.jpg","25","I like this one.  Reminds me of a cold winter day.","Daniel,Taylor,Tyler,Adrian,Blake,Jared","2 paintings in 1 with shared colors,5,320,20","Somewhat should trim the tree branches at the shopping mall.,10,200,20","No strong reaction. Beautiful design, but hue appears taciturn. Bad photograph?,1,320,20","Pretty composition and I like the colors.,20,60,20","soft and warm light colors are relaxing,12,280,20","the colors, the arch and the wall,15,400,20","Adrian","Pretty composition and I like the colors.,20,60,20","Blake","soft and warm light colors are relaxing,12,280,20","Jared","the colors, the arch and the wall,15,400,20","8"
"4723","","survey-text","119","877488","0.0-115.0-0.0","A1EU2GVLVPXVQ3","","","","{""Q0"":""our""}","","","","","","","","","","","","","","","","","","","","","","",""
"28572","","survey-text","120","906061","0.0-116.0-0.0","A1EU2GVLVPXVQ3","","","","{""Q0"":""Very dark.  Looks like a car crash.  Uggh.""}","","","","","","","","","","","","","","","","","","","","","","",""
"4583.199999988079","","image-slider-response","121","910647","0.0-117.0","A1EU2GVLVPXVQ3","","","","","-24","","","","","","","","","","","","","","","","","","","","","",""
"null","","image-button-response","122","915664","0.0-118.0","A1EU2GVLVPXVQ3","img_art/20.jpg","null","","","","","","","","","","","","","","","","","","","","","","","","",""
"7056","","image-button-response","123","922723","0.0-119.0","A1EU2GVLVPXVQ3","img_art/20.jpg","4","","","","","","","","","","","","","","","","","","","","","","","","",""
"7482","","image-button-response","124","930207","0.0-120.0-0.0","A1EU2GVLVPXVQ3","img_art/20.jpg","0","","","","","","","","","","","","","","","","","","","","","","","","",""
"7355","","image-button-response","125","937565","0.0-121.0-0.0","A1EU2GVLVPXVQ3","img_art/20.jpg","1","","","","","","","","","","","","","","","","","","","","","","","","",""
"null","","html-keyboard-response","126","938068","0.0-122.0","A1EU2GVLVPXVQ3","<p style=""font-size: 48px;"">+</p>","","","","","null","allTrialResponses","500","1","11","img_art/20.jpg","-24","Very dark.  Looks like a car crash.  Uggh.","Bradley,Jose,Justin,Adrian,Blake,Jared","A truck rolled over?  I do like the pictures and the technique though.,25,300,20","More dark colors and blurry objects.,13,200,20","The colors and the scene depicted is interesting.,13,280,20","Not sure what it is. The colors are pleasant; makes me want to figure it out. An animal skull in the desert?,10,60,20","reminds me of a dead animal in the west. ugly,-25,280,20","i like the rounded edges,18,400,20","Blake","reminds me of a dead animal in the west. ugly,-25,280,20","Bradley","A truck rolled over?  I do like the pictures and the technique though.,25,300,20","Jose","More dark colors and blurry objects.,13,200,20","8"
"19540","","survey-text","127","957618","0.0-123.0-0.0","A1EU2GVLVPXVQ3","","","","{""Q0"":""Really.  Very childish.""}","","","","","","","","","","","","","","","","","","","","","","",""
"3991.100000023842","","image-slider-response","128","961611","0.0-124.0","A1EU2GVLVPXVQ3","","","","","-23","","","","","","","","","","","","","","","","","","","","","",""
"null","","image-button-response","129","966615","0.0-125.0","A1EU2GVLVPXVQ3","img_art/16.jpg","null","","","","","","","","","","","","","","","","","","","","","","","","",""
"4365","","image-button-response","130","970984","0.0-126.0","A1EU2GVLVPXVQ3","img_art/16.jpg","5","","","","","","","","","","","","","","","","","","","","","","","","",""
"6707","","image-button-response","131","977693","0.0-127.0-0.0","A1EU2GVLVPXVQ3","img_art/16.jpg","0","","","","","","","","","","","","","","","","","","","","","","","","",""
"3146","","image-button-response","132","980842","0.0-128.0-0.0","A1EU2GVLVPXVQ3","img_art/16.jpg","2","","","","","","","","","","","","","","","","","","","","","","","","",""
"null","","html-keyboard-response","133","981344","0.0-129.0","A1EU2GVLVPXVQ3","<p style=""font-size: 48px;"">+</p>","","","","","null","allTrialResponses","500","1","12","img_art/16.jpg","-23","Really.  Very childish.","Bradley,Jose,Lucas,Paul,Blake,Anthony","This feels like there's some kind of pedofile thing going on here.,-50,300,20","Super weird. Id like to know more about it,24,200,20","It's frightening.,30,380,20","Don't know if there's a meaning but I like how seemingly random objects were stuck together and called art,20,300,20","cute and warm. i like the bear,15,280,20","Very creepy, it makes me feel uneasy,-31,200,20","Anthony","Very creepy, it makes me feel uneasy,-31,200,20","Bradley","This feels like there's some kind of pedofile thing going on here.,-50,300,20","Lucas","It's frightening.,30,380,20","8"
"43891","","survey-text","134","1025242","0.0-130.0-0.0","A1EU2GVLVPXVQ3","","","","{""Q0"":""I'm lost on this one.  Possibly a fishing net?""}","","","","","","","","","","","","","","","","","","","","","","",""
"4387.200000047684","","image-slider-response","135","1029632","0.0-131.0","A1EU2GVLVPXVQ3","","","","","-22","","","","","","","","","","","","","","","","","","","","","",""
"null","","image-button-response","136","1034634","0.0-132.0","A1EU2GVLVPXVQ3","img_art/15.jpg","null","","","","","","","","","","","","","","","","","","","","","","","","",""
"709","","image-button-response","137","1035345","0.0-133.0","A1EU2GVLVPXVQ3","img_art/15.jpg","1","","","","","","","","","","","","","","","","","","","","","","","","",""
"2200","","image-button-response","138","1037547","0.0-134.0-0.0","A1EU2GVLVPXVQ3","img_art/15.jpg","2","","","","","","","","","","","","","","","","","","","","","","","","",""
"16403","","image-button-response","139","1053953","0.0-135.0-0.0","A1EU2GVLVPXVQ3","img_art/15.jpg","5","","","","","","","","","","","","","","","","","","","","","","","","",""
"null","","html-keyboard-response","140","1054956","0.0-136.0","A1EU2GVLVPXVQ3","<p style=""font-size: 48px;"">+</p>","","","","","null","allTrialResponses","1000","1","13","img_art/15.jpg","-22","I'm lost on this one.  Possibly a fishing net?","Bradley,Dakota,Lucas,Luke,Caleb,Anthony","I feel like there's ski jumping going on here.,2,300,20","abrasive, rough, uneven,-31,280,20","I can't see the meaning of the painting.,-30,380,20","it looks like trees but they are up to interpretation,16,20,20","Love the accent colors in this piece!,20,40,20","This piece isn't particularly attractive, but it's not ugly either.,1,200,20","Dakota","abrasive, rough, uneven,-31,280,20","Lucas","I can't see the meaning of the painting.,-30,380,20","Anthony","This piece isn't particularly attractive, but it's not ugly either.,1,200,20","8"
"31352","","survey-text","141","1086315","0.0-137.0-0.0","A1EU2GVLVPXVQ3","","","","{""Q0"":""Good concept.  Good contrasts.  Great in a grey room.""}","","","","","","","","","","","","","","","","","","","","","","",""
"4091.899999976158","","image-slider-response","142","1090409","0.0-138.0","A1EU2GVLVPXVQ3","","","","","18","","","","","","","","","","","","","","","","","","","","","",""
"4027","","image-button-response","143","1095412","0.0-139.0","A1EU2GVLVPXVQ3","img_art/11.jpg","1","","","","","","","","","","","","","","","","","","","","","","","","",""
"1274","","image-button-response","144","1096689","0.0-140.0","A1EU2GVLVPXVQ3","img_art/11.jpg","1","","","","","","","","","","","","","","","","","","","","","","","","",""
"3734","","image-button-response","145","1100425","0.0-141.0-0.0","A1EU2GVLVPXVQ3","img_art/11.jpg","4","","","","","","","","","","","","","","","","","","","","","","","","",""
"8395","","image-button-response","146","1108823","0.0-142.0-0.0","A1EU2GVLVPXVQ3","img_art/11.jpg","2","","","","","","","","","","","","","","","","","","","","","","","","",""
"null","","html-keyboard-response","147","1109827","0.0-143.0","A1EU2GVLVPXVQ3","<p style=""font-size: 48px;"">+</p>","","","","","null","allTrialResponses","1000","1","14","img_art/11.jpg","18","Good concept.  Good contrasts.  Great in a grey room.","Mason,Dakota,Lucas,Sean,Nathaniel,Anthony","dna, odd but nice.,25,100,20","i think of beatnik music and dark piano lounges,25,280,20","Astounding, extraordinary.,25,380,20","pic looks alright,8,40,20","Kind of bizzare in that I can imagine ships or something from it.,11,220,20","The narrow groups of lines in the center make me feel uneasy for some reason,-31,200,20","Dakota","i think of beatnik music and dark piano lounges,25,280,20","Nathaniel","Kind of bizzare in that I can imagine ships or something from it.,11,220,20","Lucas","Astounding, extraordinary.,25,380,20","8"
"34953","","survey-text","148","1144786","0.0-144.0-0.0","A1EU2GVLVPXVQ3","","","","{""Q0"":""Bicycle after dusk.  Kind of weird.""}","","","","","","","","","","","","","","","","","","","","","","",""
"13865.800000011921","","image-slider-response","149","1158654","0.0-145.0","A1EU2GVLVPXVQ3","","","","","0","","","","","","","","","","","","","","","","","","","","","",""
"null","","image-button-response","150","1163662","0.0-146.0","A1EU2GVLVPXVQ3","img_art/28.jpg","null","","","","","","","","","","","","","","","","","","","","","","","","",""
"1155","","image-button-response","151","1164819","0.0-147.0","A1EU2GVLVPXVQ3","img_art/28.jpg","2","","","","","","","","","","","","","","","","","","","","","","","","",""
"4224","","image-button-response","152","1169045","0.0-148.0-0.0","A1EU2GVLVPXVQ3","img_art/28.jpg","4","","","","","","","","","","","","","","","","","","","","","","","","",""
"3749","","image-button-response","153","1172797","0.0-149.0-0.0","A1EU2GVLVPXVQ3","img_art/28.jpg","0","","","","","","","","","","","","","","","","","","","","","","","","",""
"null","","html-keyboard-response","154","1173813","0.0-150.0","A1EU2GVLVPXVQ3","<p style=""font-size: 48px;"">+</p>","","","","","null","allTrialResponses","1000","1","15","img_art/28.jpg","0","Bicycle after dusk.  Kind of weird.","Trevor,Dakota,Lucas,Devon,Nathaniel,Samuel","very blah colors and it's not fun,-27,280,20","musical, animated and happy with somber undertones,7,280,20","This painting is mysterious, it makes me curious.,5,380,20","i'm not too impressed with this one.,-10,400,20","Has an air of darkness to it, but no real substance besides the mouse-like thing.,-38,220,20","conversating means hope,15,400,20","Lucas","This painting is mysterious, it makes me curious.,5,380,20","Nathaniel","Has an air of darkness to it, but no real substance besides the mouse-like thing.,-38,220,20","Trevor","very blah colors and it's not fun,-27,280,20","8"
"6177","","survey-text","155","1179998","0.0-151.0-0.0","A1EU2GVLVPXVQ3","","","","{""Q0"":""course""}","","","","","","","","","","","","","","","","","","","","","","",""
"38520","","survey-text","156","1218521","0.0-152.0-0.0","A1EU2GVLVPXVQ3","","","","{""Q0"":""This is very curious.  Lots going on.  Good use of marginal colors.""}","","","","","","","","","","","","","","","","","","","","","","",""
"3973.699999988079","","image-slider-response","157","1222497","0.0-153.0","A1EU2GVLVPXVQ3","","","","","21","","","","","","","","","","","","","","","","","","","","","",""
"4357","","image-button-response","158","1227500","0.0-154.0","A1EU2GVLVPXVQ3","img_art/18.jpg","1","","","","","","","","","","","","","","","","","","","","","","","","",""
"1268","","image-button-response","159","1228772","0.0-155.0","A1EU2GVLVPXVQ3","img_art/18.jpg","1","","","","","","","","","","","","","","","","","","","","","","","","",""
"5739","","image-button-response","160","1234514","0.0-156.0-0.0","A1EU2GVLVPXVQ3","img_art/18.jpg","3","","","","","","","","","","","","","","","","","","","","","","","","",""
"9122","","image-button-response","161","1243640","0.0-157.0-0.0","A1EU2GVLVPXVQ3","img_art/18.jpg","2","","","","","","","","","","","","","","","","","","","","","","","","",""
"null","","html-keyboard-response","162","1244142","0.0-158.0","A1EU2GVLVPXVQ3","<p style=""font-size: 48px;"">+</p>","","","","","null","allTrialResponses","500","1","16","img_art/18.jpg","21","This is very curious.  Lots going on.  Good use of marginal colors.","Trevor,Richard,Lucas,Alexander,Nathaniel,Malik","it looks dreary and not uplifting,-10,280,20","interesting piece, I like the horse and people inserted in spots,22,340,20","White and yellow look awesome and the picture's dynamics are wonderful.,30,380,20","Ghostly sea adventure.,20,120,20","Looks like a jumbled mess. I prefer a clearer picture,-18,220,20","Gently chaotic and beautiful,40,40,20","Richard","interesting piece, I like the horse and people inserted in spots,22,340,20","Alexander","Ghostly sea adventure.,20,120,20","Lucas","White and yellow look awesome and the picture's dynamics are wonderful.,30,380,20","8"
"25441","","survey-text","163","1269592","0.0-159.0-0.0","A1EU2GVLVPXVQ3","","","","{""Q0"":""Wow.  This looks like a school project.""}","","","","","","","","","","","","","","","","","","","","","","",""
"4436.100000023842","","image-slider-response","164","1274030","0.0-160.0","A1EU2GVLVPXVQ3","","","","","-29","","","","","","","","","","","","","","","","","","","","","",""
"null","","image-button-response","165","1279035","0.0-161.0","A1EU2GVLVPXVQ3","img_art/25.jpg","null","","","","","","","","","","","","","","","","","","","","","","","","",""
"163","","image-button-response","166","1279201","0.0-162.0","A1EU2GVLVPXVQ3","img_art/25.jpg","0","","","","","","","","","","","","","","","","","","","","","","","","",""
"3952","","image-button-response","167","1283155","0.0-163.0-0.0","A1EU2GVLVPXVQ3","img_art/25.jpg","4","","","","","","","","","","","","","","","","","","","","","","","","",""
"817","","image-button-response","168","1283975","0.0-164.0-0.0","A1EU2GVLVPXVQ3","img_art/25.jpg","5","","","","","","","","","","","","","","","","","","","","","","","","",""
"null","","html-keyboard-response","169","1284478","0.0-165.0","A1EU2GVLVPXVQ3","<p style=""font-size: 48px;"">+</p>","","","","","null","allTrialResponses","500","1","17","img_art/25.jpg","-29","Wow.  This looks like a school project.","Michael,Richard,Lucas,Alexander,Adam,Antonio","Low skill not impressed.,-14,140,20","interesting pattern and color choice, kind of unusual,2,340,20","Well-designed, interesting.,30,380,20","Ancient gods above you.,20,120,20","high contrast draws attention to the image, but I'm not sure what I'm seeing,-5,40,20","Makes me think of Baphomet, As above so below and is scary,-50,220,20","Michael","Low skill not impressed.,-14,140,20","Adam","high contrast draws attention to the image, but I'm not sure what I'm seeing,-5,40,20","Antonio","Makes me think of Baphomet, As above so below and is scary,-50,220,20","8"
"57280","","survey-text","170","1341769","0.0-166.0-0.0","A1EU2GVLVPXVQ3","","","","{""Q0"":""Definitely out of the 60's  Interesting though.""}","","","","","","","","","","","","","","","","","","","","","","",""
"5199","","image-slider-response","171","1346970","0.0-167.0","A1EU2GVLVPXVQ3","","","","","25","","","","","","","","","","","","","","","","","","","","","",""
"null","","image-button-response","172","1351978","0.0-168.0","A1EU2GVLVPXVQ3","img_art/29.jpg","null","","","","","","","","","","","","","","","","","","","","","","","","",""
"6093","","image-button-response","173","1358074","0.0-169.0","A1EU2GVLVPXVQ3","img_art/29.jpg","4","","","","","","","","","","","","","","","","","","","","","","","","",""
"3771","","image-button-response","174","1361848","0.0-170.0-0.0","A1EU2GVLVPXVQ3","img_art/29.jpg","3","","","","","","","","","","","","","","","","","","","","","","","","",""
"4395","","image-button-response","175","1366246","0.0-171.0-0.0","A1EU2GVLVPXVQ3","img_art/29.jpg","2","","","","","","","","","","","","","","","","","","","","","","","","",""
"null","","html-keyboard-response","176","1367248","0.0-172.0","A1EU2GVLVPXVQ3","<p style=""font-size: 48px;"">+</p>","","","","","null","allTrialResponses","1000","1","18","img_art/29.jpg","25","Definitely out of the 60's  Interesting though.","Michael,Patrick,Shawn,David,Adam,Antonio","Looks literally like garbage.,-45,140,20","I don't like the black,-50,280,20","Looks muddy and sticky,-31,100,20","Don't really like the red x. It gives the impression that this a discarded piece.,-10,340,20","Flash is too strong. Dislike the colors,-5,40,20","Depressing and with that big red x on it just makes me not like it.,-33,220,20","Adam","Flash is too strong. Dislike the colors,-5,40,20","David","Don't really like the red x. It gives the impression that this a discarded piece.,-10,340,20","Shawn","Looks muddy and sticky,-31,100,20","8"
"36075","","survey-text","177","1403329","0.0-173.0-0.0","A1EU2GVLVPXVQ3","","","","{""Q0"":""Limp tree.  Very simplistic.""}","","","","","","","","","","","","","","","","","","","","","","",""
"8785.599999964237","","image-slider-response","178","1412117","0.0-174.0","A1EU2GVLVPXVQ3","","","","","-1","","","","","","","","","","","","","","","","","","","","","",""
"null","","image-button-response","179","1417122","0.0-175.0","A1EU2GVLVPXVQ3","img_art/6.jpg","null","","","","","","","","","","","","","","","","","","","","","","","","",""
"2738","","image-button-response","180","1419861","0.0-176.0","A1EU2GVLVPXVQ3","img_art/6.jpg","0","","","","","","","","","","","","","","","","","","","","","","","","",""
"27","","image-button-response","181","1419891","0.0-177.0-0.0","A1EU2GVLVPXVQ3","img_art/6.jpg","0","","","","","","","","","","","","","","","","","","","","","","","","",""
"679","","image-button-response","182","1427441","0.0-177.1-0.1","A1EU2GVLVPXVQ3","img_art/6.jpg","3","","","","","","","","","","","","","","","","","","","","","","","","",""
"747","","image-button-response","183","1428190","0.0-178.0-0.0","A1EU2GVLVPXVQ3","img_art/6.jpg","5","","","","","","","","","","","","","","","","","","","","","","","","",""
"null","","html-keyboard-response","184","1428693","0.0-179.0","A1EU2GVLVPXVQ3","<p style=""font-size: 48px;"">+</p>","","","","","null","allTrialResponses","500","1","19","img_art/6.jpg","-1","Limp tree.  Very simplistic.","Derek,Kevin,Shawn,David,Adam,Chase","Too basic for me,-20,360,20","Its the headless bird. But why?,21,320,20","Cute and evocative,11,100,20","I like the simplicity of the piece.,10,340,20","Simple desert scene.,5,40,20","It's a bit bland, but looks like a bird standing.,11,120,20","Derek","Too basic for me,-20,360,20","David","I like the simplicity of the piece.,10,340,20","Chase","It's a bit bland, but looks like a bird standing.,11,120,20","10"
"28848","","survey-text","185","1457553","0.0-180.0-0.0","A1EU2GVLVPXVQ3","","","","{""Q0"":""Way to busy.  Downtown scene?""}","","","","","","","","","","","","","","","","","","","","","","",""
"3739.899999976158","","image-slider-response","186","1461295","0.0-181.0","A1EU2GVLVPXVQ3","","","","","-15","","","","","","","","","","","","","","","","","","","","","",""
"null","","image-button-response","187","1466299","0.0-182.0","A1EU2GVLVPXVQ3","img_art/19.jpg","null","","","","","","","","","","","","","","","","","","","","","","","","",""
"2351","","image-button-response","188","1468653","0.0-183.0","A1EU2GVLVPXVQ3","img_art/19.jpg","1","","","","","","","","","","","","","","","","","","","","","","","","",""
"5858","","image-button-response","189","1474513","0.0-184.0-0.0","A1EU2GVLVPXVQ3","img_art/19.jpg","4","","","","","","","","","","","","","","","","","","","","","","","","",""
"10580","","image-button-response","190","1485097","0.0-185.0-0.0","A1EU2GVLVPXVQ3","img_art/19.jpg","3","","","","","","","","","","","","","","","","","","","","","","","","",""
"null","","html-keyboard-response","191","1486599","0.0-186.0","A1EU2GVLVPXVQ3","<p style=""font-size: 48px;"">+</p>","","","","","null","allTrialResponses","1500","1","20","img_art/19.jpg","-15","Way to busy.  Downtown scene?","Derek,Timothy,Jason,David,Joseph,Chase","It has a chaotic energy about it that draws me in,40,360,20","Something weird is going on in this painting,-20,240,20","The picture contains a lot of brown and weird drips,-4,20,20","The image doesn't really invoke any emotions strongly.,0,340,20","Too messy and busy. Too much going on there for me.,-12,220,20","This is just a mess.,-30,120,20","Timothy","Something weird is going on in this painting,-20,240,20","Joseph","Too messy and busy. Too much going on there for me.,-12,220,20","David","The image doesn't really invoke any emotions strongly.,0,340,20","10"
"6275","","survey-text","192","1492884","0.0-187.0-0.0","A1EU2GVLVPXVQ3","","","","{""Q0"":""we""}","","","","","","","","","","","","","","","","","","","","","","",""
"45879","","survey-text","193","1538765","0.0-188.0-0.0","A1EU2GVLVPXVQ3","","","","{""Q0"":""Pretty drab.  I think the watercolors are washed out a bit.""}","","","","","","","","","","","","","","","","","","","","","","",""
"3514.5","","image-slider-response","194","1542282","0.0-189.0","A1EU2GVLVPXVQ3","","","","","-10","","","","","","","","","","","","","","","","","","","","","",""
"null","","image-button-response","195","1547297","0.0-190.0","A1EU2GVLVPXVQ3","img_art/26.jpg","null","","","","","","","","","","","","","","","","","","","","","","","","",""
"450","","image-button-response","196","1547750","0.0-191.0","A1EU2GVLVPXVQ3","img_art/26.jpg","0","","","","","","","","","","","","","","","","","","","","","","","","",""
"4218","","image-button-response","197","1551970","0.0-192.0-0.0","A1EU2GVLVPXVQ3","img_art/26.jpg","2","","","","","","","","","","","","","","","","","","","","","","","","",""
"8129","","image-button-response","198","1560102","0.0-193.0-0.0","A1EU2GVLVPXVQ3","img_art/26.jpg","3","","","","","","","","","","","","","","","","","","","","","","","","",""
"null","","html-keyboard-response","199","1560604","0.0-194.0","A1EU2GVLVPXVQ3","<p style=""font-size: 48px;"">+</p>","","","","","null","allTrialResponses","500","1","21","img_art/26.jpg","-10","Pretty drab.  I think the watercolors are washed out a bit.","Corey,Timothy,Dalton,David,Joseph,Kenneth","its boring and i dont like the color palette,3,260,20","Very pleasent little scene,40,240,20","neighborhood and trees. i wonder if this is water paint.,1,300,20","The piece doesn't really invoke anything for me.,0,340,20","Looks like the suburbs. I live in those.,13,220,20","Very subdued, but wouldn't give it a 2nd notice.,4,300,20","Corey","its boring and i dont like the color palette,3,260,20","Dalton","neighborhood and trees. i wonder if this is water paint.,1,300,20","David","The piece doesn't really invoke anything for me.,0,340,20","10"
"19767","","survey-text","200","1580384","0.0-195.0-0.0","A1EU2GVLVPXVQ3","","","","{""Q0"":""Ouch.  Even hurts the eyes.""}","","","","","","","","","","","","","","","","","","","","","","",""
"5137.900000035763","","image-slider-response","201","1585524","0.0-196.0","A1EU2GVLVPXVQ3","","","","","-28","","","","","","","","","","","","","","","","","","","","","",""
"null","","image-button-response","202","1590527","0.0-197.0","A1EU2GVLVPXVQ3","img_art/5.jpg","null","","","","","","","","","","","","","","","","","","","","","","","","",""
"6237","","image-button-response","203","1596766","0.0-198.0","A1EU2GVLVPXVQ3","img_art/5.jpg","5","","","","","","","","","","","","","","","","","","","","","","","","",""
"3473","","image-button-response","204","1600243","0.0-199.0-0.0","A1EU2GVLVPXVQ3","img_art/5.jpg","4","","","","","","","","","","","","","","","","","","","","","","","","",""
"5288","","image-button-response","205","1605533","0.0-200.0-0.0","A1EU2GVLVPXVQ3","img_art/5.jpg","1","","","","","","","","","","","","","","","","","","","","","","","","",""
"null","","html-keyboard-response","206","1606035","0.0-201.0","A1EU2GVLVPXVQ3","<p style=""font-size: 48px;"">+</p>","","","","","null","allTrialResponses","500","1","22","img_art/5.jpg","-28","Ouch.  Even hurts the eyes.","Corey,Dustin,Dalton,David,Tristan,Ian","simple. love the color scheme,27,260,20","I don't get it at all. But, maybe it is the top portion of a piece of fruit.,-50,20,20","its something. i just dont know what it is.,1,300,20","I like the simplicity of the design, but I can't tell what the image is trying to depict.,10,340,20","Nearly white background gives a lack of context. Questionable skills,-45,300,20","This either looks like a bell or aliens finishing the pyramids,-34,260,20","Ian","This either looks like a bell or aliens finishing the pyramids,-34,260,20","Tristan","Nearly white background gives a lack of context. Questionable skills,-45,300,20","Dustin","I don't get it at all. But, maybe it is the top portion of a piece of fruit.,-50,20,20","10"
"17545","","survey-text","207","1623592","0.0-202.0-0.0","A1EU2GVLVPXVQ3","","","","{""Q0"":""Nice water color.  Calming.""}","","","","","","","","","","","","","","","","","","","","","","",""
"3544.899999976158","","image-slider-response","208","1627139","0.0-203.0","A1EU2GVLVPXVQ3","","","","","26","","","","","","","","","","","","","","","","","","","","","",""
"null","","image-button-response","209","1632143","0.0-204.0","A1EU2GVLVPXVQ3","img_art/14.jpg","null","","","","","","","","","","","","","","","","","","","","","","","","",""
"9257","","image-button-response","210","1641403","0.0-205.0","A1EU2GVLVPXVQ3","img_art/14.jpg","4","","","","","","","","","","","","","","","","","","","","","","","","",""
"2438","","image-button-response","211","1643842","0.0-206.0-0.0","A1EU2GVLVPXVQ3","img_art/14.jpg","0","","","","","","","","","","","","","","","","","","","","","","","","",""
"4145","","image-button-response","212","1647990","0.0-207.0-0.0","A1EU2GVLVPXVQ3","img_art/14.jpg","1","","","","","","","","","","","","","","","","","","","","","","","","",""
"null","","html-keyboard-response","213","1648992","0.0-208.0","A1EU2GVLVPXVQ3","<p style=""font-size: 48px;"">+</p>","","","","","null","allTrialResponses","1000","1","23","img_art/14.jpg","26","Nice water color.  Calming.","Bryce,Dustin,Cole,Victor,Tristan,Ian","The red looks like blood and im not a huge fan,15,20,20","It represents growth. I see a plant/tree growing out of the ground. I like the rainbow of color in the painting.,31,20,20","Simplistic. Looks like a child did it,14,200,20","Meh. Pleasant to look at. Colors are nice,6,340,20","In others I might say the colors are garish. Here it works perfectly. The balance is wondrous and unlimiting.,25,300,20","This just looks like a kids watercolor painting.,-30,260,20","Tristan","In others I might say the colors are garish. Here it works perfectly. The balance is wondrous and unlimiting.,25,300,20","Bryce","The red looks like blood and im not a huge fan,15,20,20","Dustin","It represents growth. I see a plant/tree growing out of the ground. I like the rainbow of color in the painting.,31,20,20","10"
"9301","","survey-text","214","1658302","0.0-209.0-0.0","A1EU2GVLVPXVQ3","","","","{""Q0"":""Yikes.  Pass""}","","","","","","","","","","","","","","","","","","","","","","",""
"3983.900000035763","","image-slider-response","215","1662288","0.0-210.0","A1EU2GVLVPXVQ3","","","","","-36","","","","","","","","","","","","","","","","","","","","","",""
"4841","","image-button-response","216","1667292","0.0-211.0","A1EU2GVLVPXVQ3","img_art/9.jpg","4","","","","","","","","","","","","","","","","","","","","","","","","",""
"1264","","image-button-response","217","1668560","0.0-212.0","A1EU2GVLVPXVQ3","img_art/9.jpg","4","","","","","","","","","","","","","","","","","","","","","","","","",""
"4053","","image-button-response","218","1672616","0.0-213.0-0.0","A1EU2GVLVPXVQ3","img_art/9.jpg","2","","","","","","","","","","","","","","","","","","","","","","","","",""
"4427","","image-button-response","219","1677046","0.0-214.0-0.0","A1EU2GVLVPXVQ3","img_art/9.jpg","0","","","","","","","","","","","","","","","","","","","","","","","","",""
"null","","html-keyboard-response","220","1678049","0.0-215.0","A1EU2GVLVPXVQ3","<p style=""font-size: 48px;"">+</p>","","","","","null","allTrialResponses","1000","1","24","img_art/9.jpg","-36","Yikes.  Pass","Bryce,Dustin,Devin,Mitchell,Tristan,Mark","Looks like a crayon drawing.,21,20,20","I like the blues and pinks. The woman lying down communicates relaxation. It is a serene, calming scene,30,20,20","I really like the colors and details.,8,380,20","Cozy, In her own world. feminine .,30,180,20","The busyness and harsh nature of the lines in this painting  mute my emotional response.,-10,300,20","Sleeping woman in a cave. Makes me feel safe.,20,80,20","Tristan","The busyness and harsh nature of the lines in this painting  mute my emotional response.,-10,300,20","Devin","I really like the colors and details.,8,380,20","Bryce","Looks like a crayon drawing.,21,20,20","10"
"19194","","survey-text","221","1697250","0.0-216.0-0.0","A1EU2GVLVPXVQ3","","","","{""Q0"":""Looks like a bad piece of Linoleum ""}","","","","","","","","","","","","","","","","","","","","","","",""
"4077.599999964237","","image-slider-response","222","1701329","0.0-217.0","A1EU2GVLVPXVQ3","","","","","-45","","","","","","","","","","","","","","","","","","","","","",""
"4303","","image-button-response","223","1706333","0.0-218.0","A1EU2GVLVPXVQ3","img_art/7.jpg","2","","","","","","","","","","","","","","","","","","","","","","","","",""
"315","","image-button-response","224","1706650","0.0-219.0","A1EU2GVLVPXVQ3","img_art/7.jpg","2","","","","","","","","","","","","","","","","","","","","","","","","",""
"2933","","image-button-response","225","1709585","0.0-220.0-0.0","A1EU2GVLVPXVQ3","img_art/7.jpg","5","","","","","","","","","","","","","","","","","","","","","","","","",""
"2640","","image-button-response","226","1712228","0.0-221.0-0.0","A1EU2GVLVPXVQ3","img_art/7.jpg","4","","","","","","","","","","","","","","","","","","","","","","","","",""
"null","","html-keyboard-response","227","1712731","0.0-222.0","A1EU2GVLVPXVQ3","<p style=""font-size: 48px;"">+</p>","","","","","null","allTrialResponses","500","1","25","img_art/7.jpg","-45","Looks like a bad piece of Linoleum ","Bryce,Christian,Devin,Hunter,Tristan,Kyle","I love the texture.,20,20,20","would love to take a closer look at the texture,15,140,20","Not very big on the sameness here,-20,380,20","textures are engaging,8,240,20","Limited emotional reaction for me. No focus and highly abstract,-20,300,20","It just reminds me of dirt,-10,340,20","Devin","Not very big on the sameness here,-20,380,20","Kyle","It just reminds me of dirt,-10,340,20","Tristan","Limited emotional reaction for me. No focus and highly abstract,-20,300,20","10"
"5492","","survey-text","228","1718244","0.0-223.0-0.0","A1EU2GVLVPXVQ3","","","","{""Q0"":""table""}","","","","","","","","","","","","","","","","","","","","","","",""
"24928","","survey-text","229","1743174","0.0-224.0-0.0","A1EU2GVLVPXVQ3","","","","{""Q0"":""Goggles or Rollercoaster.  Too busy.""}","","","","","","","","","","","","","","","","","","","","","","",""
"3309.899999976158","","image-slider-response","230","1746485","0.0-225.0","A1EU2GVLVPXVQ3","","","","","-36","","","","","","","","","","","","","","","","","","","","","",""
"3984","","image-button-response","231","1751488","0.0-226.0","A1EU2GVLVPXVQ3","img_art/10.jpg","2","","","","","","","","","","","","","","","","","","","","","","","","",""
"660","","image-button-response","232","1752150","0.0-227.0","A1EU2GVLVPXVQ3","img_art/10.jpg","2","","","","","","","","","","","","","","","","","","","","","","","","",""
"6312","","image-button-response","233","1758464","0.0-228.0-0.0","A1EU2GVLVPXVQ3","img_art/10.jpg","5","","","","","","","","","","","","","","","","","","","","","","","","",""
"10261","","image-button-response","234","1768728","0.0-229.0-0.0","A1EU2GVLVPXVQ3","img_art/10.jpg","0","","","","","","","","","","","","","","","","","","","","","","","","",""
"null","","html-keyboard-response","235","1769731","0.0-230.0","A1EU2GVLVPXVQ3","<p style=""font-size: 48px;"">+</p>","","","","","null","allTrialResponses","1000","1","26","img_art/10.jpg","-36","Goggles or Rollercoaster.  Too busy.","Gabriel,Jeffrey,Devin,Isaac,Tristan,Kyle","reminds me of a violin,9,160,20","Relaxing; a lot of going on but colours make it easy to look at,20,40,20","Looks a bit as though someone ran over it?,-13,380,20","It looks intricate.,15,280,20","Highly abstract and yet the shapes and colors provide an emotional accessibility for me.,20,300,20","It's okay but not giving me the strongest reaction,6,340,20","Devin","Looks a bit as though someone ran over it?,-13,380,20","Kyle","It's okay but not giving me the strongest reaction,6,340,20","Gabriel","reminds me of a violin,9,160,20","10"
"15777","","survey-text","236","1785515","0.0-231.0-0.0","A1EU2GVLVPXVQ3","","","","{""Q0"":""Great use of colors and texture.""}","","","","","","","","","","","","","","","","","","","","","","",""
"3637.399999976158","","image-slider-response","237","1789154","0.0-232.0","A1EU2GVLVPXVQ3","","","","","29","","","","","","","","","","","","","","","","","","","","","",""
"4613","","image-button-response","238","1794161","0.0-233.0","A1EU2GVLVPXVQ3","img_art/13.jpg","5","","","","","","","","","","","","","","","","","","","","","","","","",""
"232","","image-button-response","239","1794396","0.0-234.0","A1EU2GVLVPXVQ3","img_art/13.jpg","5","","","","","","","","","","","","","","","","","","","","","","","","",""
"9058","","image-button-response","240","1803456","0.0-235.0-0.0","A1EU2GVLVPXVQ3","img_art/13.jpg","3","","","","","","","","","","","","","","","","","","","","","","","","",""
"4167","","image-button-response","241","1807626","0.0-236.0-0.0","A1EU2GVLVPXVQ3","img_art/13.jpg","0","","","","","","","","","","","","","","","","","","","","","","","","",""
"null","","html-keyboard-response","242","1809128","0.0-237.0","A1EU2GVLVPXVQ3","<p style=""font-size: 48px;"">+</p>","","","","","null","allTrialResponses","1500","1","27","img_art/13.jpg","29","Great use of colors and texture.","Gabriel,Robert,Devin,Jesse,Brendan,Kyle","its like the ocean,24,160,20","Raindrops splashing on the window.,50,360,20","Really love the colors,11,380,20","Really like this. Its like looking out a window into a beautiful storm,39,80,20","its crazy to the point that i cant get it,-28,340,20","I like the colors together,17,340,20","Kyle","I like the colors together,17,340,20","Jesse","Really like this. Its like looking out a window into a beautiful storm,39,80,20","Gabriel","its like the ocean,24,160,20","10"
"15203","","survey-text","243","1824340","0.0-238.0-0.0","A1EU2GVLVPXVQ3","","","","{""Q0"":""Way to busy for me.  Drab!""}","","","","","","","","","","","","","","","","","","","","","","",""
"3973.5","","image-slider-response","244","1828315","0.0-239.0","A1EU2GVLVPXVQ3","","","","","-33","","","","","","","","","","","","","","","","","","","","","",""
"3608","","image-button-response","245","1833332","0.0-240.0","A1EU2GVLVPXVQ3","img_art/3.jpg","2","","","","","","","","","","","","","","","","","","","","","","","","",""
"3137","","image-button-response","246","1836472","0.0-241.0","A1EU2GVLVPXVQ3","img_art/3.jpg","2","","","","","","","","","","","","","","","","","","","","","","","","",""
"810","","image-button-response","247","1837285","0.0-242.0-0.0","A1EU2GVLVPXVQ3","img_art/3.jpg","0","","","","","","","","","","","","","","","","","","","","","","","","",""
"3701","","image-button-response","248","1840988","0.0-243.0-0.0","A1EU2GVLVPXVQ3","img_art/3.jpg","3","","","","","","","","","","","","","","","","","","","","","","","","",""
"null","","html-keyboard-response","249","1841490","0.0-244.0","A1EU2GVLVPXVQ3","<p style=""font-size: 48px;"">+</p>","","","","","null","allTrialResponses","500","1","28","img_art/3.jpg","-33","Way to busy for me.  Drab!","Gabriel,Vincent,Seth,Jesse,Aaron,Kyle","just scribbles, not pleasing,-30,160,20","Iike this one it's a piece that I need to spend more time with to understand how i feel about it,20,360,20","I didn't feel the color choice when I first looked. I did however like the placement of the gray.,-28,60,20","No substance or feeling to it,-20,80,20","Definition of mediocre abstract art,-12,20,20","I don't really have a strong reaction to this one,0,340,20","Seth","I didn't feel the color choice when I first looked. I did however like the placement of the gray.,-28,60,20","Gabriel","just scribbles, not pleasing,-30,160,20","Jesse","No substance or feeling to it,-20,80,20","10"
"22852","","survey-text","250","1864355","0.0-245.0-0.0","A1EU2GVLVPXVQ3","","","","{""Q0"":""Awful.  I don't have a comment.""}","","","","","","","","","","","","","","","","","","","","","","",""
"6076.300000011921","","image-slider-response","251","1870433","0.0-246.0","A1EU2GVLVPXVQ3","","","","","-50","","","","","","","","","","","","","","","","","","","","","",""
"3997","","image-button-response","252","1875436","0.0-247.0","A1EU2GVLVPXVQ3","img_art/23.jpg","1","","","","","","","","","","","","","","","","","","","","","","","","",""
"425","","image-button-response","253","1875863","0.0-248.0","A1EU2GVLVPXVQ3","img_art/23.jpg","1","","","","","","","","","","","","","","","","","","","","","","","","",""
"982","","image-button-response","254","1876848","0.0-249.0-0.0","A1EU2GVLVPXVQ3","img_art/23.jpg","4","","","","","","","","","","","","","","","","","","","","","","","","",""
"9599","","image-button-response","255","1886450","0.0-250.0-0.0","A1EU2GVLVPXVQ3","img_art/23.jpg","0","","","","","","","","","","","","","","","","","","","","","","","","",""
"null","","html-keyboard-response","256","1887452","0.0-251.0","A1EU2GVLVPXVQ3","<p style=""font-size: 48px;"">+</p>","","","","","null","allTrialResponses","1000","1","29","img_art/23.jpg","-50","Awful.  I don't have a comment.","Gabriel,Luis,Seth,Jesse,Peter,Tanner","i think this ones okay,10,160,20","I dont like the chaos of this,-20,400,20","I thought this art was exciting and it reminded me of dancing people.,12,60,20","Makes me want to stare at it for hours. Like there is something deeper to find.,37,80,20","Reminds me of disco/70's, not my favorite design,-12,320,20","fsiries, happy, spiritual,16,180,20","Luis","I dont like the chaos of this,-20,400,20","Peter","Reminds me of disco/70's, not my favorite design,-12,320,20","Gabriel","i think this ones okay,10,160,20","10"
"26029","","survey-text","257","1913487","0.0-252.0-0.0","A1EU2GVLVPXVQ3","","","","{""Q0"":""Very abstract.  Different""}","","","","","","","","","","","","","","","","","","","","","","",""
"10543.399999976158","","image-slider-response","258","1924032","0.0-253.0","A1EU2GVLVPXVQ3","","","","","5","","","","","","","","","","","","","","","","","","","","","",""
"4985","","image-button-response","259","1929035","0.0-254.0","A1EU2GVLVPXVQ3","img_art/2.jpg","2","","","","","","","","","","","","","","","","","","","","","","","","",""
"763","","image-button-response","260","1929800","0.0-255.0","A1EU2GVLVPXVQ3","img_art/2.jpg","2","","","","","","","","","","","","","","","","","","","","","","","","",""
"2624","","image-button-response","261","1932427","0.0-256.0-0.0","A1EU2GVLVPXVQ3","img_art/2.jpg","4","","","","","","","","","","","","","","","","","","","","","","","","",""
"2003","","image-button-response","262","1934434","0.0-257.0-0.0","A1EU2GVLVPXVQ3","img_art/2.jpg","3","","","","","","","","","","","","","","","","","","","","","","","","",""
"null","","html-keyboard-response","263","1935935","0.0-258.0","A1EU2GVLVPXVQ3","<p style=""font-size: 48px;"">+</p>","","","","","null","allTrialResponses","1500","1","30","img_art/2.jpg","5","Very abstract.  Different","Gabriel,Luis,Eric,Bryan,Peter,Elijah","i dont like it, no thank you,-28,160,20","I dont like the expression of this,-19,400,20","I like the color, but I feel like I see a creepy face which I dislike.,-5,100,20","Like the colors but reminds me of a kids show done in cubism.,0,400,20","I don't feel indifferent,4,320,20","It's just a splash of paint on a canvas,-31,80,20","Eric","I like the color, but I feel like I see a creepy face which I dislike.,-5,100,20","Peter","I don't feel indifferent,4,320,20","Bryan","Like the colors but reminds me of a kids show done in cubism.,0,400,20","10"
"8526","","image-button-response_instructions","264","1944468","0.0-259.0","A1EU2GVLVPXVQ3","","0","instructions","","","","","","","","","","","","","","","","","","","","","","","",""
"1555","","image-button-response","265","1946030","0.0-260.0","A1EU2GVLVPXVQ3","","0","","","","","","","","","","","","","","","","","","","","","","","","",""
