"rt","url","trial_type","trial_index","time_elapsed","internal_node_id","participant_id","stimulus","button_pressed","Name","responses","response","key_press","variableName","fixationTime","condition","trial","photo","subjectRating","subjectResponse","agentsNames","agent_1_Response","agent_2_Response","agent_3_Response","agent_4_Response","agent_5_Response","agent_6_Response","kept_1_name","kept_1_response","kept_2_name","kept_2_response","kept_3_name","kept_3_response","errorCounter"
"4044","external_page_harvard.html","external-html","0","4124","0.0-0.0","A1EW0KCS15O0CJ","","","","","","","","","","","","","","","","","","","","","","","","","","",""
"1189","","image-button-response","1","5315","0.0-1.0","A1EW0KCS15O0CJ","","0","","","","","","","","","","","","","","","","","","","","","","","","",""
"1779","","image-button-response","2","7099","0.0-2.0-0.0","A1EW0KCS15O0CJ","","1","phone","","","","","","","","","","","","","","","","","","","","","","","",""
"5118","","survey-text","3","12218","0.0-3.0-0.0","A1EW0KCS15O0CJ","","","","{""Q0"":""A1EW0KCS15O0CJ""}","","","","","","","","","","","","","","","","","","","","","","",""
"4102","","image-button-response_instructions","4","16323","0.0-4.0","A1EW0KCS15O0CJ","","0","instructions","","","","","","","","","","","","","","","","","","","","","","","",""
"21535","","image-button-response_instructions","5","37858","0.0-5.0","A1EW0KCS15O0CJ","img_art/ins/popularity/ins1.png","0","instructions","","","","","","","","","","","","","","","","","","","","","","","",""
"6039","","image-button-response_instructions","6","43898","0.0-6.0","A1EW0KCS15O0CJ","img_art/ins/popularity/ins2.png","0","instructions","","","","","","","","","","","","","","","","","","","","","","","",""
"4343","","image-button-response_instructions","7","48242","0.0-7.0","A1EW0KCS15O0CJ","img_art/ins/popularity/ins2Extreme.png","0","instructions","","","","","","","","","","","","","","","","","","","","","","","",""
"4087","","image-button-response_instructions","8","52330","0.0-8.0","A1EW0KCS15O0CJ","img_art/ins/popularity/ins3KEEPpop.PNG","0","instructions","","","","","","","","","","","","","","","","","","","","","","","",""
"2912","","image-button-response_instructions","9","55243","0.0-9.0","A1EW0KCS15O0CJ","img_art/ins/popularity/ins3ANamepop.PNG","0","instructions","","","","","","","","","","","","","","","","","","","","","","","",""
"8366","","image-button-response_instructions","10","63611","0.0-10.0","A1EW0KCS15O0CJ","img_art/ins/popularity/ins3ARatingpop.png","0","instructions","","","","","","","","","","","","","","","","","","","","","","","",""
"1567","","image-button-response_instructions","11","65179","0.0-11.0","A1EW0KCS15O0CJ","img_art/ins/popularity/ins3ATextpop.png","0","instructions","","","","","","","","","","","","","","","","","","","","","","","",""
"1832","","image-button-response_instructions","12","67011","0.0-12.0","A1EW0KCS15O0CJ","img_art/ins/popularity/ins3ALikespop.png","0","instructions","","","","","","","","","","","","","","","","","","","","","","","",""
"34806","","image-button-response_instructions","13","101819","0.0-13.0","A1EW0KCS15O0CJ","img_art/ins/popularity/ins3KEEPpop.PNG","0","instructions","","","","","","","","","","","","","","","","","","","","","","","",""
"3758","","image-button-response_instructions","14","105579","0.0-14.0","A1EW0KCS15O0CJ","img_art/ins/popularity/ins3_5RED.png","0","instructions","","","","","","","","","","","","","","","","","","","","","","","",""
"2159","","image-button-response_instructions","15","107739","0.0-15.0","A1EW0KCS15O0CJ","img_art/ins/popularity/ins3KEEPpop.PNG","0","instructions","","","","","","","","","","","","","","","","","","","","","","","",""
"4127","","image-button-response_instructions","16","111867","0.0-16.0","A1EW0KCS15O0CJ","img_art/ins/popularity/ins4KEEPpop.PNG","0","instructions","","","","","","","","","","","","","","","","","","","","","","","",""
"2975","","image-button-response_instructions","17","114844","0.0-17.0","A1EW0KCS15O0CJ","img_art/ins/popularity/ins5KEEPpop.PNG","0","instructions","","","","","","","","","","","","","","","","","","","","","","","",""
"903","","image-button-response_instructions","18","115747","0.0-18.0","A1EW0KCS15O0CJ","","0","instructions","","","","","","","","","","","","","","","","","","","","","","","",""
"4013","","survey-text","19","119787","0.0-19.0-0.0","A1EW0KCS15O0CJ","","","","{""Q0"":""but""}","","","","","","","","","","","","","","","","","","","","","","",""
"7999","","survey-text","20","127787","0.0-20.0-0.0","A1EW0KCS15O0CJ","","","","{""Q0"":""seems kind of basic""}","","","","","","","","","","","","","","","","","","","","","","",""
"2901.300000011921","","image-slider-response","21","130691","0.0-21.0","A1EW0KCS15O0CJ","","","","","-17","","","","","","","","","","","","","","","","","","","","","",""
"4485","","image-button-response","22","135696","0.0-22.0","A1EW0KCS15O0CJ","img_art/ins/1.jpg","2","","","","","","","","","","","","","","","","","","","","","","","","",""
"1978","","image-button-response","23","137676","0.0-23.0","A1EW0KCS15O0CJ","img_art/ins/1.jpg","2","","","","","","","","","","","","","","","","","","","","","","","","",""
"1861","","image-button-response","24","139540","0.0-24.0-0.0","A1EW0KCS15O0CJ","img_art/ins/1.jpg","4","","","","","","","","","","","","","","","","","","","","","","","","",""
"1646","","image-button-response","25","141187","0.0-25.0-0.0","A1EW0KCS15O0CJ","img_art/ins/1.jpg","0","","","","","","","","","","","","","","","","","","","","","","","","",""
"null","","html-keyboard-response","26","142190","0.0-26.0","A1EW0KCS15O0CJ","<p style=""font-size: 48px;"">+</p>","","","","","null","allTrialResponses","1000","1","-2","img_art/ins/1.jpg","-17","seems kind of basic","Adam,Alex,Ben,Carl,Daniel,Jack","Seems like doodles,-20,20,20","very creative work.,36,40,20","This color reminds me of poo,-46,60,20","very calming artwork,42,80,20","It looks like a murder scene.,-48,100,20","I like the sophisticated brushwork,40,120,20","Ben","This color reminds me of poo,-46,60,20","Daniel","It looks like a murder scene.,-48,100,20","Adam","Seems like doodles,-20,20,20","0"
"11162","","survey-text","27","153355","0.0-27.0-0.0","A1EW0KCS15O0CJ","","","","{""Q0"":""it has some sophistication but i don't understand it""}","","","","","","","","","","","","","","","","","","","","","","",""
"3030.199999988079","","image-slider-response","28","156387","0.0-28.0","A1EW0KCS15O0CJ","","","","","5","","","","","","","","","","","","","","","","","","","","","",""
"4502","","image-button-response","29","161390","0.0-29.0","A1EW0KCS15O0CJ","img_art/ins/2.jpg","1","","","","","","","","","","","","","","","","","","","","","","","","",""
"684","","image-button-response","30","162076","0.0-30.0","A1EW0KCS15O0CJ","img_art/ins/2.jpg","1","","","","","","","","","","","","","","","","","","","","","","","","",""
"5582","","image-button-response","31","167659","0.0-31.0-0.0","A1EW0KCS15O0CJ","img_art/ins/2.jpg","0","","","","","","","","","","","","","","","","","","","","","","","","",""
"1910","","image-button-response","32","169572","0.0-32.0-0.0","A1EW0KCS15O0CJ","img_art/ins/2.jpg","5","","","","","","","","","","","","","","","","","","","","","","","","",""
"null","","html-keyboard-response","33","170574","0.0-33.0","A1EW0KCS15O0CJ","<p style=""font-size: 48px;"">+</p>","","","","","null","allTrialResponses","1000","1","-1","img_art/ins/2.jpg","5","it has some sophistication but i don't understand it","Adam,John,Ben,James,Daniel,Kyle","too much color,-18,20,20","love the texture of paint,48,160,20","meaningless painting,-45,60,20","looks too angry,-50,140,20","One of my pet peevs,-48,100,20","Idk, it is just annoying,-32,180,20","John","love the texture of paint,48,160,20","Adam","too much color,-18,20,20","Kyle","Idk, it is just annoying,-32,180,20","0"
"11978","","survey-text","34","182556","0.0-34.0-0.0","A1EW0KCS15O0CJ","","","","{""Q0"":""splashes of blue is all it is""}","","","","","","","","","","","","","","","","","","","","","","",""
"1454.5","","image-slider-response","35","184012","0.0-35.0","A1EW0KCS15O0CJ","","","","","-9","","","","","","","","","","","","","","","","","","","","","",""
"2727","","image-button-response","36","189015","0.0-36.0","A1EW0KCS15O0CJ","img_art/ins/3.jpg","2","","","","","","","","","","","","","","","","","","","","","","","","",""
"900","","image-button-response","37","189917","0.0-37.0","A1EW0KCS15O0CJ","img_art/ins/3.jpg","3","","","","","","","","","","","","","","","","","","","","","","","","",""
"1150","","image-button-response","38","191068","0.0-38.0-0.0","A1EW0KCS15O0CJ","img_art/ins/3.jpg","4","","","","","","","","","","","","","","","","","","","","","","","","",""
"1231","","image-button-response","39","192300","0.0-39.0-0.0","A1EW0KCS15O0CJ","img_art/ins/3.jpg","5","","","","","","","","","","","","","","","","","","","","","","","","",""
"null","","html-keyboard-response","40","193303","0.0-40.0","A1EW0KCS15O0CJ","<p style=""font-size: 48px;"">+</p>","","","","","null","allTrialResponses","1000","1","0","img_art/ins/3.jpg","-9","splashes of blue is all it is","Adam,John,Sam,Mike,Ron,Kyle","My daily routine, it's depressing,-20,20,20","I like the overlapping of brushes,41,160,20","I can feel a rainy day from this painting,18,240,20","enjoy the different shades of blue,22,200,20","It looks depressing,-26,220,20","It looks like a playground for bats,-36,180,20","Mike","enjoy the different shades of blue,22,200,20","Ron","It looks depressing,-26,220,20","Kyle","It looks like a playground for bats,-36,180,20","0"
"4498","","image-button-response_instructions","41","197804","0.0-41.0","A1EW0KCS15O0CJ","","0","instructions","","","","","","","","","","","","","","","","","","","","","","","",""
"8327","","survey-likert","42","206132","0.0-42.0-0.0","A1EW0KCS15O0CJ","","","","{""Q0"":"""",""Q1"":0,""Q2"":1}","","","","","","","","","","","","","","","","","","","","","","",""
"3316","","survey-text","43","209453","0.0-43.0-0.0","A1EW0KCS15O0CJ","","","","{""Q0"":""rock""}","","","","","","","","","","","","","","","","","","","","","","",""
"78767","","survey-text","44","288221","0.0-44.0-0.0","A1EW0KCS15O0CJ","","","","{""Q0"":""bright and fun""}","","","","","","","","","","","","","","","","","","","","","","",""
"1639.1000000238419","","image-slider-response","45","289862","0.0-45.0","A1EW0KCS15O0CJ","","","","","19","","","","","","","","","","","","","","","","","","","","","",""
"4989","","image-button-response","46","294890","0.0-46.0","A1EW0KCS15O0CJ","img_art/6.jpg","4","","","","","","","","","","","","","","","","","","","","","","","","",""
"2074","","image-button-response","47","296966","0.0-47.0","A1EW0KCS15O0CJ","img_art/6.jpg","2","","","","","","","","","","","","","","","","","","","","","","","","",""
"766","","image-button-response","48","297733","0.0-48.0-0.0","A1EW0KCS15O0CJ","img_art/6.jpg","2","","","","","","","","","","","","","","","","","","","","","","","","",""
"631","","image-button-response","49","301045","0.0-48.1-0.1","A1EW0KCS15O0CJ","img_art/6.jpg","0","","","","","","","","","","","","","","","","","","","","","","","","",""
"1479","","image-button-response","50","302525","0.0-49.0-0.0","A1EW0KCS15O0CJ","img_art/6.jpg","4","","","","","","","","","","","","","","","","","","","","","","","","",""
"null","","html-keyboard-response","51","303527","0.0-50.0","A1EW0KCS15O0CJ","<p style=""font-size: 48px;"">+</p>","","","","","null","allTrialResponses","1000","1","1","img_art/6.jpg","19","bright and fun","Stephen,Bryce,Jonathan,Lucas,Grant,Antonio","Good painting but too simple to care about it for very long.,-15,140,20","Not very exciting.,-34,20,20","The colors and rough brush strokes make me nervous,-10,140,20","Nothing special.,-20,380,20","The limited colors make me feel lonely.,36,200,20","Lonely and kinda sad,-25,220,20","Jonathan","The colors and rough brush strokes make me nervous,-10,140,20","Stephen","Good painting but too simple to care about it for very long.,-15,140,20","Grant","The limited colors make me feel lonely.,36,200,20","2"
"10660","","survey-text","52","314189","0.0-51.0-0.0","A1EW0KCS15O0CJ","","","","{""Q0"":""actually this seems kind of interesting""}","","","","","","","","","","","","","","","","","","","","","","",""
"1262.5999999642372","","image-slider-response","53","315453","0.0-52.0","A1EW0KCS15O0CJ","","","","","21","","","","","","","","","","","","","","","","","","","","","",""
"1312","","image-button-response","54","320796","0.0-53.0","A1EW0KCS15O0CJ","img_art/13.jpg","0","","","","","","","","","","","","","","","","","","","","","","","","",""
"16599","","image-button-response","55","337397","0.0-54.0","A1EW0KCS15O0CJ","img_art/13.jpg","0","","","","","","","","","","","","","","","","","","","","","","","","",""
"2199","","image-button-response","56","339598","0.0-55.0-0.0","A1EW0KCS15O0CJ","img_art/13.jpg","2","","","","","","","","","","","","","","","","","","","","","","","","",""
"2679","","image-button-response","57","342279","0.0-56.0-0.0","A1EW0KCS15O0CJ","img_art/13.jpg","5","","","","","","","","","","","","","","","","","","","","","","","","",""
"null","","html-keyboard-response","58","342781","0.0-57.0","A1EW0KCS15O0CJ","<p style=""font-size: 48px;"">+</p>","","","","","null","allTrialResponses","500","1","2","img_art/13.jpg","21","actually this seems kind of interesting","Stephen,Thomas,Jonathan,Mitchell,Grant,Corey","Like how realistic it looks.,33,140,20","Nothing about this stands out to me,-10,220,20","It's pretty basic but it makes me feel like I'm looking at the ocean,30,140,20","Magnified rain around trees. Beautiful happy colors. The little person on the right feels nature is huge.,45,180,20","This elicits no reaction in me.,0,200,20","i like the splatters and the colors,21,260,20","Stephen","Like how realistic it looks.,33,140,20","Jonathan","It's pretty basic but it makes me feel like I'm looking at the ocean,30,140,20","Corey","i like the splatters and the colors,21,260,20","2"
"11038","","survey-text","59","353823","0.0-58.0-0.0","A1EW0KCS15O0CJ","","","","{""Q0"":""looks fancy, i like it""}","","","","","","","","","","","","","","","","","","","","","","",""
"3453.5","","image-slider-response","60","357278","0.0-59.0","A1EW0KCS15O0CJ","","","","","33","","","","","","","","","","","","","","","","","","","","","",""
"null","","image-button-response","61","362281","0.0-60.0","A1EW0KCS15O0CJ","img_art/10.jpg","null","","","","","","","","","","","","","","","","","","","","","","","","",""
"49885","","image-button-response","62","412167","0.0-61.0","A1EW0KCS15O0CJ","img_art/10.jpg","1","","","","","","","","","","","","","","","","","","","","","","","","",""
"1078","","image-button-response","63","413247","0.0-62.0-0.0","A1EW0KCS15O0CJ","img_art/10.jpg","0","","","","","","","","","","","","","","","","","","","","","","","","",""
"2535","","image-button-response","64","415784","0.0-63.0-0.0","A1EW0KCS15O0CJ","img_art/10.jpg","4","","","","","","","","","","","","","","","","","","","","","","","","",""
"null","","html-keyboard-response","65","416287","0.0-64.0","A1EW0KCS15O0CJ","<p style=""font-size: 48px;"">+</p>","","","","","null","allTrialResponses","500","1","3","img_art/10.jpg","33","looks fancy, i like it","Stephen,Jesse,Jonathan,Scott,Elijah,Corey","Very nice painting, would like it more with different color choice.,6,140,20","It makes me think of music and i love the reflective aspect,29,80,20","Too much negative space makes it feel unfinished,-25,140,20","kind of reminds me of a map,1,20,20","Makes me feel amazed,23,80,20","I think this was going to be a guitar but then the artist got mad and gave up,-4,260,20","Jesse","It makes me think of music and i love the reflective aspect,29,80,20","Stephen","Very nice painting, would like it more with different color choice.,6,140,20","Elijah","Makes me feel amazed,23,80,20","2"
"11981","","survey-text","66","428271","0.0-65.0-0.0","A1EW0KCS15O0CJ","","","","{""Q0"":""looks like a kid's painting""}","","","","","","","","","","","","","","","","","","","","","","",""
"1862.199999988079","","image-slider-response","67","430135","0.0-66.0","A1EW0KCS15O0CJ","","","","","7","","","","","","","","","","","","","","","","","","","","","",""
"3079","","image-button-response","68","435137","0.0-67.0","A1EW0KCS15O0CJ","img_art/19.jpg","2","","","","","","","","","","","","","","","","","","","","","","","","",""
"789","","image-button-response","69","435927","0.0-68.0","A1EW0KCS15O0CJ","img_art/19.jpg","2","","","","","","","","","","","","","","","","","","","","","","","","",""
"1423","","image-button-response","70","437351","0.0-69.0-0.0","A1EW0KCS15O0CJ","img_art/19.jpg","0","","","","","","","","","","","","","","","","","","","","","","","","",""
"3215","","image-button-response","71","440567","0.0-70.0-0.0","A1EW0KCS15O0CJ","img_art/19.jpg","5","","","","","","","","","","","","","","","","","","","","","","","","",""
"null","","html-keyboard-response","72","441070","0.0-71.0","A1EW0KCS15O0CJ","<p style=""font-size: 48px;"">+</p>","","","","","null","allTrialResponses","500","1","4","img_art/19.jpg","7","looks like a kid's painting","Stephen,Jesse,Ian,Jorge,Elijah,Devon","Solid use of colors but wished it looked more realistic.,12,140,20","I dont like the smudge effect,-7,80,20","It looks cool but at the time looks like it was done by a talented 5 year old.,13,260,20","confused and emotional,-4,180,20","The details are amazing,36,80,20","this looks like a busy city lifestyle,24,400,20","Ian","It looks cool but at the time looks like it was done by a talented 5 year old.,13,260,20","Stephen","Solid use of colors but wished it looked more realistic.,12,140,20","Devon","this looks like a busy city lifestyle,24,400,20","2"
"24557","","survey-text","73","465631","0.0-72.0-0.0","A1EW0KCS15O0CJ","","","","{""Q0"":""looks like kids art.""}","","","","","","","","","","","","","","","","","","","","","","",""
"1438.8999999761581","","image-slider-response","74","467072","0.0-73.0","A1EW0KCS15O0CJ","","","","","-7","","","","","","","","","","","","","","","","","","","","","",""
"1358","","image-button-response","75","472075","0.0-74.0","A1EW0KCS15O0CJ","img_art/16.jpg","1","","","","","","","","","","","","","","","","","","","","","","","","",""
"2612","","image-button-response","76","474688","0.0-75.0","A1EW0KCS15O0CJ","img_art/16.jpg","1","","","","","","","","","","","","","","","","","","","","","","","","",""
"4782","","image-button-response","77","479472","0.0-76.0-0.0","A1EW0KCS15O0CJ","img_art/16.jpg","5","","","","","","","","","","","","","","","","","","","","","","","","",""
"502","","image-button-response","78","479976","0.0-77.0-0.0","A1EW0KCS15O0CJ","img_art/16.jpg","3","","","","","","","","","","","","","","","","","","","","","","","","",""
"null","","html-keyboard-response","79","480977","0.0-78.0","A1EW0KCS15O0CJ","<p style=""font-size: 48px;"">+</p>","","","","","null","allTrialResponses","1000","1","5","img_art/16.jpg","-7","looks like kids art.","Stephen,Jason,Ian,Victor,Garrett,Devon","Cute but there's a lot going on.,7,140,20","The bear is a weird choice,-22,20,20","This looks like it was made by an art student filled with angst,-30,260,20","I don't know why, I just don't like it,-28,340,20","I think this picture is weird and the colors are very boring.,-50,180,20","The teddy bear looks really scared,-30,400,20","Jason","The bear is a weird choice,-22,20,20","Devon","The teddy bear looks really scared,-30,400,20","Victor","I don't know why, I just don't like it,-28,340,20","2"
"173610","","survey-text","80","654594","0.0-79.0-0.0","A1EW0KCS15O0CJ","","","","{""Q0"":""sky""}","","","","","","","","","","","","","","","","","","","","","","",""
"7823","","survey-text","81","662418","0.0-80.0-0.0","A1EW0KCS15O0CJ","","","","{""Q0"":""beautiful painting""}","","","","","","","","","","","","","","","","","","","","","","",""
"1805.6000000238419","","image-slider-response","82","664226","0.0-81.0","A1EW0KCS15O0CJ","","","","","36","","","","","","","","","","","","","","","","","","","","","",""
"1318","","image-button-response","83","669228","0.0-82.0","A1EW0KCS15O0CJ","img_art/17.jpg","1","","","","","","","","","","","","","","","","","","","","","","","","",""
"29045","","image-button-response","84","698274","0.0-83.0","A1EW0KCS15O0CJ","img_art/17.jpg","1","","","","","","","","","","","","","","","","","","","","","","","","",""
"1327","","image-button-response","85","699602","0.0-84.0-0.0","A1EW0KCS15O0CJ","img_art/17.jpg","2","","","","","","","","","","","","","","","","","","","","","","","","",""
"806","","image-button-response","86","700411","0.0-85.0-0.0","A1EW0KCS15O0CJ","img_art/17.jpg","0","","","","","","","","","","","","","","","","","","","","","","","","",""
"null","","html-keyboard-response","87","701912","0.0-86.0","A1EW0KCS15O0CJ","<p style=""font-size: 48px;"">+</p>","","","","","null","allTrialResponses","1500","1","6","img_art/17.jpg","36","beautiful painting","Miguel,Jason,Caleb,Victor,Cody,Devon","Looks awesome .,33,160,20","Very beautiful,19,20,20","Not even abstract to me, very clear meaning.,44,40,20","cool. Sharp and blocky below, light and flowing on top. Overall pleasing to look at,32,340,20","Love the colors and the movement,46,180,20","i feel some sadness in this picture,25,400,20","Jason","Very beautiful,19,20,20","Caleb","Not even abstract to me, very clear meaning.,44,40,20","Miguel","Looks awesome .,33,160,20","2"
"7246","","survey-text","88","709162","0.0-87.0-0.0","A1EW0KCS15O0CJ","","","","{""Q0"":""is this a volcano?""}","","","","","","","","","","","","","","","","","","","","","","",""
"1757.8999999761581","","image-slider-response","89","710923","0.0-88.0","A1EW0KCS15O0CJ","","","","","-9","","","","","","","","","","","","","","","","","","","","","",""
"null","","image-button-response","90","715925","0.0-89.0","A1EW0KCS15O0CJ","img_art/5.jpg","null","","","","","","","","","","","","","","","","","","","","","","","","",""
"940","","image-button-response","91","716868","0.0-90.0","A1EW0KCS15O0CJ","img_art/5.jpg","3","","","","","","","","","","","","","","","","","","","","","","","","",""
"1135","","image-button-response","92","718003","0.0-91.0-0.0","A1EW0KCS15O0CJ","img_art/5.jpg","4","","","","","","","","","","","","","","","","","","","","","","","","",""
"1046","","image-button-response","93","719051","0.0-92.0-0.0","A1EW0KCS15O0CJ","img_art/5.jpg","1","","","","","","","","","","","","","","","","","","","","","","","","",""
"null","","html-keyboard-response","94","719553","0.0-93.0","A1EW0KCS15O0CJ","<p style=""font-size: 48px;"">+</p>","","","","","null","allTrialResponses","500","1","7","img_art/5.jpg","-9","is this a volcano?","Miguel,Jason,Caleb,Patrick,William,Adam","Appealing but shapeless,24,160,20","Wish the background had been kept clean; distracts from main object,11,20,20","Boring and appears low effort,-41,40,20","It looks random,-10,280,20","very boring and plain,-35,380,20","Too loud. Dislike the bright yellow.,-5,40,20","Patrick","It looks random,-10,280,20","William","very boring and plain,-35,380,20","Jason","Wish the background had been kept clean; distracts from main object,11,20,20","2"
"13685","","survey-text","95","733243","0.0-94.0-0.0","A1EW0KCS15O0CJ","","","","{""Q0"":""it seems like a dead bush""}","","","","","","","","","","","","","","","","","","","","","","",""
"1862.5","","image-slider-response","96","735107","0.0-95.0","A1EW0KCS15O0CJ","","","","","-14","","","","","","","","","","","","","","","","","","","","","",""
"null","","image-button-response","97","740109","0.0-96.0","A1EW0KCS15O0CJ","img_art/14.jpg","null","","","","","","","","","","","","","","","","","","","","","","","","",""
"2308","","image-button-response","98","742419","0.0-97.0","A1EW0KCS15O0CJ","img_art/14.jpg","2","","","","","","","","","","","","","","","","","","","","","","","","",""
"967","","image-button-response","99","743388","0.0-98.0-0.0","A1EW0KCS15O0CJ","img_art/14.jpg","1","","","","","","","","","","","","","","","","","","","","","","","","",""
"1110","","image-button-response","100","744500","0.0-99.0-0.0","A1EW0KCS15O0CJ","img_art/14.jpg","4","","","","","","","","","","","","","","","","","","","","","","","","",""
"null","","html-keyboard-response","101","746002","0.0-100.0","A1EW0KCS15O0CJ","<p style=""font-size: 48px;"">+</p>","","","","","null","allTrialResponses","1500","1","8","img_art/14.jpg","-14","it seems like a dead bush","Steven,Jason,Robert,Patrick,William,Alexander","this one isn't bad, reminds me a tree that gives life, and people are waiting for someone new to be born,27,160,20","Focal point is interesting,5,20,20","Late Winter when things are just starting to bloom.,21,360,20","It uplifts my mood due to the color scheme,32,280,20","calming to look at,37,380,20","Angled, colored, boxy.,10,120,20","Robert","Late Winter when things are just starting to bloom.,21,360,20","Jason","Focal point is interesting,5,20,20","William","calming to look at,37,380,20","2"
"11684","","survey-text","102","757691","0.0-101.0-0.0","A1EW0KCS15O0CJ","","","","{""Q0"":""makes me dizzy to look at""}","","","","","","","","","","","","","","","","","","","","","","",""
"1982.300000011921","","image-slider-response","103","759675","0.0-102.0","A1EW0KCS15O0CJ","","","","","-5","","","","","","","","","","","","","","","","","","","","","",""
"2711","","image-button-response","104","764678","0.0-103.0","A1EW0KCS15O0CJ","img_art/12.jpg","4","","","","","","","","","","","","","","","","","","","","","","","","",""
"572","","image-button-response","105","765251","0.0-104.0","A1EW0KCS15O0CJ","img_art/12.jpg","5","","","","","","","","","","","","","","","","","","","","","","","","",""
"982","","image-button-response","106","766235","0.0-105.0-0.0","A1EW0KCS15O0CJ","img_art/12.jpg","4","","","","","","","","","","","","","","","","","","","","","","","","",""
"2150","","image-button-response","107","768387","0.0-106.0-0.0","A1EW0KCS15O0CJ","img_art/12.jpg","3","","","","","","","","","","","","","","","","","","","","","","","","",""
"null","","html-keyboard-response","108","769889","0.0-107.0","A1EW0KCS15O0CJ","<p style=""font-size: 48px;"">+</p>","","","","","null","allTrialResponses","1500","1","9","img_art/12.jpg","-5","makes me dizzy to look at","Christian,Jason,Robert,Malik,William,Peter","so many different available interpretations for this, would love to closer.,24,140,20","The shapes present in the picture make it very interesting,17,20,20","I like the pattern to it.,31,360,20","I don't like it, but I appreciate the effort and technique,11,40,20","to contemporary for me,3,380,20","Reminds me Early 2000's decor, don't favor it,-10,320,20","Peter","Reminds me Early 2000's decor, don't favor it,-10,320,20","William","to contemporary for me,3,380,20","Malik","I don't like it, but I appreciate the effort and technique,11,40,20","2"
"12063","","survey-text","109","781955","0.0-108.0-0.0","A1EW0KCS15O0CJ","","","","{""Q0"":""intricate, beautiful""}","","","","","","","","","","","","","","","","","","","","","","",""
"1422.2000000476837","","image-slider-response","110","783379","0.0-109.0","A1EW0KCS15O0CJ","","","","","35","","","","","","","","","","","","","","","","","","","","","",""
"null","","image-button-response","111","788382","0.0-110.0","A1EW0KCS15O0CJ","img_art/18.jpg","null","","","","","","","","","","","","","","","","","","","","","","","","",""
"1788","","image-button-response","112","790172","0.0-111.0","A1EW0KCS15O0CJ","img_art/18.jpg","3","","","","","","","","","","","","","","","","","","","","","","","","",""
"4558","","image-button-response","113","794732","0.0-112.0-0.0","A1EW0KCS15O0CJ","img_art/18.jpg","1","","","","","","","","","","","","","","","","","","","","","","","","",""
"4350","","image-button-response","114","799084","0.0-113.0-0.0","A1EW0KCS15O0CJ","img_art/18.jpg","2","","","","","","","","","","","","","","","","","","","","","","","","",""
"null","","html-keyboard-response","115","799586","0.0-114.0","A1EW0KCS15O0CJ","<p style=""font-size: 48px;"">+</p>","","","","","null","allTrialResponses","500","1","10","img_art/18.jpg","35","intricate, beautiful","Tyler,Eric,Luke,Malik,William,Peter","Pleasant design and composition, unpleasant theme and focus.,-19,320,20","I like the colors being used, but I don't like the chaos in the middle of it.,20,100,20","the harsh lines with the smooth lines makes me think of wild animals,20,20,20","Gently chaotic and beautiful,40,40,20","Makes me think of stormy oceans,20,380,20","I'm not partial to the design, unsettling,2,320,20","Malik","Gently chaotic and beautiful,40,40,20","Eric","I like the colors being used, but I don't like the chaos in the middle of it.,20,100,20","Luke","the harsh lines with the smooth lines makes me think of wild animals,20,20,20","2"
"3267","","survey-text","116","802860","0.0-115.0-0.0","A1EW0KCS15O0CJ","","","","{""Q0"":""our""}","","","","","","","","","","","","","","","","","","","","","","",""
"12662","","survey-text","117","815523","0.0-116.0-0.0","A1EW0KCS15O0CJ","","","","{""Q0"":""looks realistic, but out of this world""}","","","","","","","","","","","","","","","","","","","","","","",""
"1863","","image-slider-response","118","817388","0.0-117.0","A1EW0KCS15O0CJ","","","","","21","","","","","","","","","","","","","","","","","","","","","",""
"4063","","image-button-response","119","822391","0.0-118.0","A1EW0KCS15O0CJ","img_art/7.jpg","1","","","","","","","","","","","","","","","","","","","","","","","","",""
"491","","image-button-response","120","822884","0.0-119.0","A1EW0KCS15O0CJ","img_art/7.jpg","1","","","","","","","","","","","","","","","","","","","","","","","","",""
"2487","","image-button-response","121","825372","0.0-120.0-0.0","A1EW0KCS15O0CJ","img_art/7.jpg","3","","","","","","","","","","","","","","","","","","","","","","","","",""
"1184","","image-button-response","122","826557","0.0-121.0-0.0","A1EW0KCS15O0CJ","img_art/7.jpg","5","","","","","","","","","","","","","","","","","","","","","","","","",""
"null","","html-keyboard-response","123","827059","0.0-122.0","A1EW0KCS15O0CJ","<p style=""font-size: 48px;"">+</p>","","","","","null","allTrialResponses","500","1","11","img_art/7.jpg","21","looks realistic, but out of this world","Jeffrey,Eric,Luke,Malik,Richard,Vincent","No not cause many emotions,1,40,20","This piece is really simple but the colors and texture work well together.,20,100,20","reminds me of the desert,-20,20,20","Detail oriented, like cracked paint wall,15,40,20","looks like wallpaper,-6,340,20","One I would love to own . Calm relaxing spiritual and full of love,41,360,20","Eric","This piece is really simple but the colors and texture work well together.,20,100,20","Malik","Detail oriented, like cracked paint wall,15,40,20","Vincent","One I would love to own . Calm relaxing spiritual and full of love,41,360,20","2"
"9252","","survey-text","124","836316","0.0-123.0-0.0","A1EW0KCS15O0CJ","","","","{""Q0"":""looks a tad random and boring""}","","","","","","","","","","","","","","","","","","","","","","",""
"1630.7999999523163","","image-slider-response","125","837948","0.0-124.0","A1EW0KCS15O0CJ","","","","","-33","","","","","","","","","","","","","","","","","","","","","",""
"null","","image-button-response","126","842951","0.0-125.0","A1EW0KCS15O0CJ","img_art/22.jpg","null","","","","","","","","","","","","","","","","","","","","","","","","",""
"300","","image-button-response","127","843253","0.0-126.0","A1EW0KCS15O0CJ","img_art/22.jpg","4","","","","","","","","","","","","","","","","","","","","","","","","",""
"2405","","image-button-response","128","845660","0.0-127.0-0.0","A1EW0KCS15O0CJ","img_art/22.jpg","2","","","","","","","","","","","","","","","","","","","","","","","","",""
"2454","","image-button-response","129","848116","0.0-128.0-0.0","A1EW0KCS15O0CJ","img_art/22.jpg","3","","","","","","","","","","","","","","","","","","","","","","","","",""
"null","","html-keyboard-response","130","849117","0.0-129.0","A1EW0KCS15O0CJ","<p style=""font-size: 48px;"">+</p>","","","","","null","allTrialResponses","1000","1","12","img_art/22.jpg","-33","looks a tad random and boring","Jose,Eric,Dustin,Malik,Noah,Vincent","Cool squares but what's the circle?,38,200,20","I don't normally like bright colors, but I like them in this. Don't like the random black paint.,30,100,20","Too much red. The red/yellow/orange make me think of heat/fire, which makes me anxious.,-10,20,20","Beautiful forms, using color to define shape,14,40,20","displeasure - not a fan of the colour or the shapes,-18,260,20","Can fit with anyone. And in any home a great piece of art,35,360,20","Noah","displeasure - not a fan of the colour or the shapes,-18,260,20","Dustin","Too much red. The red/yellow/orange make me think of heat/fire, which makes me anxious.,-10,20,20","Malik","Beautiful forms, using color to define shape,14,40,20","2"
"14915","","survey-text","131","864036","0.0-130.0-0.0","A1EW0KCS15O0CJ","","","","{""Q0"":""interesting architecture combination with human faces""}","","","","","","","","","","","","","","","","","","","","","","",""
"2565.899999976158","","image-slider-response","132","866603","0.0-131.0","A1EW0KCS15O0CJ","","","","","40","","","","","","","","","","","","","","","","","","","","","",""
"4303","","image-button-response","133","871607","0.0-132.0","A1EW0KCS15O0CJ","img_art/8.jpg","1","","","","","","","","","","","","","","","","","","","","","","","","",""
"395","","image-button-response","134","872004","0.0-133.0","A1EW0KCS15O0CJ","img_art/8.jpg","1","","","","","","","","","","","","","","","","","","","","","","","","",""
"2238","","image-button-response","135","874244","0.0-134.0-0.0","A1EW0KCS15O0CJ","img_art/8.jpg","5","","","","","","","","","","","","","","","","","","","","","","","","",""
"3566","","image-button-response","136","877812","0.0-135.0-0.0","A1EW0KCS15O0CJ","img_art/8.jpg","3","","","","","","","","","","","","","","","","","","","","","","","","",""
"null","","html-keyboard-response","137","878314","0.0-136.0","A1EW0KCS15O0CJ","<p style=""font-size: 48px;"">+</p>","","","","","null","allTrialResponses","500","1","13","img_art/8.jpg","40","interesting architecture combination with human faces","Cameron,Tristan,Dustin,Malik,Noah,Derek","what's going on here. looks like scary town.,-25,60,20","The definition and the colors give make this painting accessible and thought provoking.,30,300,20","I like the colors. But I don't like the faces, they look distraught. Faces and sharp shapes make me anxious,1,20,20","Striking, but not my taste,20,40,20","not sure what to make of this - just neutral again,-1,260,20","It's simply gorgeous. This artist is very talented,50,360,20","Tristan","The definition and the colors give make this painting accessible and thought provoking.,30,300,20","Derek","It's simply gorgeous. This artist is very talented,50,360,20","Malik","Striking, but not my taste,20,40,20","2"
"11151","","survey-text","138","889468","0.0-137.0-0.0","A1EW0KCS15O0CJ","","","","{""Q0"":""i agree with the big X, cancel this.""}","","","","","","","","","","","","","","","","","","","","","","",""
"2453.599999964237","","image-slider-response","139","891924","0.0-138.0","A1EW0KCS15O0CJ","","","","","-41","","","","","","","","","","","","","","","","","","","","","",""
"3688","","image-button-response","140","896928","0.0-139.0","A1EW0KCS15O0CJ","img_art/29.jpg","2","","","","","","","","","","","","","","","","","","","","","","","","",""
"756","","image-button-response","141","897685","0.0-140.0","A1EW0KCS15O0CJ","img_art/29.jpg","4","","","","","","","","","","","","","","","","","","","","","","","","",""
"1326","","image-button-response","142","899013","0.0-141.0-0.0","A1EW0KCS15O0CJ","img_art/29.jpg","2","","","","","","","","","","","","","","","","","","","","","","","","",""
"2646","","image-button-response","143","901661","0.0-142.0-0.0","A1EW0KCS15O0CJ","img_art/29.jpg","3","","","","","","","","","","","","","","","","","","","","","","","","",""
"null","","html-keyboard-response","144","902162","0.0-143.0","A1EW0KCS15O0CJ","<p style=""font-size: 48px;"">+</p>","","","","","null","allTrialResponses","500","1","14","img_art/29.jpg","-41","i agree with the big X, cancel this.","Christopher,Tristan,Mason,Malik,Taylor,Derek","it's interesting but not my style,9,160,20","The textures bring this painting alive. A window to another existence with infinite possibility.,25,300,20","easy, too abstract for me, don't get it.,-25,100,20","Feels like an abandoned dream,13,40,20","I would give up and give it a red X too.,-5,200,20","Very wild and I like it,20,360,20","Taylor","I would give up and give it a red X too.,-5,200,20","Mason","easy, too abstract for me, don't get it.,-25,100,20","Malik","Feels like an abandoned dream,13,40,20","2"
"22662","","survey-text","145","924830","0.0-144.0-0.0","A1EW0KCS15O0CJ","","","","{""Q0"":""i'm not really sure what's going on here.  cloudy?""}","","","","","","","","","","","","","","","","","","","","","","",""
"1677.4000000357628","","image-slider-response","146","926509","0.0-145.0","A1EW0KCS15O0CJ","","","","","-7","","","","","","","","","","","","","","","","","","","","","",""
"3077","","image-button-response","147","931512","0.0-146.0","A1EW0KCS15O0CJ","img_art/27.jpg","2","","","","","","","","","","","","","","","","","","","","","","","","",""
"515","","image-button-response","148","932029","0.0-147.0","A1EW0KCS15O0CJ","img_art/27.jpg","4","","","","","","","","","","","","","","","","","","","","","","","","",""
"767","","image-button-response","149","932798","0.0-148.0-0.0","A1EW0KCS15O0CJ","img_art/27.jpg","2","","","","","","","","","","","","","","","","","","","","","","","","",""
"717","","image-button-response","150","933517","0.0-149.0-0.0","A1EW0KCS15O0CJ","img_art/27.jpg","3","","","","","","","","","","","","","","","","","","","","","","","","",""
"null","","html-keyboard-response","151","934019","0.0-150.0","A1EW0KCS15O0CJ","<p style=""font-size: 48px;"">+</p>","","","","","null","allTrialResponses","500","1","15","img_art/27.jpg","-7","i'm not really sure what's going on here.  cloudy?","Blake,Jeremy,Mason,Malik,Taylor,Ethan","fruity and sweet. warm and juicy,10,280,20","Pleased. Reminds me of a child drawing,46,60,20","dont like it, don't hate it, meh.,2,100,20","Nice color, but too vague,-12,40,20","Looks like a child added his own interpretation with a black marker.,-5,200,20","I like the layer upon layer of different mediums used here.,21,120,20","Taylor","Looks like a child added his own interpretation with a black marker.,-5,200,20","Mason","dont like it, don't hate it, meh.,2,100,20","Malik","Nice color, but too vague,-12,40,20","2"
"2979","","survey-text","152","937006","0.0-151.0-0.0","A1EW0KCS15O0CJ","","","","{""Q0"":""course""}","","","","","","","","","","","","","","","","","","","","","","",""
"18094","","survey-text","153","955101","0.0-152.0-0.0","A1EW0KCS15O0CJ","","","","{""Q0"":""no, just no""}","","","","","","","","","","","","","","","","","","","","","","",""
"1382.2999999523163","","image-slider-response","154","956485","0.0-153.0","A1EW0KCS15O0CJ","","","","","-49","","","","","","","","","","","","","","","","","","","","","",""
"4598","","image-button-response","155","961487","0.0-154.0","A1EW0KCS15O0CJ","img_art/3.jpg","2","","","","","","","","","","","","","","","","","","","","","","","","",""
"925","","image-button-response","156","962414","0.0-155.0","A1EW0KCS15O0CJ","img_art/3.jpg","2","","","","","","","","","","","","","","","","","","","","","","","","",""
"1319","","image-button-response","157","963734","0.0-156.0-0.0","A1EW0KCS15O0CJ","img_art/3.jpg","0","","","","","","","","","","","","","","","","","","","","","","","","",""
"1198","","image-button-response","158","964934","0.0-157.0-0.0","A1EW0KCS15O0CJ","img_art/3.jpg","4","","","","","","","","","","","","","","","","","","","","","","","","",""
"null","","html-keyboard-response","159","965436","0.0-158.0","A1EW0KCS15O0CJ","<p style=""font-size: 48px;"">+</p>","","","","","null","allTrialResponses","500","1","16","img_art/3.jpg","-49","no, just no","Gabriel,Jack,Mason,Malik,Taylor,Alexis","just scribbles, not pleasing,-30,160,20","unique & stylized. interesting. another one I could keep staring at.,50,320,20","scribbles in red. 2 minute piece.,-30,100,20","Unaure what the artist  was doing, needs context,11,40,20","Why kids with color crayons is called art is beyond me. People pay for this???,-40,200,20","It looks like a child drawing,-29,140,20","Mason","scribbles in red. 2 minute piece.,-30,100,20","Gabriel","just scribbles, not pleasing,-30,160,20","Taylor","Why kids with color crayons is called art is beyond me. People pay for this???,-40,200,20","2"
"25996","","survey-text","160","991439","0.0-159.0-0.0","A1EW0KCS15O0CJ","","","","{""Q0"":""this is very interesting to me, wavy patterns intermixed with design and reality mixed with whimsy""}","","","","","","","","","","","","","","","","","","","","","","",""
"2085.5","","image-slider-response","161","993526","0.0-160.0","A1EW0KCS15O0CJ","","","","","38","","","","","","","","","","","","","","","","","","","","","",""
"4238","","image-button-response","162","998528","0.0-161.0","A1EW0KCS15O0CJ","img_art/11.jpg","2","","","","","","","","","","","","","","","","","","","","","","","","",""
"668","","image-button-response","163","999198","0.0-162.0","A1EW0KCS15O0CJ","img_art/11.jpg","2","","","","","","","","","","","","","","","","","","","","","","","","",""
"998","","image-button-response","164","1000197","0.0-163.0-0.0","A1EW0KCS15O0CJ","img_art/11.jpg","1","","","","","","","","","","","","","","","","","","","","","","","","",""
"3966","","image-button-response","165","1004166","0.0-164.0-0.0","A1EW0KCS15O0CJ","img_art/11.jpg","3","","","","","","","","","","","","","","","","","","","","","","","","",""
"null","","html-keyboard-response","166","1004668","0.0-165.0","A1EW0KCS15O0CJ","<p style=""font-size: 48px;"">+</p>","","","","","null","allTrialResponses","500","1","17","img_art/11.jpg","38","this is very interesting to me, wavy patterns intermixed with design and reality mixed with whimsy","Gabriel,Shane,Mason,Aaron,Taylor,Justin","its like telephone wires, or mountains,-17,160,20","City on a hill, tranquility,42,80,20","dna, odd but nice.,25,100,20","It makes me think of a coastal sea town.,50,20,20","Busy, busy oceanside city.,-10,200,20","It reminds me of telephone wires.,1,280,20","Mason","dna, odd but nice.,25,100,20","Shane","City on a hill, tranquility,42,80,20","Aaron","It makes me think of a coastal sea town.,50,20,20","2"
"12183","","survey-text","167","1016854","0.0-166.0-0.0","A1EW0KCS15O0CJ","","","","{""Q0"":""nice waterfall, but a bit basic too""}","","","","","","","","","","","","","","","","","","","","","","",""
"1709.8999999761581","","image-slider-response","168","1018566","0.0-167.0","A1EW0KCS15O0CJ","","","","","11","","","","","","","","","","","","","","","","","","","","","",""
"null","","image-button-response","169","1023569","0.0-168.0","A1EW0KCS15O0CJ","img_art/24.jpg","null","","","","","","","","","","","","","","","","","","","","","","","","",""
"3219","","image-button-response","170","1026790","0.0-169.0","A1EW0KCS15O0CJ","img_art/24.jpg","1","","","","","","","","","","","","","","","","","","","","","","","","",""
"1463","","image-button-response","171","1028254","0.0-170.0-0.0","A1EW0KCS15O0CJ","img_art/24.jpg","2","","","","","","","","","","","","","","","","","","","","","","","","",""
"1694","","image-button-response","172","1029950","0.0-171.0-0.0","A1EW0KCS15O0CJ","img_art/24.jpg","0","","","","","","","","","","","","","","","","","","","","","","","","",""
"null","","html-keyboard-response","173","1031453","0.0-172.0","A1EW0KCS15O0CJ","<p style=""font-size: 48px;"">+</p>","","","","","null","allTrialResponses","1500","1","18","img_art/24.jpg","11","nice waterfall, but a bit basic too","Dalton,Shane,Mason,Aaron,Andrew,Jacob","i feel peace and wanting. i love waterfalls,50,300,20","A peaceful day by the river,42,80,20","Nature, abstract, I'd hang this in my house.,37,100,20","I like how it evokes the feeling of being in a forest. The colors are pretty,31,20,20","Makes me think of a couple of hikes that I've taken,50,160,20","Vibrant, beautiful depiction.,50,340,20","Shane","A peaceful day by the river,42,80,20","Mason","Nature, abstract, I'd hang this in my house.,37,100,20","Dalton","i feel peace and wanting. i love waterfalls,50,300,20","2"
"13957","","survey-text","174","1045414","0.0-173.0-0.0","A1EW0KCS15O0CJ","","","","{""Q0"":""i'm not a fan of this abstract""}","","","","","","","","","","","","","","","","","","","","","","",""
"2686.399999976158","","image-slider-response","175","1048102","0.0-174.0","A1EW0KCS15O0CJ","","","","","-36","","","","","","","","","","","","","","","","","","","","","",""
"4398","","image-button-response","176","1053105","0.0-175.0","A1EW0KCS15O0CJ","img_art/30.jpg","4","","","","","","","","","","","","","","","","","","","","","","","","",""
"571","","image-button-response","177","1053678","0.0-176.0","A1EW0KCS15O0CJ","img_art/30.jpg","5","","","","","","","","","","","","","","","","","","","","","","","","",""
"438","","image-button-response","178","1054118","0.0-177.0-0.0","A1EW0KCS15O0CJ","img_art/30.jpg","4","","","","","","","","","","","","","","","","","","","","","","","","",""
"616","","image-button-response","179","1054735","0.0-178.0-0.0","A1EW0KCS15O0CJ","img_art/30.jpg","1","","","","","","","","","","","","","","","","","","","","","","","","",""
"null","","html-keyboard-response","180","1055737","0.0-179.0","A1EW0KCS15O0CJ","<p style=""font-size: 48px;"">+</p>","","","","","null","allTrialResponses","1000","1","19","img_art/30.jpg","-36","i'm not a fan of this abstract","Dalton,Shane,Mason,Connor,Nicholas,Cole","beautiful paint brush strokes,1,300,20","I like the back but the red lines in the front distress me,-7,80,20","Neat, but simple, I could make this. not skilled.,9,100,20","Layers are interesting,22,240,20","Too much like childrens finger paint. I dont like the smear of blended colors,-50,240,20","Its ugly. Too simple,-23,200,20","Cole","Its ugly. Too simple,-23,200,20","Nicholas","Too much like childrens finger paint. I dont like the smear of blended colors,-50,240,20","Shane","I like the back but the red lines in the front distress me,-7,80,20","2"
"12599","","survey-text","181","1068342","0.0-180.0-0.0","A1EW0KCS15O0CJ","","","","{""Q0"":""it's like a bunch of people in a LSD trip, nice.""}","","","","","","","","","","","","","","","","","","","","","","",""
"1974.699999988079","","image-slider-response","182","1070318","0.0-181.0","A1EW0KCS15O0CJ","","","","","47","","","","","","","","","","","","","","","","","","","","","",""
"4807","","image-button-response","183","1075322","0.0-182.0","A1EW0KCS15O0CJ","img_art/23.jpg","2","","","","","","","","","","","","","","","","","","","","","","","","",""
"700","","image-button-response","184","1076023","0.0-183.0","A1EW0KCS15O0CJ","img_art/23.jpg","2","","","","","","","","","","","","","","","","","","","","","","","","",""
"3030","","image-button-response","185","1079056","0.0-184.0-0.0","A1EW0KCS15O0CJ","img_art/23.jpg","4","","","","","","","","","","","","","","","","","","","","","","","","",""
"1021","","image-button-response","186","1080079","0.0-185.0-0.0","A1EW0KCS15O0CJ","img_art/23.jpg","1","","","","","","","","","","","","","","","","","","","","","","","","",""
"null","","html-keyboard-response","187","1081080","0.0-186.0","A1EW0KCS15O0CJ","<p style=""font-size: 48px;"">+</p>","","","","","null","allTrialResponses","1000","1","20","img_art/23.jpg","47","it's like a bunch of people in a LSD trip, nice.","Kyle,Shane,Brandon,Brian,Nicholas,Cole","Mostly neutral but a bit too guady with the brash colors,-6,340,20","Love the line in the middle separating the two dark sides,50,80,20","Pretty cool. I love the white, reminds me of people lined up.,28,320,20","this looks like a pop rock album cover,-10,380,20","The more i look at it the more i like it  the dots of color and very interesting,50,240,20","White in the middle look like people dancing naked,19,200,20","Brandon","Pretty cool. I love the white, reminds me of people lined up.,28,320,20","Nicholas","The more i look at it the more i like it  the dots of color and very interesting,50,240,20","Shane","Love the line in the middle separating the two dark sides,50,80,20","2"
"2054","","survey-text","188","1083142","0.0-187.0-0.0","A1EW0KCS15O0CJ","","","","{""Q0"":""we""}","","","","","","","","","","","","","","","","","","","","","","",""
"8350","","survey-text","189","1091495","0.0-188.0-0.0","A1EW0KCS15O0CJ","","","","{""Q0"":""simple painting ""}","","","","","","","","","","","","","","","","","","","","","","",""
"1494.4000000357628","","image-slider-response","190","1092990","0.0-189.0","A1EW0KCS15O0CJ","","","","","17","","","","","","","","","","","","","","","","","","","","","",""
"3766","","image-button-response","191","1097993","0.0-190.0","A1EW0KCS15O0CJ","img_art/26.jpg","5","","","","","","","","","","","","","","","","","","","","","","","","",""
"845","","image-button-response","192","1098840","0.0-191.0","A1EW0KCS15O0CJ","img_art/26.jpg","5","","","","","","","","","","","","","","","","","","","","","","","","",""
"1886","","image-button-response","193","1100727","0.0-192.0-0.0","A1EW0KCS15O0CJ","img_art/26.jpg","3","","","","","","","","","","","","","","","","","","","","","","","","",""
"598","","image-button-response","194","1101327","0.0-193.0-0.0","A1EW0KCS15O0CJ","img_art/26.jpg","5","","","","","","","","","","","","","","","","","","","","","","","","",""
"1823","","image-button-response","195","1105022","0.0-193.1-0.1","A1EW0KCS15O0CJ","img_art/26.jpg","0","","","","","","","","","","","","","","","","","","","","","","","","",""
"null","","html-keyboard-response","196","1105524","0.0-194.0","A1EW0KCS15O0CJ","<p style=""font-size: 48px;"">+</p>","","","","","null","allTrialResponses","500","1","21","img_art/26.jpg","17","simple painting ","Jake,Shane,Brandon,Austin,Nicholas,Timothy","It's not ugly but not beautiful at all.,-3,360,20","Colors are full and reminds me of a messy room,-9,80,20","Much too simple and without color for my taste,-33,320,20","Like the soft blend of colors,26,240,20","I like the colors and trees. Seems cheap vintage retail store art but i love it anyways,50,240,20","Very pleasent little scene,40,240,20","Timothy","Very pleasent little scene,40,240,20","Austin","Like the soft blend of colors,26,240,20","Jake","It's not ugly but not beautiful at all.,-3,360,20","4"
"13622","","survey-text","197","1119151","0.0-195.0-0.0","A1EW0KCS15O0CJ","","","","{""Q0"":""it's like a foggy day on the ocean when a ship is on fire""}","","","","","","","","","","","","","","","","","","","","","","",""
"1277.5","","image-slider-response","198","1120430","0.0-196.0","A1EW0KCS15O0CJ","","","","","10","","","","","","","","","","","","","","","","","","","","","",""
"4366","","image-button-response","199","1125432","0.0-197.0","A1EW0KCS15O0CJ","img_art/21.jpg","2","","","","","","","","","","","","","","","","","","","","","","","","",""
"829","","image-button-response","200","1126263","0.0-198.0","A1EW0KCS15O0CJ","img_art/21.jpg","2","","","","","","","","","","","","","","","","","","","","","","","","",""
"1694","","image-button-response","201","1127959","0.0-199.0-0.0","A1EW0KCS15O0CJ","img_art/21.jpg","1","","","","","","","","","","","","","","","","","","","","","","","","",""
"2406","","image-button-response","202","1130367","0.0-200.0-0.0","A1EW0KCS15O0CJ","img_art/21.jpg","0","","","","","","","","","","","","","","","","","","","","","","","","",""
"null","","html-keyboard-response","203","1131868","0.0-201.0","A1EW0KCS15O0CJ","<p style=""font-size: 48px;"">+</p>","","","","","null","allTrialResponses","1500","1","22","img_art/21.jpg","10","it's like a foggy day on the ocean when a ship is on fire","Jake,Bradley,Paul,Austin,Angel,Timothy","It looks epic and is nice to look at in terms of colors/style.,23,360,20","Indifferent toward this one.,6,300,20","I like the dark blue in the lower right which reminds me of a storm but the orange is ugly,12,300,20","Touches the heart,50,240,20","This feels chaotic, like a battle or a storm.,-20,180,20","Very calming and soft, makes me feel good,31,240,20","Paul","I like the dark blue in the lower right which reminds me of a storm but the orange is ugly,12,300,20","Bradley","Indifferent toward this one.,6,300,20","Jake","It looks epic and is nice to look at in terms of colors/style.,23,360,20","4"
"10430","","survey-text","204","1142303","0.0-202.0-0.0","A1EW0KCS15O0CJ","","","","{""Q0"":""not a big fan of this""}","","","","","","","","","","","","","","","","","","","","","","",""
"1278.5","","image-slider-response","205","1143583","0.0-203.0","A1EW0KCS15O0CJ","","","","","-39","","","","","","","","","","","","","","","","","","","","","",""
"4527","","image-button-response","206","1148585","0.0-204.0","A1EW0KCS15O0CJ","img_art/1.jpg","0","","","","","","","","","","","","","","","","","","","","","","","","",""
"316","","image-button-response","207","1148903","0.0-205.0","A1EW0KCS15O0CJ","img_art/1.jpg","5","","","","","","","","","","","","","","","","","","","","","","","","",""
"983","","image-button-response","208","1149887","0.0-206.0-0.0","A1EW0KCS15O0CJ","img_art/1.jpg","0","","","","","","","","","","","","","","","","","","","","","","","","",""
"997","","image-button-response","209","1150887","0.0-207.0-0.0","A1EW0KCS15O0CJ","img_art/1.jpg","2","","","","","","","","","","","","","","","","","","","","","","","","",""
"null","","html-keyboard-response","210","1151389","0.0-208.0","A1EW0KCS15O0CJ","<p style=""font-size: 48px;"">+</p>","","","","","null","allTrialResponses","500","1","23","img_art/1.jpg","-39","not a big fan of this","Jake,Bradley,Paul,James,Joseph,Hunter","This is ugly with bad colors.,-6,360,20","This is a great piece that has a lot more going on the longer you look at it. I like it!,30,300,20","I like the yellow and purple but the large red spot reminds me of blood and isn't great,6,300,20","It's very colorful, and I like it,11,380,20","Happy! Reminds me of hiking in tennesee.,18,220,20","muddy and uninteresting,-16,240,20","Hunter","muddy and uninteresting,-16,240,20","Jake","This is ugly with bad colors.,-6,360,20","Paul","I like the yellow and purple but the large red spot reminds me of blood and isn't great,6,300,20","4"
"11774","","survey-text","211","1163168","0.0-209.0-0.0","A1EW0KCS15O0CJ","","","","{""Q0"":""it looks like a messed up hand or something""}","","","","","","","","","","","","","","","","","","","","","","",""
"2254.100000023842","","image-slider-response","212","1165423","0.0-210.0","A1EW0KCS15O0CJ","","","","","-13","","","","","","","","","","","","","","","","","","","","","",""
"null","","image-button-response","213","1170425","0.0-211.0","A1EW0KCS15O0CJ","img_art/4.jpg","null","","","","","","","","","","","","","","","","","","","","","","","","",""
"805","","image-button-response","214","1171231","0.0-212.0","A1EW0KCS15O0CJ","img_art/4.jpg","3","","","","","","","","","","","","","","","","","","","","","","","","",""
"607","","image-button-response","215","1171840","0.0-213.0-0.0","A1EW0KCS15O0CJ","img_art/4.jpg","4","","","","","","","","","","","","","","","","","","","","","","","","",""
"814","","image-button-response","216","1172655","0.0-214.0-0.0","A1EW0KCS15O0CJ","img_art/4.jpg","0","","","","","","","","","","","","","","","","","","","","","","","","",""
"null","","html-keyboard-response","217","1174158","0.0-215.0","A1EW0KCS15O0CJ","<p style=""font-size: 48px;"">+</p>","","","","","null","allTrialResponses","1500","1","24","img_art/4.jpg","-13","it looks like a messed up hand or something","Jake,Dakota,Paul,Trevor,Gregory,Hunter","This is ugly in color and in terms of the shape on it.,-32,360,20","spontaneous, without hesitation,22,280,20","The dark yellow color makes me think of mustard, which I dislike,-27,300,20","not enough color and too yellow for me. Not my favorite colors,-10,280,20","Mustard yellow doesn't do it for me,-25,220,20","appealing warm palette,6,240,20","Trevor","not enough color and too yellow for me. Not my favorite colors,-10,280,20","Gregory","Mustard yellow doesn't do it for me,-25,220,20","Jake","This is ugly in color and in terms of the shape on it.,-32,360,20","4"
"16981","","survey-text","218","1191143","0.0-216.0-0.0","A1EW0KCS15O0CJ","","","","{""Q0"":""looks like a city on the oceanside, kind of dark though""}","","","","","","","","","","","","","","","","","","","","","","",""
"1991.5","","image-slider-response","219","1193137","0.0-217.0","A1EW0KCS15O0CJ","","","","","11","","","","","","","","","","","","","","","","","","","","","",""
"null","","image-button-response","220","1198139","0.0-218.0","A1EW0KCS15O0CJ","img_art/20.jpg","null","","","","","","","","","","","","","","","","","","","","","","","","",""
"979","","image-button-response","221","1199120","0.0-219.0","A1EW0KCS15O0CJ","img_art/20.jpg","1","","","","","","","","","","","","","","","","","","","","","","","","",""
"1926","","image-button-response","222","1201048","0.0-220.0-0.0","A1EW0KCS15O0CJ","img_art/20.jpg","3","","","","","","","","","","","","","","","","","","","","","","","","",""
"1469","","image-button-response","223","1202520","0.0-221.0-0.0","A1EW0KCS15O0CJ","img_art/20.jpg","4","","","","","","","","","","","","","","","","","","","","","","","","",""
"null","","html-keyboard-response","224","1204022","0.0-222.0","A1EW0KCS15O0CJ","<p style=""font-size: 48px;"">+</p>","","","","","null","allTrialResponses","1500","1","25","img_art/20.jpg","11","looks like a city on the oceanside, kind of dark though","Jake,Nathan,Daniel,Trevor,Gregory,Jared","It's too brash and loud and ugly.,-21,360,20","Don't really like the subject it focuses on, however the color usage is great,-10,200,20","Fails to capture what similar styles do,-12,320,20","it looks like a piccasso knock off,-23,280,20","Looks like some type of future dystopian civilization,35,220,20","i like the rounded edges,18,400,20","Nathan","Don't really like the subject it focuses on, however the color usage is great,-10,200,20","Trevor","it looks like a piccasso knock off,-23,280,20","Gregory","Looks like some type of future dystopian civilization,35,220,20","4"
"3496","","survey-text","225","1207528","0.0-223.0-0.0","A1EW0KCS15O0CJ","","","","{""Q0"":""table""}","","","","","","","","","","","","","","","","","","","","","","",""
"8767","","survey-text","226","1216297","0.0-224.0-0.0","A1EW0KCS15O0CJ","","","","{""Q0"":""looks unfinished""}","","","","","","","","","","","","","","","","","","","","","","",""
"1077.300000011921","","image-slider-response","227","1217376","0.0-225.0","A1EW0KCS15O0CJ","","","","","-43","","","","","","","","","","","","","","","","","","","","","",""
"null","","image-button-response","228","1222807","0.0-226.0","A1EW0KCS15O0CJ","img_art/15.jpg","null","","","","","","","","","","","","","","","","","","","","","","","","",""
"7648","","image-button-response","229","1230456","0.0-227.0","A1EW0KCS15O0CJ","img_art/15.jpg","2","","","","","","","","","","","","","","","","","","","","","","","","",""
"1775","","image-button-response","230","1232232","0.0-228.0-0.0","A1EW0KCS15O0CJ","img_art/15.jpg","5","","","","","","","","","","","","","","","","","","","","","","","","",""
"1830","","image-button-response","231","1234064","0.0-229.0-0.0","A1EW0KCS15O0CJ","img_art/15.jpg","1","","","","","","","","","","","","","","","","","","","","","","","","",""
"null","","html-keyboard-response","232","1234565","0.0-230.0","A1EW0KCS15O0CJ","<p style=""font-size: 48px;"">+</p>","","","","","null","allTrialResponses","500","1","26","img_art/15.jpg","-43","looks unfinished","Shawn,Nathan,Sean,Trevor,Gregory,Michael","Like the composition and lines,26,100,20","This is pretty nice, reminds me of dark peacock feathers, or perhaps a bush with berries in it?,15,200,20","my response to the picture is that I dont know what I am looking at,-25,40,20","I really like the colors,14,280,20","Black and blue is my favorite color combination,35,220,20","Looks incomplete.,-19,140,20","Sean","my response to the picture is that I dont know what I am looking at,-25,40,20","Michael","Looks incomplete.,-19,140,20","Nathan","This is pretty nice, reminds me of dark peacock feathers, or perhaps a bush with berries in it?,15,200,20","4"
"13797","","survey-text","233","1248368","0.0-231.0-0.0","A1EW0KCS15O0CJ","","","","{""Q0"":""looks like blood and puke green had a love child""}","","","","","","","","","","","","","","","","","","","","","","",""
"1726.6000000238419","","image-slider-response","234","1250096","0.0-232.0","A1EW0KCS15O0CJ","","","","","-41","","","","","","","","","","","","","","","","","","","","","",""
"null","","image-button-response","235","1255099","0.0-233.0","A1EW0KCS15O0CJ","img_art/2.jpg","null","","","","","","","","","","","","","","","","","","","","","","","","",""
"717","","image-button-response","236","1255817","0.0-234.0","A1EW0KCS15O0CJ","img_art/2.jpg","2","","","","","","","","","","","","","","","","","","","","","","","","",""
"694","","image-button-response","237","1256512","0.0-235.0-0.0","A1EW0KCS15O0CJ","img_art/2.jpg","1","","","","","","","","","","","","","","","","","","","","","","","","",""
"519","","image-button-response","238","1257033","0.0-236.0-0.0","A1EW0KCS15O0CJ","img_art/2.jpg","0","","","","","","","","","","","","","","","","","","","","","","","","",""
"null","","html-keyboard-response","239","1257535","0.0-237.0","A1EW0KCS15O0CJ","<p style=""font-size: 48px;"">+</p>","","","","","null","allTrialResponses","500","1","27","img_art/2.jpg","-41","looks like blood and puke green had a love child","Nathaniel,Nathan,Sean,Bryan,Edward,Michael","Too gloopy and unfocused,-38,220,20","Not a fan of this style,-30,200,20","looks like a bunch of gibberish,-39,40,20","Like the colors but reminds me of a kids show done in cubism.,0,400,20","My immediate reaction was it looked like a class but then I saw a smile in the middle,11,60,20","Random colors and shapes mashed together. Nothing artistic, but better than some of the other ones.,-37,140,20","Sean","looks like a bunch of gibberish,-39,40,20","Nathan","Not a fan of this style,-30,200,20","Nathaniel","Too gloopy and unfocused,-38,220,20","4"
"19068","","survey-text","240","1276608","0.0-238.0-0.0","A1EW0KCS15O0CJ","","","","{""Q0"":""has interesting features, people and someone in a wheelchair. ""}","","","","","","","","","","","","","","","","","","","","","","",""
"2318.399999976158","","image-slider-response","241","1278928","0.0-239.0","A1EW0KCS15O0CJ","","","","","8","","","","","","","","","","","","","","","","","","","","","",""
"null","","image-button-response","242","1283930","0.0-240.0","A1EW0KCS15O0CJ","img_art/28.jpg","null","","","","","","","","","","","","","","","","","","","","","","","","",""
"836","","image-button-response","243","1284768","0.0-241.0","A1EW0KCS15O0CJ","img_art/28.jpg","2","","","","","","","","","","","","","","","","","","","","","","","","",""
"903","","image-button-response","244","1285672","0.0-242.0-0.0","A1EW0KCS15O0CJ","img_art/28.jpg","1","","","","","","","","","","","","","","","","","","","","","","","","",""
"9111","","image-button-response","245","1294784","0.0-243.0-0.0","A1EW0KCS15O0CJ","img_art/28.jpg","3","","","","","","","","","","","","","","","","","","","","","","","","",""
"null","","html-keyboard-response","246","1295286","0.0-244.0","A1EW0KCS15O0CJ","<p style=""font-size: 48px;"">+</p>","","","","","null","allTrialResponses","500","1","28","img_art/28.jpg","8","has interesting features, people and someone in a wheelchair. ","Nathaniel,Nathan,Sean,Logan,Jordan,Colton","Has an air of darkness to it, but no real substance besides the mouse-like thing.,-38,220,20","I enjoy the color themes, they seem gloomy and mysterious, and content in their own way, which I love.,20,200,20","it looks alright,-1,40,20","I wish I knew why I liked it, maybes its the pinky tones,36,360,20","A messy bed room,-7,160,20","not a fan of the colors or strokes used,-27,220,20","Sean","it looks alright,-1,40,20","Nathan","I enjoy the color themes, they seem gloomy and mysterious, and content in their own way, which I love.,20,200,20","Logan","I wish I knew why I liked it, maybes its the pinky tones,36,360,20","4"
"10389","","survey-text","247","1305680","0.0-245.0-0.0","A1EW0KCS15O0CJ","","","","{""Q0"":""it reminds me of burning man, but it's green""}","","","","","","","","","","","","","","","","","","","","","","",""
"2350.800000011921","","image-slider-response","248","1308032","0.0-246.0","A1EW0KCS15O0CJ","","","","","5","","","","","","","","","","","","","","","","","","","","","",""
"null","","image-button-response","249","1313034","0.0-247.0","A1EW0KCS15O0CJ","img_art/25.jpg","null","","","","","","","","","","","","","","","","","","","","","","","","",""
"3182","","image-button-response","250","1316218","0.0-248.0","A1EW0KCS15O0CJ","img_art/25.jpg","4","","","","","","","","","","","","","","","","","","","","","","","","",""
"1118","","image-button-response","251","1317337","0.0-249.0-0.0","A1EW0KCS15O0CJ","img_art/25.jpg","1","","","","","","","","","","","","","","","","","","","","","","","","",""
"1383","","image-button-response","252","1318722","0.0-250.0-0.0","A1EW0KCS15O0CJ","img_art/25.jpg","0","","","","","","","","","","","","","","","","","","","","","","","","",""
"null","","html-keyboard-response","253","1320224","0.0-251.0","A1EW0KCS15O0CJ","<p style=""font-size: 48px;"">+</p>","","","","","null","allTrialResponses","1500","1","29","img_art/25.jpg","5","it reminds me of burning man, but it's green","Isaiah,Nathan,Sean,Logan,Brendan,Luis","I feel little to no emotion looking at this painting.,0,300,20","I like it, a bit cryptic and obscene, I enjoy that,30,200,20","my response to the picture its weird,-9,40,20","creeeeeppyyyyyyy but mad cool,-26,360,20","is this an ancient woman?,-16,340,20","New life, rising from your personal battles,50,400,20","Brendan","is this an ancient woman?,-16,340,20","Nathan","I like it, a bit cryptic and obscene, I enjoy that,30,200,20","Isaiah","I feel little to no emotion looking at this painting.,0,300,20","4"
"8333","","survey-text","254","1328562","0.0-252.0-0.0","A1EW0KCS15O0CJ","","","","{""Q0"":""sleeping beauty perhaps?""}","","","","","","","","","","","","","","","","","","","","","","",""
"1901.4000000357628","","image-slider-response","255","1330465","0.0-253.0","A1EW0KCS15O0CJ","","","","","-6","","","","","","","","","","","","","","","","","","","","","",""
"null","","image-button-response","256","1335468","0.0-254.0","A1EW0KCS15O0CJ","img_art/9.jpg","null","","","","","","","","","","","","","","","","","","","","","","","","",""
"516","","image-button-response","257","1335985","0.0-255.0","A1EW0KCS15O0CJ","img_art/9.jpg","4","","","","","","","","","","","","","","","","","","","","","","","","",""
"1231","","image-button-response","258","1337217","0.0-256.0-0.0","A1EW0KCS15O0CJ","img_art/9.jpg","1","","","","","","","","","","","","","","","","","","","","","","","","",""
"431","","image-button-response","259","1337649","0.0-257.0-0.0","A1EW0KCS15O0CJ","img_art/9.jpg","2","","","","","","","","","","","","","","","","","","","","","","","","",""
"null","","html-keyboard-response","260","1339151","0.0-258.0","A1EW0KCS15O0CJ","<p style=""font-size: 48px;"">+</p>","","","","","null","allTrialResponses","1500","1","30","img_art/9.jpg","-6","sleeping beauty perhaps?","Isaiah,Nathan,Marcus,Ryan,Brendan,Brett","The piece of art makes me happy, it reminds me of a lively carnival.,15,300,20","Looks like a child's drawing,-40,200,20","This painting feels too jumbled for me to like it.,-12,60,20","Makes me feel angry, its not very clear,-50,380,20","not my type of art,-33,340,20","Peaceful dreaming,40,360,20","Brendan","not my type of art,-33,340,20","Nathan","Looks like a child's drawing,-40,200,20","Marcus","This painting feels too jumbled for me to like it.,-12,60,20","4"
"3108","","image-button-response_instructions","261","1342265","0.0-259.0","A1EW0KCS15O0CJ","","0","instructions","","","","","","","","","","","","","","","","","","","","","","","",""
"1026","","image-button-response","262","1343297","0.0-260.0","A1EW0KCS15O0CJ","","0","","","","","","","","","","","","","","","","","","","","","","","","",""
