"rt","url","trial_type","trial_index","time_elapsed","internal_node_id","participant_id","stimulus","button_pressed","Name","responses","response","key_press","variableName","fixationTime","condition","trial","photo","subjectRating","subjectResponse","agentsNames","agent_1_Response","agent_2_Response","agent_3_Response","agent_4_Response","agent_5_Response","agent_6_Response","kept_1_name","kept_1_response","kept_2_name","kept_2_response","kept_3_name","kept_3_response","errorCounter"
"19543","external_page_harvard.html","external-html","0","19651","0.0-0.0","A1F2APQMJSQVFK","","","","","","","","","","","","","","","","","","","","","","","","","","",""
"2474","","image-button-response","1","22130","0.0-1.0","A1F2APQMJSQVFK","","1","","","","","","","","","","","","","","","","","","","","","","","","",""
"1687","","image-button-response","2","23823","0.0-2.0-0.0","A1F2APQMJSQVFK","","1","phone","","","","","","","","","","","","","","","","","","","","","","","",""
"6227","","survey-text","3","30053","0.0-3.0-0.0","A1F2APQMJSQVFK","","","","{""Q0"":""A1F2APQMJSQVFK""}","","","","","","","","","","","","","","","","","","","","","","",""
"4721","","image-button-response_instructions","4","34778","0.0-4.0","A1F2APQMJSQVFK","","0","instructions","","","","","","","","","","","","","","","","","","","","","","","",""
"11955","","image-button-response_instructions","5","46734","0.0-5.0","A1F2APQMJSQVFK","img_art/ins/popularity/ins1.png","0","instructions","","","","","","","","","","","","","","","","","","","","","","","",""
"9040","","image-button-response_instructions","6","55778","0.0-6.0","A1F2APQMJSQVFK","img_art/ins/popularity/ins2.png","0","instructions","","","","","","","","","","","","","","","","","","","","","","","",""
"4019","","image-button-response_instructions","7","59800","0.0-7.0","A1F2APQMJSQVFK","img_art/ins/popularity/ins2Extreme.png","0","instructions","","","","","","","","","","","","","","","","","","","","","","","",""
"5063","","image-button-response_instructions","8","64866","0.0-8.0","A1F2APQMJSQVFK","img_art/ins/popularity/ins3KEEPpop.PNG","0","instructions","","","","","","","","","","","","","","","","","","","","","","","",""
"3199","","image-button-response_instructions","9","68068","0.0-9.0","A1F2APQMJSQVFK","img_art/ins/popularity/ins3ANamepop.PNG","0","instructions","","","","","","","","","","","","","","","","","","","","","","","",""
"2040","","image-button-response_instructions","10","70110","0.0-10.0","A1F2APQMJSQVFK","img_art/ins/popularity/ins3ARatingpop.png","0","instructions","","","","","","","","","","","","","","","","","","","","","","","",""
"1162","","image-button-response_instructions","11","71275","0.0-11.0","A1F2APQMJSQVFK","img_art/ins/popularity/ins3ATextpop.png","0","instructions","","","","","","","","","","","","","","","","","","","","","","","",""
"1562","","image-button-response_instructions","12","72840","0.0-12.0","A1F2APQMJSQVFK","img_art/ins/popularity/ins3ALikespop.png","0","instructions","","","","","","","","","","","","","","","","","","","","","","","",""
"6716","","image-button-response_instructions","13","79560","0.0-13.0","A1F2APQMJSQVFK","img_art/ins/popularity/ins3KEEPpop.PNG","0","instructions","","","","","","","","","","","","","","","","","","","","","","","",""
"3524","","image-button-response_instructions","14","83087","0.0-14.0","A1F2APQMJSQVFK","img_art/ins/popularity/ins3_5RED.png","0","instructions","","","","","","","","","","","","","","","","","","","","","","","",""
"15253","","image-button-response_instructions","15","98343","0.0-15.0","A1F2APQMJSQVFK","img_art/ins/popularity/ins3KEEPpop.PNG","0","instructions","","","","","","","","","","","","","","","","","","","","","","","",""
"3697","","image-button-response_instructions","16","102040","0.0-16.0","A1F2APQMJSQVFK","img_art/ins/popularity/ins4KEEPpop.PNG","0","instructions","","","","","","","","","","","","","","","","","","","","","","","",""
"3378","","image-button-response_instructions","17","105419","0.0-17.0","A1F2APQMJSQVFK","img_art/ins/popularity/ins5KEEPpop.PNG","0","instructions","","","","","","","","","","","","","","","","","","","","","","","",""
"3927","","image-button-response_instructions","18","109347","0.0-18.0","A1F2APQMJSQVFK","","0","instructions","","","","","","","","","","","","","","","","","","","","","","","",""
"6202","","survey-text","19","115583","0.0-19.0-0.0","A1F2APQMJSQVFK","","","","{""Q0"":""but""}","","","","","","","","","","","","","","","","","","","","","","",""
"15585","","survey-text","20","131170","0.0-20.0-0.0","A1F2APQMJSQVFK","","","","{""Q0"":""artist seems troubled""}","","","","","","","","","","","","","","","","","","","","","","",""
"4187.600000023842","","image-slider-response","21","135365","0.0-21.0","A1F2APQMJSQVFK","","","","","19","","","","","","","","","","","","","","","","","","","","","",""
"null","","image-button-response","22","140381","0.0-22.0","A1F2APQMJSQVFK","img_art/ins/1.jpg","null","","","","","","","","","","","","","","","","","","","","","","","","",""
"779","","image-button-response","23","141166","0.0-23.0","A1F2APQMJSQVFK","img_art/ins/1.jpg","0","","","","","","","","","","","","","","","","","","","","","","","","",""
"7551","","image-button-response","24","148724","0.0-24.0-0.0","A1F2APQMJSQVFK","img_art/ins/1.jpg","3","","","","","","","","","","","","","","","","","","","","","","","","",""
"825","","image-button-response","25","149559","0.0-25.0-0.0","A1F2APQMJSQVFK","img_art/ins/1.jpg","4","","","","","","","","","","","","","","","","","","","","","","","","",""
"null","","html-keyboard-response","26","150578","0.0-26.0","A1F2APQMJSQVFK","<p style=""font-size: 48px;"">+</p>","","","","","null","allTrialResponses","1000","1","-2","img_art/ins/1.jpg","19","artist seems troubled","Allison,Ashley,Beth,Dora,Erika,Jen","looks like a lot of things going on in the mist,20,20,20","I just don't get why these type of art would be popular,-32,40,20","This color reminds me of poo,-46,60,20","looks like what my niece in 3rd grade did this afternoon,-50,80,20","I like the sophisticated brushwork,40,100,20","It reminds me of a candy land dream I had,36,120,20","Allison","looks like a lot of things going on in the mist,20,20,20","Dora","looks like what my niece in 3rd grade did this afternoon,-50,80,20","Erika","I like the sophisticated brushwork,40,100,20","0"
"32643","","survey-text","27","183232","0.0-27.0-0.0","A1F2APQMJSQVFK","","","","{""Q0"":""artist mind is disturbed""}","","","","","","","","","","","","","","","","","","","","","","",""
"3992.5","","image-slider-response","28","187227","0.0-28.0","A1F2APQMJSQVFK","","","","","-19","","","","","","","","","","","","","","","","","","","","","",""
"null","","image-button-response","29","192237","0.0-29.0","A1F2APQMJSQVFK","img_art/ins/2.jpg","null","","","","","","","","","","","","","","","","","","","","","","","","",""
"928","","image-button-response","30","193167","0.0-30.0","A1F2APQMJSQVFK","img_art/ins/2.jpg","3","","","","","","","","","","","","","","","","","","","","","","","","",""
"4728","","image-button-response","31","197900","0.0-31.0-0.0","A1F2APQMJSQVFK","img_art/ins/2.jpg","0","","","","","","","","","","","","","","","","","","","","","","","","",""
"6434","","image-button-response","32","204342","0.0-32.0-0.0","A1F2APQMJSQVFK","img_art/ins/2.jpg","5","","","","","","","","","","","","","","","","","","","","","","","","",""
"null","","html-keyboard-response","33","205361","0.0-33.0","A1F2APQMJSQVFK","<p style=""font-size: 48px;"">+</p>","","","","","null","allTrialResponses","1000","1","-1","img_art/ins/2.jpg","-19","artist mind is disturbed","Allison,Jenna,Kara,Dora,Erika,Katie","I don't have strong feelings about this,10,20,20","One of my pet peevs,-48,140,20","I like the blocks of color arrangements,30,160,20","looks too angry,-50,80,20","I would never be able to compose a sophisticated pallete like this,48,100,20","too much color!,-28,180,20","Dora","looks too angry,-50,80,20","Allison","I don't have strong feelings about this,10,20,20","Katie","too much color!,-28,180,20","0"
"12457","","survey-text","34","217830","0.0-34.0-0.0","A1F2APQMJSQVFK","","","","{""Q0"":""beautiful art work""}","","","","","","","","","","","","","","","","","","","","","","",""
"5324.599999904633","","image-slider-response","35","223160","0.0-35.0","A1F2APQMJSQVFK","","","","","29","","","","","","","","","","","","","","","","","","","","","",""
"2807","","image-button-response","36","228168","0.0-36.0","A1F2APQMJSQVFK","img_art/ins/3.jpg","4","","","","","","","","","","","","","","","","","","","","","","","","",""
"1042","","image-button-response","37","229216","0.0-37.0","A1F2APQMJSQVFK","img_art/ins/3.jpg","0","","","","","","","","","","","","","","","","","","","","","","","","",""
"1930","","image-button-response","38","231150","0.0-38.0-0.0","A1F2APQMJSQVFK","img_art/ins/3.jpg","0","","","","","","","","","","","","","","","","","","","","","","","","",""
"903","","image-button-response","39","239985","0.0-38.1-0.1","A1F2APQMJSQVFK","img_art/ins/3.jpg","4","","","","","","","","","","","","","","","","","","","","","","","","",""
"8483","","image-button-response","40","248474","0.0-39.0-0.0","A1F2APQMJSQVFK","img_art/ins/3.jpg","1","","","","","","","","","","","","","","","","","","","","","","","","",""
"null","","html-keyboard-response","41","249986","0.0-40.0","A1F2APQMJSQVFK","<p style=""font-size: 48px;"">+</p>","","","","","null","allTrialResponses","1500","1","0","img_art/ins/3.jpg","29","beautiful art work","Allison,Leslie,Rose,Dora,Mary,Katie","enjoy the different shades of blue,22,20,20","It's an alright work,15,200,20","My daily routine, it's depressing,-20,240,20","My worst nightmare,-42,80,20","I like the overlapping of brushes,41,220,20","It looks depressing,-26,180,20","Allison","enjoy the different shades of blue,22,20,20","Mary","I like the overlapping of brushes,41,220,20","Leslie","It's an alright work,15,200,20","2"
"3965","","image-button-response_instructions","42","253966","0.0-41.0","A1F2APQMJSQVFK","","0","instructions","","","","","","","","","","","","","","","","","","","","","","","",""
"11112","","survey-likert","43","265083","0.0-42.0-0.0","A1F2APQMJSQVFK","","","","{""Q0"":"""",""Q1"":0,""Q2"":1}","","","","","","","","","","","","","","","","","","","","","","",""
"4840","","survey-text","44","269939","0.0-43.0-0.0","A1F2APQMJSQVFK","","","","{""Q0"":""rock""}","","","","","","","","","","","","","","","","","","","","","","",""
"12397","","survey-text","45","282337","0.0-44.0-0.0","A1F2APQMJSQVFK","","","","{""Q0"":""exquisite artwork""}","","","","","","","","","","","","","","","","","","","","","","",""
"3226.100000023842","","image-slider-response","46","285567","0.0-45.0","A1F2APQMJSQVFK","","","","","44","","","","","","","","","","","","","","","","","","","","","",""
"3289","","image-button-response","47","290619","0.0-46.0","A1F2APQMJSQVFK","img_art/21.jpg","0","","","","","","","","","","","","","","","","","","","","","","","","",""
"1367","","image-button-response","48","291992","0.0-47.0","A1F2APQMJSQVFK","img_art/21.jpg","4","","","","","","","","","","","","","","","","","","","","","","","","",""
"6134","","image-button-response","49","298132","0.0-48.0-0.0","A1F2APQMJSQVFK","img_art/21.jpg","0","","","","","","","","","","","","","","","","","","","","","","","","",""
"5285","","image-button-response","50","303422","0.0-49.0-0.0","A1F2APQMJSQVFK","img_art/21.jpg","3","","","","","","","","","","","","","","","","","","","","","","","","",""
"null","","html-keyboard-response","51","304929","0.0-50.0","A1F2APQMJSQVFK","<p style=""font-size: 48px;"">+</p>","","","","","null","allTrialResponses","1500","1","1","img_art/21.jpg","44","exquisite artwork","Megan,Kathryn,Gabrielle,Heather,Shelby,Jacqueline","Nice asymmetry with maritime colors city meets the sea,34,200,20","This feels chaotic, like a battle or a storm.,-20,140,20","setting sun sky? nice colors and blending,14,160,20","The color spectrum is just beautiful.,32,260,20","Very calming and soft, makes me feel good,31,240,20","Kind of looks like a sky with a storm or tornado.,10,300,20","Shelby","Very calming and soft, makes me feel good,31,240,20","Megan","Nice asymmetry with maritime colors city meets the sea,34,200,20","Heather","The color spectrum is just beautiful.,32,260,20","2"
"19220","","survey-text","52","324162","0.0-51.0-0.0","A1F2APQMJSQVFK","","","","{""Q0"":""looks like an upcoming artist work""}","","","","","","","","","","","","","","","","","","","","","","",""
"3510.1999999284744","","image-slider-response","53","327678","0.0-52.0","A1F2APQMJSQVFK","","","","","-31","","","","","","","","","","","","","","","","","","","","","",""
"null","","image-button-response","54","332687","0.0-53.0","A1F2APQMJSQVFK","img_art/19.jpg","null","","","","","","","","","","","","","","","","","","","","","","","","",""
"2331","","image-button-response","55","335023","0.0-54.0","A1F2APQMJSQVFK","img_art/19.jpg","2","","","","","","","","","","","","","","","","","","","","","","","","",""
"621","","image-button-response","56","335648","0.0-55.0-0.0","A1F2APQMJSQVFK","img_art/19.jpg","1","","","","","","","","","","","","","","","","","","","","","","","","",""
"1790","","image-button-response","57","337442","0.0-56.0-0.0","A1F2APQMJSQVFK","img_art/19.jpg","5","","","","","","","","","","","","","","","","","","","","","","","","",""
"null","","html-keyboard-response","58","338460","0.0-57.0","A1F2APQMJSQVFK","<p style=""font-size: 48px;"">+</p>","","","","","null","allTrialResponses","1000","1","2","img_art/19.jpg","-31","looks like an upcoming artist work","Megan,Michaela,Stephanie,Heather,Shelby,Allison","Simple, scratchy lack of negative space.,-10,200,20","It's ok but it's nothing I would hang on my wall,11,260,20","A dreary town in the fall.,-4,300,20","love the images I can pick out of this art,1,260,20","Something weird is going on in this painting,-20,240,20","Messy mix of colors.,-5,140,20","Stephanie","A dreary town in the fall.,-4,300,20","Michaela","It's ok but it's nothing I would hang on my wall,11,260,20","Allison","Messy mix of colors.,-5,140,20","2"
"15592","","survey-text","59","354062","0.0-58.0-0.0","A1F2APQMJSQVFK","","","","{""Q0"":""fascinating on a closer look""}","","","","","","","","","","","","","","","","","","","","","","",""
"4253.600000023842","","image-slider-response","60","358317","0.0-59.0","A1F2APQMJSQVFK","","","","","19","","","","","","","","","","","","","","","","","","","","","",""
"null","","image-button-response","61","363337","0.0-60.0","A1F2APQMJSQVFK","img_art/28.jpg","null","","","","","","","","","","","","","","","","","","","","","","","","",""
"3420","","image-button-response","62","366762","0.0-61.0","A1F2APQMJSQVFK","img_art/28.jpg","1","","","","","","","","","","","","","","","","","","","","","","","","",""
"1596","","image-button-response","63","368364","0.0-62.0-0.0","A1F2APQMJSQVFK","img_art/28.jpg","2","","","","","","","","","","","","","","","","","","","","","","","","",""
"7733","","image-button-response","64","376102","0.0-63.0-0.0","A1F2APQMJSQVFK","img_art/28.jpg","0","","","","","","","","","","","","","","","","","","","","","","","","",""
"null","","html-keyboard-response","65","377105","0.0-64.0","A1F2APQMJSQVFK","<p style=""font-size: 48px;"">+</p>","","","","","null","allTrialResponses","1000","1","3","img_art/28.jpg","19","fascinating on a closer look","Kylie,Michaela,Stephanie,Erin,Monica,Allison","Overpopulated city,35,300,20","Salvador Dali called and he thinks this looks pretty good,27,260,20","The colors are neutral but I see a mother helping her child,31,300,20","Dislike color palette and amoeba,-9,120,20","The dark colors make it look dirty and the shapes make me uncomfortable,-50,360,20","Dislike the colors.,-20,140,20","Michaela","Salvador Dali called and he thinks this looks pretty good,27,260,20","Stephanie","The colors are neutral but I see a mother helping her child,31,300,20","Kylie","Overpopulated city,35,300,20","2"
"9338","","survey-text","66","386450","0.0-65.0-0.0","A1F2APQMJSQVFK","","","","{""Q0"":""artist is troubled""}","","","","","","","","","","","","","","","","","","","","","","",""
"4489.300000071526","","image-slider-response","67","390944","0.0-66.0","A1F2APQMJSQVFK","","","","","-24","","","","","","","","","","","","","","","","","","","","","",""
"3079","","image-button-response","68","395953","0.0-67.0","A1F2APQMJSQVFK","img_art/3.jpg","1","","","","","","","","","","","","","","","","","","","","","","","","",""
"2095","","image-button-response","69","398055","0.0-68.0","A1F2APQMJSQVFK","img_art/3.jpg","0","","","","","","","","","","","","","","","","","","","","","","","","",""
"2257","","image-button-response","70","400316","0.0-69.0-0.0","A1F2APQMJSQVFK","img_art/3.jpg","1","","","","","","","","","","","","","","","","","","","","","","","","",""
"1894","","image-button-response","71","402216","0.0-70.0-0.0","A1F2APQMJSQVFK","img_art/3.jpg","0","","","","","","","","","","","","","","","","","","","","","","","","",""
"815","","image-button-response","72","411166","0.0-70.1-0.1","A1F2APQMJSQVFK","img_art/3.jpg","4","","","","","","","","","","","","","","","","","","","","","","","","",""
"null","","html-keyboard-response","73","412168","0.0-71.0","A1F2APQMJSQVFK","<p style=""font-size: 48px;"">+</p>","","","","","null","allTrialResponses","1000","1","4","img_art/3.jpg","-24","artist is troubled","Kylie,Michaela,Stephanie,Rachel,Vanessa,Olivia","Confusion and mayhem,-10,300,20","It looks like someone took a red sharpie and just scribbled angrily,-20,260,20","I think of an angry child,-50,300,20","Too red and chaotic. Not calming.,-41,80,20","It makes me think of just an angry scribble. There's no beauty to it for me.,-50,380,20","confusing taking over,-15,40,20","Kylie","Confusion and mayhem,-10,300,20","Michaela","It looks like someone took a red sharpie and just scribbled angrily,-20,260,20","Vanessa","It makes me think of just an angry scribble. There's no beauty to it for me.,-50,380,20","4"
"16977","","survey-text","74","429157","0.0-72.0-0.0","A1F2APQMJSQVFK","","","","{""Q0"":""well crafted, nice art""}","","","","","","","","","","","","","","","","","","","","","","",""
"4162.900000095367","","image-slider-response","75","433328","0.0-73.0","A1F2APQMJSQVFK","","","","","21","","","","","","","","","","","","","","","","","","","","","",""
"null","","image-button-response","76","438342","0.0-74.0","A1F2APQMJSQVFK","img_art/10.jpg","null","","","","","","","","","","","","","","","","","","","","","","","","",""
"2329","","image-button-response","77","440677","0.0-75.0","A1F2APQMJSQVFK","img_art/10.jpg","3","","","","","","","","","","","","","","","","","","","","","","","","",""
"2790","","image-button-response","78","443474","0.0-76.0-0.0","A1F2APQMJSQVFK","img_art/10.jpg","4","","","","","","","","","","","","","","","","","","","","","","","","",""
"2382","","image-button-response","79","445864","0.0-77.0-0.0","A1F2APQMJSQVFK","img_art/10.jpg","5","","","","","","","","","","","","","","","","","","","","","","","","",""
"null","","html-keyboard-response","80","446380","0.0-78.0","A1F2APQMJSQVFK","<p style=""font-size: 48px;"">+</p>","","","","","null","allTrialResponses","500","1","5","img_art/10.jpg","21","well crafted, nice art","Kylie,Michaela,Maria,Erika,Vanessa,Cassandra","Musical guitar whimsy,45,300,20","It looks like it's sinking but it could also be a view from above,40,260,20","not sure what to make of this one,0,120,20","Good texture, expressive,18,100,20","It's interesting and my eyes keep being drawn to different parts of the picture.,11,380,20","I liked it...it looked somewhat like a guitar.,32,120,20","Erika","Good texture, expressive,18,100,20","Vanessa","It's interesting and my eyes keep being drawn to different parts of the picture.,11,380,20","Cassandra","I liked it...it looked somewhat like a guitar.,32,120,20","4"
"4719","","survey-text","81","451126","0.0-79.0-0.0","A1F2APQMJSQVFK","","","","{""Q0"":""sky""}","","","","","","","","","","","","","","","","","","","","","","",""
"52145","","survey-text","82","503275","0.0-80.0-0.0","A1F2APQMJSQVFK","","","","{""Q0"":""art looks childish""}","","","","","","","","","","","","","","","","","","","","","","",""
"3705.100000023842","","image-slider-response","83","506985","0.0-81.0","A1F2APQMJSQVFK","","","","","-27","","","","","","","","","","","","","","","","","","","","","",""
"null","","image-button-response","84","511995","0.0-82.0","A1F2APQMJSQVFK","img_art/27.jpg","null","","","","","","","","","","","","","","","","","","","","","","","","",""
"7003","","image-button-response","85","519004","0.0-83.0","A1F2APQMJSQVFK","img_art/27.jpg","0","","","","","","","","","","","","","","","","","","","","","","","","",""
"2350","","image-button-response","86","521359","0.0-84.0-0.0","A1F2APQMJSQVFK","img_art/27.jpg","2","","","","","","","","","","","","","","","","","","","","","","","","",""
"1528","","image-button-response","87","522891","0.0-85.0-0.0","A1F2APQMJSQVFK","img_art/27.jpg","5","","","","","","","","","","","","","","","","","","","","","","","","",""
"null","","html-keyboard-response","88","524404","0.0-86.0","A1F2APQMJSQVFK","<p style=""font-size: 48px;"">+</p>","","","","","null","allTrialResponses","1500","1","6","img_art/27.jpg","-27","art looks childish","Lauren,Emma,Rebecca,Erika,Vanessa,Cassandra","Not a fan of the green; gives off the impression that someone else drew on it.,-20,340,20","Not sure how I feel about this. Messy, even for art. But good colors.,0,60,20","don't understand, the green induces confusion,1,100,20","Nice color, but too vague,-12,100,20","Colors make me think of fall, but I don't like how the picture was done or the weird lines across the background,6,380,20","I don't like any of it...just scibbles.,-37,120,20","Lauren","Not a fan of the green; gives off the impression that someone else drew on it.,-20,340,20","Rebecca","don't understand, the green induces confusion,1,100,20","Cassandra","I don't like any of it...just scibbles.,-37,120,20","4"
"27750","","survey-text","89","552165","0.0-87.0-0.0","A1F2APQMJSQVFK","","","","{""Q0"":""art is different, i like it""}","","","","","","","","","","","","","","","","","","","","","","",""
"4118.200000047684","","image-slider-response","90","556288","0.0-88.0","A1F2APQMJSQVFK","","","","","15","","","","","","","","","","","","","","","","","","","","","",""
"null","","image-button-response","91","561291","0.0-89.0","A1F2APQMJSQVFK","img_art/16.jpg","null","","","","","","","","","","","","","","","","","","","","","","","","",""
"288","","image-button-response","92","561584","0.0-90.0","A1F2APQMJSQVFK","img_art/16.jpg","3","","","","","","","","","","","","","","","","","","","","","","","","",""
"1196","","image-button-response","93","562786","0.0-91.0-0.0","A1F2APQMJSQVFK","img_art/16.jpg","4","","","","","","","","","","","","","","","","","","","","","","","","",""
"1814","","image-button-response","94","564607","0.0-92.0-0.0","A1F2APQMJSQVFK","img_art/16.jpg","5","","","","","","","","","","","","","","","","","","","","","","","","",""
"null","","html-keyboard-response","95","566113","0.0-93.0","A1F2APQMJSQVFK","<p style=""font-size: 48px;"">+</p>","","","","","null","allTrialResponses","1500","1","7","img_art/16.jpg","15","art is different, i like it","Lauren,Laura,Rebecca,Amy,Mary,Cassandra","The colored teddy bear clashes with the color scheme.,-20,340,20","depressing and confrontational,-9,320,20","don't know how to feel, I mean I respect it but I honestly don't know about this,-12,100,20","visceral and a little disturbing.,10,220,20","This is a neat piece. Sort of shocking. I think it's too monochromatic though.,19,180,20","I like the teddy bear,but a neutral feeling,5,120,20","Amy","visceral and a little disturbing.,10,220,20","Mary","This is a neat piece. Sort of shocking. I think it's too monochromatic though.,19,180,20","Cassandra","I like the teddy bear,but a neutral feeling,5,120,20","4"
"17939","","survey-text","96","584062","0.0-94.0-0.0","A1F2APQMJSQVFK","","","","{""Q0"":""artwork is beautiful, reminds me of nature""}","","","","","","","","","","","","","","","","","","","","","","",""
"5153.899999976158","","image-slider-response","97","589220","0.0-95.0","A1F2APQMJSQVFK","","","","","22","","","","","","","","","","","","","","","","","","","","","",""
"null","","image-button-response","98","594229","0.0-96.0","A1F2APQMJSQVFK","img_art/24.jpg","null","","","","","","","","","","","","","","","","","","","","","","","","",""
"890","","image-button-response","99","595125","0.0-97.0","A1F2APQMJSQVFK","img_art/24.jpg","1","","","","","","","","","","","","","","","","","","","","","","","","",""
"1122","","image-button-response","100","596252","0.0-98.0-0.0","A1F2APQMJSQVFK","img_art/24.jpg","2","","","","","","","","","","","","","","","","","","","","","","","","",""
"2679","","image-button-response","101","598937","0.0-99.0-0.0","A1F2APQMJSQVFK","img_art/24.jpg","0","","","","","","","","","","","","","","","","","","","","","","","","",""
"null","","html-keyboard-response","102","599941","0.0-100.0","A1F2APQMJSQVFK","<p style=""font-size: 48px;"">+</p>","","","","","null","allTrialResponses","1000","1","8","img_art/24.jpg","22","artwork is beautiful, reminds me of nature","Autumn,Taylor,Gabriela,Amy,Mary,Cassandra","Very cute amateur piece.,18,340,20","Makes me think of a couple of hikes that I've taken,50,340,20","I love how bold and vibrant the colors are,40,140,20","The contorted angles of the flowing water upset the harmony,-20,220,20","This is sort of interesting. I think it's a bit busy. Less is more.,3,180,20","I like it...looks like a waterfall.,11,120,20","Taylor","Makes me think of a couple of hikes that I've taken,50,340,20","Gabriela","I love how bold and vibrant the colors are,40,140,20","Autumn","Very cute amateur piece.,18,340,20","4"
"15810","","survey-text","103","615761","0.0-101.0-0.0","A1F2APQMJSQVFK","","","","{""Q0"":""this is matured art with deeper meaning""}","","","","","","","","","","","","","","","","","","","","","","",""
"2330.2999999523163","","image-slider-response","104","618094","0.0-102.0","A1F2APQMJSQVFK","","","","","42","","","","","","","","","","","","","","","","","","","","","",""
"3073","","image-button-response","105","623098","0.0-103.0","A1F2APQMJSQVFK","img_art/18.jpg","0","","","","","","","","","","","","","","","","","","","","","","","","",""
"712","","image-button-response","106","623814","0.0-104.0","A1F2APQMJSQVFK","img_art/18.jpg","5","","","","","","","","","","","","","","","","","","","","","","","","",""
"5559","","image-button-response","107","629377","0.0-105.0-0.0","A1F2APQMJSQVFK","img_art/18.jpg","2","","","","","","","","","","","","","","","","","","","","","","","","",""
"2527","","image-button-response","108","631909","0.0-106.0-0.0","A1F2APQMJSQVFK","img_art/18.jpg","0","","","","","","","","","","","","","","","","","","","","","","","","",""
"null","","html-keyboard-response","109","632424","0.0-107.0","A1F2APQMJSQVFK","<p style=""font-size: 48px;"">+</p>","","","","","null","allTrialResponses","500","1","9","img_art/18.jpg","42","this is matured art with deeper meaning","Autumn,Taylor,Gabriela,Mariah,Marissa,Katherine","This looks amazing.,40,340,20","Another ominous painting,-10,340,20","It's possibly of a mermaid luring in a ship,15,140,20","It is too busy, but the colors are pleasant.,15,140,20","This brings to mind the four horsemen of the apocalypse,8,160,20","Ok this is really badass. Like a warrior come to the last battle,50,120,20","Katherine","Ok this is really badass. Like a warrior come to the last battle,50,120,20","Gabriela","It's possibly of a mermaid luring in a ship,15,140,20","Autumn","This looks amazing.,40,340,20","4"
"9498","","survey-text","110","641933","0.0-108.0-0.0","A1F2APQMJSQVFK","","","","{""Q0"":""amazing artwork""}","","","","","","","","","","","","","","","","","","","","","","",""
"2859.7000000476837","","image-slider-response","111","644799","0.0-109.0","A1F2APQMJSQVFK","","","","","24","","","","","","","","","","","","","","","","","","","","","",""
"null","","image-button-response","112","649805","0.0-110.0","A1F2APQMJSQVFK","img_art/8.jpg","null","","","","","","","","","","","","","","","","","","","","","","","","",""
"646","","image-button-response","113","650459","0.0-111.0","A1F2APQMJSQVFK","img_art/8.jpg","5","","","","","","","","","","","","","","","","","","","","","","","","",""
"1734","","image-button-response","114","652196","0.0-112.0-0.0","A1F2APQMJSQVFK","img_art/8.jpg","0","","","","","","","","","","","","","","","","","","","","","","","","",""
"2918","","image-button-response","115","655121","0.0-113.0-0.0","A1F2APQMJSQVFK","img_art/8.jpg","3","","","","","","","","","","","","","","","","","","","","","","","","",""
"null","","html-keyboard-response","116","656138","0.0-114.0","A1F2APQMJSQVFK","<p style=""font-size: 48px;"">+</p>","","","","","null","allTrialResponses","1000","1","10","img_art/8.jpg","24","amazing artwork","Autumn,Emily,Gabriela,Alexis,Brianna,Katherine","Well painted. Not my style.,27,340,20","It is interesting to look at. Abstract but ordered.,9,40,20","I like that it sort of looks like a cityscape,9,140,20","Reminds me of old 80s fantasy book covers. Nostalgic,23,100,20","It's very odd and I don't really like it,-30,20,20","This is really cool, I love the fragments of faces,38,120,20","Katherine","This is really cool, I love the fragments of faces,38,120,20","Autumn","Well painted. Not my style.,27,340,20","Alexis","Reminds me of old 80s fantasy book covers. Nostalgic,23,100,20","4"
"4136","","survey-text","117","660291","0.0-115.0-0.0","A1F2APQMJSQVFK","","","","{""Q0"":""our""}","","","","","","","","","","","","","","","","","","","","","","",""
"101614","","survey-text","118","761909","0.0-116.0-0.0","A1F2APQMJSQVFK","","","","{""Q0"":""looks like a picture, beautifully painted""}","","","","","","","","","","","","","","","","","","","","","","",""
"3182.8000000715256","","image-slider-response","119","765096","0.0-117.0","A1F2APQMJSQVFK","","","","","40","","","","","","","","","","","","","","","","","","","","","",""
"4346","","image-button-response","120","770104","0.0-118.0","A1F2APQMJSQVFK","img_art/7.jpg","0","","","","","","","","","","","","","","","","","","","","","","","","",""
"1423","","image-button-response","121","771532","0.0-119.0","A1F2APQMJSQVFK","img_art/7.jpg","2","","","","","","","","","","","","","","","","","","","","","","","","",""
"1171","","image-button-response","122","772708","0.0-120.0-0.0","A1F2APQMJSQVFK","img_art/7.jpg","1","","","","","","","","","","","","","","","","","","","","","","","","",""
"636","","image-button-response","123","773349","0.0-121.0-0.0","A1F2APQMJSQVFK","img_art/7.jpg","0","","","","","","","","","","","","","","","","","","","","","","","","",""
"null","","html-keyboard-response","124","774855","0.0-122.0","A1F2APQMJSQVFK","<p style=""font-size: 48px;"">+</p>","","","","","null","allTrialResponses","1500","1","11","img_art/7.jpg","40","looks like a picture, beautifully painted","Autumn,Jessica,Chloe,Alexis,Alicia,Katherine","Well done minimalism.,35,340,20","Looks like a natural texture, reminds me of rocks.,0,400,20","Like the tactile quality,30,220,20","Looks like bad wallpaper,-29,100,20","I don't get it. looks like a picture of the ground.,-42,120,20","Reminds me of bugs, I hate bugs,-7,120,20","Chloe","Like the tactile quality,30,220,20","Jessica","Looks like a natural texture, reminds me of rocks.,0,400,20","Autumn","Well done minimalism.,35,340,20","4"
"9053","","survey-text","125","783924","0.0-123.0-0.0","A1F2APQMJSQVFK","","","","{""Q0"":""I dont like it""}","","","","","","","","","","","","","","","","","","","","","","",""
"4265.100000023842","","image-slider-response","126","788194","0.0-124.0","A1F2APQMJSQVFK","","","","","-40","","","","","","","","","","","","","","","","","","","","","",""
"3347","","image-button-response","127","793200","0.0-125.0","A1F2APQMJSQVFK","img_art/5.jpg","4","","","","","","","","","","","","","","","","","","","","","","","","",""
"203","","image-button-response","128","793409","0.0-126.0","A1F2APQMJSQVFK","img_art/5.jpg","2","","","","","","","","","","","","","","","","","","","","","","","","",""
"715","","image-button-response","129","794133","0.0-127.0-0.0","A1F2APQMJSQVFK","img_art/5.jpg","1","","","","","","","","","","","","","","","","","","","","","","","","",""
"1337","","image-button-response","130","795476","0.0-128.0-0.0","A1F2APQMJSQVFK","img_art/5.jpg","4","","","","","","","","","","","","","","","","","","","","","","","","",""
"null","","html-keyboard-response","131","796984","0.0-129.0","A1F2APQMJSQVFK","<p style=""font-size: 48px;"">+</p>","","","","","null","allTrialResponses","1500","1","12","img_art/5.jpg","-40","I dont like it","Autumn,Jessica,Chloe,Sara,Kelly,Madeline","Appealing but shapeless,24,340,20","Don't really know the point of this one.,-11,400,20","Black stripe looks violent,-31,220,20","It looks random,-10,160,20","It looks like daffy duck's leg with a random trail of pink.,-22,220,20","A bit too messy in my eyes,-4,40,20","Chloe","Black stripe looks violent,-31,220,20","Jessica","Don't really know the point of this one.,-11,400,20","Kelly","It looks like daffy duck's leg with a random trail of pink.,-22,220,20","4"
"20589","","survey-text","132","817584","0.0-130.0-0.0","A1F2APQMJSQVFK","","","","{""Q0"":""reminds me of christmas but scary""}","","","","","","","","","","","","","","","","","","","","","","",""
"2680.100000023842","","image-slider-response","133","820267","0.0-131.0","A1F2APQMJSQVFK","","","","","-19","","","","","","","","","","","","","","","","","","","","","",""
"4270","","image-button-response","134","825282","0.0-132.0","A1F2APQMJSQVFK","img_art/23.jpg","5","","","","","","","","","","","","","","","","","","","","","","","","",""
"979","","image-button-response","135","826266","0.0-133.0","A1F2APQMJSQVFK","img_art/23.jpg","2","","","","","","","","","","","","","","","","","","","","","","","","",""
"1834","","image-button-response","136","828107","0.0-134.0-0.0","A1F2APQMJSQVFK","img_art/23.jpg","5","","","","","","","","","","","","","","","","","","","","","","","","",""
"2014","","image-button-response","137","830127","0.0-135.0-0.0","A1F2APQMJSQVFK","img_art/23.jpg","0","","","","","","","","","","","","","","","","","","","","","","","","",""
"null","","html-keyboard-response","138","831130","0.0-136.0","A1F2APQMJSQVFK","<p style=""font-size: 48px;"">+</p>","","","","","null","allTrialResponses","1000","1","13","img_art/23.jpg","-19","reminds me of christmas but scary","Amber,Jessica,Chloe,Jamie,Kelly,Hailey","The background colors seem too dark and the middle images take away from it.,4,200,20","This is very cool!,24,400,20","Poster shop camp.,-40,220,20","Reminds me of outer space and the stars,30,320,20","Love this. I love the white, really pops with the colors surrounding it.,44,220,20","cold and dark feeling,-27,200,20","Chloe","Poster shop camp.,-40,220,20","Hailey","cold and dark feeling,-27,200,20","Amber","The background colors seem too dark and the middle images take away from it.,4,200,20","4"
"13391","","survey-text","139","844530","0.0-137.0-0.0","A1F2APQMJSQVFK","","","","{""Q0"":""i love the feminine feel to it""}","","","","","","","","","","","","","","","","","","","","","","",""
"6299.599999904633","","image-slider-response","140","850835","0.0-138.0","A1F2APQMJSQVFK","","","","","24","","","","","","","","","","","","","","","","","","","","","",""
"null","","image-button-response","141","855844","0.0-139.0","A1F2APQMJSQVFK","img_art/30.jpg","null","","","","","","","","","","","","","","","","","","","","","","","","",""
"1876","","image-button-response","142","857724","0.0-140.0","A1F2APQMJSQVFK","img_art/30.jpg","0","","","","","","","","","","","","","","","","","","","","","","","","",""
"4390","","image-button-response","143","862121","0.0-141.0-0.0","A1F2APQMJSQVFK","img_art/30.jpg","1","","","","","","","","","","","","","","","","","","","","","","","","",""
"1197","","image-button-response","144","863327","0.0-142.0-0.0","A1F2APQMJSQVFK","img_art/30.jpg","4","","","","","","","","","","","","","","","","","","","","","","","","",""
"null","","html-keyboard-response","145","863836","0.0-143.0","A1F2APQMJSQVFK","<p style=""font-size: 48px;"">+</p>","","","","","null","allTrialResponses","500","1","14","img_art/30.jpg","24","i love the feminine feel to it","Amber,Jenna,Chloe,Angela,Kaitlyn,Hailey","fresh and bold. outgoing.,15,200,20","love the movement of the brush strokes. very interesting piece.,38,360,20","Muddy, sloppy, unprofessional,-44,220,20","Really don't like this piece. It feels very lazy to me.,-31,260,20","Do not like the streaks,-14,80,20","snakes in the grass, I don't like it,-17,200,20","Amber","fresh and bold. outgoing.,15,200,20","Jenna","love the movement of the brush strokes. very interesting piece.,38,360,20","Kaitlyn","Do not like the streaks,-14,80,20","4"
"20581","","survey-text","146","884429","0.0-144.0-0.0","A1F2APQMJSQVFK","","","","{""Q0"":""boring, do not excite me""}","","","","","","","","","","","","","","","","","","","","","","",""
"11785.899999976158","","image-slider-response","147","896218","0.0-145.0","A1F2APQMJSQVFK","","","","","-30","","","","","","","","","","","","","","","","","","","","","",""
"null","","image-button-response","148","901223","0.0-146.0","A1F2APQMJSQVFK","img_art/25.jpg","null","","","","","","","","","","","","","","","","","","","","","","","","",""
"1202","","image-button-response","149","902427","0.0-147.0","A1F2APQMJSQVFK","img_art/25.jpg","1","","","","","","","","","","","","","","","","","","","","","","","","",""
"1813","","image-button-response","150","904244","0.0-148.0-0.0","A1F2APQMJSQVFK","img_art/25.jpg","0","","","","","","","","","","","","","","","","","","","","","","","","",""
"2416","","image-button-response","151","906664","0.0-149.0-0.0","A1F2APQMJSQVFK","img_art/25.jpg","4","","","","","","","","","","","","","","","","","","","","","","","","",""
"null","","html-keyboard-response","152","907191","0.0-150.0","A1F2APQMJSQVFK","<p style=""font-size: 48px;"">+</p>","","","","","null","allTrialResponses","500","1","15","img_art/25.jpg","-30","boring, do not excite me","Amber,Jenna,Cassidy,Mackenzie,Kaitlyn,Savannah","Regal. Reminds me of Egyptian art.,11,200,20","beautiful in a primitive way,10,360,20","Love the colors, and how it's simple yet complex,25,140,20","Very nice color contrast and design.,40,20,20","Love the simplicity and lines,20,80,20","Very cool color, very clear message!,50,200,20","Jenna","beautiful in a primitive way,10,360,20","Amber","Regal. Reminds me of Egyptian art.,11,200,20","Kaitlyn","Love the simplicity and lines,20,80,20","4"
"5168","","survey-text","153","912383","0.0-151.0-0.0","A1F2APQMJSQVFK","","","","{""Q0"":""course""}","","","","","","","","","","","","","","","","","","","","","","",""
"9280","","survey-text","154","921666","0.0-152.0-0.0","A1F2APQMJSQVFK","","","","{""Q0"":""love it""}","","","","","","","","","","","","","","","","","","","","","","",""
"3673.7999999523163","","image-slider-response","155","925343","0.0-153.0","A1F2APQMJSQVFK","","","","","28","","","","","","","","","","","","","","","","","","","","","",""
"2462","","image-button-response","156","930347","0.0-154.0","A1F2APQMJSQVFK","img_art/14.jpg","1","","","","","","","","","","","","","","","","","","","","","","","","",""
"1641","","image-button-response","157","931993","0.0-155.0","A1F2APQMJSQVFK","img_art/14.jpg","3","","","","","","","","","","","","","","","","","","","","","","","","",""
"681","","image-button-response","158","932677","0.0-156.0-0.0","A1F2APQMJSQVFK","img_art/14.jpg","2","","","","","","","","","","","","","","","","","","","","","","","","",""
"822","","image-button-response","159","933502","0.0-157.0-0.0","A1F2APQMJSQVFK","img_art/14.jpg","1","","","","","","","","","","","","","","","","","","","","","","","","",""
"null","","html-keyboard-response","160","935004","0.0-158.0","A1F2APQMJSQVFK","<p style=""font-size: 48px;"">+</p>","","","","","null","allTrialResponses","1500","1","16","img_art/14.jpg","28","love it","Amber,Jenna,Breanna,Alexa,Kaitlyn,Anna","Reminds me of the outdoors.,12,200,20","love the colors. despite their brightness it seems sad somehow.,41,360,20","Makes me feel good,30,380,20","Very abstract and colorful,40,40,20","Focal point is interesting,5,80,20","It reminds me of a tree in the desert.,15,300,20","Alexa","Very abstract and colorful,40,40,20","Breanna","Makes me feel good,30,380,20","Jenna","love the colors. despite their brightness it seems sad somehow.,41,360,20","4"
"14882","","survey-text","161","949902","0.0-159.0-0.0","A1F2APQMJSQVFK","","","","{""Q0"":""very well painted""}","","","","","","","","","","","","","","","","","","","","","","",""
"3088.2999999523163","","image-slider-response","162","952994","0.0-160.0","A1F2APQMJSQVFK","","","","","26","","","","","","","","","","","","","","","","","","","","","",""
"4880","","image-button-response","163","958015","0.0-161.0","A1F2APQMJSQVFK","img_art/11.jpg","5","","","","","","","","","","","","","","","","","","","","","","","","",""
"1488","","image-button-response","164","959508","0.0-162.0","A1F2APQMJSQVFK","img_art/11.jpg","1","","","","","","","","","","","","","","","","","","","","","","","","",""
"1787","","image-button-response","165","961300","0.0-163.0-0.0","A1F2APQMJSQVFK","img_art/11.jpg","0","","","","","","","","","","","","","","","","","","","","","","","","",""
"3691","","image-button-response","166","964998","0.0-164.0-0.0","A1F2APQMJSQVFK","img_art/11.jpg","2","","","","","","","","","","","","","","","","","","","","","","","","",""
"null","","html-keyboard-response","167","966518","0.0-165.0","A1F2APQMJSQVFK","<p style=""font-size: 48px;"">+</p>","","","","","null","allTrialResponses","1500","1","17","img_art/11.jpg","26","very well painted","Andrea,Jenna,Breanna,Alexa,Caroline,Elizabeth","My initial thought was roller coasters but I see ship masts on a cloudy day too.,35,240,20","makes me think of city highways & bridges on a rainy, foggy day. I like the melancholy it evokes.,43,360,20","Very cool, makes me feel good,39,380,20","There's a lot going on in this painting but it is pleasing and neat looking,31,40,20","Makes me think of far away places and traveling. Makes me feel like wandering,20,100,20","Very unique piece of art,50,20,20","Jenna","makes me think of city highways & bridges on a rainy, foggy day. I like the melancholy it evokes.,43,360,20","Andrea","My initial thought was roller coasters but I see ship masts on a cloudy day too.,35,240,20","Breanna","Very cool, makes me feel good,39,380,20","4"
"9983","","survey-text","168","976513","0.0-166.0-0.0","A1F2APQMJSQVFK","","","","{""Q0"":""i do not like it""}","","","","","","","","","","","","","","","","","","","","","","",""
"2909.399999976158","","image-slider-response","169","979426","0.0-167.0","A1F2APQMJSQVFK","","","","","-32","","","","","","","","","","","","","","","","","","","","","",""
"4599","","image-button-response","170","984443","0.0-168.0","A1F2APQMJSQVFK","img_art/22.jpg","3","","","","","","","","","","","","","","","","","","","","","","","","",""
"1987","","image-button-response","171","986437","0.0-169.0","A1F2APQMJSQVFK","img_art/22.jpg","0","","","","","","","","","","","","","","","","","","","","","","","","",""
"1827","","image-button-response","172","988272","0.0-170.0-0.0","A1F2APQMJSQVFK","img_art/22.jpg","4","","","","","","","","","","","","","","","","","","","","","","","","",""
"1830","","image-button-response","173","990107","0.0-171.0-0.0","A1F2APQMJSQVFK","img_art/22.jpg","3","","","","","","","","","","","","","","","","","","","","","","","","",""
"null","","html-keyboard-response","174","991109","0.0-172.0","A1F2APQMJSQVFK","<p style=""font-size: 48px;"">+</p>","","","","","null","allTrialResponses","1000","1","18","img_art/22.jpg","-32","i do not like it","Andrea,Jenna,Breanna,Jasmine,Sierra,Christina","I don't feel much of anything.,0,240,20","beautiful. love the bright colors & soft brush strokes, and the imprint of the key is genius.,50,360,20","Makes me feel a bit anxious,6,380,20","I appreciate the artistic effort but it's not for me,0,340,20","colorful. but not much happening,1,260,20","i like the colors but it looks too 80s for me,7,240,20","Andrea","I don't feel much of anything.,0,240,20","Sierra","colorful. but not much happening,1,260,20","Jasmine","I appreciate the artistic effort but it's not for me,0,340,20","4"
"34249","","survey-text","175","1025371","0.0-173.0-0.0","A1F2APQMJSQVFK","","","","{""Q0"":""neutral""}","","","","","","","","","","","","","","","","","","","","","","",""
"16915.5","","image-slider-response","176","1042293","0.0-174.0","A1F2APQMJSQVFK","","","","","0","","","","","","","","","","","","","","","","","","","","","",""
"null","","image-button-response","177","1047301","0.0-175.0","A1F2APQMJSQVFK","img_art/15.jpg","null","","","","","","","","","","","","","","","","","","","","","","","","",""
"1698","","image-button-response","178","1049003","0.0-176.0","A1F2APQMJSQVFK","img_art/15.jpg","2","","","","","","","","","","","","","","","","","","","","","","","","",""
"1661","","image-button-response","179","1050667","0.0-177.0-0.0","A1F2APQMJSQVFK","img_art/15.jpg","4","","","","","","","","","","","","","","","","","","","","","","","","",""
"1878","","image-button-response","180","1052548","0.0-178.0-0.0","A1F2APQMJSQVFK","img_art/15.jpg","5","","","","","","","","","","","","","","","","","","","","","","","","",""
"null","","html-keyboard-response","181","1053052","0.0-179.0","A1F2APQMJSQVFK","<p style=""font-size: 48px;"">+</p>","","","","","null","allTrialResponses","500","1","19","img_art/15.jpg","0","neutral","Andrea,Kayla,Natalie,Jasmine,Sierra,Michelle","Chameleons on reeds. Nice but doesn't really make me feel anything.,11,240,20","Bushes, good! Life, good!,12,180,20","my response to the picture is that I dont know what I am looking at,-25,400,20","I like it as the colors complement each other well,21,340,20","i cant find somthing ilike about it,-31,260,20","Interesting to look at but I don't appreciate the abstraction,2,280,20","Natalie","my response to the picture is that I dont know what I am looking at,-25,400,20","Sierra","i cant find somthing ilike about it,-31,260,20","Michelle","Interesting to look at but I don't appreciate the abstraction,2,280,20","4"
"20079","","survey-text","182","1073142","0.0-180.0-0.0","A1F2APQMJSQVFK","","","","{""Q0"":""feels violent, like a crime scene""}","","","","","","","","","","","","","","","","","","","","","","",""
"3593.899999976158","","image-slider-response","183","1076745","0.0-181.0","A1F2APQMJSQVFK","","","","","-6","","","","","","","","","","","","","","","","","","","","","",""
"4770","","image-button-response","184","1081760","0.0-182.0","A1F2APQMJSQVFK","img_art/29.jpg","0","","","","","","","","","","","","","","","","","","","","","","","","",""
"2411","","image-button-response","185","1084175","0.0-183.0","A1F2APQMJSQVFK","img_art/29.jpg","4","","","","","","","","","","","","","","","","","","","","","","","","",""
"968","","image-button-response","186","1085146","0.0-184.0-0.0","A1F2APQMJSQVFK","img_art/29.jpg","3","","","","","","","","","","","","","","","","","","","","","","","","",""
"2089","","image-button-response","187","1087239","0.0-185.0-0.0","A1F2APQMJSQVFK","img_art/29.jpg","0","","","","","","","","","","","","","","","","","","","","","","","","",""
"null","","html-keyboard-response","188","1088747","0.0-186.0","A1F2APQMJSQVFK","<p style=""font-size: 48px;"">+</p>","","","","","null","allTrialResponses","1500","1","20","img_art/29.jpg","-6","feels violent, like a crime scene","Jordan,Julia,Natalie,Victoria,Sierra,Michelle","Yeah, I don't know. It's clearly a situation where art is the reject of something more,-27,20,20","it looks like a top-down battle arena,26,40,20","my response to the picture is that it looks so nice and cool and the details,34,400,20","makes me think of destruction,-20,400,20","not digging the paintbrush,1,260,20","The texture really stands out, this is an interesting composition,6,280,20","Sierra","not digging the paintbrush,1,260,20","Victoria","makes me think of destruction,-20,400,20","Jordan","Yeah, I don't know. It's clearly a situation where art is the reject of something more,-27,20,20","4"
"4846","","survey-text","189","1093626","0.0-187.0-0.0","A1F2APQMJSQVFK","","","","{""Q0"":""we""}","","","","","","","","","","","","","","","","","","","","","","",""
"24107","","survey-text","190","1117738","0.0-188.0-0.0","A1F2APQMJSQVFK","","","","{""Q0"":""I dont know what is going on in the mind of the artist""}","","","","","","","","","","","","","","","","","","","","","","",""
"2546.5999999046326","","image-slider-response","191","1120290","0.0-189.0","A1F2APQMJSQVFK","","","","","-11","","","","","","","","","","","","","","","","","","","","","",""
"3904","","image-button-response","192","1125308","0.0-190.0","A1F2APQMJSQVFK","img_art/9.jpg","0","","","","","","","","","","","","","","","","","","","","","","","","",""
"1278","","image-button-response","193","1126589","0.0-191.0","A1F2APQMJSQVFK","img_art/9.jpg","5","","","","","","","","","","","","","","","","","","","","","","","","",""
"1550","","image-button-response","194","1128143","0.0-192.0-0.0","A1F2APQMJSQVFK","img_art/9.jpg","1","","","","","","","","","","","","","","","","","","","","","","","","",""
"689","","image-button-response","195","1128839","0.0-193.0-0.0","A1F2APQMJSQVFK","img_art/9.jpg","0","","","","","","","","","","","","","","","","","","","","","","","","",""
"null","","html-keyboard-response","196","1129348","0.0-194.0","A1F2APQMJSQVFK","<p style=""font-size: 48px;"">+</p>","","","","","null","allTrialResponses","500","1","21","img_art/9.jpg","-11","I dont know what is going on in the mind of the artist","Jordan,Amanda,Margaret,Victoria,Sierra,Haley","I just dont like it, no reaction from me at all,-50,20,20","Makes me feel angry, its not very clear,-50,180,20","keeps me interested. like the colors,17,100,20","reminds me of a story book,18,400,20","it looks like a lady resting. it is soothing.,4,260,20","I don't like the picture, but it wouldn't surprise me if someone did,-20,220,20","Haley","I don't like the picture, but it wouldn't surprise me if someone did,-20,220,20","Amanda","Makes me feel angry, its not very clear,-50,180,20","Jordan","I just dont like it, no reaction from me at all,-50,20,20","4"
"13195","","survey-text","197","1142562","0.0-195.0-0.0","A1F2APQMJSQVFK","","","","{""Q0"":""lazy work, like a school kid""}","","","","","","","","","","","","","","","","","","","","","","",""
"4231.299999952316","","image-slider-response","198","1146798","0.0-196.0","A1F2APQMJSQVFK","","","","","-13","","","","","","","","","","","","","","","","","","","","","",""
"2123","","image-button-response","199","1151812","0.0-197.0","A1F2APQMJSQVFK","img_art/6.jpg","1","","","","","","","","","","","","","","","","","","","","","","","","",""
"600","","image-button-response","200","1152416","0.0-198.0","A1F2APQMJSQVFK","img_art/6.jpg","4","","","","","","","","","","","","","","","","","","","","","","","","",""
"3372","","image-button-response","201","1155792","0.0-199.0-0.0","A1F2APQMJSQVFK","img_art/6.jpg","5","","","","","","","","","","","","","","","","","","","","","","","","",""
"1615","","image-button-response","202","1157412","0.0-200.0-0.0","A1F2APQMJSQVFK","img_art/6.jpg","1","","","","","","","","","","","","","","","","","","","","","","","","",""
"null","","html-keyboard-response","203","1157920","0.0-201.0","A1F2APQMJSQVFK","<p style=""font-size: 48px;"">+</p>","","","","","null","allTrialResponses","500","1","22","img_art/6.jpg","-13","lazy work, like a school kid","Jordan,Amanda,Cynthia,Madison,Brooke,Haley","This is interesting, I feel solitude, and loneliness from this.,13,20,20","Makes me feel lonely,-22,180,20","seeds of change,11,320,20","Is this the villain from Despicable Me?,29,60,20","Kind of neat, but then that's a weird looking bird. too weird.,0,60,20","I like the color and the gradient,10,220,20","Brooke","Kind of neat, but then that's a weird looking bird. too weird.,0,60,20","Haley","I like the color and the gradient,10,220,20","Amanda","Makes me feel lonely,-22,180,20","4"
"18742","","survey-text","204","1176673","0.0-202.0-0.0","A1F2APQMJSQVFK","","","","{""Q0"":""beautiful idea but needs improvement""}","","","","","","","","","","","","","","","","","","","","","","",""
"4833.400000095367","","image-slider-response","205","1181511","0.0-203.0","A1F2APQMJSQVFK","","","","","9","","","","","","","","","","","","","","","","","","","","","",""
"2717","","image-button-response","206","1186518","0.0-204.0","A1F2APQMJSQVFK","img_art/26.jpg","0","","","","","","","","","","","","","","","","","","","","","","","","",""
"1725","","image-button-response","207","1188248","0.0-205.0","A1F2APQMJSQVFK","img_art/26.jpg","3","","","","","","","","","","","","","","","","","","","","","","","","",""
"1063","","image-button-response","208","1189318","0.0-206.0-0.0","A1F2APQMJSQVFK","img_art/26.jpg","1","","","","","","","","","","","","","","","","","","","","","","","","",""
"1312","","image-button-response","209","1190634","0.0-207.0-0.0","A1F2APQMJSQVFK","img_art/26.jpg","0","","","","","","","","","","","","","","","","","","","","","","","","",""
"null","","html-keyboard-response","210","1191148","0.0-208.0","A1F2APQMJSQVFK","<p style=""font-size: 48px;"">+</p>","","","","","null","allTrialResponses","500","1","23","img_art/26.jpg","9","beautiful idea but needs improvement","Ashley,Amanda,Danielle,Chelsea,Brooke,Haley","Telented watercolor artist or second grader.,18,320,20","Pleasant to look at,28,180,20","It's a little too yellow-y for me, I'm not a huge fan of the color schemes or setting it portrays.,-20,340,20","I wish it were more pastel but I think it is relaxing to look at.,30,180,20","street scene is okay?,15,60,20","It feels almost unfinished, but I like the color palette,9,220,20","Chelsea","I wish it were more pastel but I think it is relaxing to look at.,30,180,20","Amanda","Pleasant to look at,28,180,20","Ashley","Telented watercolor artist or second grader.,18,320,20","4"
"19121","","survey-text","211","1210287","0.0-209.0-0.0","A1F2APQMJSQVFK","","","","{""Q0"":""This is a beautiful art piece""}","","","","","","","","","","","","","","","","","","","","","","",""
"4297.899999976158","","image-slider-response","212","1214587","0.0-210.0","A1F2APQMJSQVFK","","","","","41","","","","","","","","","","","","","","","","","","","","","",""
"3269","","image-button-response","213","1219594","0.0-211.0","A1F2APQMJSQVFK","img_art/17.jpg","3","","","","","","","","","","","","","","","","","","","","","","","","",""
"968","","image-button-response","214","1220566","0.0-212.0","A1F2APQMJSQVFK","img_art/17.jpg","4","","","","","","","","","","","","","","","","","","","","","","","","",""
"724","","image-button-response","215","1221294","0.0-213.0-0.0","A1F2APQMJSQVFK","img_art/17.jpg","3","","","","","","","","","","","","","","","","","","","","","","","","",""
"1017","","image-button-response","216","1222318","0.0-214.0-0.0","A1F2APQMJSQVFK","img_art/17.jpg","5","","","","","","","","","","","","","","","","","","","","","","","","",""
"null","","html-keyboard-response","217","1222822","0.0-215.0","A1F2APQMJSQVFK","<p style=""font-size: 48px;"">+</p>","","","","","null","allTrialResponses","500","1","24","img_art/17.jpg","41","This is a beautiful art piece","Ashley,Amanda,Hannah,Chelsea,Miranda,Claire","taste the rainbow, feel the flavor.,23,320,20","Feels supernatural and scary,-16,180,20","Looks like an abandoned building that is being overtaken by nature.,-10,240,20","The colors are soft.,32,180,20","It seems a little dark but it is very beautiful,28,320,20","its whimsical and light,50,260,20","Miranda","It seems a little dark but it is very beautiful,28,320,20","Chelsea","The colors are soft.,32,180,20","Claire","its whimsical and light,50,260,20","4"
"13655","","survey-text","218","1236494","0.0-216.0-0.0","A1F2APQMJSQVFK","","","","{""Q0"":""lovely, it captivated me""}","","","","","","","","","","","","","","","","","","","","","","",""
"4631.699999928474","","image-slider-response","219","1241130","0.0-217.0","A1F2APQMJSQVFK","","","","","41","","","","","","","","","","","","","","","","","","","","","",""
"3941","","image-button-response","220","1246135","0.0-218.0","A1F2APQMJSQVFK","img_art/12.jpg","1","","","","","","","","","","","","","","","","","","","","","","","","",""
"927","","image-button-response","221","1247066","0.0-219.0","A1F2APQMJSQVFK","img_art/12.jpg","5","","","","","","","","","","","","","","","","","","","","","","","","",""
"3133","","image-button-response","222","1250206","0.0-220.0-0.0","A1F2APQMJSQVFK","img_art/12.jpg","1","","","","","","","","","","","","","","","","","","","","","","","","",""
"1513","","image-button-response","223","1251735","0.0-221.0-0.0","A1F2APQMJSQVFK","img_art/12.jpg","2","","","","","","","","","","","","","","","","","","","","","","","","",""
"null","","html-keyboard-response","224","1253254","0.0-222.0","A1F2APQMJSQVFK","<p style=""font-size: 48px;"">+</p>","","","","","null","allTrialResponses","1500","1","25","img_art/12.jpg","41","lovely, it captivated me","Morgan,Sydney,Destiny,Chelsea,Miranda,Claire","Ugly color combinations, no focus.,-25,380,20","I don't like the dark black with the bright colors, but this as a whole is nice.,25,320,20","giving me major endless summer vibes,26,360,20","I like the gradient of little color on the top to colorful on the bottom.,24,180,20","This is like going to a really old mcdoanlds in a tiny town and it's never been renovated so it's breaking down,-31,320,20","i like the repetition,30,260,20","Claire","i like the repetition,30,260,20","Sydney","I don't like the dark black with the bright colors, but this as a whole is nice.,25,320,20","Destiny","giving me major endless summer vibes,26,360,20","4"
"5485","","survey-text","225","1258772","0.0-223.0-0.0","A1F2APQMJSQVFK","","","","{""Q0"":""table""}","","","","","","","","","","","","","","","","","","","","","","",""
"8905","","survey-text","226","1267683","0.0-224.0-0.0","A1F2APQMJSQVFK","","","","{""Q0"":""dark but nice""}","","","","","","","","","","","","","","","","","","","","","","",""
"4356.899999976158","","image-slider-response","227","1272047","0.0-225.0","A1F2APQMJSQVFK","","","","","14","","","","","","","","","","","","","","","","","","","","","",""
"4040","","image-button-response","228","1277053","0.0-226.0","A1F2APQMJSQVFK","img_art/20.jpg","1","","","","","","","","","","","","","","","","","","","","","","","","",""
"566","","image-button-response","229","1277623","0.0-227.0","A1F2APQMJSQVFK","img_art/20.jpg","5","","","","","","","","","","","","","","","","","","","","","","","","",""
"986","","image-button-response","230","1278618","0.0-228.0-0.0","A1F2APQMJSQVFK","img_art/20.jpg","4","","","","","","","","","","","","","","","","","","","","","","","","",""
"939","","image-button-response","231","1279562","0.0-229.0-0.0","A1F2APQMJSQVFK","img_art/20.jpg","1","","","","","","","","","","","","","","","","","","","","","","","","",""
"null","","html-keyboard-response","232","1280568","0.0-230.0","A1F2APQMJSQVFK","<p style=""font-size: 48px;"">+</p>","","","","","null","allTrialResponses","1000","1","26","img_art/20.jpg","14","dark but nice","Katelyn,Sydney,Destiny,Tiffany,Crystal,Claire","I do at least like the dark colors blending,6,100,20","I love the color choice.,25,320,20","truck? train? dead cow? plane?,10,360,20","I feel powerful, like I am looking out a window at this machine, that I am in charge.,17,360,20","The pulling and sagging nature is very beautiful.,30,300,20","reminds me of Salvadore Dali,24,260,20","Claire","reminds me of Salvadore Dali,24,260,20","Crystal","The pulling and sagging nature is very beautiful.,30,300,20","Sydney","I love the color choice.,25,320,20","4"
"20467","","survey-text","233","1301054","0.0-231.0-0.0","A1F2APQMJSQVFK","","","","{""Q0"":""very beautiful art piece""}","","","","","","","","","","","","","","","","","","","","","","",""
"6304.5","","image-slider-response","234","1307361","0.0-232.0","A1F2APQMJSQVFK","","","","","39","","","","","","","","","","","","","","","","","","","","","",""
"4295","","image-button-response","235","1312367","0.0-233.0","A1F2APQMJSQVFK","img_art/13.jpg","1","","","","","","","","","","","","","","","","","","","","","","","","",""
"809","","image-button-response","236","1313181","0.0-234.0","A1F2APQMJSQVFK","img_art/13.jpg","4","","","","","","","","","","","","","","","","","","","","","","","","",""
"1296","","image-button-response","237","1314483","0.0-235.0-0.0","A1F2APQMJSQVFK","img_art/13.jpg","5","","","","","","","","","","","","","","","","","","","","","","","","",""
"1207","","image-button-response","238","1315695","0.0-236.0-0.0","A1F2APQMJSQVFK","img_art/13.jpg","1","","","","","","","","","","","","","","","","","","","","","","","","",""
"null","","html-keyboard-response","239","1317205","0.0-237.0","A1F2APQMJSQVFK","<p style=""font-size: 48px;"">+</p>","","","","","null","allTrialResponses","1500","1","27","img_art/13.jpg","39","very beautiful art piece","Kaitlin,Sydney,Makayla,Leslie,Crystal,Claire","I like this picture. The choice of colors are good,31,60,20","I love the style of this piece, but the color choice could've been more eye catching or calming.,40,320,20","Reminds me of the aquarium,4,80,20","This elicits no reaction in me.,0,380,20","Reminiscent of Jackson Pollock and gives me a feeling of chaotic satisfaction,50,300,20","love the colors and splatters,44,260,20","Crystal","Reminiscent of Jackson Pollock and gives me a feeling of chaotic satisfaction,50,300,20","Claire","love the colors and splatters,44,260,20","Sydney","I love the style of this piece, but the color choice could've been more eye catching or calming.,40,320,20","4"
"10186","","survey-text","240","1327410","0.0-238.0-0.0","A1F2APQMJSQVFK","","","","{""Q0"":""love this""}","","","","","","","","","","","","","","","","","","","","","","",""
"4284.799999952316","","image-slider-response","241","1331704","0.0-239.0","A1F2APQMJSQVFK","","","","","26","","","","","","","","","","","","","","","","","","","","","",""
"3970","","image-button-response","242","1336713","0.0-240.0","A1F2APQMJSQVFK","img_art/4.jpg","2","","","","","","","","","","","","","","","","","","","","","","","","",""
"1671","","image-button-response","243","1338390","0.0-241.0","A1F2APQMJSQVFK","img_art/4.jpg","1","","","","","","","","","","","","","","","","","","","","","","","","",""
"8","","image-button-response","244","1338409","0.0-242.0-0.0","A1F2APQMJSQVFK","img_art/4.jpg","2","","","","","","","","","","","","","","","","","","","","","","","","",""
"1424","","image-button-response","245","1339839","0.0-243.0-0.0","A1F2APQMJSQVFK","img_art/4.jpg","3","","","","","","","","","","","","","","","","","","","","","","","","",""
"null","","html-keyboard-response","246","1341342","0.0-244.0","A1F2APQMJSQVFK","<p style=""font-size: 48px;"">+</p>","","","","","null","allTrialResponses","1500","1","28","img_art/4.jpg","26","love this","Leah,Sydney,Melissa,Alexandria,Crystal,Claire","To me just looking at paint scrawls,-41,360,20","This piece catches my eye, but it's strange to me.,10,320,20","appealing warm palette,6,240,20","it looks like a simple finger painting, yet i liked the color choices,-12,80,20","Looks like finger nails from the Guinness world record book.,-30,300,20","I really don't like the colors,-26,260,20","Sydney","This piece catches my eye, but it's strange to me.,10,320,20","Melissa","appealing warm palette,6,240,20","Alexandria","it looks like a simple finger painting, yet i liked the color choices,-12,80,20","4"
"12777","","survey-text","247","1354139","0.0-245.0-0.0","A1F2APQMJSQVFK","","","","{""Q0"":""i am confused here""}","","","","","","","","","","","","","","","","","","","","","","",""
"4515.899999976158","","image-slider-response","248","1358658","0.0-246.0","A1F2APQMJSQVFK","","","","","-43","","","","","","","","","","","","","","","","","","","","","",""
"4182","","image-button-response","249","1363661","0.0-247.0","A1F2APQMJSQVFK","img_art/2.jpg","1","","","","","","","","","","","","","","","","","","","","","","","","",""
"1802","","image-button-response","250","1365470","0.0-248.0","A1F2APQMJSQVFK","img_art/2.jpg","0","","","","","","","","","","","","","","","","","","","","","","","","",""
"1616","","image-button-response","251","1367093","0.0-249.0-0.0","A1F2APQMJSQVFK","img_art/2.jpg","1","","","","","","","","","","","","","","","","","","","","","","","","",""
"1000","","image-button-response","252","1368100","0.0-250.0-0.0","A1F2APQMJSQVFK","img_art/2.jpg","3","","","","","","","","","","","","","","","","","","","","","","","","",""
"null","","html-keyboard-response","253","1369615","0.0-251.0","A1F2APQMJSQVFK","<p style=""font-size: 48px;"">+</p>","","","","","null","allTrialResponses","1500","1","29","img_art/2.jpg","-43","i am confused here","Katie,Sydney,Melissa,Alexandria,Kimberly,Abigail","Doesn't look like anything. Just a blob of colors.,1,160,20","I like the color, but I feel like I see a creepy face which I dislike.,-5,320,20","appealing colors,4,240,20","too abstract and confusing,-19,80,20","I like the green,13,260,20","Reminds me of my baby brother,11,20,20","Katie","Doesn't look like anything. Just a blob of colors.,1,160,20","Sydney","I like the color, but I feel like I see a creepy face which I dislike.,-5,320,20","Alexandria","too abstract and confusing,-19,80,20","4"
"13206","","survey-text","254","1382848","0.0-252.0-0.0","A1F2APQMJSQVFK","","","","{""Q0"":""art is on to something""}","","","","","","","","","","","","","","","","","","","","","","",""
"4760.100000023842","","image-slider-response","255","1387613","0.0-253.0","A1F2APQMJSQVFK","","","","","17","","","","","","","","","","","","","","","","","","","","","",""
"4451","","image-button-response","256","1392620","0.0-254.0","A1F2APQMJSQVFK","img_art/1.jpg","1","","","","","","","","","","","","","","","","","","","","","","","","",""
"2321","","image-button-response","257","1394943","0.0-255.0","A1F2APQMJSQVFK","img_art/1.jpg","2","","","","","","","","","","","","","","","","","","","","","","","","",""
"496","","image-button-response","258","1395443","0.0-256.0-0.0","A1F2APQMJSQVFK","img_art/1.jpg","1","","","","","","","","","","","","","","","","","","","","","","","","",""
"1240","","image-button-response","259","1396690","0.0-257.0-0.0","A1F2APQMJSQVFK","img_art/1.jpg","3","","","","","","","","","","","","","","","","","","","","","","","","",""
"null","","html-keyboard-response","260","1398193","0.0-258.0","A1F2APQMJSQVFK","<p style=""font-size: 48px;"">+</p>","","","","","null","allTrialResponses","1500","1","30","img_art/1.jpg","17","art is on to something","Katie,Sydney,Samantha,Alexandria,Paige,Alexandra","Too messy. Just looks like a mess of dark colors.,-20,160,20","I like the way that the colors blend.,35,320,20","Love the colors but it makes me feel like someone is looking at me through it,38,140,20","it is very colorful and makes me happy,44,80,20","fearful. Makes me think of fire,-10,60,20","I love the warm colors of the art,32,60,20","Samantha","Love the colors but it makes me feel like someone is looking at me through it,38,140,20","Sydney","I like the way that the colors blend.,35,320,20","Alexandria","it is very colorful and makes me happy,44,80,20","4"
"2531","","image-button-response_instructions","261","1400744","0.0-259.0","A1F2APQMJSQVFK","","0","instructions","","","","","","","","","","","","","","","","","","","","","","","",""
"1780","","image-button-response","262","1402541","0.0-260.0","A1F2APQMJSQVFK","","0","","","","","","","","","","","","","","","","","","","","","","","","",""
