"rt","url","trial_type","trial_index","time_elapsed","internal_node_id","participant_id","stimulus","button_pressed","Name","responses","response","key_press","variableName","fixationTime","condition","trial","photo","subjectRating","subjectResponse","agentsNames","agent_1_Response","agent_2_Response","agent_3_Response","agent_4_Response","agent_5_Response","agent_6_Response","kept_1_name","kept_1_response","kept_2_name","kept_2_response","kept_3_name","kept_3_response","errorCounter"
"24605","external_page_harvard.html","external-html","0","24653","0.0-0.0","A1FH0Y12VSXUMK","","","","","","","","","","","","","","","","","","","","","","","","","","",""
"2304","","image-button-response","1","26963","0.0-1.0","A1FH0Y12VSXUMK","","0","","","","","","","","","","","","","","","","","","","","","","","","",""
"3723","","image-button-response","2","30701","0.0-2.0-0.0","A1FH0Y12VSXUMK","","1","phone","","","","","","","","","","","","","","","","","","","","","","","",""
"18070","","survey-text","3","48776","0.0-3.0-0.0","A1FH0Y12VSXUMK","","","","{""Q0"":""A1FH0Y12VSXUMK""}","","","","","","","","","","","","","","","","","","","","","","",""
"12426","","image-button-response_instructions","4","61206","0.0-4.0","A1FH0Y12VSXUMK","","0","instructions","","","","","","","","","","","","","","","","","","","","","","","",""
"31092","","image-button-response_instructions","5","92300","0.0-5.0","A1FH0Y12VSXUMK","img_art/ins/popularity/ins1.png","0","instructions","","","","","","","","","","","","","","","","","","","","","","","",""
"17139","","image-button-response_instructions","6","109443","0.0-6.0","A1FH0Y12VSXUMK","img_art/ins/popularity/ins2.png","0","instructions","","","","","","","","","","","","","","","","","","","","","","","",""
"7233","","image-button-response_instructions","7","116681","0.0-7.0","A1FH0Y12VSXUMK","img_art/ins/popularity/ins2Extreme.png","0","instructions","","","","","","","","","","","","","","","","","","","","","","","",""
"48345","","image-button-response_instructions","8","165027","0.0-8.0","A1FH0Y12VSXUMK","img_art/ins/popularity/ins3KEEPpop.PNG","0","instructions","","","","","","","","","","","","","","","","","","","","","","","",""
"5656","","image-button-response_instructions","9","170700","0.0-9.0","A1FH0Y12VSXUMK","img_art/ins/popularity/ins3ANamepop.PNG","0","instructions","","","","","","","","","","","","","","","","","","","","","","","",""
"6955","","image-button-response_instructions","10","177659","0.0-10.0","A1FH0Y12VSXUMK","img_art/ins/popularity/ins3ARatingpop.png","0","instructions","","","","","","","","","","","","","","","","","","","","","","","",""
"8222","","image-button-response_instructions","11","185885","0.0-11.0","A1FH0Y12VSXUMK","img_art/ins/popularity/ins3ATextpop.png","0","instructions","","","","","","","","","","","","","","","","","","","","","","","",""
"11281","","image-button-response_instructions","12","197170","0.0-12.0","A1FH0Y12VSXUMK","img_art/ins/popularity/ins3ALikespop.png","0","instructions","","","","","","","","","","","","","","","","","","","","","","","",""
"19671","","image-button-response_instructions","13","216845","0.0-13.0","A1FH0Y12VSXUMK","img_art/ins/popularity/ins3KEEPpop.PNG","0","instructions","","","","","","","","","","","","","","","","","","","","","","","",""
"13301","","image-button-response_instructions","14","230148","0.0-14.0","A1FH0Y12VSXUMK","img_art/ins/popularity/ins3_5RED.png","0","instructions","","","","","","","","","","","","","","","","","","","","","","","",""
"6373","","image-button-response_instructions","15","236522","0.0-15.0","A1FH0Y12VSXUMK","img_art/ins/popularity/ins3KEEPpop.PNG","0","instructions","","","","","","","","","","","","","","","","","","","","","","","",""
"15408","","image-button-response_instructions","16","251933","0.0-16.0","A1FH0Y12VSXUMK","img_art/ins/popularity/ins4KEEPpop.PNG","0","instructions","","","","","","","","","","","","","","","","","","","","","","","",""
"6330","","image-button-response_instructions","17","258266","0.0-17.0","A1FH0Y12VSXUMK","img_art/ins/popularity/ins5KEEPpop.PNG","0","instructions","","","","","","","","","","","","","","","","","","","","","","","",""
"21245","","image-button-response_instructions","18","279513","0.0-18.0","A1FH0Y12VSXUMK","","0","instructions","","","","","","","","","","","","","","","","","","","","","","","",""
"16425","","survey-text","19","295992","0.0-19.0-0.0","A1FH0Y12VSXUMK","","","","{""Q0"":""but""}","","","","","","","","","","","","","","","","","","","","","","",""
"59056","","survey-text","20","355050","0.0-20.0-0.0","A1FH0Y12VSXUMK","","","","{""Q0"":""I rather like it but merely as a decoration.""}","","","","","","","","","","","","","","","","","","","","","","",""
"13459","","image-slider-response","21","368513","0.0-21.0","A1FH0Y12VSXUMK","","","","","8","","","","","","","","","","","","","","","","","","","","","",""
"null","","image-button-response","22","373521","0.0-22.0","A1FH0Y12VSXUMK","img_art/ins/1.jpg","null","","","","","","","","","","","","","","","","","","","","","","","","",""
"27717","","image-button-response","23","401241","0.0-23.0","A1FH0Y12VSXUMK","img_art/ins/1.jpg","5","","","","","","","","","","","","","","","","","","","","","","","","",""
"2372","","image-button-response","24","403619","0.0-24.0-0.0","A1FH0Y12VSXUMK","img_art/ins/1.jpg","3","","","","","","","","","","","","","","","","","","","","","","","","",""
"4377","","image-button-response","25","408000","0.0-25.0-0.0","A1FH0Y12VSXUMK","img_art/ins/1.jpg","1","","","","","","","","","","","","","","","","","","","","","","","","",""
"null","","html-keyboard-response","26","409507","0.0-26.0","A1FH0Y12VSXUMK","<p style=""font-size: 48px;"">+</p>","","","","","null","allTrialResponses","1500","1","-2","img_art/ins/1.jpg","8","I rather like it but merely as a decoration.","Adam,Alex,Ben,Carl,Daniel,Jack","Seems like doodles,-20,20,20","very creative work.,36,40,20","This color reminds me of poo,-46,60,20","very calming artwork,42,80,20","It looks like a murder scene.,-48,100,20","I like the sophisticated brushwork,40,120,20","Jack","I like the sophisticated brushwork,40,120,20","Carl","very calming artwork,42,80,20","Alex","very creative work.,36,40,20","0"
"81452","","survey-text","27","490980","0.0-27.0-0.0","A1FH0Y12VSXUMK","","","","{""Q0"":""Very interesting shades.""}","","","","","","","","","","","","","","","","","","","","","","",""
"8684.000000000058","","image-slider-response","28","499667","0.0-28.0","A1FH0Y12VSXUMK","","","","","37","","","","","","","","","","","","","","","","","","","","","",""
"null","","image-button-response","29","504672","0.0-29.0","A1FH0Y12VSXUMK","img_art/ins/2.jpg","null","","","","","","","","","","","","","","","","","","","","","","","","",""
"6484","","image-button-response","30","511160","0.0-30.0","A1FH0Y12VSXUMK","img_art/ins/2.jpg","4","","","","","","","","","","","","","","","","","","","","","","","","",""
"5422","","image-button-response","31","516589","0.0-31.0-0.0","A1FH0Y12VSXUMK","img_art/ins/2.jpg","5","","","","","","","","","","","","","","","","","","","","","","","","",""
"11653","","image-button-response","32","528246","0.0-32.0-0.0","A1FH0Y12VSXUMK","img_art/ins/2.jpg","3","","","","","","","","","","","","","","","","","","","","","","","","",""
"null","","html-keyboard-response","33","529250","0.0-33.0","A1FH0Y12VSXUMK","<p style=""font-size: 48px;"">+</p>","","","","","null","allTrialResponses","1000","1","-1","img_art/ins/2.jpg","37","Very interesting shades.","James,Alex,Kyle,Carl,John,Jack","looks too angry,-50,140,20","I like the blocks of color arrangements,30,40,20","Idk, it is just annoying,-32,180,20","I can feel the artist's passion in it,45,80,20","love the texture of paint,48,160,20","I would never be able to compose a sophisticated pallete like this,48,120,20","John","love the texture of paint,48,160,20","Jack","I would never be able to compose a sophisticated pallete like this,48,120,20","Carl","I can feel the artist's passion in it,45,80,20","0"
"36432","","survey-text","34","565695","0.0-34.0-0.0","A1FH0Y12VSXUMK","","","","{""Q0"":""It just seems a little annoying.""}","","","","","","","","","","","","","","","","","","","","","","",""
"14208","","image-slider-response","35","579906","0.0-35.0","A1FH0Y12VSXUMK","","","","","-16","","","","","","","","","","","","","","","","","","","","","",""
"null","","image-button-response","36","584912","0.0-36.0","A1FH0Y12VSXUMK","img_art/ins/3.jpg","null","","","","","","","","","","","","","","","","","","","","","","","","",""
"6437","","image-button-response","37","591353","0.0-37.0","A1FH0Y12VSXUMK","img_art/ins/3.jpg","4","","","","","","","","","","","","","","","","","","","","","","","","",""
"11092","","image-button-response","38","602453","0.0-38.0-0.0","A1FH0Y12VSXUMK","img_art/ins/3.jpg","1","","","","","","","","","","","","","","","","","","","","","","","","",""
"19720","","image-button-response","39","622177","0.0-39.0-0.0","A1FH0Y12VSXUMK","img_art/ins/3.jpg","0","","","","","","","","","","","","","","","","","","","","","","","","",""
"null","","html-keyboard-response","40","623181","0.0-40.0","A1FH0Y12VSXUMK","<p style=""font-size: 48px;"">+</p>","","","","","null","allTrialResponses","1000","1","0","img_art/ins/3.jpg","-16","It just seems a little annoying.","Mike,Sam,Ron,Carl,John,Jack","enjoy the different shades of blue,22,200,20","I can feel a rainy day from this painting,18,240,20","It looks depressing,-26,220,20","It's an alright work,15,80,20","I like the overlapping of brushes,41,160,20","I feel connected to the artist,40,120,20","John","I like the overlapping of brushes,41,160,20","Sam","I can feel a rainy day from this painting,18,240,20","Mike","enjoy the different shades of blue,22,200,20","0"
"10288","","image-button-response_instructions","41","633478","0.0-41.0","A1FH0Y12VSXUMK","","0","instructions","","","","","","","","","","","","","","","","","","","","","","","",""
"29959","","survey-likert","42","663441","0.0-42.0-0.0","A1FH0Y12VSXUMK","","","","{""Q0"":"""",""Q1"":0,""Q2"":0}","","","","","","","","","","","","","","","","","","","","","","",""
"6930","","survey-likert","43","674470","0.0-42.1-0.1","A1FH0Y12VSXUMK","","","","{""Q0"":"""",""Q1"":0,""Q2"":1}","","","","","","","","","","","","","","","","","","","","","","",""
"12831","","survey-text","44","687314","0.0-43.0-0.0","A1FH0Y12VSXUMK","","","","{""Q0"":""rock""}","","","","","","","","","","","","","","","","","","","","","","",""
"42083","","survey-text","45","729401","0.0-44.0-0.0","A1FH0Y12VSXUMK","","","","{""Q0"":""It’s a little too dark for me.""}","","","","","","","","","","","","","","","","","","","","","","",""
"6204","","image-slider-response","46","735609","0.0-45.0","A1FH0Y12VSXUMK","","","","","-17","","","","","","","","","","","","","","","","","","","","","",""
"null","","image-button-response","47","740662","0.0-46.0","A1FH0Y12VSXUMK","img_art/29.jpg","null","","","","","","","","","","","","","","","","","","","","","","","","",""
"11318","","image-button-response","48","751983","0.0-47.0","A1FH0Y12VSXUMK","img_art/29.jpg","0","","","","","","","","","","","","","","","","","","","","","","","","",""
"27454","","image-button-response","49","779440","0.0-48.0-0.0","A1FH0Y12VSXUMK","img_art/29.jpg","4","","","","","","","","","","","","","","","","","","","","","","","","",""
"2744","","image-button-response","50","782189","0.0-49.0-0.0","A1FH0Y12VSXUMK","img_art/29.jpg","0","","","","","","","","","","","","","","","","","","","","","","","","",""
"3984","","image-button-response","51","796891","0.0-49.1-0.1","A1FH0Y12VSXUMK","img_art/29.jpg","3","","","","","","","","","","","","","","","","","","","","","","","","",""
"null","","html-keyboard-response","52","797899","0.0-50.0","A1FH0Y12VSXUMK","<p style=""font-size: 48px;"">+</p>","","","","","null","allTrialResponses","1000","1","1","img_art/29.jpg","-17","It’s a little too dark for me.","Bradley,Carlos,Evan,Alejandro,Nathan,Bryce","It's creative. It's just not my thing.,-32,300,20","It feels like looking through layers of frustration.,19,80,20","It makes me feel as though the artist put in a lot of time and effort and then gave up,10,140,20","Reminiscent of Jackson Pollock with a hint of abstract structure with the bordering.,32,80,20","Quite ugly in my opinion,-30,200,20","Its kinda scary,-35,20,20","Bradley","It's creative. It's just not my thing.,-32,300,20","Nathan","Quite ugly in my opinion,-30,200,20","Alejandro","Reminiscent of Jackson Pollock with a hint of abstract structure with the bordering.,32,80,20","3"
"26650","","survey-text","53","824567","0.0-51.0-0.0","A1FH0Y12VSXUMK","","","","{""Q0"":""I like the shades of color.""}","","","","","","","","","","","","","","","","","","","","","","",""
"5710.000000000116","","image-slider-response","54","830280","0.0-52.0","A1FH0Y12VSXUMK","","","","","22","","","","","","","","","","","","","","","","","","","","","",""
"null","","image-button-response","55","835287","0.0-53.0","A1FH0Y12VSXUMK","img_art/1.jpg","null","","","","","","","","","","","","","","","","","","","","","","","","",""
"16646","","image-button-response","56","851938","0.0-54.0","A1FH0Y12VSXUMK","img_art/1.jpg","5","","","","","","","","","","","","","","","","","","","","","","","","",""
"8423","","image-button-response","57","860365","0.0-55.0-0.0","A1FH0Y12VSXUMK","img_art/1.jpg","0","","","","","","","","","","","","","","","","","","","","","","","","",""
"45400","","image-button-response","58","905770","0.0-56.0-0.0","A1FH0Y12VSXUMK","img_art/1.jpg","1","","","","","","","","","","","","","","","","","","","","","","","","",""
"null","","html-keyboard-response","59","907274","0.0-57.0","A1FH0Y12VSXUMK","<p style=""font-size: 48px;"">+</p>","","","","","null","allTrialResponses","1500","1","2","img_art/1.jpg","22","I like the shades of color.","Bradley,Luke,Mason,Alejandro,Nathan,James","This is a great piece that has a lot more going on the longer you look at it. I like it!,30,300,20","it is very colorful and makes me happy,44,20,20","just colors mixed together. not interesting.,5,100,20","Interesting color scheme but to bled to me,11,80,20","Not a fan of the mood, overly party-ish and bright colors do not suit my taste,-40,200,20","It's very colorful, and I like it,11,380,20","James","It's very colorful, and I like it,11,380,20","Bradley","This is a great piece that has a lot more going on the longer you look at it. I like it!,30,300,20","Luke","it is very colorful and makes me happy,44,20,20","3"
"29851","","survey-text","60","937146","0.0-58.0-0.0","A1FH0Y12VSXUMK","","","","{""Q0"":""It’s mysterious.""}","","","","","","","","","","","","","","","","","","","","","","",""
"8136","","image-slider-response","61","945286","0.0-59.0","A1FH0Y12VSXUMK","","","","","30","","","","","","","","","","","","","","","","","","","","","",""
"null","","image-button-response","62","950291","0.0-60.0","A1FH0Y12VSXUMK","img_art/17.jpg","null","","","","","","","","","","","","","","","","","","","","","","","","",""
"11877","","image-button-response","63","962172","0.0-61.0","A1FH0Y12VSXUMK","img_art/17.jpg","2","","","","","","","","","","","","","","","","","","","","","","","","",""
"6226","","image-button-response","64","968400","0.0-62.0-0.0","A1FH0Y12VSXUMK","img_art/17.jpg","0","","","","","","","","","","","","","","","","","","","","","","","","",""
"17713","","image-button-response","65","986117","0.0-63.0-0.0","A1FH0Y12VSXUMK","img_art/17.jpg","5","","","","","","","","","","","","","","","","","","","","","","","","",""
"null","","html-keyboard-response","66","987620","0.0-64.0","A1FH0Y12VSXUMK","<p style=""font-size: 48px;"">+</p>","","","","","null","allTrialResponses","1500","1","3","img_art/17.jpg","30","It’s mysterious.","Bradley,Luke,Mitchell,Shawn,Isaac,James","It kind of pulls you in to float away with it.,9,300,20","it looks very intricate and colorful,50,20,20","Nature coming to the inside of your space that you are locked into.,50,180,20","Pretty but a little cheesy,-10,100,20","The colors are soft.,32,280,20","It's nice and realistic looking.,12,380,20","Mitchell","Nature coming to the inside of your space that you are locked into.,50,180,20","Bradley","It kind of pulls you in to float away with it.,9,300,20","James","It's nice and realistic looking.,12,380,20","3"
"31677","","survey-text","67","1019316","0.0-65.0-0.0","A1FH0Y12VSXUMK","","","","{""Q0"":""Very busy but interesting.""}","","","","","","","","","","","","","","","","","","","","","","",""
"8378","","image-slider-response","68","1027698","0.0-66.0","A1FH0Y12VSXUMK","","","","","20","","","","","","","","","","","","","","","","","","","","","",""
"null","","image-button-response","69","1032704","0.0-67.0","A1FH0Y12VSXUMK","img_art/12.jpg","null","","","","","","","","","","","","","","","","","","","","","","","","",""
"18394","","image-button-response","70","1051103","0.0-68.0","A1FH0Y12VSXUMK","img_art/12.jpg","2","","","","","","","","","","","","","","","","","","","","","","","","",""
"14619","","image-button-response","71","1065727","0.0-69.0-0.0","A1FH0Y12VSXUMK","img_art/12.jpg","4","","","","","","","","","","","","","","","","","","","","","","","","",""
"14027","","image-button-response","72","1079761","0.0-70.0-0.0","A1FH0Y12VSXUMK","img_art/12.jpg","0","","","","","","","","","","","","","","","","","","","","","","","","",""
"null","","html-keyboard-response","73","1080764","0.0-71.0","A1FH0Y12VSXUMK","<p style=""font-size: 48px;"">+</p>","","","","","null","allTrialResponses","1000","1","4","img_art/12.jpg","20","Very busy but interesting.","Bradley,Joshua,Mitchell,Garrett,Zachary,James","Good technique. It's just not my thing.,2,300,20","I don't get this one. Doesn't evoke an emotional response.,-10,240,20","confused. stages of a persons life from beginning positive to ending negative.,-10,180,20","This image doesn't have anything going on. The top half is really ugly, I kind of like the bottom a little.,-20,180,20","I like how it's split into tiny squares, but otherwise, not very intriguing.,-18,400,20","Don't like it or despise it,1,380,20","Mitchell","confused. stages of a persons life from beginning positive to ending negative.,-10,180,20","Zachary","I like how it's split into tiny squares, but otherwise, not very intriguing.,-18,400,20","Bradley","Good technique. It's just not my thing.,2,300,20","3"
"43613","","survey-text","74","1124396","0.0-72.0-0.0","A1FH0Y12VSXUMK","","","","{""Q0"":""It’s quite ethereal I think.""}","","","","","","","","","","","","","","","","","","","","","","",""
"5561","","image-slider-response","75","1129959","0.0-73.0","A1FH0Y12VSXUMK","","","","","36","","","","","","","","","","","","","","","","","","","","","",""
"null","","image-button-response","76","1134966","0.0-74.0","A1FH0Y12VSXUMK","img_art/21.jpg","null","","","","","","","","","","","","","","","","","","","","","","","","",""
"5010","","image-button-response","77","1139979","0.0-75.0","A1FH0Y12VSXUMK","img_art/21.jpg","4","","","","","","","","","","","","","","","","","","","","","","","","",""
"9893","","image-button-response","78","1149877","0.0-76.0-0.0","A1FH0Y12VSXUMK","img_art/21.jpg","5","","","","","","","","","","","","","","","","","","","","","","","","",""
"11190","","image-button-response","79","1161071","0.0-77.0-0.0","A1FH0Y12VSXUMK","img_art/21.jpg","2","","","","","","","","","","","","","","","","","","","","","","","","",""
"null","","html-keyboard-response","80","1162078","0.0-78.0","A1FH0Y12VSXUMK","<p style=""font-size: 48px;"">+</p>","","","","","null","allTrialResponses","1000","1","5","img_art/21.jpg","36","It’s quite ethereal I think.","Bradley,Jeremy,Mitchell,Andrew,Zachary,Edward","Indifferent toward this one.,6,300,20","the picture is boring,1,60,20","Nature, water, ever changing. Cold then warm. Reaction is mostly positive and some negative,30,180,20","I love the contrasting tones between the two sides,36,160,20","Looks like a body of water during a sunset. I like this piece.,21,400,20","I love how vague it is but how you can imagine a story anyway, like clouds,45,60,20","Zachary","Looks like a body of water during a sunset. I like this piece.,21,400,20","Edward","I love how vague it is but how you can imagine a story anyway, like clouds,45,60,20","Mitchell","Nature, water, ever changing. Cold then warm. Reaction is mostly positive and some negative,30,180,20","3"
"6928","","survey-text","81","1169042","0.0-79.0-0.0","A1FH0Y12VSXUMK","","","","{""Q0"":""sky""}","","","","","","","","","","","","","","","","","","","","","","",""
"34372","","survey-text","82","1203417","0.0-80.0-0.0","A1FH0Y12VSXUMK","","","","{""Q0"":""It’s dark and somewhat ugly.""}","","","","","","","","","","","","","","","","","","","","","","",""
"10286","","image-slider-response","83","1213706","0.0-81.0","A1FH0Y12VSXUMK","","","","","-19","","","","","","","","","","","","","","","","","","","","","",""
"null","","image-button-response","84","1218715","0.0-82.0","A1FH0Y12VSXUMK","img_art/10.jpg","null","","","","","","","","","","","","","","","","","","","","","","","","",""
"5616","","image-button-response","85","1224334","0.0-83.0","A1FH0Y12VSXUMK","img_art/10.jpg","1","","","","","","","","","","","","","","","","","","","","","","","","",""
"22044","","image-button-response","86","1246381","0.0-84.0-0.0","A1FH0Y12VSXUMK","img_art/10.jpg","3","","","","","","","","","","","","","","","","","","","","","","","","",""
"9715","","image-button-response","87","1256104","0.0-85.0-0.0","A1FH0Y12VSXUMK","img_art/10.jpg","2","","","","","","","","","","","","","","","","","","","","","","","","",""
"null","","html-keyboard-response","88","1256609","0.0-86.0","A1FH0Y12VSXUMK","<p style=""font-size: 48px;"">+</p>","","","","","null","allTrialResponses","500","1","6","img_art/10.jpg","-19","It’s dark and somewhat ugly.","Brian,Patrick,Mitchell,Chase,Zachary,Edward","this is a good painting, but feels musical in a way that I don't connect with.,-14,380,20","I don't like the colors,-20,280,20","Circle of life, with highs and lows, good and bad. You always weather the storm and come out on top.,40,180,20","Seems more harmonic with the strokes and colors.,31,120,20","Reminds me of a terrarium with cacti inside. It reminds me of home.,27,400,20","It looks like it's sinking but it could also be a view from above,40,60,20","Patrick","I don't like the colors,-20,280,20","Chase","Seems more harmonic with the strokes and colors.,31,120,20","Mitchell","Circle of life, with highs and lows, good and bad. You always weather the storm and come out on top.,40,180,20","3"
"38007","","survey-text","89","1294641","0.0-87.0-0.0","A1FH0Y12VSXUMK","","","","{""Q0"":""This is just a bunch of scribble.""}","","","","","","","","","","","","","","","","","","","","","","",""
"7107","","image-slider-response","90","1301752","0.0-88.0","A1FH0Y12VSXUMK","","","","","-36","","","","","","","","","","","","","","","","","","","","","",""
"null","","image-button-response","91","1306757","0.0-89.0","A1FH0Y12VSXUMK","img_art/3.jpg","null","","","","","","","","","","","","","","","","","","","","","","","","",""
"6651","","image-button-response","92","1313427","0.0-90.0","A1FH0Y12VSXUMK","img_art/3.jpg","2","","","","","","","","","","","","","","","","","","","","","","","","",""
"13233","","image-button-response","93","1326663","0.0-91.0-0.0","A1FH0Y12VSXUMK","img_art/3.jpg","5","","","","","","","","","","","","","","","","","","","","","","","","",""
"12217","","image-button-response","94","1338884","0.0-92.0-0.0","A1FH0Y12VSXUMK","img_art/3.jpg","4","","","","","","","","","","","","","","","","","","","","","","","","",""
"null","","html-keyboard-response","95","1340389","0.0-93.0","A1FH0Y12VSXUMK","<p style=""font-size: 48px;"">+</p>","","","","","null","allTrialResponses","1500","1","7","img_art/3.jpg","-36","This is just a bunch of scribble.","Cole,Patrick,Mitchell,Chase,Marcus,Lucas","Sharp peaks look like sharp teeth,-37,200,20","Random use of red and looks scary,-50,280,20","Anger, like something a serial killer may paint.,-30,180,20","Looks like a bloody head with teeth.,-16,120,20","Like the colors and energy of this work.,10,60,20","Mysterious, remarkable.,30,380,20","Mitchell","Anger, like something a serial killer may paint.,-30,180,20","Lucas","Mysterious, remarkable.,30,380,20","Marcus","Like the colors and energy of this work.,10,60,20","3"
"24470","","survey-text","96","1364885","0.0-94.0-0.0","A1FH0Y12VSXUMK","","","","{""Q0"":""I like the brushwork.""}","","","","","","","","","","","","","","","","","","","","","","",""
"7830.999999999767","","image-slider-response","97","1372719","0.0-95.0","A1FH0Y12VSXUMK","","","","","35","","","","","","","","","","","","","","","","","","","","","",""
"null","","image-button-response","98","1377725","0.0-96.0","A1FH0Y12VSXUMK","img_art/30.jpg","null","","","","","","","","","","","","","","","","","","","","","","","","",""
"2875","","image-button-response","99","1380605","0.0-97.0","A1FH0Y12VSXUMK","img_art/30.jpg","2","","","","","","","","","","","","","","","","","","","","","","","","",""
"5709","","image-button-response","100","1386320","0.0-98.0-0.0","A1FH0Y12VSXUMK","img_art/30.jpg","5","","","","","","","","","","","","","","","","","","","","","","","","",""
"10999","","image-button-response","101","1397323","0.0-99.0-0.0","A1FH0Y12VSXUMK","img_art/30.jpg","1","","","","","","","","","","","","","","","","","","","","","","","","",""
"null","","html-keyboard-response","102","1398327","0.0-100.0","A1FH0Y12VSXUMK","<p style=""font-size: 48px;"">+</p>","","","","","null","allTrialResponses","1000","1","8","img_art/30.jpg","35","I like the brushwork.","Blake,Travis,Mitchell,Seth,Marcus,Lucas","snakes in the grass, I don't like it,-17,280,20","I didn't like this...it looks like someone just finger painted it.,-10,260,20","connection, Everything is connected even in contrast.,42,180,20","I love the color contrast of the red against the blue.,9,60,20","Really don't like this piece. It feels very lazy to me.,-31,60,20","I like the way the artist has painted his work.,40,380,20","Mitchell","connection, Everything is connected even in contrast.,42,180,20","Lucas","I like the way the artist has painted his work.,40,380,20","Travis","I didn't like this...it looks like someone just finger painted it.,-10,260,20","3"
"26836","","survey-text","103","1425172","0.0-101.0-0.0","A1FH0Y12VSXUMK","","","","{""Q0"":""I think that it’s dark and ugly.""}","","","","","","","","","","","","","","","","","","","","","","",""
"6734.999999999767","","image-slider-response","104","1431911","0.0-102.0","A1FH0Y12VSXUMK","","","","","-23","","","","","","","","","","","","","","","","","","","","","",""
"null","","image-button-response","105","1436917","0.0-103.0","A1FH0Y12VSXUMK","img_art/28.jpg","null","","","","","","","","","","","","","","","","","","","","","","","","",""
"3054","","image-button-response","106","1439975","0.0-104.0","A1FH0Y12VSXUMK","img_art/28.jpg","5","","","","","","","","","","","","","","","","","","","","","","","","",""
"12242","","image-button-response","107","1452219","0.0-105.0-0.0","A1FH0Y12VSXUMK","img_art/28.jpg","1","","","","","","","","","","","","","","","","","","","","","","","","",""
"14715","","image-button-response","108","1466937","0.0-106.0-0.0","A1FH0Y12VSXUMK","img_art/28.jpg","3","","","","","","","","","","","","","","","","","","","","","","","","",""
"null","","html-keyboard-response","109","1467942","0.0-107.0","A1FH0Y12VSXUMK","<p style=""font-size: 48px;"">+</p>","","","","","null","allTrialResponses","1000","1","9","img_art/28.jpg","-23","I think that it’s dark and ugly.","Connor,Travis,Mitchell,Jonathan,Caleb,Lucas","Dislike color palette and amoeba,-9,240,20","Hate it...brown and drab,-37,260,20","A mom protecting her child because something scary, (perhaps imaginary) wants to take the child.,-10,180,20","The lack of color variance leaves it looking ugly even if I like the brush strokes,-10,140,20","White and dark balance is way off- Seems dull.,-33,40,20","This painting is mysterious, it makes me curious.,5,380,20","Lucas","This painting is mysterious, it makes me curious.,5,380,20","Travis","Hate it...brown and drab,-37,260,20","Jonathan","The lack of color variance leaves it looking ugly even if I like the brush strokes,-10,140,20","3"
"86214","","survey-text","110","1554176","0.0-108.0-0.0","A1FH0Y12VSXUMK","","","","{""Q0"":""It looks like a representation of reality.""}","","","","","","","","","","","","","","","","","","","","","","",""
"6102","","image-slider-response","111","1560298","0.0-109.0","A1FH0Y12VSXUMK","","","","","36","","","","","","","","","","","","","","","","","","","","","",""
"null","","image-button-response","112","1565304","0.0-110.0","A1FH0Y12VSXUMK","img_art/7.jpg","null","","","","","","","","","","","","","","","","","","","","","","","","",""
"1450","","image-button-response","113","1566759","0.0-111.0","A1FH0Y12VSXUMK","img_art/7.jpg","1","","","","","","","","","","","","","","","","","","","","","","","","",""
"7714","","image-button-response","114","1574477","0.0-112.0-0.0","A1FH0Y12VSXUMK","img_art/7.jpg","4","","","","","","","","","","","","","","","","","","","","","","","","",""
"4389","","image-button-response","115","1578870","0.0-113.0-0.0","A1FH0Y12VSXUMK","img_art/7.jpg","3","","","","","","","","","","","","","","","","","","","","","","","","",""
"null","","html-keyboard-response","116","1579374","0.0-114.0","A1FH0Y12VSXUMK","<p style=""font-size: 48px;"">+</p>","","","","","null","allTrialResponses","500","1","10","img_art/7.jpg","36","It looks like a representation of reality.","Brett,Travis,Peter,Jonathan,Corey,Lucas","No particular reaction to this,10,360,20","Just neutral...looks like sand at the beach.,3,260,20","It's just like sand from the beach,2,320,20","Looks like the surface of mars,29,140,20","looks like a close up of irritated skin under a microscope,-49,260,20","Don't understand the meaning of this picture.,-30,380,20","Travis","Just neutral...looks like sand at the beach.,3,260,20","Corey","looks like a close up of irritated skin under a microscope,-49,260,20","Jonathan","Looks like the surface of mars,29,140,20","3"
"9761","","survey-text","117","1589163","0.0-115.0-0.0","A1FH0Y12VSXUMK","","","","{""Q0"":""our""}","","","","","","","","","","","","","","","","","","","","","","",""
"37674","","survey-text","118","1626839","0.0-116.0-0.0","A1FH0Y12VSXUMK","","","","{""Q0"":""I like the play of color.""}","","","","","","","","","","","","","","","","","","","","","","",""
"7941","","image-slider-response","119","1634784","0.0-117.0","A1FH0Y12VSXUMK","","","","","27","","","","","","","","","","","","","","","","","","","","","",""
"null","","image-button-response","120","1639790","0.0-118.0","A1FH0Y12VSXUMK","img_art/2.jpg","null","","","","","","","","","","","","","","","","","","","","","","","","",""
"9924","","image-button-response","121","1649718","0.0-119.0","A1FH0Y12VSXUMK","img_art/2.jpg","3","","","","","","","","","","","","","","","","","","","","","","","","",""
"8032","","image-button-response","122","1657753","0.0-120.0-0.0","A1FH0Y12VSXUMK","img_art/2.jpg","5","","","","","","","","","","","","","","","","","","","","","","","","",""
"16772","","image-button-response","123","1674533","0.0-121.0-0.0","A1FH0Y12VSXUMK","img_art/2.jpg","1","","","","","","","","","","","","","","","","","","","","","","","","",""
"null","","html-keyboard-response","124","1676037","0.0-122.0","A1FH0Y12VSXUMK","<p style=""font-size: 48px;"">+</p>","","","","","null","allTrialResponses","1500","1","11","img_art/2.jpg","27","I like the play of color.","Jorge,Travis,Jake,Jonathan,Corey,Tristan","Confused and disoriented,-33,180,20","I didn't like this it looked like a kindergardner painted it and the green was out of place.,-46,260,20","These colors are ugly.,-40,360,20","It's a cool piece but honestly these color choices are the worst thing in the world,-31,140,20","doesn't do anything for me,-7,260,20","The color palette of this painting is for me displeasing and immature.,-30,300,20","Jonathan","It's a cool piece but honestly these color choices are the worst thing in the world,-31,140,20","Tristan","The color palette of this painting is for me displeasing and immature.,-30,300,20","Travis","I didn't like this it looked like a kindergardner painted it and the green was out of place.,-46,260,20","3"
"40136","","survey-text","125","1716194","0.0-123.0-0.0","A1FH0Y12VSXUMK","","","","{""Q0"":""I like the tonal shades.""}","","","","","","","","","","","","","","","","","","","","","","",""
"7428.000000000233","","image-slider-response","126","1723624","0.0-124.0","A1FH0Y12VSXUMK","","","","","28","","","","","","","","","","","","","","","","","","","","","",""
"4187","","image-button-response","127","1728629","0.0-125.0","A1FH0Y12VSXUMK","img_art/8.jpg","1","","","","","","","","","","","","","","","","","","","","","","","","",""
"9719","","image-button-response","128","1738350","0.0-126.0","A1FH0Y12VSXUMK","img_art/8.jpg","3","","","","","","","","","","","","","","","","","","","","","","","","",""
"8966","","image-button-response","129","1747319","0.0-127.0-0.0","A1FH0Y12VSXUMK","img_art/8.jpg","5","","","","","","","","","","","","","","","","","","","","","","","","",""
"34350","","image-button-response","130","1781672","0.0-128.0-0.0","A1FH0Y12VSXUMK","img_art/8.jpg","1","","","","","","","","","","","","","","","","","","","","","","","","",""
"null","","html-keyboard-response","131","1782678","0.0-129.0","A1FH0Y12VSXUMK","<p style=""font-size: 48px;"">+</p>","","","","","null","allTrialResponses","1000","1","12","img_art/8.jpg","28","I like the tonal shades.","Dakota,Travis,Dustin,Jonathan,Robert,Tristan","chaotic and disassembled,-8,280,20","I like the colors and the scene.,24,260,20","I like the colors. But I don't like the faces, they look distraught. Faces and sharp shapes make me anxious,1,20,20","It's very grand and ominous but I like it,25,140,20","I like the colors and geometrical shapes but the face in the sky makes it look scary,-10,360,20","The definition and the colors give make this painting accessible and thought provoking.,30,300,20","Jonathan","It's very grand and ominous but I like it,25,140,20","Tristan","The definition and the colors give make this painting accessible and thought provoking.,30,300,20","Travis","I like the colors and the scene.,24,260,20","3"
"35634","","survey-text","132","1818332","0.0-130.0-0.0","A1FH0Y12VSXUMK","","","","{""Q0"":""It’s just alright.""}","","","","","","","","","","","","","","","","","","","","","","",""
"9915.000000000233","","image-slider-response","133","1828249","0.0-131.0","A1FH0Y12VSXUMK","","","","","8","","","","","","","","","","","","","","","","","","","","","",""
"null","","image-button-response","134","1833254","0.0-132.0","A1FH0Y12VSXUMK","img_art/16.jpg","null","","","","","","","","","","","","","","","","","","","","","","","","",""
"6019","","image-button-response","135","1839277","0.0-133.0","A1FH0Y12VSXUMK","img_art/16.jpg","5","","","","","","","","","","","","","","","","","","","","","","","","",""
"12180","","image-button-response","136","1851461","0.0-134.0-0.0","A1FH0Y12VSXUMK","img_art/16.jpg","3","","","","","","","","","","","","","","","","","","","","","","","","",""
"5578","","image-button-response","137","1857042","0.0-135.0-0.0","A1FH0Y12VSXUMK","img_art/16.jpg","0","","","","","","","","","","","","","","","","","","","","","","","","",""
"null","","html-keyboard-response","138","1858047","0.0-136.0","A1FH0Y12VSXUMK","<p style=""font-size: 48px;"">+</p>","","","","","null","allTrialResponses","1000","1","13","img_art/16.jpg","8","It’s just alright.","Joseph,Travis,Jordan,Jonathan,Cameron,Tristan","Looks upsetting. Like it's actually graphic violence but you can't tell.,-24,220,20","I like the teddy bear,but a neutral feeling,5,260,20","The bear makes me very uncomfortable,-50,160,20","It's a little anxiety inducing in a good way,16,140,20","Don't like teddy bears in art. I could draw that house.,-20,60,20","visceral and a little disturbing.,10,300,20","Tristan","visceral and a little disturbing.,10,300,20","Jonathan","It's a little anxiety inducing in a good way,16,140,20","Joseph","Looks upsetting. Like it's actually graphic violence but you can't tell.,-24,220,20","3"
"37825","","survey-text","139","1895893","0.0-137.0-0.0","A1FH0Y12VSXUMK","","","","{""Q0"":""Quite thought provoking.""}","","","","","","","","","","","","","","","","","","","","","","",""
"7001","","image-slider-response","140","1902901","0.0-138.0","A1FH0Y12VSXUMK","","","","","19","","","","","","","","","","","","","","","","","","","","","",""
"null","","image-button-response","141","1907907","0.0-139.0","A1FH0Y12VSXUMK","img_art/23.jpg","null","","","","","","","","","","","","","","","","","","","","","","","","",""
"3079","","image-button-response","142","1910992","0.0-140.0","A1FH0Y12VSXUMK","img_art/23.jpg","0","","","","","","","","","","","","","","","","","","","","","","","","",""
"15145","","image-button-response","143","1926140","0.0-141.0-0.0","A1FH0Y12VSXUMK","img_art/23.jpg","3","","","","","","","","","","","","","","","","","","","","","","","","",""
"3836","","image-button-response","144","1929983","0.0-142.0-0.0","A1FH0Y12VSXUMK","img_art/23.jpg","4","","","","","","","","","","","","","","","","","","","","","","","","",""
"null","","html-keyboard-response","145","1931490","0.0-143.0","A1FH0Y12VSXUMK","<p style=""font-size: 48px;"">+</p>","","","","","null","allTrialResponses","1500","1","14","img_art/23.jpg","19","Quite thought provoking.","Joseph,Alexander,Anthony,Jonathan,Justin,Tristan","Like a wound that has been sutured. Pain, but also healing.,5,220,20","Unicorns flying through a colorful space.,25,120,20","The cluster of white silhouettes against the colorful background makes me feel uneasy for some reason,-36,200,20","Those colors are awesome! And I love the strip of negative space that almost looks like a line of people,50,140,20","The white paint through the middle really draws the eye.,30,280,20","So exciting and full of the night.,20,300,20","Joseph","Like a wound that has been sutured. Pain, but also healing.,5,220,20","Jonathan","Those colors are awesome! And I love the strip of negative space that almost looks like a line of people,50,140,20","Justin","The white paint through the middle really draws the eye.,30,280,20","3"
"27831","","survey-text","146","1959349","0.0-144.0-0.0","A1FH0Y12VSXUMK","","","","{""Q0"":""It’s oddly appealing.""}","","","","","","","","","","","","","","","","","","","","","","",""
"4406.999999999767","","image-slider-response","147","1963760","0.0-145.0","A1FH0Y12VSXUMK","","","","","22","","","","","","","","","","","","","","","","","","","","","",""
"null","","image-button-response","148","1968767","0.0-146.0","A1FH0Y12VSXUMK","img_art/15.jpg","null","","","","","","","","","","","","","","","","","","","","","","","","",""
"9808","","image-button-response","149","1978577","0.0-147.0","A1FH0Y12VSXUMK","img_art/15.jpg","2","","","","","","","","","","","","","","","","","","","","","","","","",""
"7294","","image-button-response","150","1985874","0.0-148.0-0.0","A1FH0Y12VSXUMK","img_art/15.jpg","0","","","","","","","","","","","","","","","","","","","","","","","","",""
"22408","","image-button-response","151","2008285","0.0-149.0-0.0","A1FH0Y12VSXUMK","img_art/15.jpg","3","","","","","","","","","","","","","","","","","","","","","","","","",""
"null","","html-keyboard-response","152","2009790","0.0-150.0","A1FH0Y12VSXUMK","<p style=""font-size: 48px;"">+</p>","","","","","null","allTrialResponses","1500","1","15","img_art/15.jpg","22","It’s oddly appealing.","Joseph,Tyler,Benjamin,Jonathan,Justin,Elijah","Bushes, good! Life, good!,12,220,20","I am starting to feel description fatigue. This would be pleasant enough in a doctor's office waiting room.,15,320,20","Reminds me of blueberry bushes.,7,260,20","Very cool, i want it in my living room,50,140,20","Color scheme and design are rather boring.,-10,280,20","Makes me feel weird,-16,80,20","Benjamin","Reminds me of blueberry bushes.,7,260,20","Joseph","Bushes, good! Life, good!,12,220,20","Jonathan","Very cool, i want it in my living room,50,140,20","3"
"14298","","survey-text","153","2024125","0.0-151.0-0.0","A1FH0Y12VSXUMK","","","","{""Q0"":""course""}","","","","","","","","","","","","","","","","","","","","","","",""
"45829","","survey-text","154","2069956","0.0-152.0-0.0","A1FH0Y12VSXUMK","","","","{""Q0"":""It’s kind of dark but I think I like it.""}","","","","","","","","","","","","","","","","","","","","","","",""
"5118.999999999767","","image-slider-response","155","2075082","0.0-153.0","A1FH0Y12VSXUMK","","","","","8","","","","","","","","","","","","","","","","","","","","","",""
"null","","image-button-response","156","2080090","0.0-154.0","A1FH0Y12VSXUMK","img_art/18.jpg","null","","","","","","","","","","","","","","","","","","","","","","","","",""
"9937","","image-button-response","157","2090031","0.0-155.0","A1FH0Y12VSXUMK","img_art/18.jpg","1","","","","","","","","","","","","","","","","","","","","","","","","",""
"7843","","image-button-response","158","2097878","0.0-156.0-0.0","A1FH0Y12VSXUMK","img_art/18.jpg","3","","","","","","","","","","","","","","","","","","","","","","","","",""
"7695","","image-button-response","159","2105578","0.0-157.0-0.0","A1FH0Y12VSXUMK","img_art/18.jpg","5","","","","","","","","","","","","","","","","","","","","","","","","",""
"null","","html-keyboard-response","160","2106583","0.0-158.0","A1FH0Y12VSXUMK","<p style=""font-size: 48px;"">+</p>","","","","","null","allTrialResponses","1000","1","16","img_art/18.jpg","8","It’s kind of dark but I think I like it.","Joseph,Angel,Benjamin,Jonathan,Gregory,Spencer","It's like a ship, but a freaky ship.,-11,220,20","Like riding into battle. A sense of confidence, but also trepidation for what's coming. Could be a personification of death.,-10,180,20","ugly and lots of movement,-6,260,20","There's danger in this painting and it's awesome,40,140,20","Mash up of colors and don't see a grander picture,-10,220,20","I really like it, like hells drivers,43,120,20","Angel","Like riding into battle. A sense of confidence, but also trepidation for what's coming. Could be a personification of death.,-10,180,20","Jonathan","There's danger in this painting and it's awesome,40,140,20","Spencer","I really like it, like hells drivers,43,120,20","3"
"35805","","survey-text","161","2142418","0.0-159.0-0.0","A1FH0Y12VSXUMK","","","","{""Q0"":""Vaguely oriental.""}","","","","","","","","","","","","","","","","","","","","","","",""
"5173","","image-slider-response","162","2147604","0.0-160.0","A1FH0Y12VSXUMK","","","","","31","","","","","","","","","","","","","","","","","","","","","",""
"null","","image-button-response","163","2152609","0.0-161.0","A1FH0Y12VSXUMK","img_art/14.jpg","null","","","","","","","","","","","","","","","","","","","","","","","","",""
"1957","","image-button-response","164","2154570","0.0-162.0","A1FH0Y12VSXUMK","img_art/14.jpg","2","","","","","","","","","","","","","","","","","","","","","","","","",""
"8910","","image-button-response","165","2163484","0.0-163.0-0.0","A1FH0Y12VSXUMK","img_art/14.jpg","4","","","","","","","","","","","","","","","","","","","","","","","","",""
"1709","","image-button-response","166","2165201","0.0-164.0-0.0","A1FH0Y12VSXUMK","img_art/14.jpg","5","","","","","","","","","","","","","","","","","","","","","","","","",""
"null","","html-keyboard-response","167","2166208","0.0-165.0","A1FH0Y12VSXUMK","<p style=""font-size: 48px;"">+</p>","","","","","null","allTrialResponses","1000","1","17","img_art/14.jpg","31","Vaguely oriental.","Kyle,Angel,Ethan,Jonathan,Luis,Spencer","The colors are nice and it reminds me of a shrub or tree,10,340,20","This reminds me of a tree but the tree is sickly, and poorly cared for.,-10,180,20","I like the layers of color in this piece. The circles and lines are interesting.,29,120,20","This reminds me of the Lion King somehow! Feels inspiring,30,140,20","Love the assortment of colors and flowers, expressing gentle and caring,50,400,20","I like the simplicity along with the colors,27,120,20","Ethan","I like the layers of color in this piece. The circles and lines are interesting.,29,120,20","Luis","Love the assortment of colors and flowers, expressing gentle and caring,50,400,20","Spencer","I like the simplicity along with the colors,27,120,20","3"
"39678","","survey-text","168","2205912","0.0-166.0-0.0","A1FH0Y12VSXUMK","","","","{""Q0"":""This one feel vaguely Scandinavian.""}","","","","","","","","","","","","","","","","","","","","","","",""
"6352","","image-slider-response","169","2212271","0.0-167.0","A1FH0Y12VSXUMK","","","","","37","","","","","","","","","","","","","","","","","","","","","",""
"null","","image-button-response","170","2217276","0.0-168.0","A1FH0Y12VSXUMK","img_art/20.jpg","null","","","","","","","","","","","","","","","","","","","","","","","","",""
"5752","","image-button-response","171","2223031","0.0-169.0","A1FH0Y12VSXUMK","img_art/20.jpg","1","","","","","","","","","","","","","","","","","","","","","","","","",""
"9182","","image-button-response","172","2232217","0.0-170.0-0.0","A1FH0Y12VSXUMK","img_art/20.jpg","4","","","","","","","","","","","","","","","","","","","","","","","","",""
"12946","","image-button-response","173","2245169","0.0-171.0-0.0","A1FH0Y12VSXUMK","img_art/20.jpg","0","","","","","","","","","","","","","","","","","","","","","","","","",""
"null","","html-keyboard-response","174","2245673","0.0-172.0","A1FH0Y12VSXUMK","<p style=""font-size: 48px;"">+</p>","","","","","null","allTrialResponses","500","1","18","img_art/20.jpg","37","This one feel vaguely Scandinavian.","Ian,Jesse,Ethan,Richard,Luis,Spencer","A painting within a painting, the inner painting looks like a car crash with a semi truck.,21,260,20","I do at least like the dark colors blending,6,80,20","I can tell this artist has experience. I just don't care for the color combo.,7,120,20","The white blob on the left seems out of place,-34,340,20","I love the way it expresses dark nature and uncontrolled situations.,44,400,20","A sad past town, pollution, guess I like happier scenes,-30,120,20","Jesse","I do at least like the dark colors blending,6,80,20","Luis","I love the way it expresses dark nature and uncontrolled situations.,44,400,20","Ian","A painting within a painting, the inner painting looks like a car crash with a semi truck.,21,260,20","3"
"21498","","survey-text","175","2267191","0.0-173.0-0.0","A1FH0Y12VSXUMK","","","","{""Q0"":""Definitely a waterfall.""}","","","","","","","","","","","","","","","","","","","","","","",""
"7327","","image-slider-response","176","2274522","0.0-174.0","A1FH0Y12VSXUMK","","","","","31","","","","","","","","","","","","","","","","","","","","","",""
"4370","","image-button-response","177","2279527","0.0-175.0","A1FH0Y12VSXUMK","img_art/24.jpg","0","","","","","","","","","","","","","","","","","","","","","","","","",""
"1972","","image-button-response","178","2281503","0.0-176.0","A1FH0Y12VSXUMK","img_art/24.jpg","0","","","","","","","","","","","","","","","","","","","","","","","","",""
"10496","","image-button-response","179","2292006","0.0-177.0-0.0","A1FH0Y12VSXUMK","img_art/24.jpg","1","","","","","","","","","","","","","","","","","","","","","","","","",""
"12846","","image-button-response","180","2304856","0.0-178.0-0.0","A1FH0Y12VSXUMK","img_art/24.jpg","3","","","","","","","","","","","","","","","","","","","","","","","","",""
"null","","html-keyboard-response","181","2305362","0.0-179.0","A1FH0Y12VSXUMK","<p style=""font-size: 48px;"">+</p>","","","","","null","allTrialResponses","500","1","19","img_art/24.jpg","31","Definitely a waterfall.","Ian,Jesse,Sean,John,Luis,Shane","I find the colors work really well. It's very pretty but I have no idea as what it is.,34,260,20","Love the colors and contrast. Feels peaceful.,33,80,20","I like the waterfall,22,40,20","Beautiful.Nice use of colors and invokes feelings of serene and peace,40,120,20","Love the natural vibe,50,400,20","A peaceful day by the river,42,80,20","Ian","I find the colors work really well. It's very pretty but I have no idea as what it is.,34,260,20","Jesse","Love the colors and contrast. Feels peaceful.,33,80,20","John","Beautiful.Nice use of colors and invokes feelings of serene and peace,40,120,20","3"
"37931","","survey-text","182","2343315","0.0-180.0-0.0","A1FH0Y12VSXUMK","","","","{""Q0"":""It seems a little morbid but interesting.""}","","","","","","","","","","","","","","","","","","","","","","",""
"10366","","image-slider-response","183","2353683","0.0-181.0","A1FH0Y12VSXUMK","","","","","13","","","","","","","","","","","","","","","","","","","","","",""
"4760","","image-button-response","184","2358687","0.0-182.0","A1FH0Y12VSXUMK","img_art/25.jpg","0","","","","","","","","","","","","","","","","","","","","","","","","",""
"1532","","image-button-response","185","2360220","0.0-183.0","A1FH0Y12VSXUMK","img_art/25.jpg","0","","","","","","","","","","","","","","","","","","","","","","","","",""
"11648","","image-button-response","186","2371872","0.0-184.0-0.0","A1FH0Y12VSXUMK","img_art/25.jpg","2","","","","","","","","","","","","","","","","","","","","","","","","",""
"8020","","image-button-response","187","2379898","0.0-185.0-0.0","A1FH0Y12VSXUMK","img_art/25.jpg","4","","","","","","","","","","","","","","","","","","","","","","","","",""
"null","","html-keyboard-response","188","2380404","0.0-186.0","A1FH0Y12VSXUMK","<p style=""font-size: 48px;"">+</p>","","","","","null","allTrialResponses","500","1","20","img_art/25.jpg","13","It seems a little morbid but interesting.","Ian,Jesse,Adam,John,Jack,Grant","This looks cool but I don't really care for it. Some sort or religious figure?,16,260,20","Creates a bit of fear in me for some reason,-26,80,20","high contrast draws attention to the image, but I'm not sure what I'm seeing,-5,40,20","Dark silhouette against the murky background Illicites an ominous feeling. Don't really like it.,-20,120,20","beautiful in a primitive way,10,320,20","I feel like I'm looking at something larger than myself.,30,200,20","Ian","This looks cool but I don't really care for it. Some sort or religious figure?,16,260,20","Adam","high contrast draws attention to the image, but I'm not sure what I'm seeing,-5,40,20","Jack","beautiful in a primitive way,10,320,20","3"
"7118","","survey-text","189","2387557","0.0-187.0-0.0","A1FH0Y12VSXUMK","","","","{""Q0"":""we""}","","","","","","","","","","","","","","","","","","","","","","",""
"54832","","survey-text","190","2442392","0.0-188.0-0.0","A1FH0Y12VSXUMK","","","","{""Q0"":""It reminds me of the universe.""}","","","","","","","","","","","","","","","","","","","","","","",""
"7069","","image-slider-response","191","2449463","0.0-189.0","A1FH0Y12VSXUMK","","","","","40","","","","","","","","","","","","","","","","","","","","","",""
"null","","image-button-response","192","2454470","0.0-190.0","A1FH0Y12VSXUMK","img_art/13.jpg","null","","","","","","","","","","","","","","","","","","","","","","","","",""
"4001","","image-button-response","193","2458475","0.0-191.0","A1FH0Y12VSXUMK","img_art/13.jpg","1","","","","","","","","","","","","","","","","","","","","","","","","",""
"10111","","image-button-response","194","2468590","0.0-192.0-0.0","A1FH0Y12VSXUMK","img_art/13.jpg","4","","","","","","","","","","","","","","","","","","","","","","","","",""
"14616","","image-button-response","195","2483210","0.0-193.0-0.0","A1FH0Y12VSXUMK","img_art/13.jpg","2","","","","","","","","","","","","","","","","","","","","","","","","",""
"null","","html-keyboard-response","196","2484716","0.0-194.0","A1FH0Y12VSXUMK","<p style=""font-size: 48px;"">+</p>","","","","","null","allTrialResponses","1500","1","21","img_art/13.jpg","40","It reminds me of the universe.","Ian,Brandon,Adam,Kenneth,Jack,Devon","This looks like something that could be made off of windows paint, not a huge fan.,-30,260,20","Simple, but pleasing. The blue gradient is a favorite of mine,32,320,20","Generic mix of colors. Cool and messy.,10,40,20","I would hang this photo in my room.,21,300,20","exciting & chaotic. love the colors.,50,320,20","I like this picture. The choice of colors are good,31,400,20","Brandon","Simple, but pleasing. The blue gradient is a favorite of mine,32,320,20","Jack","exciting & chaotic. love the colors.,50,320,20","Adam","Generic mix of colors. Cool and messy.,10,40,20","3"
"48149","","survey-text","197","2532888","0.0-195.0-0.0","A1FH0Y12VSXUMK","","","","{""Q0"":""It seems like a finger painting.""}","","","","","","","","","","","","","","","","","","","","","","",""
"8373","","image-slider-response","198","2541267","0.0-196.0","A1FH0Y12VSXUMK","","","","","11","","","","","","","","","","","","","","","","","","","","","",""
"null","","image-button-response","199","2546275","0.0-197.0","A1FH0Y12VSXUMK","img_art/4.jpg","null","","","","","","","","","","","","","","","","","","","","","","","","",""
"8372","","image-button-response","200","2554650","0.0-198.0","A1FH0Y12VSXUMK","img_art/4.jpg","5","","","","","","","","","","","","","","","","","","","","","","","","",""
"12198","","image-button-response","201","2566852","0.0-199.0-0.0","A1FH0Y12VSXUMK","img_art/4.jpg","0","","","","","","","","","","","","","","","","","","","","","","","","",""
"12864","","image-button-response","202","2579721","0.0-200.0-0.0","A1FH0Y12VSXUMK","img_art/4.jpg","4","","","","","","","","","","","","","","","","","","","","","","","","",""
"null","","html-keyboard-response","203","2581231","0.0-201.0","A1FH0Y12VSXUMK","<p style=""font-size: 48px;"">+</p>","","","","","null","allTrialResponses","1500","1","22","img_art/4.jpg","11","It seems like a finger painting.","Derek,Brandon,Adam,Nicholas,Jack,Michael","A bit too plain for my tastes,-10,360,20","Really don't like this. Kindergarten art, sorry.,-50,320,20","McDonald's French Fries.,-10,40,20","I domt like the yellow black blended smear,-50,240,20","creepy, looks like a deformed hand, but the background is pretty,5,320,20","Looks like a child did it.,-42,140,20","Michael","Looks like a child did it.,-42,140,20","Derek","A bit too plain for my tastes,-10,360,20","Jack","creepy, looks like a deformed hand, but the background is pretty,5,320,20","3"
"80854","","survey-text","204","2662115","0.0-202.0-0.0","A1FH0Y12VSXUMK","","","","{""Q0"":""I like this, it seems like an abstract forest scene.""}","","","","","","","","","","","","","","","","","","","","","","",""
"5909","","image-slider-response","205","2668029","0.0-203.0","A1FH0Y12VSXUMK","","","","","26","","","","","","","","","","","","","","","","","","","","","",""
"4954","","image-button-response","206","2673036","0.0-204.0","A1FH0Y12VSXUMK","img_art/27.jpg","0","","","","","","","","","","","","","","","","","","","","","","","","",""
"1528","","image-button-response","207","2674567","0.0-205.0","A1FH0Y12VSXUMK","img_art/27.jpg","0","","","","","","","","","","","","","","","","","","","","","","","","",""
"23862","","image-button-response","208","2698433","0.0-206.0-0.0","A1FH0Y12VSXUMK","img_art/27.jpg","3","","","","","","","","","","","","","","","","","","","","","","","","",""
"11994","","image-button-response","209","2710436","0.0-207.0-0.0","A1FH0Y12VSXUMK","img_art/27.jpg","1","","","","","","","","","","","","","","","","","","","","","","","","",""
"null","","html-keyboard-response","210","2710940","0.0-208.0","A1FH0Y12VSXUMK","<p style=""font-size: 48px;"">+</p>","","","","","null","allTrialResponses","500","1","23","img_art/27.jpg","26","I like this, it seems like an abstract forest scene.","Derek,Gabriel,Jacob,Nathaniel,Jack,Michael","I love the mood of this painting,30,360,20","too messy dont like the color choices either,-17,160,20","Don't get the point of this piece that much, but it doesn't bug me,1,340,20","Looks like a splash of different colors and designs without purpose,-44,220,20","the green & white scribbles feel childlike. perhaps the quality of the photo, but the colors are gloomy.,-13,320,20","Anyone could do that.,-31,140,20","Derek","I love the mood of this painting,30,360,20","Nathaniel","Looks like a splash of different colors and designs without purpose,-44,220,20","Gabriel","too messy dont like the color choices either,-17,160,20","3"
"26342","","survey-text","211","2737310","0.0-209.0-0.0","A1FH0Y12VSXUMK","","","","{""Q0"":""Rather dark and mysterious.""}","","","","","","","","","","","","","","","","","","","","","","",""
"4181","","image-slider-response","212","2741494","0.0-210.0","A1FH0Y12VSXUMK","","","","","24","","","","","","","","","","","","","","","","","","","","","",""
"3699","","image-button-response","213","2746500","0.0-211.0","A1FH0Y12VSXUMK","img_art/11.jpg","0","","","","","","","","","","","","","","","","","","","","","","","","",""
"357","","image-button-response","214","2746862","0.0-212.0","A1FH0Y12VSXUMK","img_art/11.jpg","0","","","","","","","","","","","","","","","","","","","","","","","","",""
"10570","","image-button-response","215","2757435","0.0-213.0-0.0","A1FH0Y12VSXUMK","img_art/11.jpg","4","","","","","","","","","","","","","","","","","","","","","","","","",""
"6043","","image-button-response","216","2763482","0.0-214.0-0.0","A1FH0Y12VSXUMK","img_art/11.jpg","3","","","","","","","","","","","","","","","","","","","","","","","","",""
"null","","html-keyboard-response","217","2763989","0.0-215.0","A1FH0Y12VSXUMK","<p style=""font-size: 48px;"">+</p>","","","","","null","allTrialResponses","500","1","24","img_art/11.jpg","24","Rather dark and mysterious.","Derek,Gabriel,Alexis,Nathaniel,Jeffrey,Stephen","There's a lot going on in this painting but it is pleasing and neat looking,31,360,20","its like telephone wires, or mountains,-17,160,20","This photo makes me feel bleak,-16,140,20","Kind of bizzare in that I can imagine ships or something from it.,11,220,20","a lot of dark colours,-8,40,20","Very good use of colors,44,140,20","Derek","There's a lot going on in this painting but it is pleasing and neat looking,31,360,20","Jeffrey","a lot of dark colours,-8,40,20","Nathaniel","Kind of bizzare in that I can imagine ships or something from it.,11,220,20","3"
"41541","","survey-text","218","2805555","0.0-216.0-0.0","A1FH0Y12VSXUMK","","","","{""Q0"":""I like the shades of color.""}","","","","","","","","","","","","","","","","","","","","","","",""
"3454","","image-slider-response","219","2809017","0.0-217.0","A1FH0Y12VSXUMK","","","","","32","","","","","","","","","","","","","","","","","","","","","",""
"null","","image-button-response","220","2814026","0.0-218.0","A1FH0Y12VSXUMK","img_art/22.jpg","null","","","","","","","","","","","","","","","","","","","","","","","","",""
"1319","","image-button-response","221","2815351","0.0-219.0","A1FH0Y12VSXUMK","img_art/22.jpg","1","","","","","","","","","","","","","","","","","","","","","","","","",""
"14782","","image-button-response","222","2830140","0.0-220.0-0.0","A1FH0Y12VSXUMK","img_art/22.jpg","0","","","","","","","","","","","","","","","","","","","","","","","","",""
"16101","","image-button-response","223","2846249","0.0-221.0-0.0","A1FH0Y12VSXUMK","img_art/22.jpg","5","","","","","","","","","","","","","","","","","","","","","","","","",""
"null","","html-keyboard-response","224","2847259","0.0-222.0","A1FH0Y12VSXUMK","<p style=""font-size: 48px;"">+</p>","","","","","null","allTrialResponses","1000","1","25","img_art/22.jpg","32","I like the shades of color.","Derek,Malik,Aaron,Nathaniel,Jeffrey,Jason","Really pretty. Love the colors.,30,360,20","Beautiful forms, using color to define shape,14,40,20","Boring, typical abstract art,-30,20,20","Looks like a giant blob,-45,220,20","Picture is very relaxing,32,40,20","Would be better if random black object was not present,11,20,20","Malik","Beautiful forms, using color to define shape,14,40,20","Derek","Really pretty. Love the colors.,30,360,20","Jason","Would be better if random black object was not present,11,20,20","3"
"14730","","survey-text","225","2862065","0.0-223.0-0.0","A1FH0Y12VSXUMK","","","","{""Q0"":""table""}","","","","","","","","","","","","","","","","","","","","","","",""
"46336","","survey-text","226","2908404","0.0-224.0-0.0","A1FH0Y12VSXUMK","","","","{""Q0"":""This is pointlessly busy.""}","","","","","","","","","","","","","","","","","","","","","","",""
"7210","","image-slider-response","227","2915624","0.0-225.0","A1FH0Y12VSXUMK","","","","","-7","","","","","","","","","","","","","","","","","","","","","",""
"4954","","image-button-response","228","2920631","0.0-226.0","A1FH0Y12VSXUMK","img_art/19.jpg","0","","","","","","","","","","","","","","","","","","","","","","","","",""
"1198","","image-button-response","229","2921833","0.0-227.0","A1FH0Y12VSXUMK","img_art/19.jpg","0","","","","","","","","","","","","","","","","","","","","","","","","",""
"5661","","image-button-response","230","2927502","0.0-228.0-0.0","A1FH0Y12VSXUMK","img_art/19.jpg","1","","","","","","","","","","","","","","","","","","","","","","","","",""
"9541","","image-button-response","231","2937050","0.0-229.0-0.0","A1FH0Y12VSXUMK","img_art/19.jpg","3","","","","","","","","","","","","","","","","","","","","","","","","",""
"null","","html-keyboard-response","232","2938555","0.0-230.0","A1FH0Y12VSXUMK","<p style=""font-size: 48px;"">+</p>","","","","","null","allTrialResponses","1500","1","26","img_art/19.jpg","-7","This is pointlessly busy.","Derek,Malik,Timothy,Antonio,Bryan,Jason","It has a chaotic energy about it that draws me in,40,360,20","Very dreamlike,26,40,20","Something weird is going on in this painting,-20,240,20","Chaotic. Too much going on in the picture,14,220,20","Looks like a child's rendering of a city street but not too sure.,0,400,20","The picture contains a lot of brown and weird drips,-4,20,20","Derek","It has a chaotic energy about it that draws me in,40,360,20","Malik","Very dreamlike,26,40,20","Antonio","Chaotic. Too much going on in the picture,14,220,20","3"
"29356","","survey-text","233","2967937","0.0-231.0-0.0","A1FH0Y12VSXUMK","","","","{""Q0"":""Very simple but interesting.""}","","","","","","","","","","","","","","","","","","","","","","",""
"5526.999999999534","","image-slider-response","234","2973469","0.0-232.0","A1FH0Y12VSXUMK","","","","","7","","","","","","","","","","","","","","","","","","","","","",""
"null","","image-button-response","235","2978476","0.0-233.0","A1FH0Y12VSXUMK","img_art/5.jpg","null","","","","","","","","","","","","","","","","","","","","","","","","",""
"7498","","image-button-response","236","2985978","0.0-234.0","A1FH0Y12VSXUMK","img_art/5.jpg","2","","","","","","","","","","","","","","","","","","","","","","","","",""
"17186","","image-button-response","237","3003167","0.0-235.0-0.0","A1FH0Y12VSXUMK","img_art/5.jpg","0","","","","","","","","","","","","","","","","","","","","","","","","",""
"5625","","image-button-response","238","3008797","0.0-236.0-0.0","A1FH0Y12VSXUMK","img_art/5.jpg","1","","","","","","","","","","","","","","","","","","","","","","","","",""
"null","","html-keyboard-response","239","3010302","0.0-237.0","A1FH0Y12VSXUMK","<p style=""font-size: 48px;"">+</p>","","","","","null","allTrialResponses","1500","1","27","img_art/5.jpg","7","Very simple but interesting.","Derek,Malik,Samuel,Antonio,Jesus,Jose","It's okay. Don't hate it but don't love it either,0,360,20","Not sure what I'm looking at,-16,40,20","a brush in time,-14,400,20","Too much angular things happening, makes me think of stabbing something which makes me uncomfortable,-50,220,20","Overpowering colors.,-26,100,20","Don't love don't hate,8,200,20","Samuel","a brush in time,-14,400,20","Derek","It's okay. Don't hate it but don't love it either,0,360,20","Malik","Not sure what I'm looking at,-16,40,20","3"
"48335","","survey-text","240","3058663","0.0-238.0-0.0","A1FH0Y12VSXUMK","","","","{""Q0"":""Too dark for my taste, but nice brushwork.""}","","","","","","","","","","","","","","","","","","","","","","",""
"4935.000000000466","","image-slider-response","241","3063603","0.0-239.0","A1FH0Y12VSXUMK","","","","","6","","","","","","","","","","","","","","","","","","","","","",""
"null","","image-button-response","242","3068613","0.0-240.0","A1FH0Y12VSXUMK","img_art/9.jpg","null","","","","","","","","","","","","","","","","","","","","","","","","",""
"153","","image-button-response","243","3068770","0.0-241.0","A1FH0Y12VSXUMK","img_art/9.jpg","0","","","","","","","","","","","","","","","","","","","","","","","","",""
"16265","","image-button-response","244","3085039","0.0-242.0-0.0","A1FH0Y12VSXUMK","img_art/9.jpg","5","","","","","","","","","","","","","","","","","","","","","","","","",""
"5496","","image-button-response","245","3090539","0.0-243.0-0.0","A1FH0Y12VSXUMK","img_art/9.jpg","4","","","","","","","","","","","","","","","","","","","","","","","","",""
"null","","html-keyboard-response","246","3091544","0.0-244.0","A1FH0Y12VSXUMK","<p style=""font-size: 48px;"">+</p>","","","","","null","allTrialResponses","1000","1","28","img_art/9.jpg","6","Too dark for my taste, but nice brushwork.","Derek,Malik,Samuel,Charles,David,Dalton","It's wild and chaotic but also beautiful and has some kind of calming factor about it,20,360,20","Colorful and expressive,15,40,20","what a wild ride,11,400,20","It's too all over the place,-37,100,20","I like how design can be interpreted differently, I see a person sleeping or a mountainous region.,10,340,20","a mother in bed surrounded by emotions,1,300,20","Derek","It's wild and chaotic but also beautiful and has some kind of calming factor about it,20,360,20","Dalton","a mother in bed surrounded by emotions,1,300,20","David","I like how design can be interpreted differently, I see a person sleeping or a mountainous region.,10,340,20","3"
"74865","","survey-text","247","3166447","0.0-245.0-0.0","A1FH0Y12VSXUMK","","","","{""Q0"":""Weirdly intense but I like it.""}","","","","","","","","","","","","","","","","","","","","","","",""
"6831","","image-slider-response","248","3173282","0.0-246.0","A1FH0Y12VSXUMK","","","","","34","","","","","","","","","","","","","","","","","","","","","",""
"null","","image-button-response","249","3178292","0.0-247.0","A1FH0Y12VSXUMK","img_art/6.jpg","null","","","","","","","","","","","","","","","","","","","","","","","","",""
"4896","","image-button-response","250","3183192","0.0-248.0","A1FH0Y12VSXUMK","img_art/6.jpg","1","","","","","","","","","","","","","","","","","","","","","","","","",""
"5302","","image-button-response","251","3188499","0.0-249.0-0.0","A1FH0Y12VSXUMK","img_art/6.jpg","3","","","","","","","","","","","","","","","","","","","","","","","","",""
"8031","","image-button-response","252","3196543","0.0-250.0-0.0","A1FH0Y12VSXUMK","img_art/6.jpg","4","","","","","","","","","","","","","","","","","","","","","","","","",""
"null","","html-keyboard-response","253","3197548","0.0-251.0","A1FH0Y12VSXUMK","<p style=""font-size: 48px;"">+</p>","","","","","null","allTrialResponses","1000","1","29","img_art/6.jpg","34","Weirdly intense but I like it.","Derek,Tanner,Thomas,Adrian,David,Dalton","Too basic for me,-20,360,20","loneliness, fragile, forever alone, a girl who's been there for eternity, only think tracking time is the length of her hair,9,180,20","I like the color and the gradient,10,220,20","Simple, warm, hopeful.,12,60,20","I like the simplicity of the piece.,10,340,20","it looks like a stick holding a wig on a cliff,21,300,20","Tanner","loneliness, fragile, forever alone, a girl who's been there for eternity, only think tracking time is the length of her hair,9,180,20","Adrian","Simple, warm, hopeful.,12,60,20","David","I like the simplicity of the piece.,10,340,20","3"
"41652","","survey-text","254","3239233","0.0-252.0-0.0","A1FH0Y12VSXUMK","","","","{""Q0"":""Peaceful street scene.""}","","","","","","","","","","","","","","","","","","","","","","",""
"4963","","image-slider-response","255","3244201","0.0-253.0","A1FH0Y12VSXUMK","","","","","32","","","","","","","","","","","","","","","","","","","","","",""
"null","","image-button-response","256","3249208","0.0-254.0","A1FH0Y12VSXUMK","img_art/26.jpg","null","","","","","","","","","","","","","","","","","","","","","","","","",""
"2009","","image-button-response","257","3251222","0.0-255.0","A1FH0Y12VSXUMK","img_art/26.jpg","2","","","","","","","","","","","","","","","","","","","","","","","","",""
"16946","","image-button-response","258","3268171","0.0-256.0-0.0","A1FH0Y12VSXUMK","img_art/26.jpg","0","","","","","","","","","","","","","","","","","","","","","","","","",""
"997","","image-button-response","259","3269177","0.0-257.0-0.0","A1FH0Y12VSXUMK","img_art/26.jpg","0","","","","","","","","","","","","","","","","","","","","","","","","",""
"2974","","image-button-response","260","3282201","0.0-257.1-0.1","A1FH0Y12VSXUMK","img_art/26.jpg","1","","","","","","","","","","","","","","","","","","","","","","","","",""
"null","","html-keyboard-response","261","3283206","0.0-258.0","A1FH0Y12VSXUMK","<p style=""font-size: 48px;"">+</p>","","","","","null","allTrialResponses","1000","1","30","img_art/26.jpg","32","Peaceful street scene.","Isaiah,Tanner,Steven,Adrian,David,Trevor","It is very relaxing to look at, almost a relief.,21,300,20","happy, park, childhood,9,180,20","This one is nicer, looks like a walk in a small, dreamy city,20,160,20","I see a suburban neighborhood with townhouses and trees. Not a fan of the colors or style.,-16,60,20","The piece doesn't really invoke anything for me.,0,340,20","looks like a little kids painting,-17,280,20","Steven","This one is nicer, looks like a walk in a small, dreamy city,20,160,20","Isaiah","It is very relaxing to look at, almost a relief.,21,300,20","Tanner","happy, park, childhood,9,180,20","5"
"5791","","image-button-response_instructions","262","3289026","0.0-259.0","A1FH0Y12VSXUMK","","0","instructions","","","","","","","","","","","","","","","","","","","","","","","",""
"2186","","image-button-response","263","3291224","0.0-260.0","A1FH0Y12VSXUMK","","0","","","","","","","","","","","","","","","","","","","","","","","","",""
