"rt","url","trial_type","trial_index","time_elapsed","internal_node_id","participant_id","stimulus","button_pressed","Name","responses","response","key_press","variableName","fixationTime","condition","trial","photo","subjectRating","subjectResponse","agentsNames","agent_1_Response","agent_2_Response","agent_3_Response","agent_4_Response","agent_5_Response","agent_6_Response","kept_1_name","kept_1_response","kept_2_name","kept_2_response","kept_3_name","kept_3_response","errorCounter"
"18860","external_page_harvard.html","external-html","0","19125","0.0-0.0","A1FHC4Z6QXDQSS","","","","","","","","","","","","","","","","","","","","","","","","","","",""
"1855","","image-button-response","1","20982","0.0-1.0","A1FHC4Z6QXDQSS","","0","","","","","","","","","","","","","","","","","","","","","","","","",""
"5657","","image-button-response","2","26645","0.0-2.0-0.0","A1FHC4Z6QXDQSS","","1","phone","","","","","","","","","","","","","","","","","","","","","","","",""
"11204","","survey-text","3","37851","0.0-3.0-0.0","A1FHC4Z6QXDQSS","","","","{""Q0"":""A1FHC4Z6QXDQSS""}","","","","","","","","","","","","","","","","","","","","","","",""
"5564","","image-button-response_instructions","4","43417","0.0-4.0","A1FHC4Z6QXDQSS","","0","instructions","","","","","","","","","","","","","","","","","","","","","","","",""
"27644","","image-button-response_instructions","5","71063","0.0-5.0","A1FHC4Z6QXDQSS","img_art/ins/popularity/ins1.png","0","instructions","","","","","","","","","","","","","","","","","","","","","","","",""
"23116","","image-button-response_instructions","6","94179","0.0-6.0","A1FHC4Z6QXDQSS","img_art/ins/popularity/ins2.png","0","instructions","","","","","","","","","","","","","","","","","","","","","","","",""
"59443","","image-button-response_instructions","7","153624","0.0-7.0","A1FHC4Z6QXDQSS","img_art/ins/popularity/ins2Extreme.png","0","instructions","","","","","","","","","","","","","","","","","","","","","","","",""
"602","","image-button-response_instructions","8","154227","0.0-8.0","A1FHC4Z6QXDQSS","img_art/ins/popularity/ins3KEEPpop.PNG","0","instructions","","","","","","","","","","","","","","","","","","","","","","","",""
"5601","","image-button-response_instructions","9","159830","0.0-9.0","A1FHC4Z6QXDQSS","img_art/ins/popularity/ins3ANamepop.PNG","0","instructions","","","","","","","","","","","","","","","","","","","","","","","",""
"3672","","image-button-response_instructions","10","163503","0.0-10.0","A1FHC4Z6QXDQSS","img_art/ins/popularity/ins3ARatingpop.png","0","instructions","","","","","","","","","","","","","","","","","","","","","","","",""
"2853","","image-button-response_instructions","11","166357","0.0-11.0","A1FHC4Z6QXDQSS","img_art/ins/popularity/ins3ATextpop.png","0","instructions","","","","","","","","","","","","","","","","","","","","","","","",""
"7969","","image-button-response_instructions","12","174327","0.0-12.0","A1FHC4Z6QXDQSS","img_art/ins/popularity/ins3ALikespop.png","0","instructions","","","","","","","","","","","","","","","","","","","","","","","",""
"34828","","image-button-response_instructions","13","209157","0.0-13.0","A1FHC4Z6QXDQSS","img_art/ins/popularity/ins3KEEPpop.PNG","0","instructions","","","","","","","","","","","","","","","","","","","","","","","",""
"92059","","image-button-response_instructions","14","301218","0.0-14.0","A1FHC4Z6QXDQSS","img_art/ins/popularity/ins3_5RED.png","0","instructions","","","","","","","","","","","","","","","","","","","","","","","",""
"2312","","image-button-response_instructions","15","303531","0.0-15.0","A1FHC4Z6QXDQSS","img_art/ins/popularity/ins3KEEPpop.PNG","0","instructions","","","","","","","","","","","","","","","","","","","","","","","",""
"3093","","image-button-response_instructions","16","306626","0.0-16.0","A1FHC4Z6QXDQSS","img_art/ins/popularity/ins4KEEPpop.PNG","0","instructions","","","","","","","","","","","","","","","","","","","","","","","",""
"2066","","image-button-response_instructions","17","308693","0.0-17.0","A1FHC4Z6QXDQSS","img_art/ins/popularity/ins5KEEPpop.PNG","0","instructions","","","","","","","","","","","","","","","","","","","","","","","",""
"1884","","image-button-response_instructions","18","310578","0.0-18.0","A1FHC4Z6QXDQSS","","0","instructions","","","","","","","","","","","","","","","","","","","","","","","",""
"7891","","survey-text","19","318495","0.0-19.0-0.0","A1FHC4Z6QXDQSS","","","","{""Q0"":""but""}","","","","","","","","","","","","","","","","","","","","","","",""
"12073","","survey-text","20","330570","0.0-20.0-0.0","A1FHC4Z6QXDQSS","","","","{""Q0"":""ugly looks like poo was wiped on it""}","","","","","","","","","","","","","","","","","","","","","","",""
"8995.40000000596","","image-slider-response","21","339567","0.0-21.0","A1FHC4Z6QXDQSS","","","","","-50","","","","","","","","","","","","","","","","","","","","","",""
"null","","image-button-response","22","344576","0.0-22.0","A1FHC4Z6QXDQSS","img_art/ins/1.jpg","null","","","","","","","","","","","","","","","","","","","","","","","","",""
"8040","","image-button-response","23","352618","0.0-23.0","A1FHC4Z6QXDQSS","img_art/ins/1.jpg","2","","","","","","","","","","","","","","","","","","","","","","","","",""
"15985","","image-button-response","24","368605","0.0-24.0-0.0","A1FHC4Z6QXDQSS","img_art/ins/1.jpg","4","","","","","","","","","","","","","","","","","","","","","","","","",""
"2570","","image-button-response","25","371178","0.0-25.0-0.0","A1FHC4Z6QXDQSS","img_art/ins/1.jpg","0","","","","","","","","","","","","","","","","","","","","","","","","",""
"null","","html-keyboard-response","26","372682","0.0-26.0","A1FHC4Z6QXDQSS","<p style=""font-size: 48px;"">+</p>","","","","","null","allTrialResponses","1500","1","-2","img_art/ins/1.jpg","-50","ugly looks like poo was wiped on it","Adam,Alex,Ben,Carl,Daniel,Jack","Seems like doodles,-20,20,20","very creative work.,36,40,20","This color reminds me of poo,-46,60,20","very calming artwork,42,80,20","It looks like a murder scene.,-48,100,20","I like the sophisticated brushwork,40,120,20","Ben","This color reminds me of poo,-46,60,20","Daniel","It looks like a murder scene.,-48,100,20","Adam","Seems like doodles,-20,20,20","0"
"276731","","survey-text","27","649418","0.0-27.0-0.0","A1FHC4Z6QXDQSS","","","","{""Q0"":""love the color tone""}","","","","","","","","","","","","","","","","","","","","","","",""
"5033.4000000059605","","image-slider-response","28","654453","0.0-28.0","A1FHC4Z6QXDQSS","","","","","35","","","","","","","","","","","","","","","","","","","","","",""
"3860","","image-button-response","29","659456","0.0-29.0","A1FHC4Z6QXDQSS","img_art/ins/2.jpg","1","","","","","","","","","","","","","","","","","","","","","","","","",""
"6004","","image-button-response","30","665462","0.0-30.0","A1FHC4Z6QXDQSS","img_art/ins/2.jpg","0","","","","","","","","","","","","","","","","","","","","","","","","",""
"1187","","image-button-response","31","666651","0.0-31.0-0.0","A1FHC4Z6QXDQSS","img_art/ins/2.jpg","2","","","","","","","","","","","","","","","","","","","","","","","","",""
"969","","image-button-response","32","667622","0.0-32.0-0.0","A1FHC4Z6QXDQSS","img_art/ins/2.jpg","1","","","","","","","","","","","","","","","","","","","","","","","","",""
"null","","html-keyboard-response","33","668624","0.0-33.0","A1FHC4Z6QXDQSS","<p style=""font-size: 48px;"">+</p>","","","","","null","allTrialResponses","1000","1","-1","img_art/ins/2.jpg","35","love the color tone","Adam,John,Ben,James,Daniel,Kyle","too much color,-18,20,20","love the texture of paint,48,160,20","meaningless painting,-45,60,20","looks too angry,-50,140,20","One of my pet peevs,-48,100,20","Idk, it is just annoying,-32,180,20","Adam","too much color,-18,20,20","Ben","meaningless painting,-45,60,20","John","love the texture of paint,48,160,20","0"
"47618","","survey-text","34","716246","0.0-34.0-0.0","A1FHC4Z6QXDQSS","","","","{""Q0"":""really simple and boring but also kind okay""}","","","","","","","","","","","","","","","","","","","","","","",""
"9279.90000000596","","image-slider-response","35","725527","0.0-35.0","A1FHC4Z6QXDQSS","","","","","-4","","","","","","","","","","","","","","","","","","","","","",""
"3158","","image-button-response","36","730530","0.0-36.0","A1FHC4Z6QXDQSS","img_art/ins/3.jpg","3","","","","","","","","","","","","","","","","","","","","","","","","",""
"1763","","image-button-response","37","732295","0.0-37.0","A1FHC4Z6QXDQSS","img_art/ins/3.jpg","5","","","","","","","","","","","","","","","","","","","","","","","","",""
"5995","","image-button-response","38","738292","0.0-38.0-0.0","A1FHC4Z6QXDQSS","img_art/ins/3.jpg","1","","","","","","","","","","","","","","","","","","","","","","","","",""
"3349","","image-button-response","39","741644","0.0-39.0-0.0","A1FHC4Z6QXDQSS","img_art/ins/3.jpg","3","","","","","","","","","","","","","","","","","","","","","","","","",""
"null","","html-keyboard-response","40","742148","0.0-40.0","A1FHC4Z6QXDQSS","<p style=""font-size: 48px;"">+</p>","","","","","null","allTrialResponses","500","1","0","img_art/ins/3.jpg","-4","really simple and boring but also kind okay","Adam,John,Ben,Mike,Ron,Sam","My daily routine, it's depressing,-20,20,20","I like the overlapping of brushes,41,160,20","This thing gives me anxiety,-41,60,20","enjoy the different shades of blue,22,200,20","It looks depressing,-26,220,20","I can feel a rainy day from this painting,18,240,20","Sam","I can feel a rainy day from this painting,18,240,20","John","I like the overlapping of brushes,41,160,20","Mike","enjoy the different shades of blue,22,200,20","0"
"4115","","image-button-response_instructions","41","746267","0.0-41.0","A1FHC4Z6QXDQSS","","0","instructions","","","","","","","","","","","","","","","","","","","","","","","",""
"9026","","survey-likert","42","755294","0.0-42.0-0.0","A1FHC4Z6QXDQSS","","","","{""Q0"":"""",""Q1"":"""",""Q2"":""""}","","","","","","","","","","","","","","","","","","","","","","",""
"10762","","survey-likert","43","767637","0.0-42.1-0.1","A1FHC4Z6QXDQSS","","","","{""Q0"":"""",""Q1"":"""",""Q2"":""""}","","","","","","","","","","","","","","","","","","","","","","",""
"13840","","survey-likert","44","785553","0.0-42.2-0.2","A1FHC4Z6QXDQSS","","","","{""Q0"":"""",""Q1"":1,""Q2"":1}","","","","","","","","","","","","","","","","","","","","","","",""
"6607","","survey-likert","45","794981","0.0-42.3-0.3","A1FHC4Z6QXDQSS","","","","{""Q0"":"""",""Q1"":0,""Q2"":1}","","","","","","","","","","","","","","","","","","","","","","",""
"52630","","survey-text","46","847616","0.0-43.0-0.0","A1FHC4Z6QXDQSS","","","","{""Q0"":""rock""}","","","","","","","","","","","","","","","","","","","","","","",""
"32253","","survey-text","47","879871","0.0-44.0-0.0","A1FHC4Z6QXDQSS","","","","{""Q0"":""ugly hate the red ""}","","","","","","","","","","","","","","","","","","","","","","",""
"5931.5999999940395","","image-slider-response","48","885804","0.0-45.0","A1FHC4Z6QXDQSS","","","","","-50","","","","","","","","","","","","","","","","","","","","","",""
"null","","image-button-response","49","890832","0.0-46.0","A1FHC4Z6QXDQSS","img_art/30.jpg","null","","","","","","","","","","","","","","","","","","","","","","","","",""
"11358","","image-button-response","50","902192","0.0-47.0","A1FHC4Z6QXDQSS","img_art/30.jpg","3","","","","","","","","","","","","","","","","","","","","","","","","",""
"4298","","image-button-response","51","906492","0.0-48.0-0.0","A1FHC4Z6QXDQSS","img_art/30.jpg","2","","","","","","","","","","","","","","","","","","","","","","","","",""
"8524","","image-button-response","52","915018","0.0-49.0-0.0","A1FHC4Z6QXDQSS","img_art/30.jpg","4","","","","","","","","","","","","","","","","","","","","","","","","",""
"null","","html-keyboard-response","53","916020","0.0-50.0","A1FHC4Z6QXDQSS","<p style=""font-size: 48px;"">+</p>","","","","","null","allTrialResponses","1000","1","1","img_art/30.jpg","-50","ugly hate the red ","Jose,Zachary,Michael,Isaac,Tanner,Adrian","For some reason I like the red in this one. Maybe it's the style of lines/blurs,46,200,20","I like this one because I am a mom and it reminds me of a child finger-painting.,20,400,20","It looks like a child did it. There is nothing talented or special about it.,-16,140,20","It looks like it was painted in 5 minutes.,-32,280,20","makes me think of a tunnel filled with graffiti,19,180,20","Interesting. Not sure what I'm seeing but it makes me want to figure it out.,5,60,20","Isaac","It looks like it was painted in 5 minutes.,-32,280,20","Michael","It looks like a child did it. There is nothing talented or special about it.,-16,140,20","Tanner","makes me think of a tunnel filled with graffiti,19,180,20","3"
"77461","","survey-text","54","993484","0.0-51.0-0.0","A1FHC4Z6QXDQSS","","","","{""Q0"":""don't understand the green drawings looked like someone scribbled on this painting""}","","","","","","","","","","","","","","","","","","","","","","",""
"4976.300000011921","","image-slider-response","55","998462","0.0-52.0","A1FHC4Z6QXDQSS","","","","","-23","","","","","","","","","","","","","","","","","","","","","",""
"4968","","image-button-response","56","1003467","0.0-53.0","A1FHC4Z6QXDQSS","img_art/27.jpg","3","","","","","","","","","","","","","","","","","","","","","","","","",""
"985","","image-button-response","57","1004454","0.0-54.0","A1FHC4Z6QXDQSS","img_art/27.jpg","3","","","","","","","","","","","","","","","","","","","","","","","","",""
"8571","","image-button-response","58","1013027","0.0-55.0-0.0","A1FHC4Z6QXDQSS","img_art/27.jpg","5","","","","","","","","","","","","","","","","","","","","","","","","",""
"4630","","image-button-response","59","1017660","0.0-56.0-0.0","A1FHC4Z6QXDQSS","img_art/27.jpg","1","","","","","","","","","","","","","","","","","","","","","","","","",""
"null","","html-keyboard-response","60","1018662","0.0-57.0","A1FHC4Z6QXDQSS","<p style=""font-size: 48px;"">+</p>","","","","","null","allTrialResponses","1000","1","2","img_art/27.jpg","-23","don't understand the green drawings looked like someone scribbled on this painting","Taylor,Carlos,Michael,Isaac,Tanner,Seth","Looks like a child added his own interpretation with a black marker.,-5,200,20","The green lines disrupt the image in an unpleasant and hurried way.,-30,80,20","Anyone could do that.,-31,140,20","The green lines look like a child drew over a painting.,-36,280,20","makes me think of fume clouds, low visibility,-28,180,20","I don't care for the green scribbles; not sure what they are. But I adore the colors in the background.,24,60,20","Isaac","The green lines look like a child drew over a painting.,-36,280,20","Seth","I don't care for the green scribbles; not sure what they are. But I adore the colors in the background.,24,60,20","Carlos","The green lines disrupt the image in an unpleasant and hurried way.,-30,80,20","3"
"54635","","survey-text","61","1073300","0.0-58.0-0.0","A1FHC4Z6QXDQSS","","","","{""Q0"":""like the colors and mood of this painting but don't like the dots on the lower right corner""}","","","","","","","","","","","","","","","","","","","","","","",""
"4312.800000011921","","image-slider-response","62","1077615","0.0-59.0","A1FHC4Z6QXDQSS","","","","","25","","","","","","","","","","","","","","","","","","","","","",""
"null","","image-button-response","63","1082617","0.0-60.0","A1FHC4Z6QXDQSS","img_art/21.jpg","null","","","","","","","","","","","","","","","","","","","","","","","","",""
"2533","","image-button-response","64","1085151","0.0-61.0","A1FHC4Z6QXDQSS","img_art/21.jpg","0","","","","","","","","","","","","","","","","","","","","","","","","",""
"922","","image-button-response","65","1086074","0.0-62.0-0.0","A1FHC4Z6QXDQSS","img_art/21.jpg","0","","","","","","","","","","","","","","","","","","","","","","","","",""
"7516","","image-button-response","66","1096647","0.0-62.1-0.1","A1FHC4Z6QXDQSS","img_art/21.jpg","3","","","","","","","","","","","","","","","","","","","","","","","","",""
"6518","","image-button-response","67","1103167","0.0-63.0-0.0","A1FHC4Z6QXDQSS","img_art/21.jpg","2","","","","","","","","","","","","","","","","","","","","","","","","",""
"null","","html-keyboard-response","68","1104176","0.0-64.0","A1FHC4Z6QXDQSS","<p style=""font-size: 48px;"">+</p>","","","","","null","allTrialResponses","1000","1","3","img_art/21.jpg","25","like the colors and mood of this painting but don't like the dots on the lower right corner","William,Carlos,Gregory,Isaac,Elijah,Seth","like the colors,30,380,20","Motion, the light marks in the lower right corner are very appealing.,15,80,20","Contrast of fire and water looks cool,20,220,20","I like the colors. It looks dramatic.,5,280,20","Can't understand what it is,-27,80,20","Makes me feel light and airy. Like I've gone back in time to 1700th century France.,43,60,20","William","like the colors,30,380,20","Isaac","I like the colors. It looks dramatic.,5,280,20","Gregory","Contrast of fire and water looks cool,20,220,20","5"
"96467","","survey-text","69","1200648","0.0-65.0-0.0","A1FHC4Z6QXDQSS","","","","{""Q0"":""can't understand what it is and the pink is weird ""}","","","","","","","","","","","","","","","","","","","","","","",""
"9188.899999976158","","image-slider-response","70","1209838","0.0-66.0","A1FHC4Z6QXDQSS","","","","","-43","","","","","","","","","","","","","","","","","","","","","",""
"3781","","image-button-response","71","1214841","0.0-67.0","A1FHC4Z6QXDQSS","img_art/5.jpg","0","","","","","","","","","","","","","","","","","","","","","","","","",""
"7376","","image-button-response","72","1222219","0.0-68.0","A1FHC4Z6QXDQSS","img_art/5.jpg","3","","","","","","","","","","","","","","","","","","","","","","","","",""
"4757","","image-button-response","73","1226978","0.0-69.0-0.0","A1FHC4Z6QXDQSS","img_art/5.jpg","4","","","","","","","","","","","","","","","","","","","","","","","","",""
"4340","","image-button-response","74","1231321","0.0-70.0-0.0","A1FHC4Z6QXDQSS","img_art/5.jpg","0","","","","","","","","","","","","","","","","","","","","","","","","",""
"null","","html-keyboard-response","75","1232822","0.0-71.0","A1FHC4Z6QXDQSS","<p style=""font-size: 48px;"">+</p>","","","","","null","allTrialResponses","1500","1","4","img_art/5.jpg","-43","can't understand what it is and the pink is weird ","William,Adam,Gregory,Isaac,Nathaniel,Brian","very boring and plain,-35,380,20","Too loud. Dislike the bright yellow.,-5,40,20","Don't really see it and yellow/pink don't go well together,-35,220,20","I'm not sure what is going on here.,-46,280,20","Not sure what that even is. Looks like a 2-year old drawing,-40,220,20","I like this one but wish it had more context around it,18,380,20","Isaac","I'm not sure what is going on here.,-46,280,20","Nathaniel","Not sure what that even is. Looks like a 2-year old drawing,-40,220,20","William","very boring and plain,-35,380,20","5"
"23831","","survey-text","76","1256658","0.0-72.0-0.0","A1FHC4Z6QXDQSS","","","","{""Q0"":""kind of see a face in the painting, kind of like it""}","","","","","","","","","","","","","","","","","","","","","","",""
"5391.5","","image-slider-response","77","1262051","0.0-73.0","A1FHC4Z6QXDQSS","","","","","31","","","","","","","","","","","","","","","","","","","","","",""
"2293","","image-button-response","78","1267053","0.0-74.0","A1FHC4Z6QXDQSS","img_art/2.jpg","0","","","","","","","","","","","","","","","","","","","","","","","","",""
"379","","image-button-response","79","1267433","0.0-75.0","A1FHC4Z6QXDQSS","img_art/2.jpg","1","","","","","","","","","","","","","","","","","","","","","","","","",""
"14267","","image-button-response","80","1281702","0.0-76.0-0.0","A1FHC4Z6QXDQSS","img_art/2.jpg","3","","","","","","","","","","","","","","","","","","","","","","","","",""
"1839","","image-button-response","81","1283543","0.0-77.0-0.0","A1FHC4Z6QXDQSS","img_art/2.jpg","0","","","","","","","","","","","","","","","","","","","","","","","","",""
"null","","html-keyboard-response","82","1284045","0.0-78.0","A1FHC4Z6QXDQSS","<p style=""font-size: 48px;"">+</p>","","","","","null","allTrialResponses","500","1","5","img_art/2.jpg","31","kind of see a face in the painting, kind of like it","William,Kevin,Jake,Isaac,Nathaniel,Gabriel","I like the colors,22,380,20","That looks look a cartoon character of some kind.,11,320,20","These colors are ugly.,-40,360,20","Not sure what is happening. I'm not a big fan of the colors but they don't bother me either.,1,280,20","Too gloopy and unfocused,-38,220,20","i dont like it, no thank you,-28,160,20","Kevin","That looks look a cartoon character of some kind.,11,320,20","Isaac","Not sure what is happening. I'm not a big fan of the colors but they don't bother me either.,1,280,20","William","I like the colors,22,380,20","5"
"10177","","survey-text","83","1294230","0.0-79.0-0.0","A1FHC4Z6QXDQSS","","","","{""Q0"":""sky""}","","","","","","","","","","","","","","","","","","","","","","",""
"45584","","survey-text","84","1339816","0.0-80.0-0.0","A1FHC4Z6QXDQSS","","","","{""Q0"":""looks like and unfinished painting""}","","","","","","","","","","","","","","","","","","","","","","",""
"5351.5999999940395","","image-slider-response","85","1345169","0.0-81.0","A1FHC4Z6QXDQSS","","","","","-27","","","","","","","","","","","","","","","","","","","","","",""
"3362","","image-button-response","86","1350171","0.0-82.0","A1FHC4Z6QXDQSS","img_art/26.jpg","0","","","","","","","","","","","","","","","","","","","","","","","","",""
"46612","","image-button-response","87","1396785","0.0-83.0","A1FHC4Z6QXDQSS","img_art/26.jpg","0","","","","","","","","","","","","","","","","","","","","","","","","",""
"932","","image-button-response","88","1397718","0.0-84.0-0.0","A1FHC4Z6QXDQSS","img_art/26.jpg","1","","","","","","","","","","","","","","","","","","","","","","","","",""
"5291","","image-button-response","89","1403011","0.0-85.0-0.0","A1FHC4Z6QXDQSS","img_art/26.jpg","4","","","","","","","","","","","","","","","","","","","","","","","","",""
"null","","html-keyboard-response","90","1403515","0.0-86.0","A1FHC4Z6QXDQSS","<p style=""font-size: 48px;"">+</p>","","","","","null","allTrialResponses","500","1","6","img_art/26.jpg","-27","looks like and unfinished painting","William,Kevin,Charles,Isaac,Jonathan,Alexander","feels a tad old,30,380,20","Some trees in front of a house.,2,320,20","It looks like I'm staring out of the window of a nice house, but the house is mine,20,100,20","I wish it were more pastel but I think it is relaxing to look at.,30,280,20","It's relaxing to look at but I wish it was just a little more defined,20,140,20","Confusing park picture.,8,120,20","William","feels a tad old,30,380,20","Kevin","Some trees in front of a house.,2,320,20","Jonathan","It's relaxing to look at but I wish it was just a little more defined,20,140,20","5"
"26433","","survey-text","91","1429952","0.0-87.0-0.0","A1FHC4Z6QXDQSS","","","","{""Q0"":""to much going on, gives me anxiety ""}","","","","","","","","","","","","","","","","","","","","","","",""
"4445.200000017881","","image-slider-response","92","1434399","0.0-88.0","A1FHC4Z6QXDQSS","","","","","-29","","","","","","","","","","","","","","","","","","","","","",""
"null","","image-button-response","93","1439408","0.0-89.0","A1FHC4Z6QXDQSS","img_art/17.jpg","null","","","","","","","","","","","","","","","","","","","","","","","","",""
"692","","image-button-response","94","1440101","0.0-90.0","A1FHC4Z6QXDQSS","img_art/17.jpg","1","","","","","","","","","","","","","","","","","","","","","","","","",""
"5484","","image-button-response","95","1445588","0.0-91.0-0.0","A1FHC4Z6QXDQSS","img_art/17.jpg","2","","","","","","","","","","","","","","","","","","","","","","","","",""
"7142","","image-button-response","96","1452732","0.0-92.0-0.0","A1FHC4Z6QXDQSS","img_art/17.jpg","4","","","","","","","","","","","","","","","","","","","","","","","","",""
"null","","html-keyboard-response","97","1453736","0.0-93.0","A1FHC4Z6QXDQSS","<p style=""font-size: 48px;"">+</p>","","","","","null","allTrialResponses","1000","1","7","img_art/17.jpg","-29","to much going on, gives me anxiety ","William,Kevin,Robert,Sean,Jonathan,Anthony","love the wispyness of it,34,380,20","Some new perm we got there.,12,320,20","The wispy trees caught my eye.,42,360,20","my response to the picture is that it looks beautiful,27,40,20","Feels nostalgic somehow,31,140,20","Very elegant, this design reminds me of trees,31,200,20","Kevin","Some new perm we got there.,12,320,20","Robert","The wispy trees caught my eye.,42,360,20","Jonathan","Feels nostalgic somehow,31,140,20","5"
"31547","","survey-text","98","1485287","0.0-94.0-0.0","A1FHC4Z6QXDQSS","","","","{""Q0"":""kind of like it reminds me of chess for some reason""}","","","","","","","","","","","","","","","","","","","","","","",""
"7041.5999999940395","","image-slider-response","99","1492330","0.0-95.0","A1FHC4Z6QXDQSS","","","","","31","","","","","","","","","","","","","","","","","","","","","",""
"null","","image-button-response","100","1497347","0.0-96.0","A1FHC4Z6QXDQSS","img_art/12.jpg","null","","","","","","","","","","","","","","","","","","","","","","","","",""
"36794","","image-button-response","101","1534143","0.0-97.0","A1FHC4Z6QXDQSS","img_art/12.jpg","0","","","","","","","","","","","","","","","","","","","","","","","","",""
"2332","","image-button-response","102","1536478","0.0-98.0-0.0","A1FHC4Z6QXDQSS","img_art/12.jpg","2","","","","","","","","","","","","","","","","","","","","","","","","",""
"6538","","image-button-response","103","1543017","0.0-99.0-0.0","A1FHC4Z6QXDQSS","img_art/12.jpg","4","","","","","","","","","","","","","","","","","","","","","","","","",""
"null","","html-keyboard-response","104","1544519","0.0-100.0","A1FHC4Z6QXDQSS","<p style=""font-size: 48px;"">+</p>","","","","","null","allTrialResponses","1500","1","8","img_art/12.jpg","31","kind of like it reminds me of chess for some reason","Samuel,Kevin,Robert,Bradley,Jonathan,Daniel","feels cluttered,-11,400,20","That is a warn quilt grama made.,11,320,20","I like the pattern to it.,31,360,20","Good technique. It's just not my thing.,2,300,20","I like all the squares and the colors but it feels too cluttered to me,20,140,20","Blocky windowed, safe and selfish,-41,320,20","Samuel","feels cluttered,-11,400,20","Robert","I like the pattern to it.,31,360,20","Jonathan","I like all the squares and the colors but it feels too cluttered to me,20,140,20","5"
"18004","","survey-text","105","1562527","0.0-101.0-0.0","A1FHC4Z6QXDQSS","","","","{""Q0"":""confusing""}","","","","","","","","","","","","","","","","","","","","","","",""
"6189.5999999940395","","image-slider-response","106","1568719","0.0-102.0","A1FHC4Z6QXDQSS","","","","","-7","","","","","","","","","","","","","","","","","","","","","",""
"null","","image-button-response","107","1573722","0.0-103.0","A1FHC4Z6QXDQSS","img_art/4.jpg","null","","","","","","","","","","","","","","","","","","","","","","","","",""
"15121","","image-button-response","108","1588844","0.0-104.0","A1FHC4Z6QXDQSS","img_art/4.jpg","2","","","","","","","","","","","","","","","","","","","","","","","","",""
"3607","","image-button-response","109","1592453","0.0-105.0-0.0","A1FHC4Z6QXDQSS","img_art/4.jpg","4","","","","","","","","","","","","","","","","","","","","","","","","",""
"1129","","image-button-response","110","1593583","0.0-106.0-0.0","A1FHC4Z6QXDQSS","img_art/4.jpg","5","","","","","","","","","","","","","","","","","","","","","","","","",""
"null","","html-keyboard-response","111","1595086","0.0-107.0","A1FHC4Z6QXDQSS","<p style=""font-size: 48px;"">+</p>","","","","","null","allTrialResponses","1500","1","9","img_art/4.jpg","-7","confusing","Samuel,Kyle,Robert,Hunter,Jonathan,Patrick","The muted tones,-11,400,20","It's quite meh to me,0,340,20","It looks like a hand someone scribbled over,-30,360,20","appealing warm palette,6,240,20","Mcdonald's french fries :(,-40,140,20","Random swirls again,-30,280,20","Robert","It looks like a hand someone scribbled over,-30,360,20","Jonathan","Mcdonald's french fries :(,-40,140,20","Patrick","Random swirls again,-30,280,20","5"
"31600","","survey-text","112","1626690","0.0-108.0-0.0","A1FHC4Z6QXDQSS","","","","{""Q0"":""don't like it, like a bunch of flies ""}","","","","","","","","","","","","","","","","","","","","","","",""
"3488.2999999821186","","image-slider-response","113","1630181","0.0-109.0","A1FHC4Z6QXDQSS","","","","","-27","","","","","","","","","","","","","","","","","","","","","",""
"2189","","image-button-response","114","1635183","0.0-110.0","A1FHC4Z6QXDQSS","img_art/15.jpg","0","","","","","","","","","","","","","","","","","","","","","","","","",""
"722","","image-button-response","115","1635907","0.0-111.0","A1FHC4Z6QXDQSS","img_art/15.jpg","3","","","","","","","","","","","","","","","","","","","","","","","","",""
"1210","","image-button-response","116","1637119","0.0-112.0-0.0","A1FHC4Z6QXDQSS","img_art/15.jpg","5","","","","","","","","","","","","","","","","","","","","","","","","",""
"2389","","image-button-response","117","1639511","0.0-113.0-0.0","A1FHC4Z6QXDQSS","img_art/15.jpg","0","","","","","","","","","","","","","","","","","","","","","","","","",""
"null","","html-keyboard-response","118","1640512","0.0-114.0","A1FHC4Z6QXDQSS","<p style=""font-size: 48px;"">+</p>","","","","","null","allTrialResponses","1000","1","10","img_art/15.jpg","-27","don't like it, like a bunch of flies ","James,Evan,Robert,Devon,Jonathan,Patrick","No opinion truthfully,1,380,20","I am reminded of spring flowers swaying in the dark night's breeze,9,140,20","This piece is too dark,-42,360,20","This one seems a bit frightening,-19,400,20","Very cool, i want it in my living room,50,140,20","I don't like the black dots,-19,280,20","Devon","This one seems a bit frightening,-19,400,20","Patrick","I don't like the black dots,-19,280,20","James","No opinion truthfully,1,380,20","5"
"5563","","survey-text","119","1646081","0.0-115.0-0.0","A1FHC4Z6QXDQSS","","","","{""Q0"":""our""}","","","","","","","","","","","","","","","","","","","","","","",""
"39453","","survey-text","120","1685536","0.0-116.0-0.0","A1FHC4Z6QXDQSS","","","","{""Q0"":""like a wall""}","","","","","","","","","","","","","","","","","","","","","","",""
"4698.299999982119","","image-slider-response","121","1690236","0.0-117.0","A1FHC4Z6QXDQSS","","","","","-23","","","","","","","","","","","","","","","","","","","","","",""
"2474","","image-button-response","122","1695239","0.0-118.0","A1FHC4Z6QXDQSS","img_art/7.jpg","0","","","","","","","","","","","","","","","","","","","","","","","","",""
"1187","","image-button-response","123","1696428","0.0-119.0","A1FHC4Z6QXDQSS","img_art/7.jpg","3","","","","","","","","","","","","","","","","","","","","","","","","",""
"3276","","image-button-response","124","1699705","0.0-120.0-0.0","A1FHC4Z6QXDQSS","img_art/7.jpg","4","","","","","","","","","","","","","","","","","","","","","","","","",""
"1463","","image-button-response","125","1701169","0.0-121.0-0.0","A1FHC4Z6QXDQSS","img_art/7.jpg","0","","","","","","","","","","","","","","","","","","","","","","","","",""
"null","","html-keyboard-response","126","1701671","0.0-122.0","A1FHC4Z6QXDQSS","<p style=""font-size: 48px;"">+</p>","","","","","null","allTrialResponses","500","1","11","img_art/7.jpg","-23","like a wall","James,Jorge,Miguel,Devon,John,Patrick","Looks plain and dull, sorry.,-31,380,20","time and change,1,180,20","Well done minimalism.,35,160,20","I'm not too sure about this one,-10,400,20","It looks like someone took a picture of a muddy ground and called it art.,-41,120,20","It feels cold and hard,-40,280,20","Devon","I'm not too sure about this one,-10,400,20","John","It looks like someone took a picture of a muddy ground and called it art.,-41,120,20","James","Looks plain and dull, sorry.,-31,380,20","5"
"42466","","survey-text","127","1744141","0.0-123.0-0.0","A1FHC4Z6QXDQSS","","","","{""Q0"":""kinda cool looks like a guy on a lion on a boat with a floating spirit maybe Jesus following behind the boat""}","","","","","","","","","","","","","","","","","","","","","","",""
"3502.300000011921","","image-slider-response","128","1747645","0.0-124.0","A1FHC4Z6QXDQSS","","","","","28","","","","","","","","","","","","","","","","","","","","","",""
"2645","","image-button-response","129","1752652","0.0-125.0","A1FHC4Z6QXDQSS","img_art/18.jpg","3","","","","","","","","","","","","","","","","","","","","","","","","",""
"831","","image-button-response","130","1753484","0.0-126.0","A1FHC4Z6QXDQSS","img_art/18.jpg","3","","","","","","","","","","","","","","","","","","","","","","","","",""
"72744","","image-button-response","131","1826231","0.0-127.0-0.0","A1FHC4Z6QXDQSS","img_art/18.jpg","4","","","","","","","","","","","","","","","","","","","","","","","","",""
"33494","","image-button-response","132","1859728","0.0-128.0-0.0","A1FHC4Z6QXDQSS","img_art/18.jpg","0","","","","","","","","","","","","","","","","","","","","","","","","",""
"null","","html-keyboard-response","133","1861237","0.0-129.0","A1FHC4Z6QXDQSS","<p style=""font-size: 48px;"">+</p>","","","","","null","allTrialResponses","1500","1","12","img_art/18.jpg","28","kinda cool looks like a guy on a lion on a boat with a floating spirit maybe Jesus following behind the boat","James,Juan,Jason,Devon,John,Stephen","Very eerie and it's spooky,11,380,20","Again, this is too abtract.,-25,260,20","Umclear what is present in the picture,0,20,20","I really like this one - there seems to be a story behind it,32,400,20","There are alot of elements to this painting and a good mix of colors,32,120,20","Too abstract to me,-30,140,20","Devon","I really like this one - there seems to be a story behind it,32,400,20","John","There are alot of elements to this painting and a good mix of colors,32,120,20","James","Very eerie and it's spooky,11,380,20","5"
"49010","","survey-text","134","1910250","0.0-130.0-0.0","A1FHC4Z6QXDQSS","","","","{""Q0"":""reminds me of a murder scene""}","","","","","","","","","","","","","","","","","","","","","","",""
"83893.59999999404","","image-slider-response","135","1994145","0.0-131.0","A1FHC4Z6QXDQSS","","","","","-15","","","","","","","","","","","","","","","","","","","","","",""
"2482","","image-button-response","136","1999148","0.0-132.0","A1FHC4Z6QXDQSS","img_art/29.jpg","3","","","","","","","","","","","","","","","","","","","","","","","","",""
"3857","","image-button-response","137","2003007","0.0-133.0","A1FHC4Z6QXDQSS","img_art/29.jpg","0","","","","","","","","","","","","","","","","","","","","","","","","",""
"3797","","image-button-response","138","2006805","0.0-134.0-0.0","A1FHC4Z6QXDQSS","img_art/29.jpg","1","","","","","","","","","","","","","","","","","","","","","","","","",""
"788","","image-button-response","139","2007595","0.0-135.0-0.0","A1FHC4Z6QXDQSS","img_art/29.jpg","3","","","","","","","","","","","","","","","","","","","","","","","","",""
"null","","html-keyboard-response","140","2008097","0.0-136.0","A1FHC4Z6QXDQSS","<p style=""font-size: 48px;"">+</p>","","","","","null","allTrialResponses","500","1","13","img_art/29.jpg","-15","reminds me of a murder scene","James,Jeremy,Malik,Devon,John,Devin","It has a red X on there, and x's mean bad in my perspective,-29,380,20","unhappy. Looking at this all the time would depress me.,-11,60,20","Feels like an abandoned dream,13,40,20","seems fun, looks like a battle zone,22,400,20","Its interesting although doesnt illicit any strong emotions from me,10,120,20","Looks a bit messy,-13,380,20","James","It has a red X on there, and x's mean bad in my perspective,-29,380,20","Jeremy","unhappy. Looking at this all the time would depress me.,-11,60,20","Devon","seems fun, looks like a battle zone,22,400,20","5"
"51030","","survey-text","141","2059132","0.0-137.0-0.0","A1FHC4Z6QXDQSS","","","","{""Q0"":""kind of looks like a white spirit monster in a garden""}","","","","","","","","","","","","","","","","","","","","","","",""
"4663.4000000059605","","image-slider-response","142","2063797","0.0-138.0","A1FHC4Z6QXDQSS","","","","","3","","","","","","","","","","","","","","","","","","","","","",""
"4063","","image-button-response","143","2068799","0.0-139.0","A1FHC4Z6QXDQSS","img_art/24.jpg","0","","","","","","","","","","","","","","","","","","","","","","","","",""
"2582","","image-button-response","144","2071383","0.0-140.0","A1FHC4Z6QXDQSS","img_art/24.jpg","2","","","","","","","","","","","","","","","","","","","","","","","","",""
"3394","","image-button-response","145","2074779","0.0-141.0-0.0","A1FHC4Z6QXDQSS","img_art/24.jpg","4","","","","","","","","","","","","","","","","","","","","","","","","",""
"4481","","image-button-response","146","2079261","0.0-142.0-0.0","A1FHC4Z6QXDQSS","img_art/24.jpg","0","","","","","","","","","","","","","","","","","","","","","","","","",""
"null","","html-keyboard-response","147","2080763","0.0-143.0","A1FHC4Z6QXDQSS","<p style=""font-size: 48px;"">+</p>","","","","","null","allTrialResponses","1500","1","14","img_art/24.jpg","3","kind of looks like a white spirit monster in a garden","James,Jeremy,Dalton,Devon,Jared,Jordan","The waterfall looks peaceful,11,380,20","somewhat happy. I like the colors,38,60,20","i feel peace and wanting. i love waterfalls,50,300,20","Aww. I love the peace brought by this picture.,40,400,20","i like that the water seems in motion,6,400,20","Beautiful waterfall I like waterfalls,39,160,20","Dalton","i feel peace and wanting. i love waterfalls,50,300,20","Jared","i like that the water seems in motion,6,400,20","James","The waterfall looks peaceful,11,380,20","5"
"23662","","survey-text","148","2104429","0.0-144.0-0.0","A1FHC4Z6QXDQSS","","","","{""Q0"":""reminds me of a violin ""}","","","","","","","","","","","","","","","","","","","","","","",""
"4412","","image-slider-response","149","2108843","0.0-145.0","A1FHC4Z6QXDQSS","","","","","-16","","","","","","","","","","","","","","","","","","","","","",""
"4600","","image-button-response","150","2113845","0.0-146.0","A1FHC4Z6QXDQSS","img_art/10.jpg","2","","","","","","","","","","","","","","","","","","","","","","","","",""
"1228","","image-button-response","151","2115075","0.0-147.0","A1FHC4Z6QXDQSS","img_art/10.jpg","2","","","","","","","","","","","","","","","","","","","","","","","","",""
"867","","image-button-response","152","2115943","0.0-148.0-0.0","A1FHC4Z6QXDQSS","img_art/10.jpg","0","","","","","","","","","","","","","","","","","","","","","","","","",""
"2225","","image-button-response","153","2118170","0.0-149.0-0.0","A1FHC4Z6QXDQSS","img_art/10.jpg","4","","","","","","","","","","","","","","","","","","","","","","","","",""
"null","","html-keyboard-response","154","2118672","0.0-150.0","A1FHC4Z6QXDQSS","<p style=""font-size: 48px;"">+</p>","","","","","null","allTrialResponses","500","1","15","img_art/10.jpg","-16","reminds me of a violin ","James,Christopher,Dalton,Garrett,Jared,Joshua","I have no opinions on this one,0,380,20","i like this, the mix of brush textures is cool,24,160,20","for some reason reminds me of music,2,300,20","I can't tell what this picture is supposed to mean and I think the colors are lacking variety.,-42,180,20","it just doesnt appeal to me.,-10,400,20","This one is interesting. I like it.,11,240,20","Dalton","for some reason reminds me of music,2,300,20","James","I have no opinions on this one,0,380,20","Jared","it just doesnt appeal to me.,-10,400,20","5"
"7132","","survey-text","155","2125811","0.0-151.0-0.0","A1FHC4Z6QXDQSS","","","","{""Q0"":""course""}","","","","","","","","","","","","","","","","","","","","","","",""
"41808","","survey-text","156","2167620","0.0-152.0-0.0","A1FHC4Z6QXDQSS","","","","{""Q0"":""just a bunch of red scribbles with what looks like a kind of sad in shock gray mouth""}","","","","","","","","","","","","","","","","","","","","","","",""
"5351.600000023842","","image-slider-response","157","2172973","0.0-153.0","A1FHC4Z6QXDQSS","","","","","-27","","","","","","","","","","","","","","","","","","","","","",""
"4054","","image-button-response","158","2177976","0.0-154.0","A1FHC4Z6QXDQSS","img_art/3.jpg","1","","","","","","","","","","","","","","","","","","","","","","","","",""
"1282","","image-button-response","159","2179259","0.0-155.0","A1FHC4Z6QXDQSS","img_art/3.jpg","2","","","","","","","","","","","","","","","","","","","","","","","","",""
"1018","","image-button-response","160","2180279","0.0-156.0-0.0","A1FHC4Z6QXDQSS","img_art/3.jpg","1","","","","","","","","","","","","","","","","","","","","","","","","",""
"2154","","image-button-response","161","2182435","0.0-157.0-0.0","A1FHC4Z6QXDQSS","img_art/3.jpg","4","","","","","","","","","","","","","","","","","","","","","","","","",""
"null","","html-keyboard-response","162","2182937","0.0-158.0","A1FHC4Z6QXDQSS","<p style=""font-size: 48px;"">+</p>","","","","","null","allTrialResponses","500","1","16","img_art/3.jpg","-27","just a bunch of red scribbles with what looks like a kind of sad in shock gray mouth","James,Ryan,Dalton,Brett,Jared,Paul","It's very plain,-20,380,20","Looks like someone threw blood at a wall,-50,380,20","Blood splatter and one black spot.,1,300,20","Confusion and mayhem,-10,360,20","scattered and angry,-26,400,20","It looks like random scribbles by a child and not appealing,-38,300,20","Dalton","Blood splatter and one black spot.,1,300,20","Ryan","Looks like someone threw blood at a wall,-50,380,20","Jared","scattered and angry,-26,400,20","5"
"28493","","survey-text","163","2211435","0.0-159.0-0.0","A1FHC4Z6QXDQSS","","","","{""Q0"":""don't like the white but beside that the back ground is kind of magical and nice""}","","","","","","","","","","","","","","","","","","","","","","",""
"2391.0999999940395","","image-slider-response","164","2213828","0.0-160.0","A1FHC4Z6QXDQSS","","","","","3","","","","","","","","","","","","","","","","","","","","","",""
"4105","","image-button-response","165","2218830","0.0-161.0","A1FHC4Z6QXDQSS","img_art/23.jpg","0","","","","","","","","","","","","","","","","","","","","","","","","",""
"70493","","image-button-response","166","2289325","0.0-162.0","A1FHC4Z6QXDQSS","img_art/23.jpg","0","","","","","","","","","","","","","","","","","","","","","","","","",""
"8950","","image-button-response","167","2298277","0.0-163.0-0.0","A1FHC4Z6QXDQSS","img_art/23.jpg","5","","","","","","","","","","","","","","","","","","","","","","","","",""
"1932","","image-button-response","168","2300212","0.0-164.0-0.0","A1FHC4Z6QXDQSS","img_art/23.jpg","2","","","","","","","","","","","","","","","","","","","","","","","","",""
"null","","html-keyboard-response","169","2301213","0.0-165.0","A1FHC4Z6QXDQSS","<p style=""font-size: 48px;"">+</p>","","","","","null","allTrialResponses","1000","1","17","img_art/23.jpg","3","don't like the white but beside that the back ground is kind of magical and nice","Bryan,Ryan,Dalton,Justin,Jared,Derek","Looks like fireworks.,21,400,20","One of my favorites, love the colors and how the white looks like humans,50,380,20","illegible wording with a graffiti background,1,300,20","The white paint through the middle really draws the eye.,30,280,20","it makes me aggitated,-21,400,20","Very colorful and wild. It's cool and I like it,32,360,20","Bryan","Looks like fireworks.,21,400,20","Derek","Very colorful and wild. It's cool and I like it,32,360,20","Dalton","illegible wording with a graffiti background,1,300,20","5"
"41981","","survey-text","170","2343198","0.0-166.0-0.0","A1FHC4Z6QXDQSS","","","","{""Q0"":""kind of like the calm mood and orange and yellow""}","","","","","","","","","","","","","","","","","","","","","","",""
"5552.799999982119","","image-slider-response","171","2348753","0.0-167.0","A1FHC4Z6QXDQSS","","","","","6","","","","","","","","","","","","","","","","","","","","","",""
"2133","","image-button-response","172","2353754","0.0-168.0","A1FHC4Z6QXDQSS","img_art/1.jpg","0","","","","","","","","","","","","","","","","","","","","","","","","",""
"2752","","image-button-response","173","2356507","0.0-169.0","A1FHC4Z6QXDQSS","img_art/1.jpg","2","","","","","","","","","","","","","","","","","","","","","","","","",""
"1918","","image-button-response","174","2358427","0.0-170.0-0.0","A1FHC4Z6QXDQSS","img_art/1.jpg","3","","","","","","","","","","","","","","","","","","","","","","","","",""
"1417","","image-button-response","175","2359845","0.0-171.0-0.0","A1FHC4Z6QXDQSS","img_art/1.jpg","0","","","","","","","","","","","","","","","","","","","","","","","","",""
"null","","html-keyboard-response","176","2360853","0.0-172.0","A1FHC4Z6QXDQSS","<p style=""font-size: 48px;"">+</p>","","","","","null","allTrialResponses","1000","1","18","img_art/1.jpg","6","kind of like the calm mood and orange and yellow","Bryan,Nathan,Dalton,Matthew,Jeffrey,Derek","Again, like the colors & abstractness.,29,400,20","Not a fan of the mood, overly party-ish and bright colors do not suit my taste,-40,200,20","the colors are vibrant and beautiful,1,300,20","More passable, colorful, abstract.,13,120,20","Makes me warm and relaxed,38,40,20","The blend of colors are gorgeous and reminds me of fall,32,360,20","Dalton","the colors are vibrant and beautiful,1,300,20","Matthew","More passable, colorful, abstract.,13,120,20","Bryan","Again, like the colors & abstractness.,29,400,20","5"
"51994","","survey-text","177","2412852","0.0-173.0-0.0","A1FHC4Z6QXDQSS","","","","{""Q0"":""like the brownish calm tones and kind of reminds me of something""}","","","","","","","","","","","","","","","","","","","","","","",""
"6048.299999982119","","image-slider-response","178","2418902","0.0-174.0","A1FHC4Z6QXDQSS","","","","","12","","","","","","","","","","","","","","","","","","","","","",""
"1965","","image-button-response","179","2423904","0.0-175.0","A1FHC4Z6QXDQSS","img_art/28.jpg","0","","","","","","","","","","","","","","","","","","","","","","","","",""
"1520","","image-button-response","180","2425425","0.0-176.0","A1FHC4Z6QXDQSS","img_art/28.jpg","0","","","","","","","","","","","","","","","","","","","","","","","","",""
"4063","","image-button-response","181","2429490","0.0-177.0-0.0","A1FHC4Z6QXDQSS","img_art/28.jpg","3","","","","","","","","","","","","","","","","","","","","","","","","",""
"1890","","image-button-response","182","2431382","0.0-178.0-0.0","A1FHC4Z6QXDQSS","img_art/28.jpg","4","","","","","","","","","","","","","","","","","","","","","","","","",""
"null","","html-keyboard-response","183","2432394","0.0-179.0","A1FHC4Z6QXDQSS","<p style=""font-size: 48px;"">+</p>","","","","","null","allTrialResponses","1000","1","19","img_art/28.jpg","12","like the brownish calm tones and kind of reminds me of something","Bryan,Andrew,Dalton,Matthew,Vincent,Alex","A meeting in Old Jerusalem.,11,400,20","Doesn't give me an emotional response,0,160,20","not sure what i feel but it makes me feel uncomfortable,1,300,20","Normally don't react well to abstract art, but it looks almost like something's there.,28,120,20","This is one of my favorites. It says to me to take time for people,37,360,20","This piece is depressing to me, reminds me of German paintings,-6,100,20","Bryan","A meeting in Old Jerusalem.,11,400,20","Matthew","Normally don't react well to abstract art, but it looks almost like something's there.,28,120,20","Vincent","This is one of my favorites. It says to me to take time for people,37,360,20","5"
"24414","","survey-text","184","2456814","0.0-180.0-0.0","A1FHC4Z6QXDQSS","","","","{""Q0"":""like this one has kind of a cold winter feel and looks like a pole in the middle""}","","","","","","","","","","","","","","","","","","","","","","",""
"4511.9000000059605","","image-slider-response","185","2461327","0.0-181.0","A1FHC4Z6QXDQSS","","","","","34","","","","","","","","","","","","","","","","","","","","","",""
"3495","","image-button-response","186","2466330","0.0-182.0","A1FHC4Z6QXDQSS","img_art/13.jpg","3","","","","","","","","","","","","","","","","","","","","","","","","",""
"4396","","image-button-response","187","2470728","0.0-183.0","A1FHC4Z6QXDQSS","img_art/13.jpg","0","","","","","","","","","","","","","","","","","","","","","","","","",""
"1147","","image-button-response","188","2471877","0.0-184.0-0.0","A1FHC4Z6QXDQSS","img_art/13.jpg","3","","","","","","","","","","","","","","","","","","","","","","","","",""
"1759","","image-button-response","189","2473640","0.0-185.0-0.0","A1FHC4Z6QXDQSS","img_art/13.jpg","4","","","","","","","","","","","","","","","","","","","","","","","","",""
"null","","html-keyboard-response","190","2474153","0.0-186.0","A1FHC4Z6QXDQSS","<p style=""font-size: 48px;"">+</p>","","","","","null","allTrialResponses","500","1","20","img_art/13.jpg","34","like this one has kind of a cold winter feel and looks like a pole in the middle","Bryan,Marcus,Richard,Matthew,Vincent,Tyler","Love the colors, love the abstractness, love this Jackson Pollock type painting.,48,400,20","It's okay. Feels like a blander take on a Jackson Pollack,11,60,20","kind of like the pattern and colors but don't love it,13,340,20","AWESOME! Pollack but with more direction.,32,120,20","I love the colors reminds me of a rainy day..it's calm and relaxing,32,360,20","Pollock? Love the juxtaposition of colors. Soothing and stirring, a beautiful inexplicable paradox.,50,320,20","Bryan","Love the colors, love the abstractness, love this Jackson Pollock type painting.,48,400,20","Matthew","AWESOME! Pollack but with more direction.,32,120,20","Vincent","I love the colors reminds me of a rainy day..it's calm and relaxing,32,360,20","5"
"4625","","survey-text","191","2478788","0.0-187.0-0.0","A1FHC4Z6QXDQSS","","","","{""Q0"":""we""}","","","","","","","","","","","","","","","","","","","","","","",""
"37598","","survey-text","192","2516386","0.0-188.0-0.0","A1FHC4Z6QXDQSS","","","","{""Q0"":""thing maybe my favorite, love the feel of a old city and the face of what seems like some sorta god""}","","","","","","","","","","","","","","","","","","","","","","",""
"4043.5","","image-slider-response","193","2520431","0.0-189.0","A1FHC4Z6QXDQSS","","","","","50","","","","","","","","","","","","","","","","","","","","","",""
"2922","","image-button-response","194","2525435","0.0-190.0","A1FHC4Z6QXDQSS","img_art/8.jpg","0","","","","","","","","","","","","","","","","","","","","","","","","",""
"1204","","image-button-response","195","2526640","0.0-191.0","A1FHC4Z6QXDQSS","img_art/8.jpg","2","","","","","","","","","","","","","","","","","","","","","","","","",""
"1161","","image-button-response","196","2527803","0.0-192.0-0.0","A1FHC4Z6QXDQSS","img_art/8.jpg","0","","","","","","","","","","","","","","","","","","","","","","","","",""
"2154","","image-button-response","197","2529959","0.0-193.0-0.0","A1FHC4Z6QXDQSS","img_art/8.jpg","4","","","","","","","","","","","","","","","","","","","","","","","","",""
"null","","html-keyboard-response","198","2530960","0.0-194.0","A1FHC4Z6QXDQSS","<p style=""font-size: 48px;"">+</p>","","","","","null","allTrialResponses","1000","1","21","img_art/8.jpg","50","thing maybe my favorite, love the feel of a old city and the face of what seems like some sorta god","Bryan,Timothy,Cody,Matthew,Vincent,Shane","Like the colors & the imagery - old city, native peoples maybe.,20,400,20","Too much going on, too many colors, makes me feel uneasy,-20,240,20","Love the colors & block-style,50,180,20","Escher? Dali? Could be their lovechild?,50,120,20","This speaks volumes to me and is another favorite I'm sure by many,40,360,20","Ancient city looked after by diety,38,80,20","Cody","Love the colors & block-style,50,180,20","Bryan","Like the colors & the imagery - old city, native peoples maybe.,20,400,20","Vincent","This speaks volumes to me and is another favorite I'm sure by many,40,360,20","5"
"47416","","survey-text","199","2578381","0.0-195.0-0.0","A1FHC4Z6QXDQSS","","","","{""Q0"":""someone sleeping is the mood I get but also I don't know""}","","","","","","","","","","","","","","","","","","","","","","",""
"2805.800000011921","","image-slider-response","200","2581189","0.0-196.0","A1FHC4Z6QXDQSS","","","","","-11","","","","","","","","","","","","","","","","","","","","","",""
"1526","","image-button-response","201","2586191","0.0-197.0","A1FHC4Z6QXDQSS","img_art/9.jpg","0","","","","","","","","","","","","","","","","","","","","","","","","",""
"375","","image-button-response","202","2586568","0.0-198.0","A1FHC4Z6QXDQSS","img_art/9.jpg","0","","","","","","","","","","","","","","","","","","","","","","","","",""
"6808","","image-button-response","203","2593377","0.0-199.0-0.0","A1FHC4Z6QXDQSS","img_art/9.jpg","4","","","","","","","","","","","","","","","","","","","","","","","","",""
"3051","","image-button-response","204","2596431","0.0-200.0-0.0","A1FHC4Z6QXDQSS","img_art/9.jpg","1","","","","","","","","","","","","","","","","","","","","","","","","",""
"null","","html-keyboard-response","205","2596933","0.0-201.0","A1FHC4Z6QXDQSS","<p style=""font-size: 48px;"">+</p>","","","","","null","allTrialResponses","500","1","22","img_art/9.jpg","-11","someone sleeping is the mood I get but also I don't know","Bryan,Ethan,Cody,Cole,Vincent,Trevor","Huh?  Doesn't invoke much.,-37,400,20","How neat is this piece?  I love the angry expressive lines. Emotion is captured in it.,26,120,20","Feels angry .....,-40,180,20","I see a foot. Idk colors are pleasant,12,200,20","This speaks to me like a personalities and sides and not all are nice,19,360,20","nice colors but it looks like it's from the 80s,10,280,20","Bryan","Huh?  Doesn't invoke much.,-37,400,20","Vincent","This speaks to me like a personalities and sides and not all are nice,19,360,20","Ethan","How neat is this piece?  I love the angry expressive lines. Emotion is captured in it.,26,120,20","5"
"39996","","survey-text","206","2636934","0.0-202.0-0.0","A1FHC4Z6QXDQSS","","","","{""Q0"":""reminds me of a painting in a painting of maybe a home in the desert with bones of a dragon or something""}","","","","","","","","","","","","","","","","","","","","","","",""
"6529.5","","image-slider-response","207","2643466","0.0-203.0","A1FHC4Z6QXDQSS","","","","","13","","","","","","","","","","","","","","","","","","","","","",""
"null","","image-button-response","208","2648468","0.0-204.0","A1FHC4Z6QXDQSS","img_art/20.jpg","null","","","","","","","","","","","","","","","","","","","","","","","","",""
"8723","","image-button-response","209","2657192","0.0-205.0","A1FHC4Z6QXDQSS","img_art/20.jpg","0","","","","","","","","","","","","","","","","","","","","","","","","",""
"3021","","image-button-response","210","2660216","0.0-206.0-0.0","A1FHC4Z6QXDQSS","img_art/20.jpg","3","","","","","","","","","","","","","","","","","","","","","","","","",""
"2037","","image-button-response","211","2662255","0.0-207.0-0.0","A1FHC4Z6QXDQSS","img_art/20.jpg","4","","","","","","","","","","","","","","","","","","","","","","","","",""
"null","","html-keyboard-response","212","2663767","0.0-208.0","A1FHC4Z6QXDQSS","<p style=""font-size: 48px;"">+</p>","","","","","null","allTrialResponses","1500","1","23","img_art/20.jpg","13","reminds me of a painting in a painting of maybe a home in the desert with bones of a dragon or something","Bryan,Ethan,Steven,Ian,Vincent,Corey","Reminds me of Georgia O'Keefe.,11,400,20","I can tell this artist has experience. I just don't care for the color combo.,7,120,20","It's okay, I see what looks like a truck laying on it's side. Meh,10,160,20","A painting within a painting, the inner painting looks like a car crash with a semi truck.,21,260,20","I love the colors and coukd spend alot of time with the picture,33,360,20","It seems to be a neutral cool toned art piece. Gives me alamo/desert vibes,2,260,20","Bryan","Reminds me of Georgia O'Keefe.,11,400,20","Ian","A painting within a painting, the inner painting looks like a car crash with a semi truck.,21,260,20","Vincent","I love the colors and coukd spend alot of time with the picture,33,360,20","5"
"19812","","survey-text","213","2683584","0.0-209.0-0.0","A1FHC4Z6QXDQSS","","","","{""Q0"":""like a beach town ""}","","","","","","","","","","","","","","","","","","","","","","",""
"3139","","image-slider-response","214","2686725","0.0-210.0","A1FHC4Z6QXDQSS","","","","","2","","","","","","","","","","","","","","","","","","","","","",""
"3756","","image-button-response","215","2691727","0.0-211.0","A1FHC4Z6QXDQSS","img_art/19.jpg","0","","","","","","","","","","","","","","","","","","","","","","","","",""
"759","","image-button-response","216","2692487","0.0-212.0","A1FHC4Z6QXDQSS","img_art/19.jpg","0","","","","","","","","","","","","","","","","","","","","","","","","",""
"3326","","image-button-response","217","2695815","0.0-213.0-0.0","A1FHC4Z6QXDQSS","img_art/19.jpg","2","","","","","","","","","","","","","","","","","","","","","","","","",""
"9428","","image-button-response","218","2705245","0.0-214.0-0.0","A1FHC4Z6QXDQSS","img_art/19.jpg","4","","","","","","","","","","","","","","","","","","","","","","","","",""
"null","","html-keyboard-response","219","2705752","0.0-215.0","A1FHC4Z6QXDQSS","<p style=""font-size: 48px;"">+</p>","","","","","null","allTrialResponses","500","1","24","img_art/19.jpg","2","like a beach town ","Bryan,Cameron,Colton,Ian,Vincent,Thomas","Looks like a child's rendering of a city street but not too sure.,0,400,20","Snowy winter scene,25,60,20","way too much going on,-33,220,20","It looks cool but at the time looks like it was done by a talented 5 year old.,13,260,20","I really like the colors and feel of this one and alot of life,41,360,20","I like this as a whole, but the longer I look at it, the less it pleases me,-10,220,20","Bryan","Looks like a child's rendering of a city street but not too sure.,0,400,20","Colton","way too much going on,-33,220,20","Vincent","I really like the colors and feel of this one and alot of life,41,360,20","5"
"25194","","survey-text","220","2730952","0.0-216.0-0.0","A1FHC4Z6QXDQSS","","","","{""Q0"":""kind of like it, like that the bears head is the only thing with color""}","","","","","","","","","","","","","","","","","","","","","","",""
"6005.699999988079","","image-slider-response","221","2736959","0.0-217.0","A1FHC4Z6QXDQSS","","","","","38","","","","","","","","","","","","","","","","","","","","","",""
"null","","image-button-response","222","2741963","0.0-218.0","A1FHC4Z6QXDQSS","img_art/16.jpg","null","","","","","","","","","","","","","","","","","","","","","","","","",""
"1636","","image-button-response","223","2743601","0.0-219.0","A1FHC4Z6QXDQSS","img_art/16.jpg","0","","","","","","","","","","","","","","","","","","","","","","","","",""
"2532","","image-button-response","224","2746134","0.0-220.0-0.0","A1FHC4Z6QXDQSS","img_art/16.jpg","4","","","","","","","","","","","","","","","","","","","","","","","","",""
"6534","","image-button-response","225","2752671","0.0-221.0-0.0","A1FHC4Z6QXDQSS","img_art/16.jpg","1","","","","","","","","","","","","","","","","","","","","","","","","",""
"null","","html-keyboard-response","226","2753173","0.0-222.0","A1FHC4Z6QXDQSS","<p style=""font-size: 48px;"">+</p>","","","","","null","allTrialResponses","500","1","25","img_art/16.jpg","38","kind of like it, like that the bears head is the only thing with color","Bryan,Luis,Colton,Chase,Vincent,Alexis","Something terrible happened. Either the figure on the right is the victim or another shredded toy.,-49,400,20","Kind of an edgy teenager vibe,32,400,20","the materials used are interesting,30,220,20","Seems very twisted and dark.,-35,120,20","Toys toys toys. Happy playful free spirit,30,360,20","It looks very generic, like items were pasted onto the background,-38,140,20","Bryan","Something terrible happened. Either the figure on the right is the victim or another shredded toy.,-49,400,20","Vincent","Toys toys toys. Happy playful free spirit,30,360,20","Luis","Kind of an edgy teenager vibe,32,400,20","5"
"3481","","survey-text","227","2756663","0.0-223.0-0.0","A1FHC4Z6QXDQSS","","","","{""Q0"":""table""}","","","","","","","","","","","","","","","","","","","","","","",""
"11537","","survey-text","228","2768202","0.0-224.0-0.0","A1FHC4Z6QXDQSS","","","","{""Q0"":""what kind of tree is that?""}","","","","","","","","","","","","","","","","","","","","","","",""
"4519.9000000059605","","image-slider-response","229","2772723","0.0-225.0","A1FHC4Z6QXDQSS","","","","","3","","","","","","","","","","","","","","","","","","","","","",""
"3338","","image-button-response","230","2777725","0.0-226.0","A1FHC4Z6QXDQSS","img_art/6.jpg","0","","","","","","","","","","","","","","","","","","","","","","","","",""
"862","","image-button-response","231","2778589","0.0-227.0","A1FHC4Z6QXDQSS","img_art/6.jpg","1","","","","","","","","","","","","","","","","","","","","","","","","",""
"3073","","image-button-response","232","2781665","0.0-228.0-0.0","A1FHC4Z6QXDQSS","img_art/6.jpg","2","","","","","","","","","","","","","","","","","","","","","","","","",""
"9479","","image-button-response","233","2791145","0.0-229.0-0.0","A1FHC4Z6QXDQSS","img_art/6.jpg","0","","","","","","","","","","","","","","","","","","","","","","","","",""
"null","","html-keyboard-response","234","2792147","0.0-230.0","A1FHC4Z6QXDQSS","<p style=""font-size: 48px;"">+</p>","","","","","null","allTrialResponses","1000","1","26","img_art/6.jpg","3","what kind of tree is that?","Bryan,Luis,Caleb,Benjamin,Vincent,Luke","Growth in the desert?  Don't care for it very much.,-26,400,20","I love the representation of death and life.,50,400,20","Despite how simple it is, this piece has clear meaning.,34,40,20","Something very simplistic about it. The colors mesh well.,10,260,20","Calm and catching,30,360,20","i like it but it is very neutral,9,20,20","Luis","I love the representation of death and life.,50,400,20","Caleb","Despite how simple it is, this piece has clear meaning.,34,40,20","Bryan","Growth in the desert?  Don't care for it very much.,-26,400,20","5"
"27588","","survey-text","235","2819742","0.0-231.0-0.0","A1FHC4Z6QXDQSS","","","","{""Q0"":""spirit like the color of greenishness""}","","","","","","","","","","","","","","","","","","","","","","",""
"6692.399999976158","","image-slider-response","236","2826436","0.0-232.0","A1FHC4Z6QXDQSS","","","","","29","","","","","","","","","","","","","","","","","","","","","",""
"4825","","image-button-response","237","2831443","0.0-233.0","A1FHC4Z6QXDQSS","img_art/25.jpg","2","","","","","","","","","","","","","","","","","","","","","","","","",""
"628","","image-button-response","238","2832072","0.0-234.0","A1FHC4Z6QXDQSS","img_art/25.jpg","2","","","","","","","","","","","","","","","","","","","","","","","","",""
"1025","","image-button-response","239","2833100","0.0-235.0-0.0","A1FHC4Z6QXDQSS","img_art/25.jpg","0","","","","","","","","","","","","","","","","","","","","","","","","",""
"5567","","image-button-response","240","2838669","0.0-236.0-0.0","A1FHC4Z6QXDQSS","img_art/25.jpg","5","","","","","","","","","","","","","","","","","","","","","","","","",""
"null","","html-keyboard-response","241","2839671","0.0-237.0","A1FHC4Z6QXDQSS","<p style=""font-size: 48px;"">+</p>","","","","","null","allTrialResponses","1000","1","27","img_art/25.jpg","29","spirit like the color of greenishness","Bryan,Luis,Caleb,Alejandro,Mitchell,Spencer","Scary. Something out of a Stephen King book/movie.,-31,400,20","New life, rising from your personal battles,50,400,20","Very cool color, very clear message!,50,40,20","Seems ritualistic and nativist,50,80,20","culture, tradition. Village people with an honored elder.,40,180,20","I really like it, very simple, very tribal,38,120,20","Caleb","Very cool color, very clear message!,50,40,20","Bryan","Scary. Something out of a Stephen King book/movie.,-31,400,20","Spencer","I really like it, very simple, very tribal,38,120,20","5"
"24201","","survey-text","242","2863878","0.0-238.0-0.0","A1FHC4Z6QXDQSS","","","","{""Q0"":""don't like the little bit of black but the rest is nice, like the sun""}","","","","","","","","","","","","","","","","","","","","","","",""
"5346.5","","image-slider-response","243","2869226","0.0-239.0","A1FHC4Z6QXDQSS","","","","","30","","","","","","","","","","","","","","","","","","","","","",""
"3045","","image-button-response","244","2874228","0.0-240.0","A1FHC4Z6QXDQSS","img_art/22.jpg","0","","","","","","","","","","","","","","","","","","","","","","","","",""
"481","","image-button-response","245","2874711","0.0-241.0","A1FHC4Z6QXDQSS","img_art/22.jpg","1","","","","","","","","","","","","","","","","","","","","","","","","",""
"1820","","image-button-response","246","2876533","0.0-242.0-0.0","A1FHC4Z6QXDQSS","img_art/22.jpg","0","","","","","","","","","","","","","","","","","","","","","","","","",""
"1340","","image-button-response","247","2877875","0.0-243.0-0.0","A1FHC4Z6QXDQSS","img_art/22.jpg","0","","","","","","","","","","","","","","","","","","","","","","","","",""
"803","","image-button-response","248","2883334","0.0-243.1-0.1","A1FHC4Z6QXDQSS","img_art/22.jpg","3","","","","","","","","","","","","","","","","","","","","","","","","",""
"null","","html-keyboard-response","249","2883843","0.0-244.0","A1FHC4Z6QXDQSS","<p style=""font-size: 48px;"">+</p>","","","","","null","allTrialResponses","500","1","28","img_art/22.jpg","30","don't like the little bit of black but the rest is nice, like the sun","Bryan,Austin,Caleb,Bryce,Noah,Spencer","Love vibrant colors & the abstractness.,43,400,20","Great color palette,29,240,20","Seems too simple.,-19,40,20","So colorful i love it!,22,20,20","displeasure - not a fan of the colour or the shapes,-18,260,20","Pretty colors but too blocky for me,-19,120,20","Austin","Great color palette,29,240,20","Bryan","Love vibrant colors & the abstractness.,43,400,20","Bryce","So colorful i love it!,22,20,20","7"
"13807","","survey-text","250","2897656","0.0-245.0-0.0","A1FHC4Z6QXDQSS","","","","{""Q0"":""reminds me of freeways and traffic""}","","","","","","","","","","","","","","","","","","","","","","",""
"6026.699999988079","","image-slider-response","251","2903685","0.0-246.0","A1FHC4Z6QXDQSS","","","","","10","","","","","","","","","","","","","","","","","","","","","",""
"3333","","image-button-response","252","2908687","0.0-247.0","A1FHC4Z6QXDQSS","img_art/11.jpg","0","","","","","","","","","","","","","","","","","","","","","","","","",""
"705","","image-button-response","253","2909394","0.0-248.0","A1FHC4Z6QXDQSS","img_art/11.jpg","2","","","","","","","","","","","","","","","","","","","","","","","","",""
"924","","image-button-response","254","2910319","0.0-249.0-0.0","A1FHC4Z6QXDQSS","img_art/11.jpg","0","","","","","","","","","","","","","","","","","","","","","","","","",""
"2328","","image-button-response","255","2912650","0.0-250.0-0.0","A1FHC4Z6QXDQSS","img_art/11.jpg","4","","","","","","","","","","","","","","","","","","","","","","","","",""
"null","","html-keyboard-response","256","2913659","0.0-251.0","A1FHC4Z6QXDQSS","<p style=""font-size: 48px;"">+</p>","","","","","null","allTrialResponses","1000","1","29","img_art/11.jpg","10","reminds me of freeways and traffic","Bryan,Austin,Eric,Bryce,Christian,Nicholas","Rainy asian city scape.,31,400,20","Very unique piece of art,50,240,20","I don't like the gloomy color, but it reminds me of a city which I like.,35,100,20","Scary again. Not a fan.,-23,20,20","to me, perfect reflection of the modern commute,32,140,20","Love the colors and flow,50,240,20","Eric","I don't like the gloomy color, but it reminds me of a city which I like.,35,100,20","Bryan","Rainy asian city scape.,31,400,20","Christian","to me, perfect reflection of the modern commute,32,140,20","7"
"17106","","survey-text","257","2930772","0.0-252.0-0.0","A1FHC4Z6QXDQSS","","","","{""Q0"":""tree at burning man""}","","","","","","","","","","","","","","","","","","","","","","",""
"5635.0999999940395","","image-slider-response","258","2936408","0.0-253.0","A1FHC4Z6QXDQSS","","","","","1","","","","","","","","","","","","","","","","","","","","","",""
"2166","","image-button-response","259","2941411","0.0-254.0","A1FHC4Z6QXDQSS","img_art/14.jpg","0","","","","","","","","","","","","","","","","","","","","","","","","",""
"1742","","image-button-response","260","2943155","0.0-255.0","A1FHC4Z6QXDQSS","img_art/14.jpg","5","","","","","","","","","","","","","","","","","","","","","","","","",""
"1114","","image-button-response","261","2944271","0.0-256.0-0.0","A1FHC4Z6QXDQSS","img_art/14.jpg","0","","","","","","","","","","","","","","","","","","","","","","","","",""
"536","","image-button-response","262","2944808","0.0-257.0-0.0","A1FHC4Z6QXDQSS","img_art/14.jpg","1","","","","","","","","","","","","","","","","","","","","","","","","",""
"null","","html-keyboard-response","263","2945311","0.0-258.0","A1FHC4Z6QXDQSS","<p style=""font-size: 48px;"">+</p>","","","","","null","allTrialResponses","500","1","30","img_art/14.jpg","1","tree at burning man","Bryan,Mason,Eric,Jacob,Christian,Brendan","Like some of the colors but not much else.,1,400,20","ok, gloomy though.,12,100,20","I'm imagining a flower bouquet with pretty colors which I like.,35,100,20","I kind of like it!,6,340,20","medium recalls back to an oriental style,16,140,20","it looks like a tree on desert,23,340,20","Brendan","it looks like a tree on desert,23,340,20","Bryan","Like some of the colors but not much else.,1,400,20","Mason","ok, gloomy though.,12,100,20","7"
"2938","","image-button-response_instructions","264","2948255","0.0-259.0","A1FHC4Z6QXDQSS","","0","instructions","","","","","","","","","","","","","","","","","","","","","","","",""
"3830","","image-button-response","265","2952092","0.0-260.0","A1FHC4Z6QXDQSS","","0","","","","","","","","","","","","","","","","","","","","","","","","",""
