"rt","url","trial_type","trial_index","time_elapsed","internal_node_id","participant_id","stimulus","button_pressed","Name","responses","response","key_press","variableName","fixationTime","condition","trial","photo","subjectRating","subjectResponse","agentsNames","agent_1_Response","agent_2_Response","agent_3_Response","agent_4_Response","agent_5_Response","agent_6_Response","kept_1_name","kept_1_response","kept_2_name","kept_2_response","kept_3_name","kept_3_response","errorCounter"
"395872","external_page_harvard.html","external-html","0","395943","0.0-0.0","A1FKRZKU1H9YFC","","","","","","","","","","","","","","","","","","","","","","","","","","",""
"1625","","image-button-response","1","397570","0.0-1.0","A1FKRZKU1H9YFC","","1","","","","","","","","","","","","","","","","","","","","","","","","",""
"1756","","image-button-response","2","399332","0.0-2.0-0.0","A1FKRZKU1H9YFC","","1","phone","","","","","","","","","","","","","","","","","","","","","","","",""
"3838","","survey-text","3","403173","0.0-3.0-0.0","A1FKRZKU1H9YFC","","","","{""Q0"":""A1FKRZKU1H9YFC""}","","","","","","","","","","","","","","","","","","","","","","",""
"1872","","image-button-response_instructions","4","405048","0.0-4.0","A1FKRZKU1H9YFC","","0","instructions","","","","","","","","","","","","","","","","","","","","","","","",""
"8573","","image-button-response_instructions","5","413622","0.0-5.0","A1FKRZKU1H9YFC","img_art/ins/popularity/ins1.png","0","instructions","","","","","","","","","","","","","","","","","","","","","","","",""
"4505","","image-button-response_instructions","6","418129","0.0-6.0","A1FKRZKU1H9YFC","img_art/ins/popularity/ins2.png","0","instructions","","","","","","","","","","","","","","","","","","","","","","","",""
"1777","","image-button-response_instructions","7","419908","0.0-7.0","A1FKRZKU1H9YFC","img_art/ins/popularity/ins2Extreme.png","0","instructions","","","","","","","","","","","","","","","","","","","","","","","",""
"3559","","image-button-response_instructions","8","423469","0.0-8.0","A1FKRZKU1H9YFC","img_art/ins/popularity/ins3KEEPpop.PNG","0","instructions","","","","","","","","","","","","","","","","","","","","","","","",""
"2999","","image-button-response_instructions","9","426468","0.0-9.0","A1FKRZKU1H9YFC","img_art/ins/popularity/ins3ANamepop.PNG","0","instructions","","","","","","","","","","","","","","","","","","","","","","","",""
"1894","","image-button-response_instructions","10","428365","0.0-10.0","A1FKRZKU1H9YFC","img_art/ins/popularity/ins3ARatingpop.png","0","instructions","","","","","","","","","","","","","","","","","","","","","","","",""
"1332","","image-button-response_instructions","11","429698","0.0-11.0","A1FKRZKU1H9YFC","img_art/ins/popularity/ins3ATextpop.png","0","instructions","","","","","","","","","","","","","","","","","","","","","","","",""
"2720","","image-button-response_instructions","12","432420","0.0-12.0","A1FKRZKU1H9YFC","img_art/ins/popularity/ins3ALikespop.png","0","instructions","","","","","","","","","","","","","","","","","","","","","","","",""
"6649","","image-button-response_instructions","13","439071","0.0-13.0","A1FKRZKU1H9YFC","img_art/ins/popularity/ins3KEEPpop.PNG","0","instructions","","","","","","","","","","","","","","","","","","","","","","","",""
"4047","","image-button-response_instructions","14","443119","0.0-14.0","A1FKRZKU1H9YFC","img_art/ins/popularity/ins3_5RED.png","0","instructions","","","","","","","","","","","","","","","","","","","","","","","",""
"1720","","image-button-response_instructions","15","444841","0.0-15.0","A1FKRZKU1H9YFC","img_art/ins/popularity/ins3KEEPpop.PNG","0","instructions","","","","","","","","","","","","","","","","","","","","","","","",""
"4103","","image-button-response_instructions","16","448945","0.0-16.0","A1FKRZKU1H9YFC","img_art/ins/popularity/ins4KEEPpop.PNG","0","instructions","","","","","","","","","","","","","","","","","","","","","","","",""
"4691","","image-button-response_instructions","17","453637","0.0-17.0","A1FKRZKU1H9YFC","img_art/ins/popularity/ins5KEEPpop.PNG","0","instructions","","","","","","","","","","","","","","","","","","","","","","","",""
"1209","","image-button-response_instructions","18","454847","0.0-18.0","A1FKRZKU1H9YFC","","0","instructions","","","","","","","","","","","","","","","","","","","","","","","",""
"3970","","survey-text","19","458847","0.0-19.0-0.0","A1FKRZKU1H9YFC","","","","{""Q0"":""BUT""}","","","","","","","","","","","","","","","","","","","","","","",""
"6328","","survey-text","20","467618","0.0-19.1-0.1","A1FKRZKU1H9YFC","","","","{""Q0"":""but""}","","","","","","","","","","","","","","","","","","","","","","",""
"10253","","survey-text","21","477873","0.0-20.0-0.0","A1FKRZKU1H9YFC","","","","{""Q0"":""I find the colors ugly""}","","","","","","","","","","","","","","","","","","","","","","",""
"3408","","image-slider-response","22","481287","0.0-21.0","A1FKRZKU1H9YFC","","","","","-26","","","","","","","","","","","","","","","","","","","","","",""
"null","","image-button-response","23","486292","0.0-22.0","A1FKRZKU1H9YFC","img_art/ins/1.jpg","null","","","","","","","","","","","","","","","","","","","","","","","","",""
"4671","","image-button-response","24","490965","0.0-23.0","A1FKRZKU1H9YFC","img_art/ins/1.jpg","4","","","","","","","","","","","","","","","","","","","","","","","","",""
"7179","","image-button-response","25","498145","0.0-24.0-0.0","A1FKRZKU1H9YFC","img_art/ins/1.jpg","0","","","","","","","","","","","","","","","","","","","","","","","","",""
"2987","","image-button-response","26","501135","0.0-25.0-0.0","A1FKRZKU1H9YFC","img_art/ins/1.jpg","5","","","","","","","","","","","","","","","","","","","","","","","","",""
"null","","html-keyboard-response","27","502139","0.0-26.0","A1FKRZKU1H9YFC","<p style=""font-size: 48px;"">+</p>","","","","","null","allTrialResponses","1000","1","-2","img_art/ins/1.jpg","-26","I find the colors ugly","Allison,Ashley,Beth,Dora,Erika,Jen","looks like a lot of things going on in the mist,20,20,20","I just don't get why these type of art would be popular,-32,40,20","This color reminds me of poo,-46,60,20","looks like what my niece in 3rd grade did this afternoon,-50,80,20","I like the sophisticated brushwork,40,100,20","It reminds me of a candy land dream I had,36,120,20","Erika","I like the sophisticated brushwork,40,100,20","Allison","looks like a lot of things going on in the mist,20,20,20","Jen","It reminds me of a candy land dream I had,36,120,20","1"
"12100","","survey-text","28","514245","0.0-27.0-0.0","A1FKRZKU1H9YFC","","","","{""Q0"":""The texture and bright colors make this intense""}","","","","","","","","","","","","","","","","","","","","","","",""
"2999","","image-slider-response","29","517246","0.0-28.0","A1FKRZKU1H9YFC","","","","","25","","","","","","","","","","","","","","","","","","","","","",""
"3388","","image-button-response","30","522249","0.0-29.0","A1FKRZKU1H9YFC","img_art/ins/2.jpg","1","","","","","","","","","","","","","","","","","","","","","","","","",""
"2102","","image-button-response","31","524352","0.0-30.0","A1FKRZKU1H9YFC","img_art/ins/2.jpg","4","","","","","","","","","","","","","","","","","","","","","","","","",""
"734","","image-button-response","32","525088","0.0-31.0-0.0","A1FKRZKU1H9YFC","img_art/ins/2.jpg","5","","","","","","","","","","","","","","","","","","","","","","","","",""
"1231","","image-button-response","33","526320","0.0-32.0-0.0","A1FKRZKU1H9YFC","img_art/ins/2.jpg","1","","","","","","","","","","","","","","","","","","","","","","","","",""
"null","","html-keyboard-response","34","526823","0.0-33.0","A1FKRZKU1H9YFC","<p style=""font-size: 48px;"">+</p>","","","","","null","allTrialResponses","500","1","-1","img_art/ins/2.jpg","25","The texture and bright colors make this intense","Allison,Kara,Katie,Jenna,Erika,Jen","I don't have strong feelings about this,10,20,20","I like the blocks of color arrangements,30,160,20","too much color!,-28,180,20","One of my pet peevs,-48,140,20","I would never be able to compose a sophisticated pallete like this,48,100,20","It reminds me of a fireplace,36,120,20","Erika","I would never be able to compose a sophisticated pallete like this,48,100,20","Jen","It reminds me of a fireplace,36,120,20","Kara","I like the blocks of color arrangements,30,160,20","1"
"17575","","survey-text","35","544402","0.0-34.0-0.0","A1FKRZKU1H9YFC","","","","{""Q0"":""Bright, airy, and cool feeling, like water. ""}","","","","","","","","","","","","","","","","","","","","","","",""
"3684","","image-slider-response","36","548089","0.0-35.0","A1FKRZKU1H9YFC","","","","","40","","","","","","","","","","","","","","","","","","","","","",""
"1992","","image-button-response","37","553092","0.0-36.0","A1FKRZKU1H9YFC","img_art/ins/3.jpg","0","","","","","","","","","","","","","","","","","","","","","","","","",""
"5249","","image-button-response","38","558343","0.0-37.0","A1FKRZKU1H9YFC","img_art/ins/3.jpg","0","","","","","","","","","","","","","","","","","","","","","","","","",""
"782","","image-button-response","39","559126","0.0-38.0-0.0","A1FKRZKU1H9YFC","img_art/ins/3.jpg","5","","","","","","","","","","","","","","","","","","","","","","","","",""
"487","","image-button-response","40","559614","0.0-39.0-0.0","A1FKRZKU1H9YFC","img_art/ins/3.jpg","4","","","","","","","","","","","","","","","","","","","","","","","","",""
"null","","html-keyboard-response","41","560618","0.0-40.0","A1FKRZKU1H9YFC","<p style=""font-size: 48px;"">+</p>","","","","","null","allTrialResponses","1000","1","0","img_art/ins/3.jpg","40","Bright, airy, and cool feeling, like water. ","Mary,Kara,Rose,Leslie,Erika,Jen","I like the overlapping of brushes,41,220,20","calming blue is very nice,36,160,20","My daily routine, it's depressing,-20,240,20","It's an alright work,15,200,20","I feel connected to the artist,40,100,20","I can feel a rainy day from this painting,18,120,20","Mary","I like the overlapping of brushes,41,220,20","Jen","I can feel a rainy day from this painting,18,120,20","Erika","I feel connected to the artist,40,100,20","1"
"2429","","image-button-response_instructions","42","563051","0.0-41.0","A1FKRZKU1H9YFC","","0","instructions","","","","","","","","","","","","","","","","","","","","","","","",""
"8673","","survey-likert","43","571725","0.0-42.0-0.0","A1FKRZKU1H9YFC","","","","{""Q0"":"""",""Q1"":0,""Q2"":1}","","","","","","","","","","","","","","","","","","","","","","",""
"3489","","survey-text","44","575219","0.0-43.0-0.0","A1FKRZKU1H9YFC","","","","{""Q0"":""rock""}","","","","","","","","","","","","","","","","","","","","","","",""
"10037","","survey-text","45","585257","0.0-44.0-0.0","A1FKRZKU1H9YFC","","","","{""Q0"":""The brushwork reminds me of snakes""}","","","","","","","","","","","","","","","","","","","","","","",""
"5132","","image-slider-response","46","590392","0.0-45.0","A1FKRZKU1H9YFC","","","","","2","","","","","","","","","","","","","","","","","","","","","",""
"null","","image-button-response","47","595406","0.0-46.0","A1FKRZKU1H9YFC","img_art/30.jpg","null","","","","","","","","","","","","","","","","","","","","","","","","",""
"2213","","image-button-response","48","597620","0.0-47.0","A1FKRZKU1H9YFC","img_art/30.jpg","1","","","","","","","","","","","","","","","","","","","","","","","","",""
"7594","","image-button-response","49","605216","0.0-48.0-0.0","A1FKRZKU1H9YFC","img_art/30.jpg","4","","","","","","","","","","","","","","","","","","","","","","","","",""
"1896","","image-button-response","50","607114","0.0-49.0-0.0","A1FKRZKU1H9YFC","img_art/30.jpg","2","","","","","","","","","","","","","","","","","","","","","","","","",""
"null","","html-keyboard-response","51","608121","0.0-50.0","A1FKRZKU1H9YFC","<p style=""font-size: 48px;"">+</p>","","","","","null","allTrialResponses","1000","1","1","img_art/30.jpg","2","The brushwork reminds me of snakes","Rachel,Gabriela,Maria,Cassidy,Mariah,Kylie","I like this one because I am a mom and it reminds me of a child finger-painting.,20,80,20","I like the strong lines or brush strokes. It looks modern and bold,21,140,20","uplifted and yet calmed,15,120,20","I just don't see the point of this piece,-11,140,20","It just feels hasty and not well composed. Has an angsty teen feel,-31,140,20","I can't figure this out,25,300,20","Gabriela","I like the strong lines or brush strokes. It looks modern and bold,21,140,20","Mariah","It just feels hasty and not well composed. Has an angsty teen feel,-31,140,20","Maria","uplifted and yet calmed,15,120,20","1"
"29496","","survey-text","52","637622","0.0-51.0-0.0","A1FKRZKU1H9YFC","","","","{""Q0"":""I'm not a fan of watercolors or exterior scenes""}","","","","","","","","","","","","","","","","","","","","","","",""
"2668","","image-slider-response","53","640292","0.0-52.0","A1FKRZKU1H9YFC","","","","","-29","","","","","","","","","","","","","","","","","","","","","",""
"null","","image-button-response","54","645295","0.0-53.0","A1FKRZKU1H9YFC","img_art/26.jpg","null","","","","","","","","","","","","","","","","","","","","","","","","",""
"2203","","image-button-response","55","647499","0.0-54.0","A1FKRZKU1H9YFC","img_art/26.jpg","4","","","","","","","","","","","","","","","","","","","","","","","","",""
"457","","image-button-response","56","647957","0.0-55.0-0.0","A1FKRZKU1H9YFC","img_art/26.jpg","5","","","","","","","","","","","","","","","","","","","","","","","","",""
"862","","image-button-response","57","648821","0.0-56.0-0.0","A1FKRZKU1H9YFC","img_art/26.jpg","2","","","","","","","","","","","","","","","","","","","","","","","","",""
"null","","html-keyboard-response","58","650325","0.0-57.0","A1FKRZKU1H9YFC","<p style=""font-size: 48px;"">+</p>","","","","","null","allTrialResponses","1500","1","2","img_art/26.jpg","-29","I'm not a fan of watercolors or exterior scenes","Amanda,Gabriela,Maria,Morgan,Mariah,Jennifer","Pleasant to look at,28,180,20","it makes me feel normal and calm, I like the busy city street,10,140,20","fairly neutral, really,8,120,20","Confusing park picture.,8,380,20","Pleasant but bland.,10,140,20","This picture doesn't really stand out.,0,380,20","Mariah","Pleasant but bland.,10,140,20","Jennifer","This picture doesn't really stand out.,0,380,20","Maria","fairly neutral, really,8,120,20","1"
"21214","","survey-text","59","671543","0.0-58.0-0.0","A1FKRZKU1H9YFC","","","","{""Q0"":""This I find intreguing but I wouldn't want to hang it in my home. It feels like it could be cursed. ""}","","","","","","","","","","","","","","","","","","","","","","",""
"3204","","image-slider-response","60","674750","0.0-59.0","A1FKRZKU1H9YFC","","","","","-9","","","","","","","","","","","","","","","","","","","","","",""
"null","","image-button-response","61","679754","0.0-60.0","A1FKRZKU1H9YFC","img_art/25.jpg","null","","","","","","","","","","","","","","","","","","","","","","","","",""
"6418","","image-button-response","62","686174","0.0-61.0","A1FKRZKU1H9YFC","img_art/25.jpg","2","","","","","","","","","","","","","","","","","","","","","","","","",""
"982","","image-button-response","63","687157","0.0-62.0-0.0","A1FKRZKU1H9YFC","img_art/25.jpg","5","","","","","","","","","","","","","","","","","","","","","","","","",""
"806","","image-button-response","64","687966","0.0-63.0-0.0","A1FKRZKU1H9YFC","img_art/25.jpg","3","","","","","","","","","","","","","","","","","","","","","","","","",""
"null","","html-keyboard-response","65","688972","0.0-64.0","A1FKRZKU1H9YFC","<p style=""font-size: 48px;"">+</p>","","","","","null","allTrialResponses","1000","1","3","img_art/25.jpg","-9","This I find intreguing but I wouldn't want to hang it in my home. It feels like it could be cursed. ","Cheyenne,Brittany,Maria,Alicia,Mariah,Jennifer","It's nice but nothing special.,7,200,20","It's a rather intriguing design,12,40,20","I find it enjoyable - mainly because it is not art I ever expected to see,16,120,20","death. childish nightmare.,-29,120,20","The proportions are unpleasant.,-30,140,20","Spooky, but in a good way. I like the green and black color palette.,42,380,20","Maria","I find it enjoyable - mainly because it is not art I ever expected to see,16,120,20","Jennifer","Spooky, but in a good way. I like the green and black color palette.,42,380,20","Alicia","death. childish nightmare.,-29,120,20","1"
"26223","","survey-text","66","715200","0.0-65.0-0.0","A1FKRZKU1H9YFC","","","","{""Q0"":""I'm not sure if this would be considered action painting or more like Kadinski but I don't like it either way""}","","","","","","","","","","","","","","","","","","","","","","",""
"3263","","image-slider-response","67","718465","0.0-66.0","A1FKRZKU1H9YFC","","","","","-39","","","","","","","","","","","","","","","","","","","","","",""
"null","","image-button-response","68","723467","0.0-67.0","A1FKRZKU1H9YFC","img_art/3.jpg","null","","","","","","","","","","","","","","","","","","","","","","","","",""
"2202","","image-button-response","69","725671","0.0-68.0","A1FKRZKU1H9YFC","img_art/3.jpg","2","","","","","","","","","","","","","","","","","","","","","","","","",""
"6757","","image-button-response","70","732429","0.0-69.0-0.0","A1FKRZKU1H9YFC","img_art/3.jpg","0","","","","","","","","","","","","","","","","","","","","","","","","",""
"1752","","image-button-response","71","734184","0.0-70.0-0.0","A1FKRZKU1H9YFC","img_art/3.jpg","1","","","","","","","","","","","","","","","","","","","","","","","","",""
"null","","html-keyboard-response","72","734689","0.0-71.0","A1FKRZKU1H9YFC","<p style=""font-size: 48px;"">+</p>","","","","","null","allTrialResponses","500","1","4","img_art/3.jpg","-39","I'm not sure if this would be considered action painting or more like Kadinski but I don't like it either way","Isabella,Kelsey,Maria,Alicia,Rebecca,Jennifer","Too much red or blood,-28,280,20","just scribbles, not pleasing,-30,240,20","I struggle to see the art,-20,120,20","scribbles in red. 2 minute piece.,-30,120,20","sorry do not understand,-26,100,20","This looks like something a child created in 5 minutes.,-50,380,20","Maria","I struggle to see the art,-20,120,20","Isabella","Too much red or blood,-28,280,20","Kelsey","just scribbles, not pleasing,-30,240,20","1"
"19652","","survey-text","73","754344","0.0-72.0-0.0","A1FKRZKU1H9YFC","","","","{""Q0"":""The brush/paint textures and colors are beautiful but I don't like landscape images. ""}","","","","","","","","","","","","","","","","","","","","","","",""
"3262","","image-slider-response","74","757608","0.0-73.0","A1FKRZKU1H9YFC","","","","","14","","","","","","","","","","","","","","","","","","","","","",""
"null","","image-button-response","75","762615","0.0-74.0","A1FKRZKU1H9YFC","img_art/24.jpg","null","","","","","","","","","","","","","","","","","","","","","","","","",""
"3363","","image-button-response","76","765978","0.0-75.0","A1FKRZKU1H9YFC","img_art/24.jpg","2","","","","","","","","","","","","","","","","","","","","","","","","",""
"6815","","image-button-response","77","772794","0.0-76.0-0.0","A1FKRZKU1H9YFC","img_art/24.jpg","5","","","","","","","","","","","","","","","","","","","","","","","","",""
"1743","","image-button-response","78","774539","0.0-77.0-0.0","A1FKRZKU1H9YFC","img_art/24.jpg","4","","","","","","","","","","","","","","","","","","","","","","","","",""
"null","","html-keyboard-response","79","775040","0.0-78.0","A1FKRZKU1H9YFC","<p style=""font-size: 48px;"">+</p>","","","","","null","allTrialResponses","500","1","5","img_art/24.jpg","14","The brush/paint textures and colors are beautiful but I don't like landscape images. ","Isabella,Kelsey,Maria,Caroline,Katie,Catherine","A peaceful day by the river,42,280,20","this one is just a bit too harsh,-13,240,20","this evokes a gutural reaction - it displeases me how similar it is to art I saw growing up,-30,120,20","Waterfalls and spring and gives me a sense of renewal,34,100,20","I see a waterfall, which is relaxing and peaceful!  I like the blue coloring,30,160,20","Nature, Peace, connected.,50,160,20","Maria","this evokes a gutural reaction - it displeases me how similar it is to art I saw growing up,-30,120,20","Catherine","Nature, Peace, connected.,50,160,20","Katie","I see a waterfall, which is relaxing and peaceful!  I like the blue coloring,30,160,20","1"
"3462","","survey-text","80","778511","0.0-79.0-0.0","A1FKRZKU1H9YFC","","","","{""Q0"":""sky""}","","","","","","","","","","","","","","","","","","","","","","",""
"31332","","survey-text","81","809844","0.0-80.0-0.0","A1FKRZKU1H9YFC","","","","{""Q0"":""I don't like the mosaic-style quality to the image but am curious if the blocks were moved around if it would make a single image. ""}","","","","","","","","","","","","","","","","","","","","","","",""
"2932","","image-slider-response","82","812778","0.0-81.0","A1FKRZKU1H9YFC","","","","","-42","","","","","","","","","","","","","","","","","","","","","",""
"null","","image-button-response","83","817781","0.0-82.0","A1FKRZKU1H9YFC","img_art/12.jpg","null","","","","","","","","","","","","","","","","","","","","","","","","",""
"1398","","image-button-response","84","819181","0.0-83.0","A1FKRZKU1H9YFC","img_art/12.jpg","2","","","","","","","","","","","","","","","","","","","","","","","","",""
"1260","","image-button-response","85","820442","0.0-84.0-0.0","A1FKRZKU1H9YFC","img_art/12.jpg","4","","","","","","","","","","","","","","","","","","","","","","","","",""
"1630","","image-button-response","86","822075","0.0-85.0-0.0","A1FKRZKU1H9YFC","img_art/12.jpg","5","","","","","","","","","","","","","","","","","","","","","","","","",""
"null","","html-keyboard-response","87","823580","0.0-86.0","A1FKRZKU1H9YFC","<p style=""font-size: 48px;"">+</p>","","","","","null","allTrialResponses","1500","1","6","img_art/12.jpg","-42","I don't like the mosaic-style quality to the image but am curious if the blocks were moved around if it would make a single image. ","Claire,Alexandria,Maria,Meghan,Katie,Catherine","i like the repetition,30,260,20","don't feel a lot but it seems very simple,-6,80,20","evokes the 80s, and not in a necessarily good way,-10,120,20","I don't like the pattern or color choice,-41,220,20","Squares are rigid. I'm ambivalent.,1,160,20","confused. stages of a persons life from beginning positive to ending negative.,-10,160,20","Maria","evokes the 80s, and not in a necessarily good way,-10,120,20","Katie","Squares are rigid. I'm ambivalent.,1,160,20","Catherine","confused. stages of a persons life from beginning positive to ending negative.,-10,160,20","1"
"21276","","survey-text","88","844859","0.0-87.0-0.0","A1FKRZKU1H9YFC","","","","{""Q0"":""This reminds me of Gorky, abstract images of human organs. ""}","","","","","","","","","","","","","","","","","","","","","","",""
"3279","","image-slider-response","89","848139","0.0-88.0","A1FKRZKU1H9YFC","","","","","-5","","","","","","","","","","","","","","","","","","","","","",""
"null","","image-button-response","90","853142","0.0-89.0","A1FKRZKU1H9YFC","img_art/28.jpg","null","","","","","","","","","","","","","","","","","","","","","","","","",""
"655","","image-button-response","91","853797","0.0-90.0","A1FKRZKU1H9YFC","img_art/28.jpg","2","","","","","","","","","","","","","","","","","","","","","","","","",""
"2005","","image-button-response","92","855803","0.0-91.0-0.0","A1FKRZKU1H9YFC","img_art/28.jpg","3","","","","","","","","","","","","","","","","","","","","","","","","",""
"3129","","image-button-response","93","858936","0.0-92.0-0.0","A1FKRZKU1H9YFC","img_art/28.jpg","4","","","","","","","","","","","","","","","","","","","","","","","","",""
"null","","html-keyboard-response","94","860439","0.0-93.0","A1FKRZKU1H9YFC","<p style=""font-size: 48px;"">+</p>","","","","","null","allTrialResponses","1500","1","7","img_art/28.jpg","-5","This reminds me of Gorky, abstract images of human organs. ","Victoria,Mackenzie,Maria,Olivia,Katie,Catherine","drab and dreary,-21,400,20","The muted tones aren't my favorite.,-10,20,20","I want to like it, but I'm not really sure what to make of it,2,120,20","conversating means hope,15,40,20","Like the muted pink colors. However, the mood is sad because of the blurriness,22,160,20","A mom protecting her child because something scary, (perhaps imaginary) wants to take the child.,-10,160,20","Maria","I want to like it, but I'm not really sure what to make of it,2,120,20","Olivia","conversating means hope,15,40,20","Katie","Like the muted pink colors. However, the mood is sad because of the blurriness,22,160,20","1"
"31199","","survey-text","95","891643","0.0-94.0-0.0","A1FKRZKU1H9YFC","","","","{""Q0"":""I like the texture of the work and use of mixed media but not the overall image""}","","","","","","","","","","","","","","","","","","","","","","",""
"2462","","image-slider-response","96","894107","0.0-95.0","A1FKRZKU1H9YFC","","","","","-25","","","","","","","","","","","","","","","","","","","","","",""
"null","","image-button-response","97","899113","0.0-96.0","A1FKRZKU1H9YFC","img_art/29.jpg","null","","","","","","","","","","","","","","","","","","","","","","","","",""
"7931","","image-button-response","98","907045","0.0-97.0","A1FKRZKU1H9YFC","img_art/29.jpg","5","","","","","","","","","","","","","","","","","","","","","","","","",""
"1078","","image-button-response","99","908126","0.0-98.0-0.0","A1FKRZKU1H9YFC","img_art/29.jpg","2","","","","","","","","","","","","","","","","","","","","","","","","",""
"694","","image-button-response","100","908821","0.0-99.0-0.0","A1FKRZKU1H9YFC","img_art/29.jpg","1","","","","","","","","","","","","","","","","","","","","","","","","",""
"null","","html-keyboard-response","101","909327","0.0-100.0","A1FKRZKU1H9YFC","<p style=""font-size: 48px;"">+</p>","","","","","null","allTrialResponses","500","1","8","img_art/29.jpg","-25","I like the texture of the work and use of mixed media but not the overall image","Paige,Margaret,Maria,Olivia,Katie,Heather","unhappy. Looking at this all the time would depress me.,-11,60,20","this does nothing for me. hate the colors. hate the design,-50,100,20","the mixed medium / collage annoys me,-19,120,20","too challenging to comprehend,-28,40,20","Don't get it! Too dark and random. Perhaps it was the start of something but the artist stopped and cancelled out the work.,-50,160,20","i dont know how it makes me feel.,1,260,20","Heather","i dont know how it makes me feel.,1,260,20","Maria","the mixed medium / collage annoys me,-19,120,20","Margaret","this does nothing for me. hate the colors. hate the design,-50,100,20","1"
"16945","","survey-text","102","926275","0.0-101.0-0.0","A1FKRZKU1H9YFC","","","","{""Q0"":""The intense black is interesting but also aggressive. ""}","","","","","","","","","","","","","","","","","","","","","","",""
"4193","","image-slider-response","103","930470","0.0-102.0","A1FKRZKU1H9YFC","","","","","7","","","","","","","","","","","","","","","","","","","","","",""
"null","","image-button-response","104","935473","0.0-103.0","A1FKRZKU1H9YFC","img_art/15.jpg","null","","","","","","","","","","","","","","","","","","","","","","","","",""
"8970","","image-button-response","105","944444","0.0-104.0","A1FKRZKU1H9YFC","img_art/15.jpg","1","","","","","","","","","","","","","","","","","","","","","","","","",""
"627","","image-button-response","106","945073","0.0-105.0-0.0","A1FKRZKU1H9YFC","img_art/15.jpg","2","","","","","","","","","","","","","","","","","","","","","","","","",""
"756","","image-button-response","107","945831","0.0-106.0-0.0","A1FKRZKU1H9YFC","img_art/15.jpg","0","","","","","","","","","","","","","","","","","","","","","","","","",""
"null","","html-keyboard-response","108","946834","0.0-107.0","A1FKRZKU1H9YFC","<p style=""font-size: 48px;"">+</p>","","","","","null","allTrialResponses","1000","1","9","img_art/15.jpg","7","The intense black is interesting but also aggressive. ","Alexis,Margaret,Maria,Hailey,Jacqueline,Heather","Not a fan of abstract, but the black is very striking,10,100,20","i like the pop of blue within all the black,8,100,20","i enjoy its apaprent simplicity (of colour and shape),32,120,20","ugly picture and don't like it,-22,200,20","I don't like how the black dots are aligned.,-20,300,20","black leaves makes the blue birds stand out.,1,260,20","Margaret","i like the pop of blue within all the black,8,100,20","Maria","i enjoy its apaprent simplicity (of colour and shape),32,120,20","Alexis","Not a fan of abstract, but the black is very striking,10,100,20","1"
"31067","","survey-text","109","977905","0.0-108.0-0.0","A1FKRZKU1H9YFC","","","","{""Q0"":""I see death on a white horse, but a carousel horse, so it is creepy""}","","","","","","","","","","","","","","","","","","","","","","",""
"3156","","image-slider-response","110","981064","0.0-109.0","A1FKRZKU1H9YFC","","","","","4","","","","","","","","","","","","","","","","","","","","","",""
"null","","image-button-response","111","986069","0.0-110.0","A1FKRZKU1H9YFC","img_art/18.jpg","null","","","","","","","","","","","","","","","","","","","","","","","","",""
"1502","","image-button-response","112","987572","0.0-111.0","A1FKRZKU1H9YFC","img_art/18.jpg","2","","","","","","","","","","","","","","","","","","","","","","","","",""
"4739","","image-button-response","113","992312","0.0-112.0-0.0","A1FKRZKU1H9YFC","img_art/18.jpg","5","","","","","","","","","","","","","","","","","","","","","","","","",""
"2607","","image-button-response","114","994920","0.0-113.0-0.0","A1FKRZKU1H9YFC","img_art/18.jpg","1","","","","","","","","","","","","","","","","","","","","","","","","",""
"null","","html-keyboard-response","115","996422","0.0-114.0","A1FKRZKU1H9YFC","<p style=""font-size: 48px;"">+</p>","","","","","null","allTrialResponses","1500","1","10","img_art/18.jpg","4","I see death on a white horse, but a carousel horse, so it is creepy","Alexis,Margaret,Maria,Chelsea,Laura,Michaela","Crusade-feel, but a little too abstract for my taste,23,100,20","reminds me of dying at sea in the 1700s,-8,100,20","enjoy the juxtaposition of abstract with tangible elements & the use of color,10,120,20","I like the detail but I wouldn't hang this up on my wall.,14,180,20","afraid and anxious,21,320,20","Reminds me of the four horsemen of the apocalypse,29,260,20","Maria","enjoy the juxtaposition of abstract with tangible elements & the use of color,10,120,20","Michaela","Reminds me of the four horsemen of the apocalypse,29,260,20","Margaret","reminds me of dying at sea in the 1700s,-8,100,20","1"
"3410","","survey-text","116","999842","0.0-115.0-0.0","A1FKRZKU1H9YFC","","","","{""Q0"":""our""}","","","","","","","","","","","","","","","","","","","","","","",""
"21191","","survey-text","117","1021033","0.0-116.0-0.0","A1FKRZKU1H9YFC","","","","{""Q0"":""The colors are stricking but I don't really like the overall concept and it makes me feel uneasy for some reason""}","","","","","","","","","","","","","","","","","","","","","","",""
"2396","","image-slider-response","118","1023431","0.0-117.0","A1FKRZKU1H9YFC","","","","","-45","","","","","","","","","","","","","","","","","","","","","",""
"null","","image-button-response","119","1028435","0.0-118.0","A1FKRZKU1H9YFC","img_art/23.jpg","null","","","","","","","","","","","","","","","","","","","","","","","","",""
"1739","","image-button-response","120","1030175","0.0-119.0","A1FKRZKU1H9YFC","img_art/23.jpg","0","","","","","","","","","","","","","","","","","","","","","","","","",""
"5243","","image-button-response","121","1035419","0.0-120.0-0.0","A1FKRZKU1H9YFC","img_art/23.jpg","3","","","","","","","","","","","","","","","","","","","","","","","","",""
"2112","","image-button-response","122","1037534","0.0-121.0-0.0","A1FKRZKU1H9YFC","img_art/23.jpg","4","","","","","","","","","","","","","","","","","","","","","","","","",""
"null","","html-keyboard-response","123","1039036","0.0-122.0","A1FKRZKU1H9YFC","<p style=""font-size: 48px;"">+</p>","","","","","null","allTrialResponses","1500","1","11","img_art/23.jpg","-45","The colors are stricking but I don't really like the overall concept and it makes me feel uneasy for some reason","Destiny,Margaret,Maria,Briana,Lauren,Michaela","This looks like the cover art for a scene band,-29,360,20","white reminds me of screamo music band tshirts when they have their name in the unreadable lettering,-9,100,20","the pattern of colours imbues in me a sense of infinity, which I find soothing,10,120,20","White in the middle look like people dancing naked,19,400,20","I like the symmetrical design and how it portrays the liveliness of a musical environment.,30,340,20","This would make a great mural,37,260,20","Destiny","This looks like the cover art for a scene band,-29,360,20","Briana","White in the middle look like people dancing naked,19,400,20","Lauren","I like the symmetrical design and how it portrays the liveliness of a musical environment.,30,340,20","1"
"19491","","survey-text","124","1058532","0.0-123.0-0.0","A1FKRZKU1H9YFC","","","","{""Q0"":""I appreciate the blurred naure of the colors instead of traditional color blocking""}","","","","","","","","","","","","","","","","","","","","","","",""
"2569","","image-slider-response","125","1061101","0.0-124.0","A1FKRZKU1H9YFC","","","","","-15","","","","","","","","","","","","","","","","","","","","","",""
"null","","image-button-response","126","1066104","0.0-125.0","A1FKRZKU1H9YFC","img_art/1.jpg","null","","","","","","","","","","","","","","","","","","","","","","","","",""
"6430","","image-button-response","127","1072534","0.0-126.0","A1FKRZKU1H9YFC","img_art/1.jpg","4","","","","","","","","","","","","","","","","","","","","","","","","",""
"3185","","image-button-response","128","1075720","0.0-127.0-0.0","A1FKRZKU1H9YFC","img_art/1.jpg","3","","","","","","","","","","","","","","","","","","","","","","","","",""
"1345","","image-button-response","129","1077066","0.0-128.0-0.0","A1FKRZKU1H9YFC","img_art/1.jpg","2","","","","","","","","","","","","","","","","","","","","","","","","",""
"null","","html-keyboard-response","130","1077572","0.0-129.0","A1FKRZKU1H9YFC","<p style=""font-size: 48px;"">+</p>","","","","","null","allTrialResponses","500","1","12","img_art/1.jpg","-15","I appreciate the blurred naure of the colors instead of traditional color blocking","Destiny,Alexa,Hannah,Briana,Lauren,Brianna","looks like an earlier painting. I wish I gave it -20 but oh well,21,360,20","The blend of colors are gorgeous and reminds me of fall,32,40,20","Reminds me of fall.,7,240,20","I like the colors. But it doesnt look like anything,27,400,20","This image doesn't invoke much in me.,0,340,20","It's very colorful, and I like it,11,20,20","Lauren","This image doesn't invoke much in me.,0,340,20","Briana","I like the colors. But it doesnt look like anything,27,400,20","Hannah","Reminds me of fall.,7,240,20","1"
"24101","","survey-text","131","1101677","0.0-130.0-0.0","A1FKRZKU1H9YFC","","","","{""Q0"":""I don't like the mixed media with the marker or ink on top of the paint. I find it unappealing. ""}","","","","","","","","","","","","","","","","","","","","","","",""
"2340","","image-slider-response","132","1104019","0.0-131.0","A1FKRZKU1H9YFC","","","","","-49","","","","","","","","","","","","","","","","","","","","","",""
"null","","image-button-response","133","1109021","0.0-132.0","A1FKRZKU1H9YFC","img_art/27.jpg","null","","","","","","","","","","","","","","","","","","","","","","","","",""
"7039","","image-button-response","134","1116062","0.0-133.0","A1FKRZKU1H9YFC","img_art/27.jpg","4","","","","","","","","","","","","","","","","","","","","","","","","",""
"872","","image-button-response","135","1116935","0.0-134.0-0.0","A1FKRZKU1H9YFC","img_art/27.jpg","5","","","","","","","","","","","","","","","","","","","","","","","","",""
"656","","image-button-response","136","1117593","0.0-135.0-0.0","A1FKRZKU1H9YFC","img_art/27.jpg","2","","","","","","","","","","","","","","","","","","","","","","","","",""
"null","","html-keyboard-response","137","1119099","0.0-136.0","A1FKRZKU1H9YFC","<p style=""font-size: 48px;"">+</p>","","","","","null","allTrialResponses","1500","1","13","img_art/27.jpg","-49","I don't like the mixed media with the marker or ink on top of the paint. I find it unappealing. ","Katelyn,Samantha,Hannah,Briana,Lauren,Erin","Doesnt look like anything to me. Doesnt capture my attention.,-25,100,20","I like all it has going but i wouldnt put it in my house unless my child did it,25,140,20","Reminds me of something I'd see in a gold frame from the Eighties.,-9,240,20","Unfinished something?,-30,400,20","Not a fan of the green; gives off the impression that someone else drew on it.,-20,340,20","Looks like someone vandalized the original piece with a marker,-36,120,20","Lauren","Not a fan of the green; gives off the impression that someone else drew on it.,-20,340,20","Erin","Looks like someone vandalized the original piece with a marker,-36,120,20","Hannah","Reminds me of something I'd see in a gold frame from the Eighties.,-9,240,20","1"
"24686","","survey-text","138","1143791","0.0-137.0-0.0","A1FKRZKU1H9YFC","","","","{""Q0"":""I don't mind the use of watercolors because they are strong in color but the scene is sad. ""}","","","","","","","","","","","","","","","","","","","","","","",""
"2693","","image-slider-response","139","1146485","0.0-138.0","A1FKRZKU1H9YFC","","","","","-15","","","","","","","","","","","","","","","","","","","","","",""
"null","","image-button-response","140","1151486","0.0-139.0","A1FKRZKU1H9YFC","img_art/19.jpg","null","","","","","","","","","","","","","","","","","","","","","","","","",""
"596","","image-button-response","141","1152082","0.0-140.0","A1FKRZKU1H9YFC","img_art/19.jpg","0","","","","","","","","","","","","","","","","","","","","","","","","",""
"4012","","image-button-response","142","1156095","0.0-141.0-0.0","A1FKRZKU1H9YFC","img_art/19.jpg","4","","","","","","","","","","","","","","","","","","","","","","","","",""
"990","","image-button-response","143","1157087","0.0-142.0-0.0","A1FKRZKU1H9YFC","img_art/19.jpg","2","","","","","","","","","","","","","","","","","","","","","","","","",""
"null","","html-keyboard-response","144","1158092","0.0-143.0","A1FKRZKU1H9YFC","<p style=""font-size: 48px;"">+</p>","","","","","null","allTrialResponses","1000","1","14","img_art/19.jpg","-15","I don't mind the use of watercolors because they are strong in color but the scene is sad. ","Savannah,Grace,Hannah,Bailey,Lauren,Erin","Watercolor abstract? Strange.,1,200,20","Looks like a child's rendering of a city street but not too sure.,0,180,20","Just don't like this one.,-9,240,20","Horrible. Squiggly lines everywhere.,-50,360,20","The image doesn't really invoke any emotions strongly.,0,340,20","Childish music hall,-20,120,20","Savannah","Watercolor abstract? Strange.,1,200,20","Lauren","The image doesn't really invoke any emotions strongly.,0,340,20","Hannah","Just don't like this one.,-9,240,20","1"
"17738","","survey-text","145","1175835","0.0-144.0-0.0","A1FKRZKU1H9YFC","","","","{""Q0"":""Looks more like chalk than paint, fairly generic. ""}","","","","","","","","","","","","","","","","","","","","","","",""
"2958","","image-slider-response","146","1178796","0.0-145.0","A1FKRZKU1H9YFC","","","","","-31","","","","","","","","","","","","","","","","","","","","","",""
"null","","image-button-response","147","1183801","0.0-146.0","A1FKRZKU1H9YFC","img_art/22.jpg","null","","","","","","","","","","","","","","","","","","","","","","","","",""
"2535","","image-button-response","148","1186336","0.0-147.0","A1FKRZKU1H9YFC","img_art/22.jpg","4","","","","","","","","","","","","","","","","","","","","","","","","",""
"1061","","image-button-response","149","1187399","0.0-148.0-0.0","A1FKRZKU1H9YFC","img_art/22.jpg","4","","","","","","","","","","","","","","","","","","","","","","","","",""
"1943","","image-button-response","150","1191977","0.0-148.1-0.1","A1FKRZKU1H9YFC","img_art/22.jpg","5","","","","","","","","","","","","","","","","","","","","","","","","",""
"615","","image-button-response","151","1192593","0.0-149.0-0.0","A1FKRZKU1H9YFC","img_art/22.jpg","3","","","","","","","","","","","","","","","","","","","","","","","","",""
"null","","html-keyboard-response","152","1193598","0.0-150.0","A1FKRZKU1H9YFC","<p style=""font-size: 48px;"">+</p>","","","","","null","allTrialResponses","1000","1","15","img_art/22.jpg","-31","Looks more like chalk than paint, fairly generic. ","Savannah,Emma,Hannah,Leslie,Lauren,Andrea","Seems too simple.,-19,200,20","Love the use of color,50,60,20","This one would work in the right frame. It's nice.,20,240,20","The way the colors seem to be reflected is a bit mesmerizing.,10,380,20","This doesn't invoke anything, since I can't tell what the piece represents.,0,340,20","I don't feel much of anything.,0,240,20","Lauren","This doesn't invoke anything, since I can't tell what the piece represents.,0,340,20","Andrea","I don't feel much of anything.,0,240,20","Leslie","The way the colors seem to be reflected is a bit mesmerizing.,10,380,20","3"
"2907","","survey-text","153","1196515","0.0-151.0-0.0","A1FKRZKU1H9YFC","","","","{""Q0"":""course""}","","","","","","","","","","","","","","","","","","","","","","",""
"28199","","survey-text","154","1224716","0.0-152.0-0.0","A1FKRZKU1H9YFC","","","","{""Q0"":""I am attracted to this due to the strong black flowing lines and bright colors interjected. ""}","","","","","","","","","","","","","","","","","","","","","","",""
"2993","","image-slider-response","155","1227710","0.0-153.0","A1FKRZKU1H9YFC","","","","","23","","","","","","","","","","","","","","","","","","","","","",""
"null","","image-button-response","156","1232714","0.0-154.0","A1FKRZKU1H9YFC","img_art/11.jpg","null","","","","","","","","","","","","","","","","","","","","","","","","",""
"1357","","image-button-response","157","1234072","0.0-155.0","A1FKRZKU1H9YFC","img_art/11.jpg","4","","","","","","","","","","","","","","","","","","","","","","","","",""
"2144","","image-button-response","158","1236218","0.0-156.0-0.0","A1FKRZKU1H9YFC","img_art/11.jpg","5","","","","","","","","","","","","","","","","","","","","","","","","",""
"1081","","image-button-response","159","1237300","0.0-157.0-0.0","A1FKRZKU1H9YFC","img_art/11.jpg","2","","","","","","","","","","","","","","","","","","","","","","","","",""
"null","","html-keyboard-response","160","1238304","0.0-158.0","A1FKRZKU1H9YFC","<p style=""font-size: 48px;"">+</p>","","","","","null","allTrialResponses","1000","1","16","img_art/11.jpg","23","I am attracted to this due to the strong black flowing lines and bright colors interjected. ","Kimberly,Dominique,Alyssa,Leslie,Lauren,Andrea","It's cables in a city,21,260,20","Looks like a familiar area,31,400,20","Its interesting.,20,160,20","This elicits no reaction in me.,0,380,20","I like how this piece can be interpreted in different ways, such as a village on hilly terrain.,10,340,20","My initial thought was roller coasters but I see ship masts on a cloudy day too.,35,240,20","Lauren","I like how this piece can be interpreted in different ways, such as a village on hilly terrain.,10,340,20","Andrea","My initial thought was roller coasters but I see ship masts on a cloudy day too.,35,240,20","Alyssa","Its interesting.,20,160,20","3"
"25858","","survey-text","161","1264167","0.0-159.0-0.0","A1FKRZKU1H9YFC","","","","{""Q0"":""I find the bright orange juxtaposed to a headless crow interesting but upsetting. ""}","","","","","","","","","","","","","","","","","","","","","","",""
"2558","","image-slider-response","162","1266727","0.0-160.0","A1FKRZKU1H9YFC","","","","","-6","","","","","","","","","","","","","","","","","","","","","",""
"null","","image-button-response","163","1271733","0.0-161.0","A1FKRZKU1H9YFC","img_art/6.jpg","null","","","","","","","","","","","","","","","","","","","","","","","","",""
"699","","image-button-response","164","1272433","0.0-162.0","A1FKRZKU1H9YFC","img_art/6.jpg","2","","","","","","","","","","","","","","","","","","","","","","","","",""
"2278","","image-button-response","165","1274713","0.0-163.0-0.0","A1FKRZKU1H9YFC","img_art/6.jpg","3","","","","","","","","","","","","","","","","","","","","","","","","",""
"960","","image-button-response","166","1275675","0.0-164.0-0.0","A1FKRZKU1H9YFC","img_art/6.jpg","5","","","","","","","","","","","","","","","","","","","","","","","","",""
"null","","html-keyboard-response","167","1276679","0.0-165.0","A1FKRZKU1H9YFC","<p style=""font-size: 48px;"">+</p>","","","","","null","allTrialResponses","1000","1","17","img_art/6.jpg","-6","I find the bright orange juxtaposed to a headless crow interesting but upsetting. ","Elizabeth,Autumn,Alyssa,Angelica,Lauren,Andrea","Love the simplicity of it,41,20,20","Bird? It's a bird.,23,340,20","It makes me stop and think about what the artist is trying to say.It creates a feeling of solitude and tranqulity,30,160,20","It feels sad but it's nice to look at.,4,280,20","I like the simplicity of the piece.,10,340,20","So forlorn, and beauty amid desolation.,25,240,20","Alyssa","It makes me stop and think about what the artist is trying to say.It creates a feeling of solitude and tranqulity,30,160,20","Angelica","It feels sad but it's nice to look at.,4,280,20","Andrea","So forlorn, and beauty amid desolation.,25,240,20","3"
"18001","","survey-text","168","1294685","0.0-166.0-0.0","A1FKRZKU1H9YFC","","","","{""Q0"":""This makes me very sad, about a sad childhood. ""}","","","","","","","","","","","","","","","","","","","","","","",""
"3014","","image-slider-response","169","1297701","0.0-167.0","A1FKRZKU1H9YFC","","","","","-7","","","","","","","","","","","","","","","","","","","","","",""
"null","","image-button-response","170","1302707","0.0-168.0","A1FKRZKU1H9YFC","img_art/16.jpg","null","","","","","","","","","","","","","","","","","","","","","","","","",""
"2136","","image-button-response","171","1304843","0.0-169.0","A1FKRZKU1H9YFC","img_art/16.jpg","1","","","","","","","","","","","","","","","","","","","","","","","","",""
"1279","","image-button-response","172","1306124","0.0-170.0-0.0","A1FKRZKU1H9YFC","img_art/16.jpg","5","","","","","","","","","","","","","","","","","","","","","","","","",""
"1482","","image-button-response","173","1307607","0.0-171.0-0.0","A1FKRZKU1H9YFC","img_art/16.jpg","2","","","","","","","","","","","","","","","","","","","","","","","","",""
"null","","html-keyboard-response","174","1308613","0.0-172.0","A1FKRZKU1H9YFC","<p style=""font-size: 48px;"">+</p>","","","","","null","allTrialResponses","1000","1","18","img_art/16.jpg","-7","This makes me very sad, about a sad childhood. ","Courtney,Erika,Alyssa,Angelica,Ashley,Andrea","Hmm i don't know what going on here.,1,280,20","Very emotional,23,100,20","It creeps me out.,-50,160,20","This is creepy and puerile.,-45,280,20","A lot fo these could abstract or childrens work.,23,320,20","I think it's about child abuse. The teddy bear represents innocence and the dark shape is approaching it.,40,240,20","Erika","Very emotional,23,100,20","Andrea","I think it's about child abuse. The teddy bear represents innocence and the dark shape is approaching it.,40,240,20","Alyssa","It creeps me out.,-50,160,20","3"
"18231","","survey-text","175","1326848","0.0-173.0-0.0","A1FKRZKU1H9YFC","","","","{""Q0"":""I like the Dahli-esque use of paint and the use of colors""}","","","","","","","","","","","","","","","","","","","","","","",""
"3013","","image-slider-response","176","1329863","0.0-174.0","A1FKRZKU1H9YFC","","","","","23","","","","","","","","","","","","","","","","","","","","","",""
"null","","image-button-response","177","1334866","0.0-175.0","A1FKRZKU1H9YFC","img_art/20.jpg","null","","","","","","","","","","","","","","","","","","","","","","","","",""
"729","","image-button-response","178","1335596","0.0-176.0","A1FKRZKU1H9YFC","img_art/20.jpg","1","","","","","","","","","","","","","","","","","","","","","","","","",""
"3597","","image-button-response","179","1339195","0.0-177.0-0.0","A1FKRZKU1H9YFC","img_art/20.jpg","5","","","","","","","","","","","","","","","","","","","","","","","","",""
"774","","image-button-response","180","1339970","0.0-178.0-0.0","A1FKRZKU1H9YFC","img_art/20.jpg","2","","","","","","","","","","","","","","","","","","","","","","","","",""
"null","","html-keyboard-response","181","1340974","0.0-179.0","A1FKRZKU1H9YFC","<p style=""font-size: 48px;"">+</p>","","","","","null","allTrialResponses","1000","1","19","img_art/20.jpg","23","I like the Dahli-esque use of paint and the use of colors","Monica,Erika,Alyssa,Molly,Sophia,Andrea","It looks like a junkyard and isn't appealing,-22,360,20","The artist had very strong feelings, bold colors,28,100,20","Its interesting.It almost seems like a painting of a landscape,14,160,20","Phenomenal painting of building.,25,340,20","A truck rolled over?  I do like the pictures and the technique though.,25,280,20","Reminds me of persistance of time (a favorite of mine).,30,240,20","Erika","The artist had very strong feelings, bold colors,28,100,20","Andrea","Reminds me of persistance of time (a favorite of mine).,30,240,20","Alyssa","Its interesting.It almost seems like a painting of a landscape,14,160,20","3"
"28223","","survey-text","182","1369203","0.0-180.0-0.0","A1FKRZKU1H9YFC","","","","{""Q0"":""Seems like the intersection of nature and technology. But I don't enjoy the image aesthetically. ""}","","","","","","","","","","","","","","","","","","","","","","",""
"2576","","image-slider-response","183","1371780","0.0-181.0","A1FKRZKU1H9YFC","","","","","-32","","","","","","","","","","","","","","","","","","","","","",""
"null","","image-button-response","184","1376784","0.0-182.0","A1FKRZKU1H9YFC","img_art/17.jpg","null","","","","","","","","","","","","","","","","","","","","","","","","",""
"6384","","image-button-response","185","1383168","0.0-183.0","A1FKRZKU1H9YFC","img_art/17.jpg","1","","","","","","","","","","","","","","","","","","","","","","","","",""
"745","","image-button-response","186","1383915","0.0-184.0-0.0","A1FKRZKU1H9YFC","img_art/17.jpg","5","","","","","","","","","","","","","","","","","","","","","","","","",""
"1046","","image-button-response","187","1384962","0.0-185.0-0.0","A1FKRZKU1H9YFC","img_art/17.jpg","3","","","","","","","","","","","","","","","","","","","","","","","","",""
"null","","html-keyboard-response","188","1386466","0.0-186.0","A1FKRZKU1H9YFC","<p style=""font-size: 48px;"">+</p>","","","","","null","allTrialResponses","1500","1","20","img_art/17.jpg","-32","Seems like the intersection of nature and technology. But I don't enjoy the image aesthetically. ","Melissa,Erika,Alyssa,Kaylee,Katherine,Andrea","impressive attention to subtleties,15,240,20","I love vague, dreamlike styles,50,100,20","It gorgeous and i love how the tree is almost 3 dimensional.So many elements to it.,50,160,20","colorful tree really cool,27,200,20","Looks like a weird blurry heaven again! I dig,32,120,20","A coming storm but I think I would appreciate it more with more contrast.,-12,240,20","Erika","I love vague, dreamlike styles,50,100,20","Andrea","A coming storm but I think I would appreciate it more with more contrast.,-12,240,20","Kaylee","colorful tree really cool,27,200,20","3"
"2982","","survey-text","189","1389459","0.0-187.0-0.0","A1FKRZKU1H9YFC","","","","{""Q0"":""we""}","","","","","","","","","","","","","","","","","","","","","","",""
"14284","","survey-text","190","1403745","0.0-188.0-0.0","A1FKRZKU1H9YFC","","","","{""Q0"":""This actually feels really gross, like peeling skin. ""}","","","","","","","","","","","","","","","","","","","","","","",""
"2201","","image-slider-response","191","1405947","0.0-189.0","A1FKRZKU1H9YFC","","","","","-50","","","","","","","","","","","","","","","","","","","","","",""
"null","","image-button-response","192","1410949","0.0-190.0","A1FKRZKU1H9YFC","img_art/7.jpg","null","","","","","","","","","","","","","","","","","","","","","","","","",""
"2568","","image-button-response","193","1413518","0.0-191.0","A1FKRZKU1H9YFC","img_art/7.jpg","5","","","","","","","","","","","","","","","","","","","","","","","","",""
"577","","image-button-response","194","1414096","0.0-192.0-0.0","A1FKRZKU1H9YFC","img_art/7.jpg","4","","","","","","","","","","","","","","","","","","","","","","","","",""
"509","","image-button-response","195","1414606","0.0-193.0-0.0","A1FKRZKU1H9YFC","img_art/7.jpg","3","","","","","","","","","","","","","","","","","","","","","","","","",""
"null","","html-keyboard-response","196","1415112","0.0-194.0","A1FKRZKU1H9YFC","<p style=""font-size: 48px;"">+</p>","","","","","null","allTrialResponses","500","1","21","img_art/7.jpg","-50","This actually feels really gross, like peeling skin. ","Sara,Erika,Julia,Kaylee,Kayla,Andrea","It feels cold and hard,-40,160,20","Detail oriented, like cracked paint wall,15,100,20","I would like this more if I could pretend it was the moon.,-26,40,20","some rocks on a mars?,7,200,20","Dinosaur bones. Death.,-14,180,20","Reminds me of mold. Repulsive.,-10,240,20","Andrea","Reminds me of mold. Repulsive.,-10,240,20","Kayla","Dinosaur bones. Death.,-14,180,20","Kaylee","some rocks on a mars?,7,200,20","3"
"17354","","survey-text","197","1432471","0.0-195.0-0.0","A1FKRZKU1H9YFC","","","","{""Q0"":""I love the color blocking and brightness from the left. I find it beautiful""}","","","","","","","","","","","","","","","","","","","","","","",""
"2504","","image-slider-response","198","1434976","0.0-196.0","A1FKRZKU1H9YFC","","","","","50","","","","","","","","","","","","","","","","","","","","","",""
"null","","image-button-response","199","1439979","0.0-197.0","A1FKRZKU1H9YFC","img_art/21.jpg","null","","","","","","","","","","","","","","","","","","","","","","","","",""
"1870","","image-button-response","200","1441851","0.0-198.0","A1FKRZKU1H9YFC","img_art/21.jpg","0","","","","","","","","","","","","","","","","","","","","","","","","",""
"6668","","image-button-response","201","1448520","0.0-199.0-0.0","A1FKRZKU1H9YFC","img_art/21.jpg","5","","","","","","","","","","","","","","","","","","","","","","","","",""
"1026","","image-button-response","202","1449548","0.0-200.0-0.0","A1FKRZKU1H9YFC","img_art/21.jpg","2","","","","","","","","","","","","","","","","","","","","","","","","",""
"null","","html-keyboard-response","203","1450552","0.0-201.0","A1FKRZKU1H9YFC","<p style=""font-size: 48px;"">+</p>","","","","","null","allTrialResponses","1000","1","22","img_art/21.jpg","50","I love the color blocking and brightness from the left. I find it beautiful","Tiffany,Jessica,Abigail,Kaylee,Kayla,Andrea","I feel the same serene excitement that I feel watching a sunrise on a beach.,38,360,20","I like how the colors blend together like a beautiful sunset.,25,400,20","Beautiful colors, remind me of my yoga studio,50,20,20","looks like a sea during some war,27,200,20","I like that it reminds me of an abstract version of a Bob Ross painting.,36,180,20","It feels like a day at sea but the pink is slightly jarring and holding my eye.,26,240,20","Tiffany","I feel the same serene excitement that I feel watching a sunrise on a beach.,38,360,20","Andrea","It feels like a day at sea but the pink is slightly jarring and holding my eye.,26,240,20","Abigail","Beautiful colors, remind me of my yoga studio,50,20,20","3"
"15007","","survey-text","204","1465565","0.0-202.0-0.0","A1FKRZKU1H9YFC","","","","{""Q0"":""Reminds me of ketchup and mustard""}","","","","","","","","","","","","","","","","","","","","","","",""
"2344","","image-slider-response","205","1467911","0.0-203.0","A1FKRZKU1H9YFC","","","","","-40","","","","","","","","","","","","","","","","","","","","","",""
"null","","image-button-response","206","1472917","0.0-204.0","A1FKRZKU1H9YFC","img_art/4.jpg","null","","","","","","","","","","","","","","","","","","","","","","","","",""
"3633","","image-button-response","207","1476551","0.0-205.0","A1FKRZKU1H9YFC","img_art/4.jpg","2","","","","","","","","","","","","","","","","","","","","","","","","",""
"562","","image-button-response","208","1477113","0.0-206.0-0.0","A1FKRZKU1H9YFC","img_art/4.jpg","5","","","","","","","","","","","","","","","","","","","","","","","","",""
"604","","image-button-response","209","1477718","0.0-207.0-0.0","A1FKRZKU1H9YFC","img_art/4.jpg","0","","","","","","","","","","","","","","","","","","","","","","","","",""
"null","","html-keyboard-response","210","1478722","0.0-208.0","A1FKRZKU1H9YFC","<p style=""font-size: 48px;"">+</p>","","","","","null","allTrialResponses","1000","1","23","img_art/4.jpg","-40","Reminds me of ketchup and mustard","Tiffany,Danielle,Abigail,Makayla,Kaitlin,Andrea","The sickly looking colors make me feel very uncomfortable.,-35,360,20","Not my preference when it comes to art styles or subjects,-10,340,20","A hand reaching for something it cannot obtain,-9,20,20","Looks like poop on walks,-27,80,20","heart symbol - this tells a story of hidden love,30,60,20","I think it speaks to familial closeness but the tonality is offputting to me.,-10,240,20","Abigail","A hand reaching for something it cannot obtain,-9,20,20","Andrea","I think it speaks to familial closeness but the tonality is offputting to me.,-10,240,20","Tiffany","The sickly looking colors make me feel very uncomfortable.,-35,360,20","3"
"26793","","survey-text","211","1505520","0.0-209.0-0.0","A1FKRZKU1H9YFC","","","","{""Q0"":""This seems unfinished and looks like a dustpan""}","","","","","","","","","","","","","","","","","","","","","","",""
"2549","","image-slider-response","212","1508069","0.0-210.0","A1FKRZKU1H9YFC","","","","","-50","","","","","","","","","","","","","","","","","","","","","",""
"null","","image-button-response","213","1513073","0.0-211.0","A1FKRZKU1H9YFC","img_art/5.jpg","null","","","","","","","","","","","","","","","","","","","","","","","","",""
"103","","image-button-response","214","1513177","0.0-212.0","A1FKRZKU1H9YFC","img_art/5.jpg","2","","","","","","","","","","","","","","","","","","","","","","","","",""
"633","","image-button-response","215","1513812","0.0-213.0-0.0","A1FKRZKU1H9YFC","img_art/5.jpg","0","","","","","","","","","","","","","","","","","","","","","","","","",""
"4348","","image-button-response","216","1518162","0.0-214.0-0.0","A1FKRZKU1H9YFC","img_art/5.jpg","4","","","","","","","","","","","","","","","","","","","","","","","","",""
"null","","html-keyboard-response","217","1519166","0.0-215.0","A1FKRZKU1H9YFC","<p style=""font-size: 48px;"">+</p>","","","","","null","allTrialResponses","1000","1","24","img_art/5.jpg","-50","This seems unfinished and looks like a dustpan","Tiffany,Angela,Abigail,Madeline,Cassandra,Andrea","I feel nothing looking at this.,-5,360,20","I really dislike this. It's ugly and looks dirty.,-44,260,20","Reminds me of a broken umbrella,-9,20,20","A bit too messy in my eyes,-4,40,20","This was awful and it looked like someone took minimul effort with it... no time at all.,-49,120,20","Perfume bottle, reminds of fancy nights out.,11,240,20","Abigail","Reminds me of a broken umbrella,-9,20,20","Tiffany","I feel nothing looking at this.,-5,360,20","Cassandra","This was awful and it looked like someone took minimul effort with it... no time at all.,-49,120,20","3"
"23917","","survey-text","218","1543089","0.0-216.0-0.0","A1FKRZKU1H9YFC","","","","{""Q0"":""I really don't like the overlapping oil crayons. It is messy and unappealing. ""}","","","","","","","","","","","","","","","","","","","","","","",""
"2821","","image-slider-response","219","1545911","0.0-217.0","A1FKRZKU1H9YFC","","","","","-45","","","","","","","","","","","","","","","","","","","","","",""
"null","","image-button-response","220","1550915","0.0-218.0","A1FKRZKU1H9YFC","img_art/9.jpg","null","","","","","","","","","","","","","","","","","","","","","","","","",""
"3435","","image-button-response","221","1554350","0.0-219.0","A1FKRZKU1H9YFC","img_art/9.jpg","5","","","","","","","","","","","","","","","","","","","","","","","","",""
"743","","image-button-response","222","1555093","0.0-220.0-0.0","A1FKRZKU1H9YFC","img_art/9.jpg","2","","","","","","","","","","","","","","","","","","","","","","","","",""
"460","","image-button-response","223","1555554","0.0-221.0-0.0","A1FKRZKU1H9YFC","img_art/9.jpg","1","","","","","","","","","","","","","","","","","","","","","","","","",""
"null","","html-keyboard-response","224","1556556","0.0-222.0","A1FKRZKU1H9YFC","<p style=""font-size: 48px;"">+</p>","","","","","null","allTrialResponses","1000","1","25","img_art/9.jpg","-45","I really don't like the overlapping oil crayons. It is messy and unappealing. ","Tiffany,Jordan,Abigail,Shelby,Cassandra,Vanessa","The piece of art makes me happy, it reminds me of a lively carnival.,15,360,20","I just dont like it, no reaction from me at all,-50,20,20","Reminds me of a cave in a scary movie,-21,20,20","A little too weird for me,-30,240,20","Stuipid looking...dumb,-48,120,20","It's too abstract for my taste. I wish there were more definition.,-9,380,20","Vanessa","It's too abstract for my taste. I wish there were more definition.,-9,380,20","Abigail","Reminds me of a cave in a scary movie,-21,20,20","Jordan","I just dont like it, no reaction from me at all,-50,20,20","3"
"2473","","survey-text","225","1559041","0.0-223.0-0.0","A1FKRZKU1H9YFC","","","","{""Q0"":""table""}","","","","","","","","","","","","","","","","","","","","","","",""
"15719","","survey-text","226","1574762","0.0-224.0-0.0","A1FKRZKU1H9YFC","","","","{""Q0"":""I may like this if the colors were bright and not so dull and bland. ""}","","","","","","","","","","","","","","","","","","","","","","",""
"2584","","image-slider-response","227","1577348","0.0-225.0","A1FKRZKU1H9YFC","","","","","-43","","","","","","","","","","","","","","","","","","","","","",""
"null","","image-button-response","228","1582353","0.0-226.0","A1FKRZKU1H9YFC","img_art/2.jpg","null","","","","","","","","","","","","","","","","","","","","","","","","",""
"3503","","image-button-response","229","1585856","0.0-227.0","A1FKRZKU1H9YFC","img_art/2.jpg","5","","","","","","","","","","","","","","","","","","","","","","","","",""
"631","","image-button-response","230","1586488","0.0-228.0-0.0","A1FKRZKU1H9YFC","img_art/2.jpg","2","","","","","","","","","","","","","","","","","","","","","","","","",""
"546","","image-button-response","231","1587036","0.0-229.0-0.0","A1FKRZKU1H9YFC","img_art/2.jpg","0","","","","","","","","","","","","","","","","","","","","","","","","",""
"null","","html-keyboard-response","232","1588039","0.0-230.0","A1FKRZKU1H9YFC","<p style=""font-size: 48px;"">+</p>","","","","","null","allTrialResponses","1000","1","26","img_art/2.jpg","-43","I may like this if the colors were bright and not so dull and bland. ","Cynthia,Jordan,Abigail,Mikayla,Alexandra,Vanessa","Confused and disoriented,-33,320,20","I can't get past the fact that it looks like someone wearing a mask,-46,20,20","Reminds me of my baby brother,11,20,20","I love the colors in this.,29,300,20","This is ugly- too plain and busy at the same time,-9,60,20","I don't like the abstract nature of this painting or the colors used.,-50,380,20","Vanessa","I don't like the abstract nature of this painting or the colors used.,-50,380,20","Abigail","Reminds me of my baby brother,11,20,20","Cynthia","Confused and disoriented,-33,320,20","3"
"21226","","survey-text","233","1609271","0.0-231.0-0.0","A1FKRZKU1H9YFC","","","","{""Q0"":""It is interesting to look at to see what I can find but I wouldn't want to own it""}","","","","","","","","","","","","","","","","","","","","","","",""
"2742","","image-slider-response","234","1612015","0.0-232.0","A1FKRZKU1H9YFC","","","","","-4","","","","","","","","","","","","","","","","","","","","","",""
"null","","image-button-response","235","1617018","0.0-233.0","A1FKRZKU1H9YFC","img_art/8.jpg","null","","","","","","","","","","","","","","","","","","","","","","","","",""
"2637","","image-button-response","236","1619655","0.0-234.0","A1FKRZKU1H9YFC","img_art/8.jpg","0","","","","","","","","","","","","","","","","","","","","","","","","",""
"719","","image-button-response","237","1620375","0.0-235.0-0.0","A1FKRZKU1H9YFC","img_art/8.jpg","5","","","","","","","","","","","","","","","","","","","","","","","","",""
"726","","image-button-response","238","1621103","0.0-236.0-0.0","A1FKRZKU1H9YFC","img_art/8.jpg","4","","","","","","","","","","","","","","","","","","","","","","","","",""
"null","","html-keyboard-response","239","1622608","0.0-237.0","A1FKRZKU1H9YFC","<p style=""font-size: 48px;"">+</p>","","","","","null","allTrialResponses","1500","1","27","img_art/8.jpg","-4","It is interesting to look at to see what I can find but I wouldn't want to own it","Cynthia,Lindsey,Abigail,Natalie,Caitlin,Vanessa","New power in the community,22,320,20","Pleasant colors, lots of interest. Not sure what's going on but I like it.,20,400,20","I did not like the face,-10,20,20","looks nice, like the details,25,400,20","And I'll huff and I'll puff and I'll blow your town down!!,20,80,20","I don't like the negative emotion this picture makes me feel. It's also too abstract.,-30,380,20","Cynthia","New power in the community,22,320,20","Vanessa","I don't like the negative emotion this picture makes me feel. It's also too abstract.,-30,380,20","Caitlin","And I'll huff and I'll puff and I'll blow your town down!!,20,80,20","3"
"19716","","survey-text","240","1642330","0.0-238.0-0.0","A1FKRZKU1H9YFC","","","","{""Q0"":""Interesting, i thought a race track, then the body of a guitar""}","","","","","","","","","","","","","","","","","","","","","","",""
"2020","","image-slider-response","241","1644352","0.0-239.0","A1FKRZKU1H9YFC","","","","","-12","","","","","","","","","","","","","","","","","","","","","",""
"null","","image-button-response","242","1649359","0.0-240.0","A1FKRZKU1H9YFC","img_art/10.jpg","null","","","","","","","","","","","","","","","","","","","","","","","","",""
"4623","","image-button-response","243","1653983","0.0-241.0","A1FKRZKU1H9YFC","img_art/10.jpg","5","","","","","","","","","","","","","","","","","","","","","","","","",""
"858","","image-button-response","244","1654843","0.0-242.0-0.0","A1FKRZKU1H9YFC","img_art/10.jpg","0","","","","","","","","","","","","","","","","","","","","","","","","",""
"634","","image-button-response","245","1655478","0.0-243.0-0.0","A1FKRZKU1H9YFC","img_art/10.jpg","3","","","","","","","","","","","","","","","","","","","","","","","","",""
"null","","html-keyboard-response","246","1656983","0.0-244.0","A1FKRZKU1H9YFC","<p style=""font-size: 48px;"">+</p>","","","","","null","allTrialResponses","1500","1","28","img_art/10.jpg","-12","Interesting, i thought a race track, then the body of a guitar","Cynthia,Mary,Nicole,Allison,Caitlin,Vanessa","cultural with a symphony,40,320,20","The flow of lines is off. There are curvy and straight angry lines. It's not flattering at all.,-27,180,20","Too much negative space makes it feel unfinished,-25,20,20","I like the contrast,10,140,20","The roller coaster from hell !!!,-10,80,20","It's interesting and my eyes keep being drawn to different parts of the picture.,11,380,20","Vanessa","It's interesting and my eyes keep being drawn to different parts of the picture.,11,380,20","Cynthia","cultural with a symphony,40,320,20","Allison","I like the contrast,10,140,20","3"
"11526","","survey-text","247","1668516","0.0-245.0-0.0","A1FKRZKU1H9YFC","","","","{""Q0"":""An abstract still-life which I do not like""}","","","","","","","","","","","","","","","","","","","","","","",""
"2466","","image-slider-response","248","1670985","0.0-246.0","A1FKRZKU1H9YFC","","","","","-50","","","","","","","","","","","","","","","","","","","","","",""
"null","","image-button-response","249","1675990","0.0-247.0","A1FKRZKU1H9YFC","img_art/14.jpg","null","","","","","","","","","","","","","","","","","","","","","","","","",""
"1714","","image-button-response","250","1677704","0.0-248.0","A1FKRZKU1H9YFC","img_art/14.jpg","3","","","","","","","","","","","","","","","","","","","","","","","","",""
"622","","image-button-response","251","1678328","0.0-249.0-0.0","A1FKRZKU1H9YFC","img_art/14.jpg","4","","","","","","","","","","","","","","","","","","","","","","","","",""
"757","","image-button-response","252","1679089","0.0-250.0-0.0","A1FKRZKU1H9YFC","img_art/14.jpg","5","","","","","","","","","","","","","","","","","","","","","","","","",""
"null","","html-keyboard-response","253","1680091","0.0-251.0","A1FKRZKU1H9YFC","<p style=""font-size: 48px;"">+</p>","","","","","null","allTrialResponses","1000","1","29","img_art/14.jpg","-50","An abstract still-life which I do not like","Cynthia,Leah,Kelly,Allison,Stephanie,Vanessa","unsure and dull feeling,-1,320,20","I like the simplicity along with the colors,27,360,20","Its cute, but not my favorite.,8,220,20","Very abstract. Unsure of what I'm looking at. No emotions towards it.,-6,140,20","Late Winter when things are just starting to bloom.,21,300,20","I don't like the colors, but I espeically don't like all the negative space.,-20,380,20","Allison","Very abstract. Unsure of what I'm looking at. No emotions towards it.,-6,140,20","Stephanie","Late Winter when things are just starting to bloom.,21,300,20","Vanessa","I don't like the colors, but I espeically don't like all the negative space.,-20,380,20","3"
"15050","","survey-text","254","1695146","0.0-252.0-0.0","A1FKRZKU1H9YFC","","","","{""Q0"":""Find the action splatters okay but the background colors are very nice.""}","","","","","","","","","","","","","","","","","","","","","","",""
"2315","","image-slider-response","255","1697465","0.0-253.0","A1FKRZKU1H9YFC","","","","","11","","","","","","","","","","","","","","","","","","","","","",""
"null","","image-button-response","256","1702467","0.0-254.0","A1FKRZKU1H9YFC","img_art/13.jpg","null","","","","","","","","","","","","","","","","","","","","","","","","",""
"1421","","image-button-response","257","1703889","0.0-255.0","A1FKRZKU1H9YFC","img_art/13.jpg","0","","","","","","","","","","","","","","","","","","","","","","","","",""
"1841","","image-button-response","258","1705731","0.0-256.0-0.0","A1FKRZKU1H9YFC","img_art/13.jpg","2","","","","","","","","","","","","","","","","","","","","","","","","",""
"1927","","image-button-response","259","1707659","0.0-257.0-0.0","A1FKRZKU1H9YFC","img_art/13.jpg","5","","","","","","","","","","","","","","","","","","","","","","","","",""
"null","","html-keyboard-response","260","1708661","0.0-258.0","A1FKRZKU1H9YFC","<p style=""font-size: 48px;"">+</p>","","","","","null","allTrialResponses","1000","1","30","img_art/13.jpg","11","Find the action splatters okay but the background colors are very nice.","Amy,Diana,Marissa,Allison,Stephanie,Vanessa","I recognize the beauty of this but FOR ME its large degree of abstraction diminishes my emotional interaction.,-10,220,20","I really loved the color contrast. Having the white stripe in the center makes the it appear 3D.,11,380,20","It reminds me of looking out the window on a stormy night at cars drive by,21,160,20","Generic mix of colors. Cool and messy.,10,140,20","Raindrops splashing on the window.,50,300,20","I love the colors and the contrast between the different blues.,21,380,20","Amy","I recognize the beauty of this but FOR ME its large degree of abstraction diminishes my emotional interaction.,-10,220,20","Marissa","It reminds me of looking out the window on a stormy night at cars drive by,21,160,20","Vanessa","I love the colors and the contrast between the different blues.,21,380,20","3"
"1793","","image-button-response_instructions","261","1710460","0.0-259.0","A1FKRZKU1H9YFC","","0","instructions","","","","","","","","","","","","","","","","","","","","","","","",""
