"rt","url","trial_type","trial_index","time_elapsed","internal_node_id","participant_id","stimulus","button_pressed","Name","responses","response","key_press","variableName","fixationTime","condition","trial","photo","subjectRating","subjectResponse","agentsNames","agent_1_Response","agent_2_Response","agent_3_Response","agent_4_Response","agent_5_Response","agent_6_Response","kept_1_name","kept_1_response","kept_2_name","kept_2_response","kept_3_name","kept_3_response","errorCounter"
"6955","external_page_harvard.html","external-html","0","7339","0.0-0.0","A1FS8SBR4SDWYG","","","","","","","","","","","","","","","","","","","","","","","","","","",""
"2326","","image-button-response","1","9670","0.0-1.0","A1FS8SBR4SDWYG","","1","","","","","","","","","","","","","","","","","","","","","","","","",""
"1251","","image-button-response","2","10938","0.0-2.0-0.0","A1FS8SBR4SDWYG","","1","phone","","","","","","","","","","","","","","","","","","","","","","","",""
"10572","","survey-text","3","21515","0.0-3.0-0.0","A1FS8SBR4SDWYG","","","","{""Q0"":""A1FS8SBR4SDWYG""}","","","","","","","","","","","","","","","","","","","","","","",""
"2198","","image-button-response_instructions","4","23718","0.0-4.0","A1FS8SBR4SDWYG","","0","instructions","","","","","","","","","","","","","","","","","","","","","","","",""
"7404","","image-button-response_instructions","5","31128","0.0-5.0","A1FS8SBR4SDWYG","img_art/ins/popularity/ins1.png","0","instructions","","","","","","","","","","","","","","","","","","","","","","","",""
"3556","","image-button-response_instructions","6","34688","0.0-6.0","A1FS8SBR4SDWYG","img_art/ins/popularity/ins2.png","0","instructions","","","","","","","","","","","","","","","","","","","","","","","",""
"2870","","image-button-response_instructions","7","37562","0.0-7.0","A1FS8SBR4SDWYG","img_art/ins/popularity/ins2Extreme.png","0","instructions","","","","","","","","","","","","","","","","","","","","","","","",""
"8129","","image-button-response_instructions","8","45697","0.0-8.0","A1FS8SBR4SDWYG","img_art/ins/popularity/ins3KEEPpop.PNG","0","instructions","","","","","","","","","","","","","","","","","","","","","","","",""
"3042","","image-button-response_instructions","9","48745","0.0-9.0","A1FS8SBR4SDWYG","img_art/ins/popularity/ins3ANamepop.PNG","0","instructions","","","","","","","","","","","","","","","","","","","","","","","",""
"1727","","image-button-response_instructions","10","50477","0.0-10.0","A1FS8SBR4SDWYG","img_art/ins/popularity/ins3ARatingpop.png","0","instructions","","","","","","","","","","","","","","","","","","","","","","","",""
"1464","","image-button-response_instructions","11","51945","0.0-11.0","A1FS8SBR4SDWYG","img_art/ins/popularity/ins3ATextpop.png","0","instructions","","","","","","","","","","","","","","","","","","","","","","","",""
"1807","","image-button-response_instructions","12","53757","0.0-12.0","A1FS8SBR4SDWYG","img_art/ins/popularity/ins3ALikespop.png","0","instructions","","","","","","","","","","","","","","","","","","","","","","","",""
"4260","","image-button-response_instructions","13","58021","0.0-13.0","A1FS8SBR4SDWYG","img_art/ins/popularity/ins3KEEPpop.PNG","0","instructions","","","","","","","","","","","","","","","","","","","","","","","",""
"3131","","image-button-response_instructions","14","61158","0.0-14.0","A1FS8SBR4SDWYG","img_art/ins/popularity/ins3_5RED.png","0","instructions","","","","","","","","","","","","","","","","","","","","","","","",""
"1724","","image-button-response_instructions","15","62886","0.0-15.0","A1FS8SBR4SDWYG","img_art/ins/popularity/ins3KEEPpop.PNG","0","instructions","","","","","","","","","","","","","","","","","","","","","","","",""
"3146","","image-button-response_instructions","16","66036","0.0-16.0","A1FS8SBR4SDWYG","img_art/ins/popularity/ins4KEEPpop.PNG","0","instructions","","","","","","","","","","","","","","","","","","","","","","","",""
"890","","image-button-response_instructions","17","66930","0.0-17.0","A1FS8SBR4SDWYG","img_art/ins/popularity/ins5KEEPpop.PNG","0","instructions","","","","","","","","","","","","","","","","","","","","","","","",""
"828","","image-button-response_instructions","18","67762","0.0-18.0","A1FS8SBR4SDWYG","","0","instructions","","","","","","","","","","","","","","","","","","","","","","","",""
"4768","","survey-text","19","72628","0.0-19.0-0.0","A1FS8SBR4SDWYG","","","","{""Q0"":""but""}","","","","","","","","","","","","","","","","","","","","","","",""
"10324","","survey-text","20","82957","0.0-20.0-0.0","A1FS8SBR4SDWYG","","","","{""Q0"":""It's beautiful and reminds me of a dream""}","","","","","","","","","","","","","","","","","","","","","","",""
"3554.2999999523163","","image-slider-response","21","86519","0.0-21.0","A1FS8SBR4SDWYG","","","","","36","","","","","","","","","","","","","","","","","","","","","",""
"3299","","image-button-response","22","91534","0.0-22.0","A1FS8SBR4SDWYG","img_art/ins/1.jpg","4","","","","","","","","","","","","","","","","","","","","","","","","",""
"1033","","image-button-response","23","92572","0.0-23.0","A1FS8SBR4SDWYG","img_art/ins/1.jpg","4","","","","","","","","","","","","","","","","","","","","","","","","",""
"1801","","image-button-response","24","94380","0.0-24.0-0.0","A1FS8SBR4SDWYG","img_art/ins/1.jpg","5","","","","","","","","","","","","","","","","","","","","","","","","",""
"1748","","image-button-response","25","96133","0.0-25.0-0.0","A1FS8SBR4SDWYG","img_art/ins/1.jpg","0","","","","","","","","","","","","","","","","","","","","","","","","",""
"null","","html-keyboard-response","26","97655","0.0-26.0","A1FS8SBR4SDWYG","<p style=""font-size: 48px;"">+</p>","","","","","null","allTrialResponses","1500","1","-2","img_art/ins/1.jpg","36","It's beautiful and reminds me of a dream","Allison,Ashley,Beth,Dora,Erika,Jen","looks like a lot of things going on in the mist,20,20,20","I just don't get why these type of art would be popular,-32,40,20","This color reminds me of poo,-46,60,20","looks like what my niece in 3rd grade did this afternoon,-50,80,20","I like the sophisticated brushwork,40,100,20","It reminds me of a candy land dream I had,36,120,20","Erika","I like the sophisticated brushwork,40,100,20","Jen","It reminds me of a candy land dream I had,36,120,20","Allison","looks like a lot of things going on in the mist,20,20,20","0"
"5918","","survey-text","27","103590","0.0-27.0-0.0","A1FS8SBR4SDWYG","","","","{""Q0"":""It looks angry""}","","","","","","","","","","","","","","","","","","","","","","",""
"2658.600000143051","","image-slider-response","28","106253","0.0-28.0","A1FS8SBR4SDWYG","","","","","-9","","","","","","","","","","","","","","","","","","","","","",""
"3196","","image-button-response","29","111286","0.0-29.0","A1FS8SBR4SDWYG","img_art/ins/2.jpg","0","","","","","","","","","","","","","","","","","","","","","","","","",""
"593","","image-button-response","30","111884","0.0-30.0","A1FS8SBR4SDWYG","img_art/ins/2.jpg","0","","","","","","","","","","","","","","","","","","","","","","","","",""
"1484","","image-button-response","31","113372","0.0-31.0-0.0","A1FS8SBR4SDWYG","img_art/ins/2.jpg","2","","","","","","","","","","","","","","","","","","","","","","","","",""
"3099","","image-button-response","32","116477","0.0-32.0-0.0","A1FS8SBR4SDWYG","img_art/ins/2.jpg","4","","","","","","","","","","","","","","","","","","","","","","","","",""
"null","","html-keyboard-response","33","117991","0.0-33.0","A1FS8SBR4SDWYG","<p style=""font-size: 48px;"">+</p>","","","","","null","allTrialResponses","1500","1","-1","img_art/ins/2.jpg","-9","It looks angry","Allison,Kara,Katie,Jenna,Erika,Jen","I don't have strong feelings about this,10,20,20","I like the blocks of color arrangements,30,160,20","too much color!,-28,180,20","One of my pet peevs,-48,140,20","I would never be able to compose a sophisticated pallete like this,48,100,20","It reminds me of a fireplace,36,120,20","Allison","I don't have strong feelings about this,10,20,20","Katie","too much color!,-28,180,20","Erika","I would never be able to compose a sophisticated pallete like this,48,100,20","0"
"12106","","survey-text","34","130118","0.0-34.0-0.0","A1FS8SBR4SDWYG","","","","{""Q0"":""It's beautiful and calming, reminds me of winter""}","","","","","","","","","","","","","","","","","","","","","","",""
"4839.599999904633","","image-slider-response","35","134962","0.0-35.0","A1FS8SBR4SDWYG","","","","","44","","","","","","","","","","","","","","","","","","","","","",""
"1938","","image-button-response","36","139989","0.0-36.0","A1FS8SBR4SDWYG","img_art/ins/3.jpg","0","","","","","","","","","","","","","","","","","","","","","","","","",""
"619","","image-button-response","37","140622","0.0-37.0","A1FS8SBR4SDWYG","img_art/ins/3.jpg","0","","","","","","","","","","","","","","","","","","","","","","","","",""
"1735","","image-button-response","38","142362","0.0-38.0-0.0","A1FS8SBR4SDWYG","img_art/ins/3.jpg","1","","","","","","","","","","","","","","","","","","","","","","","","",""
"2149","","image-button-response","39","144518","0.0-39.0-0.0","A1FS8SBR4SDWYG","img_art/ins/3.jpg","4","","","","","","","","","","","","","","","","","","","","","","","","",""
"null","","html-keyboard-response","40","145538","0.0-40.0","A1FS8SBR4SDWYG","<p style=""font-size: 48px;"">+</p>","","","","","null","allTrialResponses","1000","1","0","img_art/ins/3.jpg","44","It's beautiful and calming, reminds me of winter","Allison,Mary,Katie,Leslie,Erika,Rose","enjoy the different shades of blue,22,20,20","I like the overlapping of brushes,41,220,20","It looks depressing,-26,180,20","It's an alright work,15,200,20","I feel connected to the artist,40,100,20","My daily routine, it's depressing,-20,240,20","Allison","enjoy the different shades of blue,22,20,20","Mary","I like the overlapping of brushes,41,220,20","Erika","I feel connected to the artist,40,100,20","0"
"2987","","image-button-response_instructions","41","148543","0.0-41.0","A1FS8SBR4SDWYG","","0","instructions","","","","","","","","","","","","","","","","","","","","","","","",""
"7483","","survey-likert","42","156033","0.0-42.0-0.0","A1FS8SBR4SDWYG","","","","{""Q0"":"""",""Q1"":0,""Q2"":1}","","","","","","","","","","","","","","","","","","","","","","",""
"3936","","survey-text","43","159984","0.0-43.0-0.0","A1FS8SBR4SDWYG","","","","{""Q0"":""rock""}","","","","","","","","","","","","","","","","","","","","","","",""
"12888","","survey-text","44","172876","0.0-44.0-0.0","A1FS8SBR4SDWYG","","","","{""Q0"":""It makes me think of Halloween and is ominous""}","","","","","","","","","","","","","","","","","","","","","","",""
"2985.4000000953674","","image-slider-response","45","175867","0.0-45.0","A1FS8SBR4SDWYG","","","","","-42","","","","","","","","","","","","","","","","","","","","","",""
"3531","","image-button-response","46","180970","0.0-46.0","A1FS8SBR4SDWYG","img_art/25.jpg","2","","","","","","","","","","","","","","","","","","","","","","","","",""
"722","","image-button-response","47","181701","0.0-47.0","A1FS8SBR4SDWYG","img_art/25.jpg","2","","","","","","","","","","","","","","","","","","","","","","","","",""
"1905","","image-button-response","48","183619","0.0-48.0-0.0","A1FS8SBR4SDWYG","img_art/25.jpg","1","","","","","","","","","","","","","","","","","","","","","","","","",""
"3115","","image-button-response","49","186742","0.0-49.0-0.0","A1FS8SBR4SDWYG","img_art/25.jpg","0","","","","","","","","","","","","","","","","","","","","","","","","",""
"null","","html-keyboard-response","50","188253","0.0-50.0","A1FS8SBR4SDWYG","<p style=""font-size: 48px;"">+</p>","","","","","null","allTrialResponses","1500","1","1","img_art/25.jpg","-42","It makes me think of Halloween and is ominous","Breanna,Chelsea,Victoria,Miranda,Amanda,Monica","Makes me feel intrigued,13,380,20","The color and image are unsettling.,-29,180,20","makes me think of a scary movie,-20,400,20","This looks cool but I don't really care for it. Some sort or religious figure?,16,320,20","Reminds me of Mr. Burns on drugs in the Simpsons,-50,180,20","The skeletal figure is a bit scary,-12,360,20","Victoria","makes me think of a scary movie,-20,400,20","Chelsea","The color and image are unsettling.,-29,180,20","Breanna","Makes me feel intrigued,13,380,20","0"
"13699","","survey-text","51","201970","0.0-51.0-0.0","A1FS8SBR4SDWYG","","","","{""Q0"":""It doesn't look sophisticated and brushstrokes are too big""}","","","","","","","","","","","","","","","","","","","","","","",""
"2754.899999856949","","image-slider-response","52","204731","0.0-52.0","A1FS8SBR4SDWYG","","","","","-39","","","","","","","","","","","","","","","","","","","","","",""
"1724","","image-button-response","53","209751","0.0-53.0","A1FS8SBR4SDWYG","img_art/30.jpg","1","","","","","","","","","","","","","","","","","","","","","","","","",""
"646","","image-button-response","54","210404","0.0-54.0","A1FS8SBR4SDWYG","img_art/30.jpg","1","","","","","","","","","","","","","","","","","","","","","","","","",""
"1250","","image-button-response","55","211658","0.0-55.0-0.0","A1FS8SBR4SDWYG","img_art/30.jpg","0","","","","","","","","","","","","","","","","","","","","","","","","",""
"2074","","image-button-response","56","213739","0.0-56.0-0.0","A1FS8SBR4SDWYG","img_art/30.jpg","2","","","","","","","","","","","","","","","","","","","","","","","","",""
"null","","html-keyboard-response","57","214749","0.0-57.0","A1FS8SBR4SDWYG","<p style=""font-size: 48px;"">+</p>","","","","","null","allTrialResponses","1000","1","2","img_art/30.jpg","-39","It doesn't look sophisticated and brushstrokes are too big","Breanna,Chelsea,Victoria,Katelyn,Erin,Brianna","Paint scribbled on canvas,-25,380,20","It looks like it was painted in 5 minutes.,-32,180,20","to dark and dreary,-28,400,20","I do like the multi-dimensional aspect of this piece,10,100,20","Layers are interesting,22,120,20","I like the fact that it's a painting.,21,20,20","Chelsea","It looks like it was painted in 5 minutes.,-32,180,20","Breanna","Paint scribbled on canvas,-25,380,20","Victoria","to dark and dreary,-28,400,20","0"
"14795","","survey-text","58","229578","0.0-58.0-0.0","A1FS8SBR4SDWYG","","","","{""Q0"":""Inspiring - a lone bird or plant in the dessert""}","","","","","","","","","","","","","","","","","","","","","","",""
"4172.5","","image-slider-response","59","233757","0.0-59.0","A1FS8SBR4SDWYG","","","","","48","","","","","","","","","","","","","","","","","","","","","",""
"null","","image-button-response","60","238766","0.0-60.0","A1FS8SBR4SDWYG","img_art/6.jpg","null","","","","","","","","","","","","","","","","","","","","","","","","",""
"1225","","image-button-response","61","239996","0.0-61.0","A1FS8SBR4SDWYG","img_art/6.jpg","4","","","","","","","","","","","","","","","","","","","","","","","","",""
"4256","","image-button-response","62","244257","0.0-62.0-0.0","A1FS8SBR4SDWYG","img_art/6.jpg","5","","","","","","","","","","","","","","","","","","","","","","","","",""
"1800","","image-button-response","63","246065","0.0-63.0-0.0","A1FS8SBR4SDWYG","img_art/6.jpg","2","","","","","","","","","","","","","","","","","","","","","","","","",""
"null","","html-keyboard-response","64","246582","0.0-64.0","A1FS8SBR4SDWYG","<p style=""font-size: 48px;"">+</p>","","","","","null","allTrialResponses","500","1","3","img_art/6.jpg","48","Inspiring - a lone bird or plant in the dessert","Breanna,Chelsea,Victoria,Shannon,Chloe,Katie","Not impressed, just very plain,-10,380,20","It looks like one tall ugly bird.,-43,180,20","makes me think of nature,30,400,20","I can't tell what this image is, but it's boring because of lack of color variety and nothing in it,-41,220,20","Cute and evocative,11,220,20","I like the warmth of the orange. But, I feel like it's a partial view. I'm frustrated I can't see the entirety.,-20,160,20","Chloe","Cute and evocative,11,220,20","Katie","I like the warmth of the orange. But, I feel like it's a partial view. I'm frustrated I can't see the entirety.,-20,160,20","Victoria","makes me think of nature,30,400,20","0"
"13834","","survey-text","65","260430","0.0-65.0-0.0","A1FS8SBR4SDWYG","","","","{""Q0"":""The tree branches are ethereal and beautiful""}","","","","","","","","","","","","","","","","","","","","","","",""
"3139.800000190735","","image-slider-response","66","263576","0.0-66.0","A1FS8SBR4SDWYG","","","","","42","","","","","","","","","","","","","","","","","","","","","",""
"null","","image-button-response","67","268587","0.0-67.0","A1FS8SBR4SDWYG","img_art/17.jpg","null","","","","","","","","","","","","","","","","","","","","","","","","",""
"5383","","image-button-response","68","273975","0.0-68.0","A1FS8SBR4SDWYG","img_art/17.jpg","1","","","","","","","","","","","","","","","","","","","","","","","","",""
"1957","","image-button-response","69","275942","0.0-69.0-0.0","A1FS8SBR4SDWYG","img_art/17.jpg","2","","","","","","","","","","","","","","","","","","","","","","","","",""
"2376","","image-button-response","70","278324","0.0-70.0-0.0","A1FS8SBR4SDWYG","img_art/17.jpg","3","","","","","","","","","","","","","","","","","","","","","","","","",""
"null","","html-keyboard-response","71","279337","0.0-71.0","A1FS8SBR4SDWYG","<p style=""font-size: 48px;"">+</p>","","","","","null","allTrialResponses","1000","1","4","img_art/17.jpg","42","The tree branches are ethereal and beautiful","Julia,Cassidy,Victoria,Katherine,Chloe,Katie","I'm not into paintings of trees,-18,40,20","cool. Sharp and blocky below, light and flowing on top. Overall pleasing to look at,32,140,20","love the wispyness of it,34,400,20","Looks like a weird blurry heaven again! I dig,32,120,20","Pretty but a little cheesy,-10,220,20","Is it a tree/plant of some sort?  Or, I see hair?  I don't get it. But, the colors are pleasing to me.,1,160,20","Cassidy","cool. Sharp and blocky below, light and flowing on top. Overall pleasing to look at,32,140,20","Victoria","love the wispyness of it,34,400,20","Katherine","Looks like a weird blurry heaven again! I dig,32,120,20","0"
"16850","","survey-text","72","296208","0.0-72.0-0.0","A1FS8SBR4SDWYG","","","","{""Q0"":""Absolutely gorgeous interpretation of a female figure""}","","","","","","","","","","","","","","","","","","","","","","",""
"9535.099999904633","","image-slider-response","73","305749","0.0-73.0","A1FS8SBR4SDWYG","","","","","46","","","","","","","","","","","","","","","","","","","","","",""
"null","","image-button-response","74","310754","0.0-74.0","A1FS8SBR4SDWYG","img_art/9.jpg","null","","","","","","","","","","","","","","","","","","","","","","","","",""
"3313","","image-button-response","75","314072","0.0-75.0","A1FS8SBR4SDWYG","img_art/9.jpg","2","","","","","","","","","","","","","","","","","","","","","","","","",""
"1972","","image-button-response","76","316050","0.0-76.0-0.0","A1FS8SBR4SDWYG","img_art/9.jpg","4","","","","","","","","","","","","","","","","","","","","","","","","",""
"1212","","image-button-response","77","317268","0.0-77.0-0.0","A1FS8SBR4SDWYG","img_art/9.jpg","3","","","","","","","","","","","","","","","","","","","","","","","","",""
"null","","html-keyboard-response","78","317779","0.0-78.0","A1FS8SBR4SDWYG","<p style=""font-size: 48px;"">+</p>","","","","","null","allTrialResponses","500","1","5","img_art/9.jpg","46","Absolutely gorgeous interpretation of a female figure","Cheyenne,Cassidy,Victoria,Katherine,Abigail,Hannah","Too much going on, don't know what the focus is,-11,200,20","The colors are okay, but this looks like someone scribbled with a crayon,1,140,20","reminds me of a story book,18,400,20","Idk what is in the middle but the blurry image makes it seem like the subject is of the painters interest,22,120,20","Reminds me of a cave in a scary movie,-21,20,20","Someone lying in bed?  Don't care for it.,-14,240,20","Victoria","reminds me of a story book,18,400,20","Abigail","Reminds me of a cave in a scary movie,-21,20,20","Katherine","Idk what is in the middle but the blurry image makes it seem like the subject is of the painters interest,22,120,20","0"
"3623","","survey-text","79","321446","0.0-79.0-0.0","A1FS8SBR4SDWYG","","","","{""Q0"":""sky""}","","","","","","","","","","","","","","","","","","","","","","",""
"7580","","survey-text","80","329031","0.0-80.0-0.0","A1FS8SBR4SDWYG","","","","{""Q0"":""Too dark for me but interesting""}","","","","","","","","","","","","","","","","","","","","","","",""
"2273","","image-slider-response","81","331310","0.0-81.0","A1FS8SBR4SDWYG","","","","","-25","","","","","","","","","","","","","","","","","","","","","",""
"null","","image-button-response","82","336320","0.0-82.0","A1FS8SBR4SDWYG","img_art/28.jpg","null","","","","","","","","","","","","","","","","","","","","","","","","",""
"993","","image-button-response","83","337316","0.0-83.0","A1FS8SBR4SDWYG","img_art/28.jpg","0","","","","","","","","","","","","","","","","","","","","","","","","",""
"2526","","image-button-response","84","339847","0.0-84.0-0.0","A1FS8SBR4SDWYG","img_art/28.jpg","2","","","","","","","","","","","","","","","","","","","","","","","","",""
"2144","","image-button-response","85","341997","0.0-85.0-0.0","A1FS8SBR4SDWYG","img_art/28.jpg","4","","","","","","","","","","","","","","","","","","","","","","","","",""
"null","","html-keyboard-response","86","343518","0.0-86.0","A1FS8SBR4SDWYG","<p style=""font-size: 48px;"">+</p>","","","","","null","allTrialResponses","1500","1","6","img_art/28.jpg","-25","Too dark for me but interesting","Marissa,Caroline,Victoria,Katherine,Abigail,Elizabeth","It feels very blah,-10,160,20","Colors are pleasing. Made me think of two people kneeling and talking. A curious feeling.,15,100,20","drab and dreary,-21,400,20","Eh it's just kinda brown and muddy and not very nice looking,-18,120,20","A messy bed room,-7,20,20","Not really exciting,23,20,20","Marissa","It feels very blah,-10,160,20","Victoria","drab and dreary,-21,400,20","Abigail","A messy bed room,-7,20,20","0"
"14934","","survey-text","87","358479","0.0-87.0-0.0","A1FS8SBR4SDWYG","","","","{""Q0"":""Ew but I'd love to know more ""}","","","","","","","","","","","","","","","","","","","","","","",""
"2377.0999999046326","","image-slider-response","88","360862","0.0-88.0","A1FS8SBR4SDWYG","","","","","-45","","","","","","","","","","","","","","","","","","","","","",""
"null","","image-button-response","89","365871","0.0-89.0","A1FS8SBR4SDWYG","img_art/4.jpg","null","","","","","","","","","","","","","","","","","","","","","","","","",""
"3682","","image-button-response","90","369558","0.0-90.0","A1FS8SBR4SDWYG","img_art/4.jpg","0","","","","","","","","","","","","","","","","","","","","","","","","",""
"9945","","image-button-response","91","379506","0.0-91.0-0.0","A1FS8SBR4SDWYG","img_art/4.jpg","4","","","","","","","","","","","","","","","","","","","","","","","","",""
"1410","","image-button-response","92","380922","0.0-92.0-0.0","A1FS8SBR4SDWYG","img_art/4.jpg","3","","","","","","","","","","","","","","","","","","","","","","","","",""
"null","","html-keyboard-response","93","381433","0.0-93.0","A1FS8SBR4SDWYG","<p style=""font-size: 48px;"">+</p>","","","","","null","allTrialResponses","500","1","7","img_art/4.jpg","-45","Ew but I'd love to know more ","Marissa,Destiny,Victoria,Jenna,Abigail,Bailey","I'm disappointed that such a simple piece, with very little effort spent, could be grouped with other detailed pieces,-31,160,20","it looks like a preschooler just dragged his fingers around,-36,360,20","dont like the colors,-31,400,20","creepy, looks like a deformed hand, but the background is pretty,5,360,20","A hand reaching for something it cannot obtain,-9,20,20","Boring and tasteless. Almost reminds me of when an art gallery called a banana 'art',-42,360,20","Marissa","I'm disappointed that such a simple piece, with very little effort spent, could be grouped with other detailed pieces,-31,160,20","Abigail","A hand reaching for something it cannot obtain,-9,20,20","Jenna","creepy, looks like a deformed hand, but the background is pretty,5,360,20","0"
"16010","","survey-text","94","397461","0.0-94.0-0.0","A1FS8SBR4SDWYG","","","","{""Q0"":""Dark piece about a car accident - gloomy commentary""}","","","","","","","","","","","","","","","","","","","","","","",""
"2245.7999999523163","","image-slider-response","95","399711","0.0-95.0","A1FS8SBR4SDWYG","","","","","-26","","","","","","","","","","","","","","","","","","","","","",""
"4879","","image-button-response","96","404720","0.0-96.0","A1FS8SBR4SDWYG","img_art/20.jpg","1","","","","","","","","","","","","","","","","","","","","","","","","",""
"1373","","image-button-response","97","406100","0.0-97.0","A1FS8SBR4SDWYG","img_art/20.jpg","1","","","","","","","","","","","","","","","","","","","","","","","","",""
"2525","","image-button-response","98","408629","0.0-98.0-0.0","A1FS8SBR4SDWYG","img_art/20.jpg","5","","","","","","","","","","","","","","","","","","","","","","","","",""
"2721","","image-button-response","99","411359","0.0-99.0-0.0","A1FS8SBR4SDWYG","img_art/20.jpg","3","","","","","","","","","","","","","","","","","","","","","","","","",""
"null","","html-keyboard-response","100","412875","0.0-100.0","A1FS8SBR4SDWYG","<p style=""font-size: 48px;"">+</p>","","","","","null","allTrialResponses","1500","1","8","img_art/20.jpg","-26","Dark piece about a car accident - gloomy commentary","Marissa,Grace,Emma,Jenna,Abigail,Crystal","I feel intrigued and impressed,34,160,20","Reminds me of Georgia O'Keefe.,11,180,20","I like the distortion of the objects, good colors,20,60,20","could look for hours. love the brush work. color choices look like a desert.,50,360,20","A mountain vacation,46,20,20","The pulling and sagging nature is very beautiful.,30,300,20","Grace","Reminds me of Georgia O'Keefe.,11,180,20","Crystal","The pulling and sagging nature is very beautiful.,30,300,20","Jenna","could look for hours. love the brush work. color choices look like a desert.,50,360,20","0"
"14251","","survey-text","101","427146","0.0-101.0-0.0","A1FS8SBR4SDWYG","","","","{""Q0"":""Interesting piece, lots of interpretations ""}","","","","","","","","","","","","","","","","","","","","","","",""
"2386.9000000953674","","image-slider-response","102","429538","0.0-102.0","A1FS8SBR4SDWYG","","","","","48","","","","","","","","","","","","","","","","","","","","","",""
"null","","image-button-response","103","434561","0.0-103.0","A1FS8SBR4SDWYG","img_art/10.jpg","null","","","","","","","","","","","","","","","","","","","","","","","","",""
"1614","","image-button-response","104","436180","0.0-104.0","A1FS8SBR4SDWYG","img_art/10.jpg","2","","","","","","","","","","","","","","","","","","","","","","","","",""
"1456","","image-button-response","105","437643","0.0-105.0-0.0","A1FS8SBR4SDWYG","img_art/10.jpg","1","","","","","","","","","","","","","","","","","","","","","","","","",""
"1706","","image-button-response","106","439354","0.0-106.0-0.0","A1FS8SBR4SDWYG","img_art/10.jpg","4","","","","","","","","","","","","","","","","","","","","","","","","",""
"null","","html-keyboard-response","107","440869","0.0-107.0","A1FS8SBR4SDWYG","<p style=""font-size: 48px;"">+</p>","","","","","null","allTrialResponses","1500","1","9","img_art/10.jpg","48","Interesting piece, lots of interpretations ","Sierra,Grace,Mackenzie,Jenna,Alexa,Crystal","it just doesnt appeal to me.,-10,260,20","First impression was musical instrument then, because of the gray colors, death.,5,180,20","The design is very fluid and fun to interpret,35,20,20","this piece is okay. I wish it was more colorful, but it is certainly intriguing.,23,360,20","Cute and has a vintage feel to it,45,40,20","The contrast between the messy dots/dabs vs the straight affluent lines is unappealing,-20,300,20","Mackenzie","The design is very fluid and fun to interpret,35,20,20","Grace","First impression was musical instrument then, because of the gray colors, death.,5,180,20","Alexa","Cute and has a vintage feel to it,45,40,20","0"
"14010","","survey-text","108","454898","0.0-108.0-0.0","A1FS8SBR4SDWYG","","","","{""Q0"":""Neat use of color and techniques""}","","","","","","","","","","","","","","","","","","","","","","",""
"1954.9000000953674","","image-slider-response","109","456864","0.0-109.0","A1FS8SBR4SDWYG","","","","","42","","","","","","","","","","","","","","","","","","","","","",""
"null","","image-button-response","110","461877","0.0-110.0","A1FS8SBR4SDWYG","img_art/8.jpg","null","","","","","","","","","","","","","","","","","","","","","","","","",""
"1227","","image-button-response","111","463109","0.0-111.0","A1FS8SBR4SDWYG","img_art/8.jpg","1","","","","","","","","","","","","","","","","","","","","","","","","",""
"3008","","image-button-response","112","466123","0.0-112.0-0.0","A1FS8SBR4SDWYG","img_art/8.jpg","0","","","","","","","","","","","","","","","","","","","","","","","","",""
"3313","","image-button-response","113","469445","0.0-113.0-0.0","A1FS8SBR4SDWYG","img_art/8.jpg","4","","","","","","","","","","","","","","","","","","","","","","","","",""
"null","","html-keyboard-response","114","470465","0.0-114.0","A1FS8SBR4SDWYG","<p style=""font-size: 48px;"">+</p>","","","","","null","allTrialResponses","1000","1","10","img_art/8.jpg","42","Neat use of color and techniques","Amy,Grace,Mackenzie,Madeline,Alexa,Shelby","The definition and the colors give make this painting accessible and thought provoking.,30,220,20","Like the colors & the imagery - old city, native peoples maybe.,20,180,20","The different shapes are fun to look for.,30,20,20","Very nice detail and colors!,10,40,20","It's simply gorgeous. This artist is very talented,50,40,20","Too much going on, too many colors, makes me feel uneasy,-20,240,20","Grace","Like the colors & the imagery - old city, native peoples maybe.,20,180,20","Amy","The definition and the colors give make this painting accessible and thought provoking.,30,220,20","Alexa","It's simply gorgeous. This artist is very talented,50,40,20","0"
"2599","","survey-text","115","473106","0.0-115.0-0.0","A1FS8SBR4SDWYG","","","","{""Q0"":""our""}","","","","","","","","","","","","","","","","","","","","","","",""
"6282","","survey-text","116","479394","0.0-116.0-0.0","A1FS8SBR4SDWYG","","","","{""Q0"":""Compelling but dark ""}","","","","","","","","","","","","","","","","","","","","","","",""
"2495.5","","image-slider-response","117","481895","0.0-117.0","A1FS8SBR4SDWYG","","","","","-18","","","","","","","","","","","","","","","","","","","","","",""
"null","","image-button-response","118","486908","0.0-118.0","A1FS8SBR4SDWYG","img_art/3.jpg","null","","","","","","","","","","","","","","","","","","","","","","","","",""
"5896","","image-button-response","119","492809","0.0-119.0","A1FS8SBR4SDWYG","img_art/3.jpg","2","","","","","","","","","","","","","","","","","","","","","","","","",""
"1534","","image-button-response","120","494348","0.0-120.0-0.0","A1FS8SBR4SDWYG","img_art/3.jpg","4","","","","","","","","","","","","","","","","","","","","","","","","",""
"2737","","image-button-response","121","497092","0.0-121.0-0.0","A1FS8SBR4SDWYG","img_art/3.jpg","0","","","","","","","","","","","","","","","","","","","","","","","","",""
"null","","html-keyboard-response","122","498612","0.0-122.0","A1FS8SBR4SDWYG","<p style=""font-size: 48px;"">+</p>","","","","","null","allTrialResponses","1500","1","11","img_art/3.jpg","-18","Compelling but dark ","Amy,Grace,Nicole,Lauren,Alexa,Kaitlyn","i like the colors particulairly the contrast of foreground to background. Exciting and thoughtful.,10,220,20","Just no. I love red but this looks like blood splatter on a wall from a horrific killing.,-45,180,20","Something I'd paint when I'm mad. I feel that,20,20,20","No clue what I'm looking. This just looks a series of scribbles in a box.,-20,340,20","Looks messy and too much for my eyes,-35,40,20","Too much red; very bland,-26,80,20","Nicole","Something I'd paint when I'm mad. I feel that,20,20,20","Alexa","Looks messy and too much for my eyes,-35,40,20","Amy","i like the colors particulairly the contrast of foreground to background. Exciting and thoughtful.,10,220,20","0"
"8914","","survey-text","123","507543","0.0-123.0-0.0","A1FS8SBR4SDWYG","","","","{""Q0"":""Great use of color and layers""}","","","","","","","","","","","","","","","","","","","","","","",""
"2026.0999999046326","","image-slider-response","124","509575","0.0-124.0","A1FS8SBR4SDWYG","","","","","39","","","","","","","","","","","","","","","","","","","","","",""
"null","","image-button-response","125","514593","0.0-125.0","A1FS8SBR4SDWYG","img_art/1.jpg","null","","","","","","","","","","","","","","","","","","","","","","","","",""
"59974","","image-button-response","126","574571","0.0-126.0","A1FS8SBR4SDWYG","img_art/1.jpg","4","","","","","","","","","","","","","","","","","","","","","","","","",""
"2487","","image-button-response","127","577065","0.0-127.0-0.0","A1FS8SBR4SDWYG","img_art/1.jpg","3","","","","","","","","","","","","","","","","","","","","","","","","",""
"1193","","image-button-response","128","578262","0.0-128.0-0.0","A1FS8SBR4SDWYG","img_art/1.jpg","1","","","","","","","","","","","","","","","","","","","","","","","","",""
"null","","html-keyboard-response","129","579274","0.0-129.0","A1FS8SBR4SDWYG","<p style=""font-size: 48px;"">+</p>","","","","","null","allTrialResponses","1000","1","12","img_art/1.jpg","39","Great use of color and layers","Amy,Gabrielle,Nicole,Kathryn,Alexa,Courtney","Unpleasing palette. I see a figure but it seems incongrous to the highly abstract background.,-20,220,20","nice piece, fall like,31,160,20","I love the colors but it's too intense sometimes,22,20,20","For some reason this makes me want to go ice skating. It's whimsical and free but also very smooth.,20,140,20","The blend of colors are gorgeous and reminds me of fall,32,40,20","I cant make anything of this one.,-7,280,20","Alexa","The blend of colors are gorgeous and reminds me of fall,32,40,20","Kathryn","For some reason this makes me want to go ice skating. It's whimsical and free but also very smooth.,20,140,20","Gabrielle","nice piece, fall like,31,160,20","0"
"8022","","survey-text","130","587315","0.0-130.0-0.0","A1FS8SBR4SDWYG","","","","{""Q0"":""This is creepy. I don't like it at all.""}","","","","","","","","","","","","","","","","","","","","","","",""
"3437.5999999046326","","image-slider-response","131","590758","0.0-131.0","A1FS8SBR4SDWYG","","","","","-50","","","","","","","","","","","","","","","","","","","","","",""
"null","","image-button-response","132","595784","0.0-132.0","A1FS8SBR4SDWYG","img_art/16.jpg","null","","","","","","","","","","","","","","","","","","","","","","","","",""
"3056","","image-button-response","133","598845","0.0-133.0","A1FS8SBR4SDWYG","img_art/16.jpg","2","","","","","","","","","","","","","","","","","","","","","","","","",""
"615","","image-button-response","134","599465","0.0-134.0-0.0","A1FS8SBR4SDWYG","img_art/16.jpg","1","","","","","","","","","","","","","","","","","","","","","","","","",""
"1086","","image-button-response","135","600558","0.0-135.0-0.0","A1FS8SBR4SDWYG","img_art/16.jpg","5","","","","","","","","","","","","","","","","","","","","","","","","",""
"null","","html-keyboard-response","136","601576","0.0-136.0","A1FS8SBR4SDWYG","<p style=""font-size: 48px;"">+</p>","","","","","null","allTrialResponses","1000","1","13","img_art/16.jpg","-50","This is creepy. I don't like it at all.","Margaret,Gabrielle,Angelica,Kathryn,Alexa,Kayla","i like how it incorporates mixed visual art with the photo of the bear and the drawings,30,100,20","nonsense art, not really art,-44,160,20","This is creepy and puerile.,-45,280,20","I see something that is supposed to be comforting but it's been discarded and lost.,-20,140,20","I can't figure out the meaning of this painting but it is pleasant to look at,40,40,20","Looks upsetting. Like it's actually graphic violence but you can't tell.,-24,180,20","Angelica","This is creepy and puerile.,-45,280,20","Gabrielle","nonsense art, not really art,-44,160,20","Kayla","Looks upsetting. Like it's actually graphic violence but you can't tell.,-24,180,20","0"
"14720","","survey-text","137","616313","0.0-137.0-0.0","A1FS8SBR4SDWYG","","","","{""Q0"":""Beautiful piece - impressive with such little color variation""}","","","","","","","","","","","","","","","","","","","","","","",""
"5527","","image-slider-response","138","621848","0.0-138.0","A1FS8SBR4SDWYG","","","","","40","","","","","","","","","","","","","","","","","","","","","",""
"4705","","image-button-response","139","626865","0.0-139.0","A1FS8SBR4SDWYG","img_art/15.jpg","0","","","","","","","","","","","","","","","","","","","","","","","","",""
"1038","","image-button-response","140","627908","0.0-140.0","A1FS8SBR4SDWYG","img_art/15.jpg","0","","","","","","","","","","","","","","","","","","","","","","","","",""
"1927","","image-button-response","141","629840","0.0-141.0-0.0","A1FS8SBR4SDWYG","img_art/15.jpg","5","","","","","","","","","","","","","","","","","","","","","","","","",""
"2927","","image-button-response","142","632773","0.0-142.0-0.0","A1FS8SBR4SDWYG","img_art/15.jpg","1","","","","","","","","","","","","","","","","","","","","","","","","",""
"null","","html-keyboard-response","143","633784","0.0-143.0","A1FS8SBR4SDWYG","<p style=""font-size: 48px;"">+</p>","","","","","null","allTrialResponses","1000","1","14","img_art/15.jpg","40","Beautiful piece - impressive with such little color variation","Mariah,Gabrielle,Angelica,Hailey,Brittany,Kayla","It is visually appealing, stark and simple but natural.,41,140,20","dark and provoking,-50,160,20","This looks odd and was not well executed.,-3,280,20","ugly picture and don't like it,-22,200,20","Color scheme and design are rather boring.,-10,40,20","Bushes, good! Life, good!,12,180,20","Mariah","It is visually appealing, stark and simple but natural.,41,140,20","Kayla","Bushes, good! Life, good!,12,180,20","Gabrielle","dark and provoking,-50,160,20","0"
"15829","","survey-text","144","649628","0.0-144.0-0.0","A1FS8SBR4SDWYG","","","","{""Q0"":""It reminds me of a peacock at first! delicate, beautiful""}","","","","","","","","","","","","","","","","","","","","","","",""
"2317.800000190735","","image-slider-response","145","651951","0.0-145.0","A1FS8SBR4SDWYG","","","","","43","","","","","","","","","","","","","","","","","","","","","",""
"null","","image-button-response","146","656977","0.0-146.0","A1FS8SBR4SDWYG","img_art/14.jpg","null","","","","","","","","","","","","","","","","","","","","","","","","",""
"4906","","image-button-response","147","661887","0.0-147.0","A1FS8SBR4SDWYG","img_art/14.jpg","2","","","","","","","","","","","","","","","","","","","","","","","","",""
"1259","","image-button-response","148","663153","0.0-148.0-0.0","A1FS8SBR4SDWYG","img_art/14.jpg","1","","","","","","","","","","","","","","","","","","","","","","","","",""
"2851","","image-button-response","149","666010","0.0-149.0-0.0","A1FS8SBR4SDWYG","img_art/14.jpg","4","","","","","","","","","","","","","","","","","","","","","","","","",""
"null","","html-keyboard-response","150","667518","0.0-150.0","A1FS8SBR4SDWYG","<p style=""font-size: 48px;"">+</p>","","","","","null","allTrialResponses","1500","1","15","img_art/14.jpg","43","It reminds me of a peacock at first! delicate, beautiful","Mariah,Gabrielle,Brooke,Sarah,Sabrina,Kayla","The lighting feels like spring.,20,140,20","the colors are peaceful and nature colors, soft,37,160,20","cotton candy skies. pretty.,35,60,20","this looks pretty childish,-15,180,20","Love the assortment of colors and flowers, expressing gentle and caring,50,120,20","I like that it looks like plants on a table, which reminds me of life.,4,180,20","Brooke","cotton candy skies. pretty.,35,60,20","Gabrielle","the colors are peaceful and nature colors, soft,37,160,20","Sabrina","Love the assortment of colors and flowers, expressing gentle and caring,50,120,20","0"
"5496","","survey-text","151","673044","0.0-151.0-0.0","A1FS8SBR4SDWYG","","","","{""Q0"":""course""}","","","","","","","","","","","","","","","","","","","","","","",""
"17816","","survey-text","152","690865","0.0-152.0-0.0","A1FS8SBR4SDWYG","","","","{""Q0"":""The background is gorgeous and the figures in the foreground are inspiring""}","","","","","","","","","","","","","","","","","","","","","","",""
"2237.5999999046326","","image-slider-response","153","693108","0.0-153.0","A1FS8SBR4SDWYG","","","","","50","","","","","","","","","","","","","","","","","","","","","",""
"4164","","image-button-response","154","698117","0.0-154.0","A1FS8SBR4SDWYG","img_art/23.jpg","3","","","","","","","","","","","","","","","","","","","","","","","","",""
"1206","","image-button-response","155","699328","0.0-155.0","A1FS8SBR4SDWYG","img_art/23.jpg","3","","","","","","","","","","","","","","","","","","","","","","","","",""
"2024","","image-button-response","156","701358","0.0-156.0-0.0","A1FS8SBR4SDWYG","img_art/23.jpg","2","","","","","","","","","","","","","","","","","","","","","","","","",""
"1965","","image-button-response","157","703329","0.0-157.0-0.0","A1FS8SBR4SDWYG","img_art/23.jpg","5","","","","","","","","","","","","","","","","","","","","","","","","",""
"null","","html-keyboard-response","158","704837","0.0-158.0","A1FS8SBR4SDWYG","<p style=""font-size: 48px;"">+</p>","","","","","null","allTrialResponses","1500","1","16","img_art/23.jpg","50","The background is gorgeous and the figures in the foreground are inspiring","Jordan,Gabrielle,Brooke,Allison,Sabrina,Sophia","NO, I don't get it,-50,20,20","it's OK, but just OK, kind of interesting but I wouldn't spend money on it,4,160,20","looks like those paper chain things.,0,60,20","I like the color contrast, though I'm unable to tell what the white shapes are.,25,140,20","I dont like the chaos of this,-20,120,20","I like the contrast and the bright colors in this one.,6,280,20","Allison","I like the color contrast, though I'm unable to tell what the white shapes are.,25,140,20","Brooke","looks like those paper chain things.,0,60,20","Sophia","I like the contrast and the bright colors in this one.,6,280,20","0"
"15615","","survey-text","159","720464","0.0-159.0-0.0","A1FS8SBR4SDWYG","","","","{""Q0"":""It's interesting and the texture is compelling""}","","","","","","","","","","","","","","","","","","","","","","",""
"3460","","image-slider-response","160","723929","0.0-160.0","A1FS8SBR4SDWYG","","","","","6","","","","","","","","","","","","","","","","","","","","","",""
"4914","","image-button-response","161","728955","0.0-161.0","A1FS8SBR4SDWYG","img_art/27.jpg","1","","","","","","","","","","","","","","","","","","","","","","","","",""
"1148","","image-button-response","162","730107","0.0-162.0","A1FS8SBR4SDWYG","img_art/27.jpg","1","","","","","","","","","","","","","","","","","","","","","","","","",""
"1385","","image-button-response","163","731498","0.0-163.0-0.0","A1FS8SBR4SDWYG","img_art/27.jpg","2","","","","","","","","","","","","","","","","","","","","","","","","",""
"2746","","image-button-response","164","734250","0.0-164.0-0.0","A1FS8SBR4SDWYG","img_art/27.jpg","3","","","","","","","","","","","","","","","","","","","","","","","","",""
"null","","html-keyboard-response","165","734777","0.0-165.0","A1FS8SBR4SDWYG","<p style=""font-size: 48px;"">+</p>","","","","","null","allTrialResponses","500","1","17","img_art/27.jpg","6","It's interesting and the texture is compelling","Savannah,Mikayla,Brooke,Allison,Christina,Sophia","An abstract piece with such lifeless colors.,-26,200,20","It kinda reminds me of sushi.,16,300,20","Like it, autumn colors, trees and foliage scene.,25,60,20","Warn colors are pretty, but too blotchy for me.,3,140,20","I like the orange but it's a little blah,1,240,20","Yikes. I think I made this in kindergarten.,-20,280,20","Mikayla","It kinda reminds me of sushi.,16,300,20","Brooke","Like it, autumn colors, trees and foliage scene.,25,60,20","Allison","Warn colors are pretty, but too blotchy for me.,3,140,20","0"
"16570","","survey-text","166","751366","0.0-166.0-0.0","A1FS8SBR4SDWYG","","","","{""Q0"":""Beautiful nature painting. Gorgeous colors and skill""}","","","","","","","","","","","","","","","","","","","","","","",""
"2906.5","","image-slider-response","167","754281","0.0-167.0","A1FS8SBR4SDWYG","","","","","50","","","","","","","","","","","","","","","","","","","","","",""
"3612","","image-button-response","168","759298","0.0-168.0","A1FS8SBR4SDWYG","img_art/24.jpg","0","","","","","","","","","","","","","","","","","","","","","","","","",""
"822","","image-button-response","169","760126","0.0-169.0","A1FS8SBR4SDWYG","img_art/24.jpg","0","","","","","","","","","","","","","","","","","","","","","","","","",""
"2072","","image-button-response","170","762205","0.0-170.0-0.0","A1FS8SBR4SDWYG","img_art/24.jpg","1","","","","","","","","","","","","","","","","","","","","","","","","",""
"2017","","image-button-response","171","764228","0.0-171.0-0.0","A1FS8SBR4SDWYG","img_art/24.jpg","5","","","","","","","","","","","","","","","","","","","","","","","","",""
"null","","html-keyboard-response","172","765742","0.0-172.0","A1FS8SBR4SDWYG","<p style=""font-size: 48px;"">+</p>","","","","","null","allTrialResponses","1500","1","18","img_art/24.jpg","50","Beautiful nature painting. Gorgeous colors and skill","Sara,Mikayla,Brooke,Allison,Erica,Makayla","Beautiful scenic drawing with perfect color coordination,43,160,20","Looks like a waterfall!,34,300,20","Mountain stream pineapple texture?,30,60,20","I appreciate the earth tones. Soothing.,5,140,20","Very refreshing and vigorous,19,80,20","Looks like a serene waterfall and woods,29,80,20","Sara","Beautiful scenic drawing with perfect color coordination,43,160,20","Mikayla","Looks like a waterfall!,34,300,20","Makayla","Looks like a serene waterfall and woods,29,80,20","0"
"17061","","survey-text","173","782829","0.0-173.0-0.0","A1FS8SBR4SDWYG","","","","{""Q0"":""It's calming and pretty but I don't know why""}","","","","","","","","","","","","","","","","","","","","","","",""
"2618.4000000953674","","image-slider-response","174","785454","0.0-174.0","A1FS8SBR4SDWYG","","","","","36","","","","","","","","","","","","","","","","","","","","","",""
"null","","image-button-response","175","790474","0.0-175.0","A1FS8SBR4SDWYG","img_art/21.jpg","null","","","","","","","","","","","","","","","","","","","","","","","","",""
"2867","","image-button-response","176","793345","0.0-176.0","A1FS8SBR4SDWYG","img_art/21.jpg","2","","","","","","","","","","","","","","","","","","","","","","","","",""
"2543","","image-button-response","177","795894","0.0-177.0-0.0","A1FS8SBR4SDWYG","img_art/21.jpg","4","","","","","","","","","","","","","","","","","","","","","","","","",""
"1056","","image-button-response","178","796957","0.0-178.0-0.0","A1FS8SBR4SDWYG","img_art/21.jpg","3","","","","","","","","","","","","","","","","","","","","","","","","",""
"null","","html-keyboard-response","179","797968","0.0-179.0","A1FS8SBR4SDWYG","<p style=""font-size: 48px;"">+</p>","","","","","null","allTrialResponses","1000","1","19","img_art/21.jpg","36","It's calming and pretty but I don't know why","Sara,Mikayla,Haley,Megan,Leslie,Makayla","It looks confusing,-21,160,20","Nothing exciting in this one.,-36,300,20","Again, I love the use of color,50,220,20","Nice asymmetry with maritime colors city meets the sea,34,200,20","The colors make me think of a perilous scene at sea, and are pretty interesting.,15,380,20","I like the two sides meeting, like a movie scene,15,80,20","Haley","Again, I love the use of color,50,220,20","Leslie","The colors make me think of a perilous scene at sea, and are pretty interesting.,15,380,20","Megan","Nice asymmetry with maritime colors city meets the sea,34,200,20","0"
"15742","","survey-text","180","813729","0.0-180.0-0.0","A1FS8SBR4SDWYG","","","","{""Q0"":""Very Pollack-esque. Gorgeous!""}","","","","","","","","","","","","","","","","","","","","","","",""
"2544","","image-slider-response","181","816279","0.0-181.0","A1FS8SBR4SDWYG","","","","","50","","","","","","","","","","","","","","","","","","","","","",""
"4483","","image-button-response","182","821295","0.0-182.0","A1FS8SBR4SDWYG","img_art/13.jpg","0","","","","","","","","","","","","","","","","","","","","","","","","",""
"779","","image-button-response","183","822077","0.0-183.0","A1FS8SBR4SDWYG","img_art/13.jpg","0","","","","","","","","","","","","","","","","","","","","","","","","",""
"677","","image-button-response","184","822757","0.0-184.0-0.0","A1FS8SBR4SDWYG","img_art/13.jpg","1","","","","","","","","","","","","","","","","","","","","","","","","",""
"904","","image-button-response","185","823668","0.0-185.0-0.0","A1FS8SBR4SDWYG","img_art/13.jpg","5","","","","","","","","","","","","","","","","","","","","","","","","",""
"null","","html-keyboard-response","186","824179","0.0-186.0","A1FS8SBR4SDWYG","<p style=""font-size: 48px;"">+</p>","","","","","null","allTrialResponses","500","1","20","img_art/13.jpg","50","Very Pollack-esque. Gorgeous!","Anna,Olivia,Haley,Megan,Leslie,Sydney","It reminds me of a window on a rainy day.,40,300,20","eighties here we come,7,40,20","Nothing about this stands out to me,-10,220,20","Average overly symmetrical safe,-26,200,20","This elicits no reaction in me.,0,380,20","I love the style of this piece, but the color choice could've been more eye catching or calming.,40,320,20","Anna","It reminds me of a window on a rainy day.,40,300,20","Olivia","eighties here we come,7,40,20","Sydney","I love the style of this piece, but the color choice could've been more eye catching or calming.,40,320,20","0"
"2387","","survey-text","187","826590","0.0-187.0-0.0","A1FS8SBR4SDWYG","","","","{""Q0"":""we""}","","","","","","","","","","","","","","","","","","","","","","",""
"5407","","survey-text","188","832002","0.0-188.0-0.0","A1FS8SBR4SDWYG","","","","{""Q0"":""Interesting city-scape!""}","","","","","","","","","","","","","","","","","","","","","","",""
"2623.5","","image-slider-response","189","834631","0.0-189.0","A1FS8SBR4SDWYG","","","","","39","","","","","","","","","","","","","","","","","","","","","",""
"null","","image-button-response","190","839645","0.0-190.0","A1FS8SBR4SDWYG","img_art/11.jpg","null","","","","","","","","","","","","","","","","","","","","","","","","",""
"25256","","image-button-response","191","864906","0.0-191.0","A1FS8SBR4SDWYG","img_art/11.jpg","2","","","","","","","","","","","","","","","","","","","","","","","","",""
"1164","","image-button-response","192","866074","0.0-192.0-0.0","A1FS8SBR4SDWYG","img_art/11.jpg","0","","","","","","","","","","","","","","","","","","","","","","","","",""
"1162","","image-button-response","193","867242","0.0-193.0-0.0","A1FS8SBR4SDWYG","img_art/11.jpg","3","","","","","","","","","","","","","","","","","","","","","","","","",""
"null","","html-keyboard-response","194","867756","0.0-194.0","A1FS8SBR4SDWYG","<p style=""font-size: 48px;"">+</p>","","","","","null","allTrialResponses","500","1","21","img_art/11.jpg","39","Interesting city-scape!","Anna,Olivia,Laura,Maria,Gabriela,Sydney","It makes me think of a coastal sea town.,50,300,20","business of traffic,10,40,20","i think of beatnik music and dark piano lounges,25,320,20","I enjoy the kandinsky-like general vibe, but the grey brings me down a bit,27,120,20","This photo makes me feel bleak,-16,140,20","I don't like the gloomy color, but it reminds me of a city which I like.,35,320,20","Laura","i think of beatnik music and dark piano lounges,25,320,20","Anna","It makes me think of a coastal sea town.,50,300,20","Maria","I enjoy the kandinsky-like general vibe, but the grey brings me down a bit,27,120,20","0"
"14996","","survey-text","195","882781","0.0-195.0-0.0","A1FS8SBR4SDWYG","","","","{""Q0"":""I usually don't like geometric renditions but this I enjoy""}","","","","","","","","","","","","","","","","","","","","","","",""
"3686.899999856949","","image-slider-response","196","886473","0.0-196.0","A1FS8SBR4SDWYG","","","","","46","","","","","","","","","","","","","","","","","","","","","",""
"null","","image-button-response","197","891480","0.0-197.0","A1FS8SBR4SDWYG","img_art/12.jpg","null","","","","","","","","","","","","","","","","","","","","","","","","",""
"1120","","image-button-response","198","892604","0.0-198.0","A1FS8SBR4SDWYG","img_art/12.jpg","0","","","","","","","","","","","","","","","","","","","","","","","","",""
"979","","image-button-response","199","893588","0.0-199.0-0.0","A1FS8SBR4SDWYG","img_art/12.jpg","1","","","","","","","","","","","","","","","","","","","","","","","","",""
"1210","","image-button-response","200","894805","0.0-200.0-0.0","A1FS8SBR4SDWYG","img_art/12.jpg","5","","","","","","","","","","","","","","","","","","","","","","","","",""
"null","","html-keyboard-response","201","895816","0.0-201.0","A1FS8SBR4SDWYG","<p style=""font-size: 48px;"">+</p>","","","","","null","allTrialResponses","1000","1","22","img_art/12.jpg","46","I usually don't like geometric renditions but this I enjoy","Anna,Claire,Laura,Maria,Andrea,Leah","Therapist wall art.,10,300,20","i like the repetition,30,260,20","angry, disturbed and sharp,-25,320,20","evokes the 80s, and not in a necessarily good way,-10,120,20","It just feels like a jigsaw puzzle,-4,240,20","Looks like a puzzle I want to put together, but not hang in my den,2,360,20","Anna","Therapist wall art.,10,300,20","Claire","i like the repetition,30,260,20","Leah","Looks like a puzzle I want to put together, but not hang in my den,2,360,20","0"
"65899","","survey-text","202","961735","0.0-202.0-0.0","A1FS8SBR4SDWYG","","","","{""Q0"":""It's different but the colors are not the best""}","","","","","","","","","","","","","","","","","","","","","","",""
"2507.7000000476837","","image-slider-response","203","964249","0.0-203.0","A1FS8SBR4SDWYG","","","","","-36","","","","","","","","","","","","","","","","","","","","","",""
"1819","","image-button-response","204","969270","0.0-204.0","A1FS8SBR4SDWYG","img_art/2.jpg","1","","","","","","","","","","","","","","","","","","","","","","","","",""
"1964","","image-button-response","205","971241","0.0-205.0","A1FS8SBR4SDWYG","img_art/2.jpg","1","","","","","","","","","","","","","","","","","","","","","","","","",""
"3077","","image-button-response","206","974323","0.0-206.0-0.0","A1FS8SBR4SDWYG","img_art/2.jpg","4","","","","","","","","","","","","","","","","","","","","","","","","",""
"1578","","image-button-response","207","975906","0.0-207.0-0.0","A1FS8SBR4SDWYG","img_art/2.jpg","5","","","","","","","","","","","","","","","","","","","","","","","","",""
"null","","html-keyboard-response","208","977436","0.0-208.0","A1FS8SBR4SDWYG","<p style=""font-size: 48px;"">+</p>","","","","","null","allTrialResponses","1500","1","23","img_art/2.jpg","-36","It's different but the colors are not the best","Anna,Claire,Michaela,Heather,Natalie,Leah","The colors are pretty but I don't really like the shapes in it.,-20,300,20","too blocky and don't like color combination,-32,260,20","My immediate reaction was it looked like a class but then I saw a smile in the middle,11,260,20","i like the colors and again can make out my own picture,38,260,20","looks like a bunch of gibberish,-39,400,20","Kind of looks upside down, I need a focal point,-29,360,20","Claire","too blocky and don't like color combination,-32,260,20","Natalie","looks like a bunch of gibberish,-39,400,20","Leah","Kind of looks upside down, I need a focal point,-29,360,20","0"
"13169","","survey-text","209","990643","0.0-209.0-0.0","A1FS8SBR4SDWYG","","","","{""Q0"":""A beautiful rendition of what looks like death ""}","","","","","","","","","","","","","","","","","","","","","","",""
"2040","","image-slider-response","210","992689","0.0-210.0","A1FS8SBR4SDWYG","","","","","50","","","","","","","","","","","","","","","","","","","","","",""
"null","","image-button-response","211","997697","0.0-211.0","A1FS8SBR4SDWYG","img_art/18.jpg","null","","","","","","","","","","","","","","","","","","","","","","","","",""
"2449","","image-button-response","212","1000150","0.0-212.0","A1FS8SBR4SDWYG","img_art/18.jpg","5","","","","","","","","","","","","","","","","","","","","","","","","",""
"1362","","image-button-response","213","1001516","0.0-213.0-0.0","A1FS8SBR4SDWYG","img_art/18.jpg","0","","","","","","","","","","","","","","","","","","","","","","","","",""
"1079","","image-button-response","214","1002601","0.0-214.0-0.0","A1FS8SBR4SDWYG","img_art/18.jpg","1","","","","","","","","","","","","","","","","","","","","","","","","",""
"null","","html-keyboard-response","215","1003118","0.0-215.0","A1FS8SBR4SDWYG","<p style=""font-size: 48px;"">+</p>","","","","","null","allTrialResponses","500","1","24","img_art/18.jpg","50","A beautiful rendition of what looks like death ","Alyssa,Claire,Mary,Catherine,Natalie,Leah","There are alot of elements to this painting and a good mix of colors,32,160,20","reminds me of greek mythology,22,260,20","I like the expression of this piece. The colors are very outdated though.,-5,180,20","Karma. being ruthless and all the time knowing the shit is gonna catch up with you.,10,160,20","my response to the picture is a little bit of anxiety but I like the detail,16,400,20","I really like it, like hells drivers,43,360,20","Leah","I really like it, like hells drivers,43,360,20","Alyssa","There are alot of elements to this painting and a good mix of colors,32,160,20","Claire","reminds me of greek mythology,22,260,20","0"
"14116","","survey-text","216","1017264","0.0-216.0-0.0","A1FS8SBR4SDWYG","","","","{""Q0"":""It looks like sand on the beach and displays great talent""}","","","","","","","","","","","","","","","","","","","","","","",""
"2268.7000000476837","","image-slider-response","217","1019540","0.0-217.0","A1FS8SBR4SDWYG","","","","","47","","","","","","","","","","","","","","","","","","","","","",""
"null","","image-button-response","218","1024570","0.0-218.0","A1FS8SBR4SDWYG","img_art/7.jpg","null","","","","","","","","","","","","","","","","","","","","","","","","",""
"3197","","image-button-response","219","1027790","0.0-219.0","A1FS8SBR4SDWYG","img_art/7.jpg","5","","","","","","","","","","","","","","","","","","","","","","","","",""
"4764","","image-button-response","220","1032561","0.0-220.0-0.0","A1FS8SBR4SDWYG","img_art/7.jpg","3","","","","","","","","","","","","","","","","","","","","","","","","",""
"3335","","image-button-response","221","1035903","0.0-221.0-0.0","A1FS8SBR4SDWYG","img_art/7.jpg","0","","","","","","","","","","","","","","","","","","","","","","","","",""
"null","","html-keyboard-response","222","1037412","0.0-222.0","A1FS8SBR4SDWYG","<p style=""font-size: 48px;"">+</p>","","","","","null","allTrialResponses","1500","1","25","img_art/7.jpg","47","It looks like sand on the beach and displays great talent","Alyssa,Claire,Amber,Samantha,Kelsey,Leah","It looks like someone took a picture of a muddy ground and called it art.,-41,160,20","reminds me of a cave wall,-21,260,20","Dull and confusing,-24,200,20","Makes me want to feel it,19,140,20","its like oatmeal with granola,-47,240,20","I love it, it looks like a landscape photograph in desert or rocky mountain,50,360,20","Leah","I love it, it looks like a landscape photograph in desert or rocky mountain,50,360,20","Samantha","Makes me want to feel it,19,140,20","Alyssa","It looks like someone took a picture of a muddy ground and called it art.,-41,160,20","0"
"2367","","survey-text","223","1039839","0.0-223.0-0.0","A1FS8SBR4SDWYG","","","","{""Q0"":""table""}","","","","","","","","","","","","","","","","","","","","","","",""
"9077","","survey-text","224","1048920","0.0-224.0-0.0","A1FS8SBR4SDWYG","","","","{""Q0"":""It's inspiring and makes me alert""}","","","","","","","","","","","","","","","","","","","","","","",""
"2488.7000000476837","","image-slider-response","225","1051414","0.0-225.0","A1FS8SBR4SDWYG","","","","","41","","","","","","","","","","","","","","","","","","","","","",""
"null","","image-button-response","226","1056422","0.0-226.0","A1FS8SBR4SDWYG","img_art/5.jpg","null","","","","","","","","","","","","","","","","","","","","","","","","",""
"2519","","image-button-response","227","1058946","0.0-227.0","A1FS8SBR4SDWYG","img_art/5.jpg","3","","","","","","","","","","","","","","","","","","","","","","","","",""
"1724","","image-button-response","228","1060675","0.0-228.0-0.0","A1FS8SBR4SDWYG","img_art/5.jpg","0","","","","","","","","","","","","","","","","","","","","","","","","",""
"2589","","image-button-response","229","1063275","0.0-229.0-0.0","A1FS8SBR4SDWYG","img_art/5.jpg","4","","","","","","","","","","","","","","","","","","","","","","","","",""
"null","","html-keyboard-response","230","1063792","0.0-230.0","A1FS8SBR4SDWYG","<p style=""font-size: 48px;"">+</p>","","","","","null","allTrialResponses","500","1","26","img_art/5.jpg","41","It's inspiring and makes me alert","Alyssa,Erika,Jennifer,Samantha,Kristen,Leah","It has a sense of vague familiarity that i like.Like a stick starting a fire at a campsite.,30,160,20","Not sure what I'm looking at,-16,100,20","This piece doesn't really stand out.,0,380,20","I cant explain why i like this so much but it really calls out to me,50,140,20","sharp, painful yet playful,-5,280,20","Boring, no flow except the pink feathery band,-42,360,20","Samantha","I cant explain why i like this so much but it really calls out to me,50,140,20","Alyssa","It has a sense of vague familiarity that i like.Like a stick starting a fire at a campsite.,30,160,20","Kristen","sharp, painful yet playful,-5,280,20","0"
"18197","","survey-text","231","1082006","0.0-231.0-0.0","A1FS8SBR4SDWYG","","","","{""Q0"":""The watercolor technique is compelling""}","","","","","","","","","","","","","","","","","","","","","","",""
"3500.2000000476837","","image-slider-response","232","1085512","0.0-232.0","A1FS8SBR4SDWYG","","","","","31","","","","","","","","","","","","","","","","","","","","","",""
"null","","image-button-response","233","1090531","0.0-233.0","A1FS8SBR4SDWYG","img_art/19.jpg","null","","","","","","","","","","","","","","","","","","","","","","","","",""
"3481","","image-button-response","234","1094016","0.0-234.0","A1FS8SBR4SDWYG","img_art/19.jpg","2","","","","","","","","","","","","","","","","","","","","","","","","",""
"1278","","image-button-response","235","1095299","0.0-235.0-0.0","A1FS8SBR4SDWYG","img_art/19.jpg","5","","","","","","","","","","","","","","","","","","","","","","","","",""
"1582","","image-button-response","236","1096891","0.0-236.0-0.0","A1FS8SBR4SDWYG","img_art/19.jpg","4","","","","","","","","","","","","","","","","","","","","","","","","",""
"null","","html-keyboard-response","237","1098407","0.0-237.0","A1FS8SBR4SDWYG","<p style=""font-size: 48px;"">+</p>","","","","","null","allTrialResponses","1500","1","27","img_art/19.jpg","31","The watercolor technique is compelling","Alyssa,Alexis,Cassandra,Samantha,Kristen,Dominique","There's alot of elements to it bordering on clutter and chaotic,-20,160,20","Not a fan of the blobbiness,-22,100,20","Nuetral...can't think of anything to say,4,120,20","Intersting but not for me,21,140,20","city, stress of urbanism, slightly panicked,2,280,20","I really like the colors and feel of this one and alot of life,41,400,20","Cassandra","Nuetral...can't think of anything to say,4,120,20","Dominique","I really like the colors and feel of this one and alot of life,41,400,20","Kristen","city, stress of urbanism, slightly panicked,2,280,20","0"
"4564","","survey-text","238","1102998","0.0-238.0-0.0","A1FS8SBR4SDWYG","","","","{""Q0"":""It's too dull""}","","","","","","","","","","","","","","","","","","","","","","",""
"2834.5999999046326","","image-slider-response","239","1105838","0.0-239.0","A1FS8SBR4SDWYG","","","","","-14","","","","","","","","","","","","","","","","","","","","","",""
"3038","","image-button-response","240","1110863","0.0-240.0","A1FS8SBR4SDWYG","img_art/26.jpg","0","","","","","","","","","","","","","","","","","","","","","","","","",""
"2368","","image-button-response","241","1113239","0.0-241.0","A1FS8SBR4SDWYG","img_art/26.jpg","2","","","","","","","","","","","","","","","","","","","","","","","","",""
"1146","","image-button-response","242","1114390","0.0-242.0-0.0","A1FS8SBR4SDWYG","img_art/26.jpg","0","","","","","","","","","","","","","","","","","","","","","","","","",""
"3160","","image-button-response","243","1117555","0.0-243.0-0.0","A1FS8SBR4SDWYG","img_art/26.jpg","3","","","","","","","","","","","","","","","","","","","","","","","","",""
"null","","html-keyboard-response","244","1119075","0.0-244.0","A1FS8SBR4SDWYG","<p style=""font-size: 48px;"">+</p>","","","","","null","allTrialResponses","1500","1","28","img_art/26.jpg","-14","It's too dull","Ashley,Jamie,Cassandra,Angela,Kristen,Dominique","Telented watercolor artist or second grader.,18,320,20","Street corner on a sunny day,5,320,20","Neutral...nothing to say.,3,120,20","Nice, but not very interesting. I do like the blue tree though.,6,260,20","happy, park, childhood,9,280,20","Small town and home feel on A nice day.,28,400,20","Cassandra","Neutral...nothing to say.,3,120,20","Ashley","Telented watercolor artist or second grader.,18,320,20","Angela","Nice, but not very interesting. I do like the blue tree though.,6,260,20","0"
"17258","","survey-text","245","1136356","0.0-245.0-0.0","A1FS8SBR4SDWYG","","","","{""Q0"":""It's too dark and depressing""}","","","","","","","","","","","","","","","","","","","","","","",""
"2578.7999999523163","","image-slider-response","246","1138940","0.0-246.0","A1FS8SBR4SDWYG","","","","","-50","","","","","","","","","","","","","","","","","","","","","",""
"5001","","image-button-response","247","1143949","0.0-247.0","A1FS8SBR4SDWYG","img_art/29.jpg","1","","","","","","","","","","","","","","","","","","","","","","","","",""
"1685","","image-button-response","248","1145639","0.0-248.0","A1FS8SBR4SDWYG","img_art/29.jpg","1","","","","","","","","","","","","","","","","","","","","","","","","",""
"1925","","image-button-response","249","1147569","0.0-249.0-0.0","A1FS8SBR4SDWYG","img_art/29.jpg","5","","","","","","","","","","","","","","","","","","","","","","","","",""
"973","","image-button-response","250","1148548","0.0-250.0-0.0","A1FS8SBR4SDWYG","img_art/29.jpg","3","","","","","","","","","","","","","","","","","","","","","","","","",""
"null","","html-keyboard-response","251","1149560","0.0-251.0","A1FS8SBR4SDWYG","<p style=""font-size: 48px;"">+</p>","","","","","null","allTrialResponses","1000","1","29","img_art/29.jpg","-50","It's too dark and depressing","Ashley,Meghan,Cassandra,Angela,Kylie,Briana","It that an actual PAINTBUSH! Love it.,50,320,20","feels random and not thoughtout,-37,220,20","Neural...just a blackboard jungle.,3,120,20","I would like this piece better without the red X across it,-10,260,20","Reminds me of graffitti gone wrong,15,300,20","Looks like someone trying to make something they dont understand,-36,400,20","Meghan","feels random and not thoughtout,-37,220,20","Briana","Looks like someone trying to make something they dont understand,-36,400,20","Angela","I would like this piece better without the red X across it,-10,260,20","0"
"5183","","survey-text","252","1154777","0.0-252.0-0.0","A1FS8SBR4SDWYG","","","","{""Q0"":""Great color combinations ""}","","","","","","","","","","","","","","","","","","","","","","",""
"2235.7999999523163","","image-slider-response","253","1157019","0.0-253.0","A1FS8SBR4SDWYG","","","","","33","","","","","","","","","","","","","","","","","","","","","",""
"null","","image-button-response","254","1162045","0.0-254.0","A1FS8SBR4SDWYG","img_art/22.jpg","null","","","","","","","","","","","","","","","","","","","","","","","","",""
"3947","","image-button-response","255","1165995","0.0-255.0","A1FS8SBR4SDWYG","img_art/22.jpg","1","","","","","","","","","","","","","","","","","","","","","","","","",""
"3878","","image-button-response","256","1169878","0.0-256.0-0.0","A1FS8SBR4SDWYG","img_art/22.jpg","2","","","","","","","","","","","","","","","","","","","","","","","","",""
"3300","","image-button-response","257","1173184","0.0-257.0-0.0","A1FS8SBR4SDWYG","img_art/22.jpg","5","","","","","","","","","","","","","","","","","","","","","","","","",""
"null","","html-keyboard-response","258","1174695","0.0-258.0","A1FS8SBR4SDWYG","<p style=""font-size: 48px;"">+</p>","","","","","null","allTrialResponses","1500","1","30","img_art/22.jpg","33","Great color combinations ","Autumn,Meghan,Kelly,Angela,Paige,Briana","Same az the last one?,-49,340,20","really beautiful colors and contrast,30,220,20","I really enjoy the blended colors.,20,220,20","Like the colors. I enjoy looking at this one.,15,260,20","Happy. I like to colors,33,60,20","Bright colors feel warm,22,400,20","Meghan","really beautiful colors and contrast,30,220,20","Kelly","I really enjoy the blended colors.,20,220,20","Briana","Bright colors feel warm,22,400,20","0"
"3114","","image-button-response_instructions","259","1177832","0.0-259.0","A1FS8SBR4SDWYG","","0","instructions","","","","","","","","","","","","","","","","","","","","","","","",""
"1840","","image-button-response","260","1179693","0.0-260.0","A1FS8SBR4SDWYG","","0","","","","","","","","","","","","","","","","","","","","","","","","",""
