"rt","url","trial_type","trial_index","time_elapsed","internal_node_id","participant_id","stimulus","button_pressed","Name","responses","response","key_press","variableName","fixationTime","condition","trial","photo","subjectRating","subjectResponse","agentsNames","agent_1_Response","agent_2_Response","agent_3_Response","agent_4_Response","agent_5_Response","agent_6_Response","kept_1_name","kept_1_response","kept_2_name","kept_2_response","kept_3_name","kept_3_response","errorCounter"
"6879","external_page_harvard.html","external-html","0","7103","0.0-0.0","A1G6F1HWIS2K2K","","","","","","","","","","","","","","","","","","","","","","","","","","",""
"2790","","image-button-response","1","9900","0.0-1.0","A1G6F1HWIS2K2K","","1","","","","","","","","","","","","","","","","","","","","","","","","",""
"1474","","image-button-response","2","11416","0.0-2.0-0.0","A1G6F1HWIS2K2K","","1","phone","","","","","","","","","","","","","","","","","","","","","","","",""
"37527","","survey-text","3","48947","0.0-3.0-0.0","A1G6F1HWIS2K2K","","","","{""Q0"":""A1G6F1HWIS2K2K""}","","","","","","","","","","","","","","","","","","","","","","",""
"5661","","image-button-response_instructions","4","54611","0.0-4.0","A1G6F1HWIS2K2K","","0","instructions","","","","","","","","","","","","","","","","","","","","","","","",""
"15986","","image-button-response_instructions","5","70599","0.0-5.0","A1G6F1HWIS2K2K","img_art/ins/popularity/ins1.png","0","instructions","","","","","","","","","","","","","","","","","","","","","","","",""
"17630","","image-button-response_instructions","6","88231","0.0-6.0","A1G6F1HWIS2K2K","img_art/ins/popularity/ins2.png","0","instructions","","","","","","","","","","","","","","","","","","","","","","","",""
"7109","","image-button-response_instructions","7","95344","0.0-7.0","A1G6F1HWIS2K2K","img_art/ins/popularity/ins2Extreme.png","0","instructions","","","","","","","","","","","","","","","","","","","","","","","",""
"6310","","image-button-response_instructions","8","101656","0.0-8.0","A1G6F1HWIS2K2K","img_art/ins/popularity/ins3KEEPpop.PNG","0","instructions","","","","","","","","","","","","","","","","","","","","","","","",""
"5394","","image-button-response_instructions","9","107054","0.0-9.0","A1G6F1HWIS2K2K","img_art/ins/popularity/ins3ANamepop.PNG","0","instructions","","","","","","","","","","","","","","","","","","","","","","","",""
"3942","","image-button-response_instructions","10","110999","0.0-10.0","A1G6F1HWIS2K2K","img_art/ins/popularity/ins3ARatingpop.png","0","instructions","","","","","","","","","","","","","","","","","","","","","","","",""
"3521","","image-button-response_instructions","11","114523","0.0-11.0","A1G6F1HWIS2K2K","img_art/ins/popularity/ins3ATextpop.png","0","instructions","","","","","","","","","","","","","","","","","","","","","","","",""
"4806","","image-button-response_instructions","12","119331","0.0-12.0","A1G6F1HWIS2K2K","img_art/ins/popularity/ins3ALikespop.png","0","instructions","","","","","","","","","","","","","","","","","","","","","","","",""
"14751","","image-button-response_instructions","13","134084","0.0-13.0","A1G6F1HWIS2K2K","img_art/ins/popularity/ins3KEEPpop.PNG","0","instructions","","","","","","","","","","","","","","","","","","","","","","","",""
"14720","","image-button-response_instructions","14","148807","0.0-14.0","A1G6F1HWIS2K2K","img_art/ins/popularity/ins3_5RED.png","0","instructions","","","","","","","","","","","","","","","","","","","","","","","",""
"3798","","image-button-response_instructions","15","152607","0.0-15.0","A1G6F1HWIS2K2K","img_art/ins/popularity/ins3KEEPpop.PNG","0","instructions","","","","","","","","","","","","","","","","","","","","","","","",""
"7047","","image-button-response_instructions","16","159655","0.0-16.0","A1G6F1HWIS2K2K","img_art/ins/popularity/ins4KEEPpop.PNG","0","instructions","","","","","","","","","","","","","","","","","","","","","","","",""
"4491","","image-button-response_instructions","17","164149","0.0-17.0","A1G6F1HWIS2K2K","img_art/ins/popularity/ins5KEEPpop.PNG","0","instructions","","","","","","","","","","","","","","","","","","","","","","","",""
"2043","","image-button-response_instructions","18","166196","0.0-18.0","A1G6F1HWIS2K2K","","0","instructions","","","","","","","","","","","","","","","","","","","","","","","",""
"10306","","survey-text","19","176544","0.0-19.0-0.0","A1G6F1HWIS2K2K","","","","{""Q0"":""but""}","","","","","","","","","","","","","","","","","","","","","","",""
"26035","","survey-text","20","202582","0.0-20.0-0.0","A1G6F1HWIS2K2K","","","","{""Q0"":""Looks like a kindergartener painted it""}","","","","","","","","","","","","","","","","","","","","","","",""
"5424","","image-slider-response","21","208011","0.0-21.0","A1G6F1HWIS2K2K","","","","","-45","","","","","","","","","","","","","","","","","","","","","",""
"4597","","image-button-response","22","213036","0.0-22.0","A1G6F1HWIS2K2K","img_art/ins/1.jpg","1","","","","","","","","","","","","","","","","","","","","","","","","",""
"3254","","image-button-response","23","216296","0.0-23.0","A1G6F1HWIS2K2K","img_art/ins/1.jpg","2","","","","","","","","","","","","","","","","","","","","","","","","",""
"2478","","image-button-response","24","218776","0.0-24.0-0.0","A1G6F1HWIS2K2K","img_art/ins/1.jpg","1","","","","","","","","","","","","","","","","","","","","","","","","",""
"11043","","image-button-response","25","229822","0.0-25.0-0.0","A1G6F1HWIS2K2K","img_art/ins/1.jpg","3","","","","","","","","","","","","","","","","","","","","","","","","",""
"null","","html-keyboard-response","26","231344","0.0-26.0","A1G6F1HWIS2K2K","<p style=""font-size: 48px;"">+</p>","","","","","null","allTrialResponses","1500","1","-2","img_art/ins/1.jpg","-45","Looks like a kindergartener painted it","Allison,Ashley,Beth,Dora,Erika,Jen","looks like a lot of things going on in the mist,20,20,20","I just don't get why these type of art would be popular,-32,40,20","This color reminds me of poo,-46,60,20","looks like what my niece in 3rd grade did this afternoon,-50,80,20","I like the sophisticated brushwork,40,100,20","It reminds me of a candy land dream I had,36,120,20","Beth","This color reminds me of poo,-46,60,20","Ashley","I just don't get why these type of art would be popular,-32,40,20","Dora","looks like what my niece in 3rd grade did this afternoon,-50,80,20","0"
"17813","","survey-text","27","249168","0.0-27.0-0.0","A1G6F1HWIS2K2K","","","","{""Q0"":""It looks like the 1970's threw up""}","","","","","","","","","","","","","","","","","","","","","","",""
"5787","","image-slider-response","28","254957","0.0-28.0","A1G6F1HWIS2K2K","","","","","-47","","","","","","","","","","","","","","","","","","","","","",""
"null","","image-button-response","29","259964","0.0-29.0","A1G6F1HWIS2K2K","img_art/ins/2.jpg","null","","","","","","","","","","","","","","","","","","","","","","","","",""
"702","","image-button-response","30","260668","0.0-30.0","A1G6F1HWIS2K2K","img_art/ins/2.jpg","1","","","","","","","","","","","","","","","","","","","","","","","","",""
"1806","","image-button-response","31","262477","0.0-31.0-0.0","A1G6F1HWIS2K2K","img_art/ins/2.jpg","2","","","","","","","","","","","","","","","","","","","","","","","","",""
"4998","","image-button-response","32","267478","0.0-32.0-0.0","A1G6F1HWIS2K2K","img_art/ins/2.jpg","0","","","","","","","","","","","","","","","","","","","","","","","","",""
"null","","html-keyboard-response","33","267985","0.0-33.0","A1G6F1HWIS2K2K","<p style=""font-size: 48px;"">+</p>","","","","","null","allTrialResponses","500","1","-1","img_art/ins/2.jpg","-47","It looks like the 1970's threw up","Jenna,Ashley,Beth,Dora,Kara,Katie","One of my pet peevs,-48,140,20","Idk, it is just annoying,-32,40,20","meaningless painting,-45,60,20","looks too angry,-50,80,20","I like the blocks of color arrangements,30,160,20","too much color!,-28,180,20","Ashley","Idk, it is just annoying,-32,40,20","Beth","meaningless painting,-45,60,20","Jenna","One of my pet peevs,-48,140,20","0"
"46990","","survey-text","34","314988","0.0-34.0-0.0","A1G6F1HWIS2K2K","","","","{""Q0"":""did that one elephant paint this?""}","","","","","","","","","","","","","","","","","","","","","","",""
"7214","","image-slider-response","35","322206","0.0-35.0","A1G6F1HWIS2K2K","","","","","-35","","","","","","","","","","","","","","","","","","","","","",""
"3227","","image-button-response","36","327214","0.0-36.0","A1G6F1HWIS2K2K","img_art/ins/3.jpg","0","","","","","","","","","","","","","","","","","","","","","","","","",""
"2058","","image-button-response","37","329275","0.0-37.0","A1G6F1HWIS2K2K","img_art/ins/3.jpg","1","","","","","","","","","","","","","","","","","","","","","","","","",""
"6348","","image-button-response","38","335625","0.0-38.0-0.0","A1G6F1HWIS2K2K","img_art/ins/3.jpg","2","","","","","","","","","","","","","","","","","","","","","","","","",""
"5218","","image-button-response","39","340848","0.0-39.0-0.0","A1G6F1HWIS2K2K","img_art/ins/3.jpg","0","","","","","","","","","","","","","","","","","","","","","","","","",""
"null","","html-keyboard-response","40","341864","0.0-40.0","A1G6F1HWIS2K2K","<p style=""font-size: 48px;"">+</p>","","","","","null","allTrialResponses","1000","1","0","img_art/ins/3.jpg","-35","did that one elephant paint this?","Jenna,Ashley,Beth,Leslie,Mary,Rose","looks like a murder room,-35,140,20","It looks like a playground for bats,-36,40,20","This thing gives me anxiety,-41,60,20","It's an alright work,15,200,20","I like the overlapping of brushes,41,220,20","My daily routine, it's depressing,-20,240,20","Ashley","It looks like a playground for bats,-36,40,20","Beth","This thing gives me anxiety,-41,60,20","Jenna","looks like a murder room,-35,140,20","0"
"3172","","image-button-response_instructions","41","345052","0.0-41.0","A1G6F1HWIS2K2K","","0","instructions","","","","","","","","","","","","","","","","","","","","","","","",""
"18781","","survey-likert","42","363836","0.0-42.0-0.0","A1G6F1HWIS2K2K","","","","{""Q0"":"""",""Q1"":0,""Q2"":1}","","","","","","","","","","","","","","","","","","","","","","",""
"6073","","survey-text","43","369915","0.0-43.0-0.0","A1G6F1HWIS2K2K","","","","{""Q0"":""rock""}","","","","","","","","","","","","","","","","","","","","","","",""
"22578","","survey-text","44","392496","0.0-44.0-0.0","A1G6F1HWIS2K2K","","","","{""Q0"":""destined for a starving artist sale""}","","","","","","","","","","","","","","","","","","","","","","",""
"6752","","image-slider-response","45","399254","0.0-45.0","A1G6F1HWIS2K2K","","","","","-45","","","","","","","","","","","","","","","","","","","","","",""
"null","","image-button-response","46","404284","0.0-46.0","A1G6F1HWIS2K2K","img_art/8.jpg","null","","","","","","","","","","","","","","","","","","","","","","","","",""
"12537","","image-button-response","47","416826","0.0-47.0","A1G6F1HWIS2K2K","img_art/8.jpg","0","","","","","","","","","","","","","","","","","","","","","","","","",""
"12306","","image-button-response","48","429135","0.0-48.0-0.0","A1G6F1HWIS2K2K","img_art/8.jpg","1","","","","","","","","","","","","","","","","","","","","","","","","",""
"11221","","image-button-response","49","440359","0.0-49.0-0.0","A1G6F1HWIS2K2K","img_art/8.jpg","2","","","","","","","","","","","","","","","","","","","","","","","","",""
"null","","html-keyboard-response","50","441374","0.0-50.0","A1G6F1HWIS2K2K","<p style=""font-size: 48px;"">+</p>","","","","","null","allTrialResponses","1000","1","1","img_art/8.jpg","-45","destined for a starving artist sale","Alicia,Allison,Jacqueline,Gabrielle,Kayla,Kathryn","wow. blocky, angled, neat colors. The faces are what makes it. love it.,45,120,20","Eclectic city with good mix of colors.,10,140,20","This is kind of neat. I really like how things are oriented and the shapes used.,18,300,20","lots going on with great use of lots of color and geometry,24,160,20","The faces are kinda freaky.,-17,180,20","The angle makes it kind of disorienting but I enjoy the fantastical colors and imagery. It's like a dream.,10,140,20","Alicia","wow. blocky, angled, neat colors. The faces are what makes it. love it.,45,120,20","Allison","Eclectic city with good mix of colors.,10,140,20","Jacqueline","This is kind of neat. I really like how things are oriented and the shapes used.,18,300,20","0"
"36348","","survey-text","51","477741","0.0-51.0-0.0","A1G6F1HWIS2K2K","","","","{""Q0"":""Has an urban art feel""}","","","","","","","","","","","","","","","","","","","","","","",""
"6210","","image-slider-response","52","483954","0.0-52.0","A1G6F1HWIS2K2K","","","","","41","","","","","","","","","","","","","","","","","","","","","",""
"null","","image-button-response","53","488965","0.0-53.0","A1G6F1HWIS2K2K","img_art/2.jpg","null","","","","","","","","","","","","","","","","","","","","","","","","",""
"17225","","image-button-response","54","506191","0.0-54.0","A1G6F1HWIS2K2K","img_art/2.jpg","3","","","","","","","","","","","","","","","","","","","","","","","","",""
"4548","","image-button-response","55","510741","0.0-55.0-0.0","A1G6F1HWIS2K2K","img_art/2.jpg","0","","","","","","","","","","","","","","","","","","","","","","","","",""
"1301","","image-button-response","56","512046","0.0-56.0-0.0","A1G6F1HWIS2K2K","img_art/2.jpg","0","","","","","","","","","","","","","","","","","","","","","","","","",""
"2606","","image-button-response","57","519979","0.0-56.1-0.1","A1G6F1HWIS2K2K","img_art/2.jpg","0","","","","","","","","","","","","","","","","","","","","","","","","",""
"6007","","image-button-response","58","529057","0.0-56.2-0.2","A1G6F1HWIS2K2K","img_art/2.jpg","5","","","","","","","","","","","","","","","","","","","","","","","","",""
"null","","html-keyboard-response","59","530071","0.0-57.0","A1G6F1HWIS2K2K","<p style=""font-size: 48px;"">+</p>","","","","","null","allTrialResponses","1000","1","2","img_art/2.jpg","41","Has an urban art feel","Alicia,Allison,Jacqueline,Mackenzie,Jennifer,Danielle","retro, amateurish, not a fan of the colors together.,-10,120,20","Hate the vomit green.,-31,140,20","A bit ugly with the greens.,-20,300,20","Muted green is overpowering,-10,20,20","Ugly color scheme,-50,380,20","Not a fan of this style,-30,340,20","Mackenzie","Muted green is overpowering,-10,20,20","Alicia","retro, amateurish, not a fan of the colors together.,-10,120,20","Danielle","Not a fan of this style,-30,340,20","4"
"25500","","survey-text","60","555582","0.0-58.0-0.0","A1G6F1HWIS2K2K","","","","{""Q0"":""what the hell?""}","","","","","","","","","","","","","","","","","","","","","","",""
"7541","","image-slider-response","61","563125","0.0-59.0","A1G6F1HWIS2K2K","","","","","-50","","","","","","","","","","","","","","","","","","","","","",""
"null","","image-button-response","62","568146","0.0-60.0","A1G6F1HWIS2K2K","img_art/22.jpg","null","","","","","","","","","","","","","","","","","","","","","","","","",""
"9089","","image-button-response","63","577236","0.0-61.0","A1G6F1HWIS2K2K","img_art/22.jpg","5","","","","","","","","","","","","","","","","","","","","","","","","",""
"3278","","image-button-response","64","580516","0.0-62.0-0.0","A1G6F1HWIS2K2K","img_art/22.jpg","1","","","","","","","","","","","","","","","","","","","","","","","","",""
"9195","","image-button-response","65","589712","0.0-63.0-0.0","A1G6F1HWIS2K2K","img_art/22.jpg","2","","","","","","","","","","","","","","","","","","","","","","","","",""
"null","","html-keyboard-response","66","591215","0.0-64.0","A1G6F1HWIS2K2K","<p style=""font-size: 48px;"">+</p>","","","","","null","allTrialResponses","1500","1","3","img_art/22.jpg","-50","what the hell?","Alicia,Emily,Jamie,Mackenzie,Sophia,Danielle","Could be interpreted so many ways, bold. I like it.,29,120,20","There is some flow and organization.,10,40,20","Like the mix of warm and cool colors,15,320,20","Different shapes within the image make it interesting to look at,20,20,20","I like this one. There is a lot to see if you keep looking for it.,27,280,20","A bit colorful, but slightly enjoyable, almost gives off castle/sunset vibes,10,340,20","Danielle","A bit colorful, but slightly enjoyable, almost gives off castle/sunset vibes,10,340,20","Emily","There is some flow and organization.,10,40,20","Jamie","Like the mix of warm and cool colors,15,320,20","4"
"23557","","survey-text","67","614782","0.0-65.0-0.0","A1G6F1HWIS2K2K","","","","{""Q0"":""simple but very interesting""}","","","","","","","","","","","","","","","","","","","","","","",""
"8336","","image-slider-response","68","623121","0.0-66.0","A1G6F1HWIS2K2K","","","","","46","","","","","","","","","","","","","","","","","","","","","",""
"null","","image-button-response","69","628131","0.0-67.0","A1G6F1HWIS2K2K","img_art/5.jpg","null","","","","","","","","","","","","","","","","","","","","","","","","",""
"12295","","image-button-response","70","640427","0.0-68.0","A1G6F1HWIS2K2K","img_art/5.jpg","0","","","","","","","","","","","","","","","","","","","","","","","","",""
"3987","","image-button-response","71","644418","0.0-69.0-0.0","A1G6F1HWIS2K2K","img_art/5.jpg","0","","","","","","","","","","","","","","","","","","","","","","","","",""
"3149","","image-button-response","72","652466","0.0-69.1-0.1","A1G6F1HWIS2K2K","img_art/5.jpg","3","","","","","","","","","","","","","","","","","","","","","","","","",""
"7519","","image-button-response","73","659988","0.0-70.0-0.0","A1G6F1HWIS2K2K","img_art/5.jpg","4","","","","","","","","","","","","","","","","","","","","","","","","",""
"null","","html-keyboard-response","74","660990","0.0-71.0","A1G6F1HWIS2K2K","<p style=""font-size: 48px;"">+</p>","","","","","null","allTrialResponses","1000","1","4","img_art/5.jpg","46","simple but very interesting","Brooke,Emily,Jamie,Alexandria,Grace,Danielle","No. What even is this? A mop?,-35,60,20","Complete garbage. Looks like a kid drew it.,-50,40,20","Don't really see it and yellow/pink don't go well together,-35,320,20","no clear emotion,-16,80,20","Looks like a yellow plastic trash bag.,-42,180,20","Not a fan of the themes,-30,340,20","Brooke","No. What even is this? A mop?,-35,60,20","Alexandria","no clear emotion,-16,80,20","Grace","Looks like a yellow plastic trash bag.,-42,180,20","6"
"40760","","survey-text","75","701756","0.0-72.0-0.0","A1G6F1HWIS2K2K","","","","{""Q0"":""a painting for the bathroom maybe""}","","","","","","","","","","","","","","","","","","","","","","",""
"6158","","image-slider-response","76","707918","0.0-73.0","A1G6F1HWIS2K2K","","","","","-35","","","","","","","","","","","","","","","","","","","","","",""
"null","","image-button-response","77","712930","0.0-74.0","A1G6F1HWIS2K2K","img_art/26.jpg","null","","","","","","","","","","","","","","","","","","","","","","","","",""
"2907","","image-button-response","78","715839","0.0-75.0","A1G6F1HWIS2K2K","img_art/26.jpg","5","","","","","","","","","","","","","","","","","","","","","","","","",""
"3667","","image-button-response","79","719507","0.0-76.0-0.0","A1G6F1HWIS2K2K","img_art/26.jpg","1","","","","","","","","","","","","","","","","","","","","","","","","",""
"1956","","image-button-response","80","721468","0.0-77.0-0.0","A1G6F1HWIS2K2K","img_art/26.jpg","0","","","","","","","","","","","","","","","","","","","","","","","","",""
"null","","html-keyboard-response","81","722990","0.0-78.0","A1G6F1HWIS2K2K","<p style=""font-size: 48px;"">+</p>","","","","","null","allTrialResponses","1500","1","5","img_art/26.jpg","-35","a painting for the bathroom maybe","Brooke,Sabrina,Miranda,Alexandria,Grace,Diana","street scene is okay?,15,60,20","I dont see any expression,-29,120,20","This seems pretty and sweet, it's something I would like to actually see.,31,320,20","makes me happy and reminds me of a paris courtyard,29,80,20","Like the muted colors & the scene which seems to be serene.,14,180,20","I'm not sure if this is the image of a furniture store or not.,-20,380,20","Diana","I'm not sure if this is the image of a furniture store or not.,-20,380,20","Sabrina","I dont see any expression,-29,120,20","Brooke","street scene is okay?,15,60,20","6"
"4776","","survey-text","82","727781","0.0-79.0-0.0","A1G6F1HWIS2K2K","","","","{""Q0"":""sky""}","","","","","","","","","","","","","","","","","","","","","","",""
"16283","","survey-text","83","744066","0.0-80.0-0.0","A1G6F1HWIS2K2K","","","","{""Q0"":""like it without the red x""}","","","","","","","","","","","","","","","","","","","","","","",""
"7563","","image-slider-response","84","751632","0.0-81.0","A1G6F1HWIS2K2K","","","","","24","","","","","","","","","","","","","","","","","","","","","",""
"null","","image-button-response","85","756641","0.0-82.0","A1G6F1HWIS2K2K","img_art/29.jpg","null","","","","","","","","","","","","","","","","","","","","","","","","",""
"656","","image-button-response","86","757299","0.0-83.0","A1G6F1HWIS2K2K","img_art/29.jpg","1","","","","","","","","","","","","","","","","","","","","","","","","",""
"6794","","image-button-response","87","764095","0.0-84.0-0.0","A1G6F1HWIS2K2K","img_art/29.jpg","4","","","","","","","","","","","","","","","","","","","","","","","","",""
"9518","","image-button-response","88","773616","0.0-85.0-0.0","A1G6F1HWIS2K2K","img_art/29.jpg","2","","","","","","","","","","","","","","","","","","","","","","","","",""
"null","","html-keyboard-response","89","775120","0.0-86.0","A1G6F1HWIS2K2K","<p style=""font-size: 48px;"">+</p>","","","","","null","allTrialResponses","1500","1","6","img_art/29.jpg","24","like it without the red x","Brooke,Sabrina,Caroline,Destiny,Erika,Diana","Lines and light are clean but subject doesn't interest me,0,60,20","I love the representation of a mess,50,120,20","Depressing and with that big red x on it just makes me not like it.,-33,100,20","is this supposed to be edgy,-21,360,20","Feels like an abandoned dream,13,100,20","I rated it lower because it looked like a crime scene. It didn't make me feel good.,-44,380,20","Sabrina","I love the representation of a mess,50,120,20","Erika","Feels like an abandoned dream,13,100,20","Caroline","Depressing and with that big red x on it just makes me not like it.,-33,100,20","6"
"22164","","survey-text","90","797292","0.0-87.0-0.0","A1G6F1HWIS2K2K","","","","{""Q0"":""what a waste of time""}","","","","","","","","","","","","","","","","","","","","","","",""
"6077","","image-slider-response","91","803371","0.0-88.0","A1G6F1HWIS2K2K","","","","","-48","","","","","","","","","","","","","","","","","","","","","",""
"4174","","image-button-response","92","808376","0.0-89.0","A1G6F1HWIS2K2K","img_art/1.jpg","0","","","","","","","","","","","","","","","","","","","","","","","","",""
"1034","","image-button-response","93","809412","0.0-90.0","A1G6F1HWIS2K2K","img_art/1.jpg","0","","","","","","","","","","","","","","","","","","","","","","","","",""
"6491","","image-button-response","94","815904","0.0-91.0-0.0","A1G6F1HWIS2K2K","img_art/1.jpg","4","","","","","","","","","","","","","","","","","","","","","","","","",""
"1794","","image-button-response","95","817702","0.0-92.0-0.0","A1G6F1HWIS2K2K","img_art/1.jpg","5","","","","","","","","","","","","","","","","","","","","","","","","",""
"null","","html-keyboard-response","96","819219","0.0-93.0","A1G6F1HWIS2K2K","<p style=""font-size: 48px;"">+</p>","","","","","null","allTrialResponses","1500","1","7","img_art/1.jpg","-48","what a waste of time","Vanessa,Sabrina,Caroline,Emma,Erika,Paige","I don't like how this one makes me feel.,-32,380,20","I love the calming comfort and safe feeling of this,50,120,20","Felt nothing in response to this painting,3,100,20","Pretty, nice use of color,40,60,20","Vague and directionless,-14,100,20","fearful. Makes me think of fire,-10,60,20","Vanessa","I don't like how this one makes me feel.,-32,380,20","Erika","Vague and directionless,-14,100,20","Paige","fearful. Makes me think of fire,-10,60,20","6"
"72246","","survey-text","97","891472","0.0-94.0-0.0","A1G6F1HWIS2K2K","","","","{""Q0"":""senseless blocks with color""}","","","","","","","","","","","","","","","","","","","","","","",""
"4403","","image-slider-response","98","895878","0.0-95.0","A1G6F1HWIS2K2K","","","","","-45","","","","","","","","","","","","","","","","","","","","","",""
"null","","image-button-response","99","900897","0.0-96.0","A1G6F1HWIS2K2K","img_art/21.jpg","null","","","","","","","","","","","","","","","","","","","","","","","","",""
"2925","","image-button-response","100","903826","0.0-97.0","A1G6F1HWIS2K2K","img_art/21.jpg","3","","","","","","","","","","","","","","","","","","","","","","","","",""
"3919","","image-button-response","101","907748","0.0-98.0-0.0","A1G6F1HWIS2K2K","img_art/21.jpg","5","","","","","","","","","","","","","","","","","","","","","","","","",""
"5885","","image-button-response","102","913635","0.0-99.0-0.0","A1G6F1HWIS2K2K","img_art/21.jpg","1","","","","","","","","","","","","","","","","","","","","","","","","",""
"null","","html-keyboard-response","103","914140","0.0-100.0","A1G6F1HWIS2K2K","<p style=""font-size: 48px;"">+</p>","","","","","null","allTrialResponses","500","1","8","img_art/21.jpg","-45","senseless blocks with color","Vanessa,Caitlin,Makayla,Rebecca,Erika,Paige","The colors and softness work together to make something that's lovely.,42,380,20","Remove the rocks(?) on the lower right.,5,80,20","I like the two sides meeting, like a movie scene,15,80,20","stormy with gold lining,0,100,20","Indistinct, but beautiful hues,10,100,20","the picture is boring,1,60,20","Rebecca","stormy with gold lining,0,100,20","Paige","the picture is boring,1,60,20","Caitlin","Remove the rocks(?) on the lower right.,5,80,20","6"
"28949","","survey-text","104","943104","0.0-101.0-0.0","A1G6F1HWIS2K2K","","","","{""Q0"":""Has a Parisian industrial feel""}","","","","","","","","","","","","","","","","","","","","","","",""
"6789","","image-slider-response","105","949895","0.0-102.0","A1G6F1HWIS2K2K","","","","","50","","","","","","","","","","","","","","","","","","","","","",""
"3786","","image-button-response","106","954911","0.0-103.0","A1G6F1HWIS2K2K","img_art/11.jpg","2","","","","","","","","","","","","","","","","","","","","","","","","",""
"664","","image-button-response","107","955577","0.0-104.0","A1G6F1HWIS2K2K","img_art/11.jpg","2","","","","","","","","","","","","","","","","","","","","","","","","",""
"4180","","image-button-response","108","959760","0.0-105.0-0.0","A1G6F1HWIS2K2K","img_art/11.jpg","0","","","","","","","","","","","","","","","","","","","","","","","","",""
"8861","","image-button-response","109","968625","0.0-106.0-0.0","A1G6F1HWIS2K2K","img_art/11.jpg","3","","","","","","","","","","","","","","","","","","","","","","","","",""
"null","","html-keyboard-response","110","970139","0.0-107.0","A1G6F1HWIS2K2K","<p style=""font-size: 48px;"">+</p>","","","","","null","allTrialResponses","1500","1","9","img_art/11.jpg","50","Has a Parisian industrial feel","Jenna,Caitlin,Molly,Rebecca,Heather,Paige","makes me think of city highways & bridges on a rainy, foggy day. I like the melancholy it evokes.,43,360,20","Busy, busy oceanside city.,-10,80,20","Astounding, extraordinary.,25,340,20","to me, perfect reflection of the modern commute,32,100,20","looks like highways and homes and lives intertwining.,27,260,20","gave me a sense of gloom,-21,60,20","Molly","Astounding, extraordinary.,25,340,20","Jenna","makes me think of city highways & bridges on a rainy, foggy day. I like the melancholy it evokes.,43,360,20","Rebecca","to me, perfect reflection of the modern commute,32,100,20","6"
"16141","","survey-text","111","986296","0.0-108.0-0.0","A1G6F1HWIS2K2K","","","","{""Q0"":""The colors are dated""}","","","","","","","","","","","","","","","","","","","","","","",""
"7235","","image-slider-response","112","993534","0.0-109.0","A1G6F1HWIS2K2K","","","","","-31","","","","","","","","","","","","","","","","","","","","","",""
"4475","","image-button-response","113","998550","0.0-110.0","A1G6F1HWIS2K2K","img_art/28.jpg","1","","","","","","","","","","","","","","","","","","","","","","","","",""
"1246","","image-button-response","114","999799","0.0-111.0","A1G6F1HWIS2K2K","img_art/28.jpg","1","","","","","","","","","","","","","","","","","","","","","","","","",""
"5019","","image-button-response","115","1004820","0.0-112.0-0.0","A1G6F1HWIS2K2K","img_art/28.jpg","3","","","","","","","","","","","","","","","","","","","","","","","","",""
"2830","","image-button-response","116","1007653","0.0-113.0-0.0","A1G6F1HWIS2K2K","img_art/28.jpg","4","","","","","","","","","","","","","","","","","","","","","","","","",""
"null","","html-keyboard-response","117","1008160","0.0-114.0","A1G6F1HWIS2K2K","<p style=""font-size: 48px;"">+</p>","","","","","null","allTrialResponses","500","1","10","img_art/28.jpg","-31","The colors are dated","Jenna,Anna,Molly,Rebecca,Kaitlin,Elizabeth","looks like humanoid figures in distress. I like it, but makes me slightly uncomfortable,35,360,20","It's drab and looks like stereotypical abstract art.,-30,300,20","This painting is mysterious, it makes me curious.,5,340,20","the color scheme is very well matched but i just didn't like it,-6,100,20","i'm not too impressed with this one.,-10,60,20","Not really exciting,23,20,20","Anna","It's drab and looks like stereotypical abstract art.,-30,300,20","Rebecca","the color scheme is very well matched but i just didn't like it,-6,100,20","Kaitlin","i'm not too impressed with this one.,-10,60,20","6"
"5097","","survey-text","118","1013296","0.0-115.0-0.0","A1G6F1HWIS2K2K","","","","{""Q0"":""our""}","","","","","","","","","","","","","","","","","","","","","","",""
"28166","","survey-text","119","1041464","0.0-116.0-0.0","A1G6F1HWIS2K2K","","","","{""Q0"":""interesting and colorful""}","","","","","","","","","","","","","","","","","","","","","","",""
"6678","","image-slider-response","120","1048145","0.0-117.0","A1G6F1HWIS2K2K","","","","","21","","","","","","","","","","","","","","","","","","","","","",""
"2634","","image-button-response","121","1053157","0.0-118.0","A1G6F1HWIS2K2K","img_art/24.jpg","1","","","","","","","","","","","","","","","","","","","","","","","","",""
"1384","","image-button-response","122","1054544","0.0-119.0","A1G6F1HWIS2K2K","img_art/24.jpg","1","","","","","","","","","","","","","","","","","","","","","","","","",""
"2730","","image-button-response","123","1057276","0.0-120.0-0.0","A1G6F1HWIS2K2K","img_art/24.jpg","2","","","","","","","","","","","","","","","","","","","","","","","","",""
"8550","","image-button-response","124","1065827","0.0-121.0-0.0","A1G6F1HWIS2K2K","img_art/24.jpg","3","","","","","","","","","","","","","","","","","","","","","","","","",""
"null","","html-keyboard-response","125","1067331","0.0-122.0","A1G6F1HWIS2K2K","<p style=""font-size: 48px;"">+</p>","","","","","null","allTrialResponses","1500","1","11","img_art/24.jpg","21","interesting and colorful","Kelsey,Anna,Haley,Rebecca,Kaitlin,Megan","this one is just a bit too harsh,-13,240,20","I like how it evokes the feeling of being in a forest. The colors are pretty,31,300,20","Beautiful colors and texture,20,220,20","organized mess at first glance, would love to inspect this in closer proximity,39,100,20","Aww. I love the peace brought by this picture.,40,60,20","Classic palette lacks real world 3d construction,19,200,20","Anna","I like how it evokes the feeling of being in a forest. The colors are pretty,31,300,20","Haley","Beautiful colors and texture,20,220,20","Rebecca","organized mess at first glance, would love to inspect this in closer proximity,39,100,20","6"
"25003","","survey-text","126","1092351","0.0-123.0-0.0","A1G6F1HWIS2K2K","","","","{""Q0"":""Love the mysterious nature and color choice""}","","","","","","","","","","","","","","","","","","","","","","",""
"4350","","image-slider-response","127","1096704","0.0-124.0","A1G6F1HWIS2K2K","","","","","49","","","","","","","","","","","","","","","","","","","","","",""
"4658","","image-button-response","128","1101720","0.0-125.0","A1G6F1HWIS2K2K","img_art/25.jpg","0","","","","","","","","","","","","","","","","","","","","","","","","",""
"797","","image-button-response","129","1102521","0.0-126.0","A1G6F1HWIS2K2K","img_art/25.jpg","0","","","","","","","","","","","","","","","","","","","","","","","","",""
"9625","","image-button-response","130","1112150","0.0-127.0-0.0","A1G6F1HWIS2K2K","img_art/25.jpg","1","","","","","","","","","","","","","","","","","","","","","","","","",""
"6799","","image-button-response","131","1118952","0.0-128.0-0.0","A1G6F1HWIS2K2K","img_art/25.jpg","5","","","","","","","","","","","","","","","","","","","","","","","","",""
"null","","html-keyboard-response","132","1120468","0.0-129.0","A1G6F1HWIS2K2K","<p style=""font-size: 48px;"">+</p>","","","","","null","allTrialResponses","1500","1","12","img_art/25.jpg","49","Love the mysterious nature and color choice","Jasmine,Anna,Haley,Rebecca,Victoria,Sierra","I liked it as it seems unique in a way,21,340,20","I love the green and the texture,50,300,20","I like the design but the brightness of the color feels almost blinding to me.,-3,220,20","I'm sorry but I don't uderstand this,-20,100,20","makes me think of a scary movie,-20,400,20","the green is serene. the figure is scare crow like,7,260,20","Jasmine","I liked it as it seems unique in a way,21,340,20","Anna","I love the green and the texture,50,300,20","Sierra","the green is serene. the figure is scare crow like,7,260,20","6"
"25215","","survey-text","133","1145691","0.0-130.0-0.0","A1G6F1HWIS2K2K","","","","{""Q0"":""looks like a child painted it""}","","","","","","","","","","","","","","","","","","","","","","",""
"6908","","image-slider-response","134","1152603","0.0-131.0","A1G6F1HWIS2K2K","","","","","-21","","","","","","","","","","","","","","","","","","","","","",""
"4468","","image-button-response","135","1157631","0.0-132.0","A1G6F1HWIS2K2K","img_art/14.jpg","2","","","","","","","","","","","","","","","","","","","","","","","","",""
"599","","image-button-response","136","1158235","0.0-133.0","A1G6F1HWIS2K2K","img_art/14.jpg","2","","","","","","","","","","","","","","","","","","","","","","","","",""
"6305","","image-button-response","137","1164545","0.0-134.0-0.0","A1G6F1HWIS2K2K","img_art/14.jpg","3","","","","","","","","","","","","","","","","","","","","","","","","",""
"1896","","image-button-response","138","1166445","0.0-135.0-0.0","A1G6F1HWIS2K2K","img_art/14.jpg","5","","","","","","","","","","","","","","","","","","","","","","","","",""
"null","","html-keyboard-response","139","1166960","0.0-136.0","A1G6F1HWIS2K2K","<p style=""font-size: 48px;"">+</p>","","","","","null","allTrialResponses","500","1","13","img_art/14.jpg","-21","looks like a child painted it","Jasmine,Anna,Maria,Monica,Lindsey,Sierra","The colors are nice and it reminds me of a shrub or tree,10,340,20","It reminds me of a tree in the desert.,15,300,20","I enjoy what comes across as a playful take on nature themes,26,120,20","Just don't like it, maybe it's the bleeding colors on the left of the tree-looking thing in the center or the faded background,-10,360,20","Warm, positive, growth.,8,400,20","it put me on edge.,-11,260,20","Maria","I enjoy what comes across as a playful take on nature themes,26,120,20","Monica","Just don't like it, maybe it's the bleeding colors on the left of the tree-looking thing in the center or the faded background,-10,360,20","Sierra","it put me on edge.,-11,260,20","6"
"30654","","survey-text","140","1197630","0.0-137.0-0.0","A1G6F1HWIS2K2K","","","","{""Q0"":""the brushstrokes are annoying""}","","","","","","","","","","","","","","","","","","","","","","",""
"3479","","image-slider-response","141","1201112","0.0-138.0","A1G6F1HWIS2K2K","","","","","-47","","","","","","","","","","","","","","","","","","","","","",""
"null","","image-button-response","142","1206126","0.0-139.0","A1G6F1HWIS2K2K","img_art/30.jpg","null","","","","","","","","","","","","","","","","","","","","","","","","",""
"1701","","image-button-response","143","1207829","0.0-140.0","A1G6F1HWIS2K2K","img_art/30.jpg","3","","","","","","","","","","","","","","","","","","","","","","","","",""
"4082","","image-button-response","144","1211913","0.0-141.0-0.0","A1G6F1HWIS2K2K","img_art/30.jpg","4","","","","","","","","","","","","","","","","","","","","","","","","",""
"1424","","image-button-response","145","1213341","0.0-142.0-0.0","A1G6F1HWIS2K2K","img_art/30.jpg","5","","","","","","","","","","","","","","","","","","","","","","","","",""
"null","","html-keyboard-response","146","1214860","0.0-143.0","A1G6F1HWIS2K2K","<p style=""font-size: 48px;"">+</p>","","","","","null","allTrialResponses","1500","1","14","img_art/30.jpg","-47","the brushstrokes are annoying","Brittany,Erin,Maria,Monica,Hannah,Sierra","The colors and the brushstrokes are interesting enough.,17,40,20","Layers are interesting,22,120,20","uplifted and yet calmed,15,120,20","It looked like a random scribble but I can see a person's face in it now and I think it's clever,13,360,20","It's just all right.,5,240,20","i dont like how the colors are mixed,-6,260,20","Monica","It looked like a random scribble but I can see a person's face in it now and I think it's clever,13,360,20","Hannah","It's just all right.,5,240,20","Sierra","i dont like how the colors are mixed,-6,260,20","6"
"29256","","survey-text","147","1244132","0.0-144.0-0.0","A1G6F1HWIS2K2K","","","","{""Q0"":""Very interesting""}","","","","","","","","","","","","","","","","","","","","","","",""
"5893","","image-slider-response","148","1250029","0.0-145.0","A1G6F1HWIS2K2K","","","","","35","","","","","","","","","","","","","","","","","","","","","",""
"null","","image-button-response","149","1255040","0.0-146.0","A1G6F1HWIS2K2K","img_art/15.jpg","null","","","","","","","","","","","","","","","","","","","","","","","","",""
"2793","","image-button-response","150","1257834","0.0-147.0","A1G6F1HWIS2K2K","img_art/15.jpg","4","","","","","","","","","","","","","","","","","","","","","","","","",""
"6214","","image-button-response","151","1264050","0.0-148.0-0.0","A1G6F1HWIS2K2K","img_art/15.jpg","0","","","","","","","","","","","","","","","","","","","","","","","","",""
"3207","","image-button-response","152","1267260","0.0-149.0-0.0","A1G6F1HWIS2K2K","img_art/15.jpg","1","","","","","","","","","","","","","","","","","","","","","","","","",""
"null","","html-keyboard-response","153","1268270","0.0-150.0","A1G6F1HWIS2K2K","<p style=""font-size: 48px;"">+</p>","","","","","null","allTrialResponses","1000","1","15","img_art/15.jpg","35","Very interesting","Kristen,Courtney,Michelle,Monica,Hannah,Sierra","darkness, hatred, fear,-29,280,20","Weird fuzzball bush.,22,280,20","Interesting to look at but I don't appreciate the abstraction,2,280,20","I don't feel much of anything when looking at this, it's just a random pattern,1,360,20","Like this for the colors and arrangement.,11,240,20","i cant find somthing ilike about it,-31,260,20","Hannah","Like this for the colors and arrangement.,11,240,20","Kristen","darkness, hatred, fear,-29,280,20","Courtney","Weird fuzzball bush.,22,280,20","6"
"5079","","survey-text","154","1273385","0.0-151.0-0.0","A1G6F1HWIS2K2K","","","","{""Q0"":""course""}","","","","","","","","","","","","","","","","","","","","","","",""
"22933","","survey-text","155","1296319","0.0-152.0-0.0","A1G6F1HWIS2K2K","","","","{""Q0"":""not sure what I think about this one""}","","","","","","","","","","","","","","","","","","","","","","",""
"4909","","image-slider-response","156","1301232","0.0-153.0","A1G6F1HWIS2K2K","","","","","-7","","","","","","","","","","","","","","","","","","","","","",""
"3805","","image-button-response","157","1306251","0.0-154.0","A1G6F1HWIS2K2K","img_art/23.jpg","1","","","","","","","","","","","","","","","","","","","","","","","","",""
"258","","image-button-response","158","1306513","0.0-155.0","A1G6F1HWIS2K2K","img_art/23.jpg","1","","","","","","","","","","","","","","","","","","","","","","","","",""
"6266","","image-button-response","159","1312784","0.0-156.0-0.0","A1G6F1HWIS2K2K","img_art/23.jpg","4","","","","","","","","","","","","","","","","","","","","","","","","",""
"7274","","image-button-response","160","1320063","0.0-157.0-0.0","A1G6F1HWIS2K2K","img_art/23.jpg","4","","","","","","","","","","","","","","","","","","","","","","","","",""
"2520","","image-button-response","161","1325189","0.0-157.1-0.1","A1G6F1HWIS2K2K","img_art/23.jpg","3","","","","","","","","","","","","","","","","","","","","","","","","",""
"null","","html-keyboard-response","162","1325704","0.0-158.0","A1G6F1HWIS2K2K","<p style=""font-size: 48px;"">+</p>","","","","","null","allTrialResponses","500","1","16","img_art/23.jpg","-7","not sure what I think about this one","Kristen,Courtney,Shelby,Kylie,Hannah,Michaela","fsiries, happy, spiritual,16,280,20","Looks like fish fossils,12,280,20","This feels so energized, i love it,50,240,20","Universal celebration,40,300,20","This one is interesting. Looks like people with maybe musical instruments?,11,240,20","This would make a great mural,37,260,20","Courtney","Looks like fish fossils,12,280,20","Hannah","This one is interesting. Looks like people with maybe musical instruments?,11,240,20","Kylie","Universal celebration,40,300,20","8"
"39073","","survey-text","163","1364795","0.0-159.0-0.0","A1G6F1HWIS2K2K","","","","{""Q0"":""I see people an interest painting""}","","","","","","","","","","","","","","","","","","","","","","",""
"4274","","image-slider-response","164","1369073","0.0-160.0","A1G6F1HWIS2K2K","","","","","-23","","","","","","","","","","","","","","","","","","","","","",""
"null","","image-button-response","165","1374085","0.0-161.0","A1G6F1HWIS2K2K","img_art/18.jpg","null","","","","","","","","","","","","","","","","","","","","","","","","",""
"158","","image-button-response","166","1374245","0.0-162.0","A1G6F1HWIS2K2K","img_art/18.jpg","2","","","","","","","","","","","","","","","","","","","","","","","","",""
"1738","","image-button-response","167","1375987","0.0-163.0-0.0","A1G6F1HWIS2K2K","img_art/18.jpg","3","","","","","","","","","","","","","","","","","","","","","","","","",""
"4158","","image-button-response","168","1380147","0.0-164.0-0.0","A1G6F1HWIS2K2K","img_art/18.jpg","4","","","","","","","","","","","","","","","","","","","","","","","","",""
"null","","html-keyboard-response","169","1380654","0.0-165.0","A1G6F1HWIS2K2K","<p style=""font-size: 48px;"">+</p>","","","","","null","allTrialResponses","500","1","17","img_art/18.jpg","-23","I see people an interest painting","Julia,Courtney,Morgan,Kylie,Hannah,Amber","Very classy, I feel like it's the apocalypse.,25,40,20","Pirate ship in stormy seas before it sank.,11,280,20","Ghostly sea adventure.,20,380,20","Kind of weird in a confusing way,10,300,20","Looks like ghost figures on a boat. It's okay.,7,240,20","ugly and lots of movement,-6,200,20","Morgan","Ghostly sea adventure.,20,380,20","Kylie","Kind of weird in a confusing way,10,300,20","Hannah","Looks like ghost figures on a boat. It's okay.,7,240,20","8"
"32808","","survey-text","170","1413471","0.0-166.0-0.0","A1G6F1HWIS2K2K","","","","{""Q0"":""Interesting in an immature way""}","","","","","","","","","","","","","","","","","","","","","","",""
"4159","","image-slider-response","171","1417633","0.0-167.0","A1G6F1HWIS2K2K","","","","","-15","","","","","","","","","","","","","","","","","","","","","",""
"null","","image-button-response","172","1422655","0.0-168.0","A1G6F1HWIS2K2K","img_art/9.jpg","null","","","","","","","","","","","","","","","","","","","","","","","","",""
"1189","","image-button-response","173","1423847","0.0-169.0","A1G6F1HWIS2K2K","img_art/9.jpg","0","","","","","","","","","","","","","","","","","","","","","","","","",""
"2487","","image-button-response","174","1426336","0.0-170.0-0.0","A1G6F1HWIS2K2K","img_art/9.jpg","4","","","","","","","","","","","","","","","","","","","","","","","","",""
"1417","","image-button-response","175","1427757","0.0-171.0-0.0","A1G6F1HWIS2K2K","img_art/9.jpg","5","","","","","","","","","","","","","","","","","","","","","","","","",""
"null","","html-keyboard-response","176","1429264","0.0-172.0","A1G6F1HWIS2K2K","<p style=""font-size: 48px;"">+</p>","","","","","null","allTrialResponses","1500","1","18","img_art/9.jpg","-15","Interesting in an immature way","Lauren,Madeline,Morgan,Kylie,Hannah,Cassandra","I like how design can be interpreted differently, I see a person sleeping or a mountainous region.,10,340,20","I really like the colors and details.,8,40,20","The mouth of an ugly beast.,-25,380,20","Peaceful dreaming,40,300,20","Someone lying in bed?  Don't care for it.,-14,240,20","Stuipid looking...dumb,-48,120,20","Lauren","I like how design can be interpreted differently, I see a person sleeping or a mountainous region.,10,340,20","Hannah","Someone lying in bed?  Don't care for it.,-14,240,20","Cassandra","Stuipid looking...dumb,-48,120,20","8"
"27497","","survey-text","177","1456769","0.0-173.0-0.0","A1G6F1HWIS2K2K","","","","{""Q0"":""Office building where trees should be""}","","","","","","","","","","","","","","","","","","","","","","",""
"3477","","image-slider-response","178","1460248","0.0-174.0","A1G6F1HWIS2K2K","","","","","-33","","","","","","","","","","","","","","","","","","","","","",""
"null","","image-button-response","179","1465265","0.0-175.0","A1G6F1HWIS2K2K","img_art/17.jpg","null","","","","","","","","","","","","","","","","","","","","","","","","",""
"1321","","image-button-response","180","1466588","0.0-176.0","A1G6F1HWIS2K2K","img_art/17.jpg","0","","","","","","","","","","","","","","","","","","","","","","","","",""
"3317","","image-button-response","181","1469912","0.0-177.0-0.0","A1G6F1HWIS2K2K","img_art/17.jpg","4","","","","","","","","","","","","","","","","","","","","","","","","",""
"3995","","image-button-response","182","1473910","0.0-178.0-0.0","A1G6F1HWIS2K2K","img_art/17.jpg","3","","","","","","","","","","","","","","","","","","","","","","","","",""
"null","","html-keyboard-response","183","1474919","0.0-179.0","A1G6F1HWIS2K2K","<p style=""font-size: 48px;"">+</p>","","","","","null","allTrialResponses","1000","1","19","img_art/17.jpg","-33","Office building where trees should be","Lauren,Tiffany,Crystal,Cheyenne,Hannah,Cassandra","I like how the image gives an impression of gaseous tree.,15,340,20","The painting makes me feel relaxed, and a bit lonely, like I'm sitting at a park waiting for someone.,30,360,20","Embodies beauty and complexity and in simplicity as well,50,300,20","I like the colorfulness.,17,200,20","Looks like an abandoned building that is being overtaken by nature.,-10,240,20","Very pretty...the colors and good and flow well.,33,120,20","Lauren","I like how the image gives an impression of gaseous tree.,15,340,20","Hannah","Looks like an abandoned building that is being overtaken by nature.,-10,240,20","Cheyenne","I like the colorfulness.,17,200,20","8"
"17174","","survey-text","184","1492104","0.0-180.0-0.0","A1G6F1HWIS2K2K","","","","{""Q0"":""looks like a cave painting""}","","","","","","","","","","","","","","","","","","","","","","",""
"4500","","image-slider-response","185","1496606","0.0-181.0","A1G6F1HWIS2K2K","","","","","-22","","","","","","","","","","","","","","","","","","","","","",""
"2819","","image-button-response","186","1501616","0.0-182.0","A1G6F1HWIS2K2K","img_art/27.jpg","2","","","","","","","","","","","","","","","","","","","","","","","","",""
"377","","image-button-response","187","1501996","0.0-183.0","A1G6F1HWIS2K2K","img_art/27.jpg","2","","","","","","","","","","","","","","","","","","","","","","","","",""
"2161","","image-button-response","188","1504160","0.0-184.0-0.0","A1G6F1HWIS2K2K","img_art/27.jpg","0","","","","","","","","","","","","","","","","","","","","","","","","",""
"741","","image-button-response","189","1504909","0.0-185.0-0.0","A1G6F1HWIS2K2K","img_art/27.jpg","0","","","","","","","","","","","","","","","","","","","","","","","","",""
"1583","","image-button-response","190","1508564","0.0-185.1-0.1","A1G6F1HWIS2K2K","img_art/27.jpg","3","","","","","","","","","","","","","","","","","","","","","","","","",""
"null","","html-keyboard-response","191","1510071","0.0-186.0","A1G6F1HWIS2K2K","<p style=""font-size: 48px;"">+</p>","","","","","null","allTrialResponses","1500","1","20","img_art/27.jpg","-22","looks like a cave painting","Lauren,Natalie,Alyssa,Cheyenne,Hannah,Angelica","Not a fan of the green; gives off the impression that someone else drew on it.,-20,340,20","also gives me anxiety,-21,400,20","Looks as if a toddler painted it,-20,160,20","This one does nothing for me.,2,200,20","Reminds me of something I'd see in a gold frame from the Eighties.,-9,240,20","This looks like a poor copy of Cy Twombly's style.,-3,280,20","Alyssa","Looks as if a toddler painted it,-20,160,20","Lauren","Not a fan of the green; gives off the impression that someone else drew on it.,-20,340,20","Cheyenne","This one does nothing for me.,2,200,20","10"
"3825","","survey-text","192","1513915","0.0-187.0-0.0","A1G6F1HWIS2K2K","","","","{""Q0"":""we""}","","","","","","","","","","","","","","","","","","","","","","",""
"21082","","survey-text","193","1534998","0.0-188.0-0.0","A1G6F1HWIS2K2K","","","","{""Q0"":""simple but powerful crow""}","","","","","","","","","","","","","","","","","","","","","","",""
"7295","","image-slider-response","194","1542298","0.0-189.0","A1G6F1HWIS2K2K","","","","","46","","","","","","","","","","","","","","","","","","","","","",""
"2836","","image-button-response","195","1547312","0.0-190.0","A1G6F1HWIS2K2K","img_art/6.jpg","0","","","","","","","","","","","","","","","","","","","","","","","","",""
"1002","","image-button-response","196","1548316","0.0-191.0","A1G6F1HWIS2K2K","img_art/6.jpg","0","","","","","","","","","","","","","","","","","","","","","","","","",""
"3277","","image-button-response","197","1551595","0.0-192.0-0.0","A1G6F1HWIS2K2K","img_art/6.jpg","2","","","","","","","","","","","","","","","","","","","","","","","","",""
"8342","","image-button-response","198","1559940","0.0-193.0-0.0","A1G6F1HWIS2K2K","img_art/6.jpg","5","","","","","","","","","","","","","","","","","","","","","","","","",""
"null","","html-keyboard-response","199","1561455","0.0-194.0","A1G6F1HWIS2K2K","<p style=""font-size: 48px;"">+</p>","","","","","null","allTrialResponses","1500","1","21","img_art/6.jpg","46","simple but powerful crow","Lauren,Nicole,Alyssa,Cheyenne,Katherine,Jordan","I like the simplicity of the piece.,10,340,20","The colors and rough brush strokes make me nervous,-10,20,20","It makes me stop and think about what the artist is trying to say.It creates a feeling of solitude and tranqulity,30,160,20","Good painting but too simple to care about it for very long.,-15,200,20","This could be so many different things. I saw a bird first but then it looks like a needle going into skin,34,120,20","This is interesting, I feel solitude, and loneliness from this.,13,20,20","Lauren","I like the simplicity of the piece.,10,340,20","Alyssa","It makes me stop and think about what the artist is trying to say.It creates a feeling of solitude and tranqulity,30,160,20","Jordan","This is interesting, I feel solitude, and loneliness from this.,13,20,20","10"
"19758","","survey-text","200","1581224","0.0-195.0-0.0","A1G6F1HWIS2K2K","","","","{""Q0"":""interesting I like the different mediums""}","","","","","","","","","","","","","","","","","","","","","","",""
"2684","","image-slider-response","201","1583913","0.0-196.0","A1G6F1HWIS2K2K","","","","","21","","","","","","","","","","","","","","","","","","","","","",""
"null","","image-button-response","202","1588932","0.0-197.0","A1G6F1HWIS2K2K","img_art/16.jpg","null","","","","","","","","","","","","","","","","","","","","","","","","",""
"1399","","image-button-response","203","1590333","0.0-198.0","A1G6F1HWIS2K2K","img_art/16.jpg","3","","","","","","","","","","","","","","","","","","","","","","","","",""
"3222","","image-button-response","204","1593558","0.0-199.0-0.0","A1G6F1HWIS2K2K","img_art/16.jpg","0","","","","","","","","","","","","","","","","","","","","","","","","",""
"3107","","image-button-response","205","1596668","0.0-200.0-0.0","A1G6F1HWIS2K2K","img_art/16.jpg","1","","","","","","","","","","","","","","","","","","","","","","","","",""
"null","","html-keyboard-response","206","1597170","0.0-201.0","A1G6F1HWIS2K2K","<p style=""font-size: 48px;"">+</p>","","","","","null","allTrialResponses","500","1","22","img_art/16.jpg","21","interesting I like the different mediums","Lauren,Gabriela,Alyssa,Cynthia,Abigail,Jordan","The colored teddy bear clashes with the color scheme.,-20,340,20","It looks very generic, like items were pasted onto the background,-38,140,20","It creeps me out.,-50,160,20","Dreamy and chaotic,-9,320,20","The bear makes me very uncomfortable,-50,20,20","Not interested at all,-15,20,20","Cynthia","Dreamy and chaotic,-9,320,20","Lauren","The colored teddy bear clashes with the color scheme.,-20,340,20","Gabriela","It looks very generic, like items were pasted onto the background,-38,140,20","10"
"15273","","survey-text","207","1612454","0.0-202.0-0.0","A1G6F1HWIS2K2K","","","","{""Q0"":""Starving artist painting""}","","","","","","","","","","","","","","","","","","","","","","",""
"3724","","image-slider-response","208","1616182","0.0-203.0","A1G6F1HWIS2K2K","","","","","-50","","","","","","","","","","","","","","","","","","","","","",""
"4000","","image-button-response","209","1621202","0.0-204.0","A1G6F1HWIS2K2K","img_art/12.jpg","0","","","","","","","","","","","","","","","","","","","","","","","","",""
"401","","image-button-response","210","1621605","0.0-205.0","A1G6F1HWIS2K2K","img_art/12.jpg","0","","","","","","","","","","","","","","","","","","","","","","","","",""
"3714","","image-button-response","211","1625323","0.0-206.0-0.0","A1G6F1HWIS2K2K","img_art/12.jpg","5","","","","","","","","","","","","","","","","","","","","","","","","",""
"1747","","image-button-response","212","1627072","0.0-207.0-0.0","A1G6F1HWIS2K2K","img_art/12.jpg","2","","","","","","","","","","","","","","","","","","","","","","","","",""
"null","","html-keyboard-response","213","1628091","0.0-208.0","A1G6F1HWIS2K2K","<p style=""font-size: 48px;"">+</p>","","","","","null","allTrialResponses","1000","1","23","img_art/12.jpg","-50","Starving artist painting","Lauren,Gabriela,Melissa,Cynthia,Andrea,Isabella","This doesn't invoke anything. Just a mosaic of random images.,0,340,20","In my opinion, this photo has an old school vibe,22,140,20","reminds me of a dixie cup,3,240,20","Windows to a different story,6,320,20","It just feels like a jigsaw puzzle,-4,240,20","Something you would see in a government building hallway,3,280,20","Lauren","This doesn't invoke anything. Just a mosaic of random images.,0,340,20","Isabella","Something you would see in a government building hallway,3,280,20","Melissa","reminds me of a dixie cup,3,240,20","10"
"30724","","survey-text","214","1658834","0.0-209.0-0.0","A1G6F1HWIS2K2K","","","","{""Q0"":""looks like it would be in a dentist's office from 1980""}","","","","","","","","","","","","","","","","","","","","","","",""
"3221","","image-slider-response","215","1662063","0.0-210.0","A1G6F1HWIS2K2K","","","","","-50","","","","","","","","","","","","","","","","","","","","","",""
"2600","","image-button-response","216","1667081","0.0-211.0","A1G6F1HWIS2K2K","img_art/13.jpg","2","","","","","","","","","","","","","","","","","","","","","","","","",""
"492","","image-button-response","217","1667575","0.0-212.0","A1G6F1HWIS2K2K","img_art/13.jpg","2","","","","","","","","","","","","","","","","","","","","","","","","",""
"3169","","image-button-response","218","1670749","0.0-213.0-0.0","A1G6F1HWIS2K2K","img_art/13.jpg","4","","","","","","","","","","","","","","","","","","","","","","","","",""
"1542","","image-button-response","219","1672294","0.0-214.0-0.0","A1G6F1HWIS2K2K","img_art/13.jpg","5","","","","","","","","","","","","","","","","","","","","","","","","",""
"null","","html-keyboard-response","220","1673811","0.0-215.0","A1G6F1HWIS2K2K","<p style=""font-size: 48px;"">+</p>","","","","","null","allTrialResponses","1500","1","24","img_art/13.jpg","-50","looks like it would be in a dentist's office from 1980","Lauren,Hailey,Melissa,Kaitlyn,Olivia,Isabella","I like the color coordination between the foreground and background.,10,340,20","warm splash of salt water from ocean,16,200,20","feels sterile/manufactured,1,240,20","Like the color choices,7,80,20","eighties here we come,7,40,20","Rain drops on a window,35,280,20","Melissa","feels sterile/manufactured,1,240,20","Olivia","eighties here we come,7,40,20","Isabella","Rain drops on a window,35,280,20","10"
"41572","","survey-text","221","1715394","0.0-216.0-0.0","A1G6F1HWIS2K2K","","","","{""Q0"":""uninterested and confusing""}","","","","","","","","","","","","","","","","","","","","","","",""
"4296","","image-slider-response","222","1719694","0.0-217.0","A1G6F1HWIS2K2K","","","","","-47","","","","","","","","","","","","","","","","","","","","","",""
"2681","","image-button-response","223","1724701","0.0-218.0","A1G6F1HWIS2K2K","img_art/19.jpg","1","","","","","","","","","","","","","","","","","","","","","","","","",""
"1676","","image-button-response","224","1726380","0.0-219.0","A1G6F1HWIS2K2K","img_art/19.jpg","1","","","","","","","","","","","","","","","","","","","","","","","","",""
"1451","","image-button-response","225","1727834","0.0-220.0-0.0","A1G6F1HWIS2K2K","img_art/19.jpg","0","","","","","","","","","","","","","","","","","","","","","","","","",""
"4335","","image-button-response","226","1732171","0.0-221.0-0.0","A1G6F1HWIS2K2K","img_art/19.jpg","3","","","","","","","","","","","","","","","","","","","","","","","","",""
"null","","html-keyboard-response","227","1732676","0.0-222.0","A1G6F1HWIS2K2K","<p style=""font-size: 48px;"">+</p>","","","","","null","allTrialResponses","500","1","25","img_art/19.jpg","-47","uninterested and confusing","Katelyn,Angela,Melissa,Samantha,Olivia,Isabella","I dont like the smudge effect,-7,100,20","I like the colors but the scene itself feels too jumbled and cluttered,9,260,20","feels free and loose,3,240,20","Intersting but not for me,21,140,20","city life energy,8,40,20","A day in a small city,45,280,20","Angela","I like the colors but the scene itself feels too jumbled and cluttered,9,260,20","Katelyn","I dont like the smudge effect,-7,100,20","Samantha","Intersting but not for me,21,140,20","10"
"5431","","survey-text","228","1738143","0.0-223.0-0.0","A1G6F1HWIS2K2K","","","","{""Q0"":""table""}","","","","","","","","","","","","","","","","","","","","","","",""
"9656","","survey-text","229","1747802","0.0-224.0-0.0","A1G6F1HWIS2K2K","","","","{""Q0"":""smudgy""}","","","","","","","","","","","","","","","","","","","","","","",""
"4280","","image-slider-response","230","1752084","0.0-225.0","A1G6F1HWIS2K2K","","","","","-43","","","","","","","","","","","","","","","","","","","","","",""
"4126","","image-button-response","231","1757090","0.0-226.0","A1G6F1HWIS2K2K","img_art/20.jpg","0","","","","","","","","","","","","","","","","","","","","","","","","",""
"3233","","image-button-response","232","1760325","0.0-227.0","A1G6F1HWIS2K2K","img_art/20.jpg","3","","","","","","","","","","","","","","","","","","","","","","","","",""
"3808","","image-button-response","233","1764137","0.0-228.0-0.0","A1G6F1HWIS2K2K","img_art/20.jpg","5","","","","","","","","","","","","","","","","","","","","","","","","",""
"4540","","image-button-response","234","1768683","0.0-229.0-0.0","A1G6F1HWIS2K2K","img_art/20.jpg","1","","","","","","","","","","","","","","","","","","","","","","","","",""
"null","","html-keyboard-response","235","1769691","0.0-230.0","A1G6F1HWIS2K2K","<p style=""font-size: 48px;"">+</p>","","","","","null","allTrialResponses","1000","1","26","img_art/20.jpg","-43","smudgy","Katelyn,Angela,Marissa,Samantha,Margaret,Katie","I do at least like the dark colors blending,6,100,20","I like the blues, and the sense of foreboding it makes me feel.,20,260,20","I feel intrigued and impressed,34,160,20","Use of white on foreground is too big and steals eyes away from rest of painting,2,140,20","It seems to be a neutral cool toned art piece. Gives me alamo/desert vibes,2,100,20","I don't like it. Dark sky and black figures. White objects remind me of bones.,-30,160,20","Samantha","Use of white on foreground is too big and steals eyes away from rest of painting,2,140,20","Katie","I don't like it. Dark sky and black figures. White objects remind me of bones.,-30,160,20","Angela","I like the blues, and the sense of foreboding it makes me feel.,20,260,20","10"
"12589","","survey-text","236","1782294","0.0-231.0-0.0","A1G6F1HWIS2K2K","","","","{""Q0"":""has a musical vibe""}","","","","","","","","","","","","","","","","","","","","","","",""
"4768","","image-slider-response","237","1787068","0.0-232.0","A1G6F1HWIS2K2K","","","","","1","","","","","","","","","","","","","","","","","","","","","",""
"1993","","image-button-response","238","1792080","0.0-233.0","A1G6F1HWIS2K2K","img_art/10.jpg","1","","","","","","","","","","","","","","","","","","","","","","","","",""
"590","","image-button-response","239","1792672","0.0-234.0","A1G6F1HWIS2K2K","img_art/10.jpg","2","","","","","","","","","","","","","","","","","","","","","","","","",""
"901","","image-button-response","240","1793576","0.0-235.0-0.0","A1G6F1HWIS2K2K","img_art/10.jpg","1","","","","","","","","","","","","","","","","","","","","","","","","",""
"10113","","image-button-response","241","1803692","0.0-236.0-0.0","A1G6F1HWIS2K2K","img_art/10.jpg","3","","","","","","","","","","","","","","","","","","","","","","","","",""
"null","","html-keyboard-response","242","1804210","0.0-237.0","A1G6F1HWIS2K2K","<p style=""font-size: 48px;"">+</p>","","","","","null","allTrialResponses","500","1","27","img_art/10.jpg","1","has a musical vibe","Kimberly,Angela,Bailey,Samantha,Shannon,Katie","Also too all over the place, I don't see any pattern or anything that's supposed to stand out,-19,260,20","This makes me think of a city, specifically London.,20,260,20","For black and white, this is pretty vibrant and cool. I like this.,39,360,20","I like it but do not love it. It is sort of depressing,13,140,20","I can't tell what this picture is supposed to mean and I think the colors are lacking variety.,-42,220,20","Dark and weird. Unidentifiable shape. I can't tell what it is, so I don't like it.,-50,160,20","Bailey","For black and white, this is pretty vibrant and cool. I like this.,39,360,20","Angela","This makes me think of a city, specifically London.,20,260,20","Samantha","I like it but do not love it. It is sort of depressing,13,140,20","10"
"13324","","survey-text","243","1817544","0.0-238.0-0.0","A1G6F1HWIS2K2K","","","","{""Q0"":""looks like poop on a wall""}","","","","","","","","","","","","","","","","","","","","","","",""
"3307","","image-slider-response","244","1820854","0.0-239.0","A1G6F1HWIS2K2K","","","","","-50","","","","","","","","","","","","","","","","","","","","","",""
"2784","","image-button-response","245","1825860","0.0-240.0","A1G6F1HWIS2K2K","img_art/4.jpg","1","","","","","","","","","","","","","","","","","","","","","","","","",""
"561","","image-button-response","246","1826424","0.0-241.0","A1G6F1HWIS2K2K","img_art/4.jpg","1","","","","","","","","","","","","","","","","","","","","","","","","",""
"2508","","image-button-response","247","1828935","0.0-242.0-0.0","A1G6F1HWIS2K2K","img_art/4.jpg","2","","","","","","","","","","","","","","","","","","","","","","","","",""
"2173","","image-button-response","248","1831113","0.0-243.0-0.0","A1G6F1HWIS2K2K","img_art/4.jpg","3","","","","","","","","","","","","","","","","","","","","","","","","",""
"null","","html-keyboard-response","249","1832631","0.0-244.0","A1G6F1HWIS2K2K","<p style=""font-size: 48px;"">+</p>","","","","","null","allTrialResponses","1500","1","28","img_art/4.jpg","-50","looks like poop on a wall","Rachel,Angela,Bailey,Samantha,Sara,Leslie","Not a huge fan of the color story, but it reminds me of a child finger-painting.,12,80,20","Really like the colors, but don't like the object/squiggle in darker gold and black,4,260,20","Boring and tasteless. Almost reminds me of when an art gallery called a banana 'art',-42,360,20","I domt like the yellow black blended smear,-50,140,20","Random swirls again,-30,160,20","This elicits no reaction in me.,0,380,20","Angela","Really like the colors, but don't like the object/squiggle in darker gold and black,4,260,20","Bailey","Boring and tasteless. Almost reminds me of when an art gallery called a banana 'art',-42,360,20","Samantha","I domt like the yellow black blended smear,-50,140,20","10"
"20255","","survey-text","250","1852895","0.0-245.0-0.0","A1G6F1HWIS2K2K","","","","{""Q0"":""looks like pimpled concrete""}","","","","","","","","","","","","","","","","","","","","","","",""
"3596","","image-slider-response","251","1856493","0.0-246.0","A1G6F1HWIS2K2K","","","","","-50","","","","","","","","","","","","","","","","","","","","","",""
"1758","","image-button-response","252","1861513","0.0-247.0","A1G6F1HWIS2K2K","img_art/7.jpg","1","","","","","","","","","","","","","","","","","","","","","","","","",""
"510","","image-button-response","253","1862025","0.0-248.0","A1G6F1HWIS2K2K","img_art/7.jpg","1","","","","","","","","","","","","","","","","","","","","","","","","",""
"4041","","image-button-response","254","1866073","0.0-249.0-0.0","A1G6F1HWIS2K2K","img_art/7.jpg","5","","","","","","","","","","","","","","","","","","","","","","","","",""
"1438","","image-button-response","255","1867512","0.0-250.0-0.0","A1G6F1HWIS2K2K","img_art/7.jpg","3","","","","","","","","","","","","","","","","","","","","","","","","",""
"null","","html-keyboard-response","256","1869020","0.0-251.0","A1G6F1HWIS2K2K","<p style=""font-size: 48px;"">+</p>","","","","","null","allTrialResponses","1500","1","29","img_art/7.jpg","-50","looks like pimpled concrete","Leah,Angela,Bailey,Samantha,Mikayla,Christina","I love it, it looks like a landscape photograph in desert or rocky mountain,50,360,20","Looks like vomit, or chunky feces,-42,260,20","It gives off an alien-like vastness of space vibe which I like,9,360,20","Makes me want to feel it,19,140,20","I love the texture.,20,300,20","looks like the surface of the moon,-28,240,20","Angela","Looks like vomit, or chunky feces,-42,260,20","Christina","looks like the surface of the moon,-28,240,20","Samantha","Makes me want to feel it,19,140,20","10"
"18452","","survey-text","257","1887485","0.0-252.0-0.0","A1G6F1HWIS2K2K","","","","{""Q0"":"" creepy blood splatter""}","","","","","","","","","","","","","","","","","","","","","","",""
"3954","","image-slider-response","258","1891442","0.0-253.0","A1G6F1HWIS2K2K","","","","","-50","","","","","","","","","","","","","","","","","","","","","",""
"2484","","image-button-response","259","1896450","0.0-254.0","A1G6F1HWIS2K2K","img_art/3.jpg","2","","","","","","","","","","","","","","","","","","","","","","","","",""
"140","","image-button-response","260","1896592","0.0-255.0","A1G6F1HWIS2K2K","img_art/3.jpg","2","","","","","","","","","","","","","","","","","","","","","","","","",""
"1421","","image-button-response","261","1898015","0.0-256.0-0.0","A1G6F1HWIS2K2K","img_art/3.jpg","3","","","","","","","","","","","","","","","","","","","","","","","","",""
"5536","","image-button-response","262","1903558","0.0-257.0-0.0","A1G6F1HWIS2K2K","img_art/3.jpg","4","","","","","","","","","","","","","","","","","","","","","","","","",""
"null","","html-keyboard-response","263","1905071","0.0-258.0","A1G6F1HWIS2K2K","<p style=""font-size: 48px;"">+</p>","","","","","null","allTrialResponses","1500","1","30","img_art/3.jpg","-50"," creepy blood splatter","Sarah,Angela,Kelly,Samantha,Mary,Christina","the red is impactful but the work overall doesn't say anything to me,-8,180,20","Like the colors and energy of this work.,10,260,20","Reminds me of blood.,-28,220,20","Too angry and scribbly,-43,140,20","I usually don't like red. Red in this angry piece is very fitting.,19,180,20","looks more classic but i'm not a fan of the colors,7,240,20","Kelly","Reminds me of blood.,-28,220,20","Samantha","Too angry and scribbly,-43,140,20","Mary","I usually don't like red. Red in this angry piece is very fitting.,19,180,20","10"
"2462","","image-button-response_instructions","264","1907560","0.0-259.0","A1G6F1HWIS2K2K","","0","instructions","","","","","","","","","","","","","","","","","","","","","","","",""
