"rt","url","trial_type","trial_index","time_elapsed","internal_node_id","participant_id","stimulus","button_pressed","Name","responses","response","key_press","variableName","fixationTime","condition","trial","photo","subjectRating","subjectResponse","agentsNames","agent_1_Response","agent_2_Response","agent_3_Response","agent_4_Response","agent_5_Response","agent_6_Response","kept_1_name","kept_1_response","kept_2_name","kept_2_response","kept_3_name","kept_3_response","errorCounter"
"10225","external_page_harvard.html","external-html","0","10267","0.0-0.0","A1HRH92NH49RX2","","","","","","","","","","","","","","","","","","","","","","","","","","",""
"2559","","image-button-response","1","12830","0.0-1.0","A1HRH92NH49RX2","","0","","","","","","","","","","","","","","","","","","","","","","","","",""
"1666","","image-button-response","2","14504","0.0-2.0-0.0","A1HRH92NH49RX2","","1","phone","","","","","","","","","","","","","","","","","","","","","","","",""
"20455","","survey-text","3","34961","0.0-3.0-0.0","A1HRH92NH49RX2","","","","{""Q0"":""A1HRH92NH49RX2""}","","","","","","","","","","","","","","","","","","","","","","",""
"4311","","image-button-response_instructions","4","39275","0.0-4.0","A1HRH92NH49RX2","","0","instructions","","","","","","","","","","","","","","","","","","","","","","","",""
"12051","","image-button-response_instructions","5","51327","0.0-5.0","A1HRH92NH49RX2","img_art/ins/popularity/ins1.png","0","instructions","","","","","","","","","","","","","","","","","","","","","","","",""
"10318","","image-button-response_instructions","6","61647","0.0-6.0","A1HRH92NH49RX2","img_art/ins/popularity/ins2.png","0","instructions","","","","","","","","","","","","","","","","","","","","","","","",""
"2298","","image-button-response_instructions","7","63947","0.0-7.0","A1HRH92NH49RX2","img_art/ins/popularity/ins2Extreme.png","0","instructions","","","","","","","","","","","","","","","","","","","","","","","",""
"2279","","image-button-response_instructions","8","66228","0.0-8.0","A1HRH92NH49RX2","img_art/ins/popularity/ins3KEEPpop.PNG","0","instructions","","","","","","","","","","","","","","","","","","","","","","","",""
"4133","","image-button-response_instructions","9","70363","0.0-9.0","A1HRH92NH49RX2","img_art/ins/popularity/ins3ANamepop.PNG","0","instructions","","","","","","","","","","","","","","","","","","","","","","","",""
"1089","","image-button-response_instructions","10","71453","0.0-10.0","A1HRH92NH49RX2","img_art/ins/popularity/ins3ARatingpop.png","0","instructions","","","","","","","","","","","","","","","","","","","","","","","",""
"911","","image-button-response_instructions","11","72365","0.0-11.0","A1HRH92NH49RX2","img_art/ins/popularity/ins3ATextpop.png","0","instructions","","","","","","","","","","","","","","","","","","","","","","","",""
"935","","image-button-response_instructions","12","73302","0.0-12.0","A1HRH92NH49RX2","img_art/ins/popularity/ins3ALikespop.png","0","instructions","","","","","","","","","","","","","","","","","","","","","","","",""
"1363","","image-button-response_instructions","13","74667","0.0-13.0","A1HRH92NH49RX2","img_art/ins/popularity/ins3KEEPpop.PNG","0","instructions","","","","","","","","","","","","","","","","","","","","","","","",""
"1530","","image-button-response_instructions","14","76199","0.0-14.0","A1HRH92NH49RX2","img_art/ins/popularity/ins3_5RED.png","0","instructions","","","","","","","","","","","","","","","","","","","","","","","",""
"1196","","image-button-response_instructions","15","77397","0.0-15.0","A1HRH92NH49RX2","img_art/ins/popularity/ins3KEEPpop.PNG","0","instructions","","","","","","","","","","","","","","","","","","","","","","","",""
"3841","","image-button-response_instructions","16","81239","0.0-16.0","A1HRH92NH49RX2","img_art/ins/popularity/ins4KEEPpop.PNG","0","instructions","","","","","","","","","","","","","","","","","","","","","","","",""
"1339","","image-button-response_instructions","17","82579","0.0-17.0","A1HRH92NH49RX2","img_art/ins/popularity/ins5KEEPpop.PNG","0","instructions","","","","","","","","","","","","","","","","","","","","","","","",""
"2183","","image-button-response_instructions","18","84764","0.0-18.0","A1HRH92NH49RX2","","0","instructions","","","","","","","","","","","","","","","","","","","","","","","",""
"7410","","survey-text","19","92208","0.0-19.0-0.0","A1HRH92NH49RX2","","","","{""Q0"":""but""}","","","","","","","","","","","","","","","","","","","","","","",""
"8297","","survey-text","20","100508","0.0-20.0-0.0","A1HRH92NH49RX2","","","","{""Q0"":""bad""}","","","","","","","","","","","","","","","","","","","","","","",""
"11192","","survey-text","21","119559","0.0-20.1-0.1","A1HRH92NH49RX2","","","","{""Q0"":""somewhat bad""}","","","","","","","","","","","","","","","","","","","","","","",""
"6655.599999427795","","image-slider-response","22","126217","0.0-21.0","A1HRH92NH49RX2","","","","","-31","","","","","","","","","","","","","","","","","","","","","",""
"3103","","image-button-response","23","131222","0.0-22.0","A1HRH92NH49RX2","img_art/ins/1.jpg","1","","","","","","","","","","","","","","","","","","","","","","","","",""
"449","","image-button-response","24","131673","0.0-23.0","A1HRH92NH49RX2","img_art/ins/1.jpg","4","","","","","","","","","","","","","","","","","","","","","","","","",""
"4213","","image-button-response","25","135890","0.0-24.0-0.0","A1HRH92NH49RX2","img_art/ins/1.jpg","5","","","","","","","","","","","","","","","","","","","","","","","","",""
"2074","","image-button-response","26","137968","0.0-25.0-0.0","A1HRH92NH49RX2","img_art/ins/1.jpg","0","","","","","","","","","","","","","","","","","","","","","","","","",""
"null","","html-keyboard-response","27","139472","0.0-26.0","A1HRH92NH49RX2","<p style=""font-size: 48px;"">+</p>","","","","","null","allTrialResponses","1500","1","-2","img_art/ins/1.jpg","-31","somewhat bad","Adam,Alex,Ben,Carl,Daniel,Jack","Seems like doodles,-20,20,20","very creative work.,36,40,20","This color reminds me of poo,-46,60,20","very calming artwork,42,80,20","It looks like a murder scene.,-48,100,20","I like the sophisticated brushwork,40,120,20","Daniel","It looks like a murder scene.,-48,100,20","Jack","I like the sophisticated brushwork,40,120,20","Adam","Seems like doodles,-20,20,20","0"
"9340","","survey-text","28","148820","0.0-27.0-0.0","A1HRH92NH49RX2","","","","{""Q0"":""normal""}","","","","","","","","","","","","","","","","","","","","","","",""
"11146.20000076294","","image-slider-response","29","159968","0.0-28.0","A1HRH92NH49RX2","","","","","14","","","","","","","","","","","","","","","","","","","","","",""
"null","","image-button-response","30","164972","0.0-29.0","A1HRH92NH49RX2","img_art/ins/2.jpg","null","","","","","","","","","","","","","","","","","","","","","","","","",""
"1010","","image-button-response","31","165984","0.0-30.0","A1HRH92NH49RX2","img_art/ins/2.jpg","4","","","","","","","","","","","","","","","","","","","","","","","","",""
"1844","","image-button-response","32","167830","0.0-31.0-0.0","A1HRH92NH49RX2","img_art/ins/2.jpg","0","","","","","","","","","","","","","","","","","","","","","","","","",""
"1018","","image-button-response","33","168850","0.0-32.0-0.0","A1HRH92NH49RX2","img_art/ins/2.jpg","2","","","","","","","","","","","","","","","","","","","","","","","","",""
"null","","html-keyboard-response","34","169353","0.0-33.0","A1HRH92NH49RX2","<p style=""font-size: 48px;"">+</p>","","","","","null","allTrialResponses","500","1","-1","img_art/ins/2.jpg","14","normal","Adam,John,Kyle,James,Daniel,Jack","too much color,-18,20,20","love the texture of paint,48,160,20","Idk, it is just annoying,-32,180,20","looks too angry,-50,140,20","One of my pet peevs,-48,100,20","I would never be able to compose a sophisticated pallete like this,48,120,20","Daniel","One of my pet peevs,-48,100,20","Adam","too much color,-18,20,20","Kyle","Idk, it is just annoying,-32,180,20","0"
"3022","","survey-text","35","172379","0.0-34.0-0.0","A1HRH92NH49RX2","","","","{""Q0"":""""}","","","","","","","","","","","","","","","","","","","","","","",""
"9411","","survey-text","36","183755","0.0-34.1-0.1","A1HRH92NH49RX2","","","","{""Q0"":""normal""}","","","","","","","","","","","","","","","","","","","","","","",""
"4386.700000762939","","image-slider-response","37","188145","0.0-35.0","A1HRH92NH49RX2","","","","","8","","","","","","","","","","","","","","","","","","","","","",""
"4462","","image-button-response","38","193147","0.0-36.0","A1HRH92NH49RX2","img_art/ins/3.jpg","3","","","","","","","","","","","","","","","","","","","","","","","","",""
"776","","image-button-response","39","193926","0.0-37.0","A1HRH92NH49RX2","img_art/ins/3.jpg","3","","","","","","","","","","","","","","","","","","","","","","","","",""
"770","","image-button-response","40","194699","0.0-38.0-0.0","A1HRH92NH49RX2","img_art/ins/3.jpg","5","","","","","","","","","","","","","","","","","","","","","","","","",""
"665","","image-button-response","41","195367","0.0-39.0-0.0","A1HRH92NH49RX2","img_art/ins/3.jpg","2","","","","","","","","","","","","","","","","","","","","","","","","",""
"null","","html-keyboard-response","42","195869","0.0-40.0","A1HRH92NH49RX2","<p style=""font-size: 48px;"">+</p>","","","","","null","allTrialResponses","500","1","0","img_art/ins/3.jpg","8","normal","Adam,Ron,Kyle,Mike,Daniel,Sam","My daily routine, it's depressing,-20,20,20","It looks depressing,-26,220,20","It looks like a playground for bats,-36,180,20","enjoy the different shades of blue,22,200,20","looks like a murder room,-35,100,20","I can feel a rainy day from this painting,18,240,20","Mike","enjoy the different shades of blue,22,200,20","Sam","I can feel a rainy day from this painting,18,240,20","Kyle","It looks like a playground for bats,-36,180,20","0"
"8280","","image-button-response_instructions","43","204154","0.0-41.0","A1HRH92NH49RX2","","0","instructions","","","","","","","","","","","","","","","","","","","","","","","",""
"11663","","survey-likert","44","215818","0.0-42.0-0.0","A1HRH92NH49RX2","","","","{""Q0"":"""",""Q1"":0,""Q2"":1}","","","","","","","","","","","","","","","","","","","","","","",""
"16574","","survey-text","45","232401","0.0-43.0-0.0","A1HRH92NH49RX2","","","","{""Q0"":""ROCK""}","","","","","","","","","","","","","","","","","","","","","","",""
"5765","","survey-text","46","243741","0.0-43.1-0.1","A1HRH92NH49RX2","","","","{""Q0"":""rock""}","","","","","","","","","","","","","","","","","","","","","","",""
"11187","","survey-text","47","254930","0.0-44.0-0.0","A1HRH92NH49RX2","","","","{""Q0"":""silent pics""}","","","","","","","","","","","","","","","","","","","","","","",""
"4739.699999809265","","image-slider-response","48","259671","0.0-45.0","A1HRH92NH49RX2","","","","","23","","","","","","","","","","","","","","","","","","","","","",""
"3685","","image-button-response","49","264717","0.0-46.0","A1HRH92NH49RX2","img_art/26.jpg","3","","","","","","","","","","","","","","","","","","","","","","","","",""
"2849","","image-button-response","50","267569","0.0-47.0","A1HRH92NH49RX2","img_art/26.jpg","1","","","","","","","","","","","","","","","","","","","","","","","","",""
"1243","","image-button-response","51","268814","0.0-48.0-0.0","A1HRH92NH49RX2","img_art/26.jpg","0","","","","","","","","","","","","","","","","","","","","","","","","",""
"1888","","image-button-response","52","270704","0.0-49.0-0.0","A1HRH92NH49RX2","img_art/26.jpg","4","","","","","","","","","","","","","","","","","","","","","","","","",""
"null","","html-keyboard-response","53","271707","0.0-50.0","A1HRH92NH49RX2","<p style=""font-size: 48px;"">+</p>","","","","","null","allTrialResponses","1000","1","1","img_art/26.jpg","23","silent pics","John,Anthony,Dustin,Nathan,Tanner,Tristan","Its pretty.And a nice use of water colors.,25,120,20","This picture doesn't really stand out.,0,200,20","Reminds me of watercolor. Muted tones and blurry soft brush strokes. Calm to me.,1,20,20","It's a little too yellow-y for me, I'm not a huge fan of the color schemes or setting it portrays.,-20,200,20","happy, park, childhood,9,180,20","The feeling that I am looking at the world through a dingy filter makes this unpleasant for me.,-20,300,20","Anthony","This picture doesn't really stand out.,0,200,20","John","Its pretty.And a nice use of water colors.,25,120,20","Tanner","happy, park, childhood,9,180,20","1"
"11492","","survey-text","54","283209","0.0-51.0-0.0","A1HRH92NH49RX2","","","","{""Q0"":""crystal clear""}","","","","","","","","","","","","","","","","","","","","","","",""
"6579","","image-slider-response","55","289790","0.0-52.0","A1HRH92NH49RX2","","","","","45","","","","","","","","","","","","","","","","","","","","","",""
"3297","","image-button-response","56","294800","0.0-53.0","A1HRH92NH49RX2","img_art/11.jpg","3","","","","","","","","","","","","","","","","","","","","","","","","",""
"2823","","image-button-response","57","297626","0.0-54.0","A1HRH92NH49RX2","img_art/11.jpg","5","","","","","","","","","","","","","","","","","","","","","","","","",""
"1579","","image-button-response","58","299208","0.0-55.0-0.0","A1HRH92NH49RX2","img_art/11.jpg","0","","","","","","","","","","","","","","","","","","","","","","","","",""
"1665","","image-button-response","59","300874","0.0-56.0-0.0","A1HRH92NH49RX2","img_art/11.jpg","2","","","","","","","","","","","","","","","","","","","","","","","","",""
"null","","html-keyboard-response","60","301880","0.0-57.0","A1HRH92NH49RX2","<p style=""font-size: 48px;"">+</p>","","","","","null","allTrialResponses","1000","1","2","img_art/11.jpg","45","crystal clear","John,Anthony,Austin,Michael,Tanner,Luke","Its interesting.,20,120,20","The narrow groups of lines in the center make me feel uneasy for some reason,-31,200,20","Very unique piece of art,50,240,20","It's kind of cool and I see it looks clean.,22,140,20","small town, friendly. calm,35,180,20","it reminds me of music,43,20,20","Luke","it reminds me of music,43,20,20","John","Its interesting.,20,120,20","Austin","Very unique piece of art,50,240,20","1"
"18166","","survey-text","61","320050","0.0-58.0-0.0","A1HRH92NH49RX2","","","","{""Q0"":""beautiful""}","","","","","","","","","","","","","","","","","","","","","","",""
"4624.60000038147","","image-slider-response","62","324677","0.0-59.0","A1HRH92NH49RX2","","","","","36","","","","","","","","","","","","","","","","","","","","","",""
"null","","image-button-response","63","329746","0.0-60.0","A1HRH92NH49RX2","img_art/15.jpg","null","","","","","","","","","","","","","","","","","","","","","","","","",""
"915","","image-button-response","64","330663","0.0-61.0","A1HRH92NH49RX2","img_art/15.jpg","5","","","","","","","","","","","","","","","","","","","","","","","","",""
"1269","","image-button-response","65","331935","0.0-62.0-0.0","A1HRH92NH49RX2","img_art/15.jpg","4","","","","","","","","","","","","","","","","","","","","","","","","",""
"823","","image-button-response","66","332761","0.0-63.0-0.0","A1HRH92NH49RX2","img_art/15.jpg","3","","","","","","","","","","","","","","","","","","","","","","","","",""
"null","","html-keyboard-response","67","334264","0.0-64.0","A1HRH92NH49RX2","<p style=""font-size: 48px;"">+</p>","","","","","null","allTrialResponses","1500","1","3","img_art/15.jpg","36","beautiful","John,Joseph,Austin,Cameron,Hunter,Luke","Uninteresting and too much black,-30,120,20","Bushes, good! Life, good!,12,220,20","Perfect Abstract painting,50,240,20","This one reminds me of a postage stamp, but branches and leaves. Kind of fun.,15,60,20","reminds me of birds in trees,14,240,20","it looks like trees but they are up to interpretation,16,20,20","Luke","it looks like trees but they are up to interpretation,16,20,20","Hunter","reminds me of birds in trees,14,240,20","Cameron","This one reminds me of a postage stamp, but branches and leaves. Kind of fun.,15,60,20","1"
"5023","","survey-text","68","339291","0.0-65.0-0.0","A1HRH92NH49RX2","","","","{""Q0"":""beautiful""}","","","","","","","","","","","","","","","","","","","","","","",""
"11093.300000190735","","image-slider-response","69","350386","0.0-66.0","A1HRH92NH49RX2","","","","","34","","","","","","","","","","","","","","","","","","","","","",""
"2362","","image-button-response","70","355390","0.0-67.0","A1HRH92NH49RX2","img_art/10.jpg","4","","","","","","","","","","","","","","","","","","","","","","","","",""
"999","","image-button-response","71","356391","0.0-68.0","A1HRH92NH49RX2","img_art/10.jpg","3","","","","","","","","","","","","","","","","","","","","","","","","",""
"1824","","image-button-response","72","358217","0.0-69.0-0.0","A1HRH92NH49RX2","img_art/10.jpg","1","","","","","","","","","","","","","","","","","","","","","","","","",""
"1051","","image-button-response","73","359271","0.0-70.0-0.0","A1HRH92NH49RX2","img_art/10.jpg","2","","","","","","","","","","","","","","","","","","","","","","","","",""
"null","","html-keyboard-response","74","360773","0.0-71.0","A1HRH92NH49RX2","<p style=""font-size: 48px;"">+</p>","","","","","null","allTrialResponses","1500","1","4","img_art/10.jpg","34","beautiful","Benjamin,Jack,Luis,Cameron,Hunter,Luke","This picture just seems depressing.,-26,260,20","this piece is okay. I wish it was more colorful, but it is certainly intriguing.,23,320,20","I love the dark and edgy nature of this,50,400,20","artistic cello piece?,30,60,20","shapes are appealing/relationship between the beige square and the black lines,24,240,20","it reminds me of a musical instrument,19,20,20","Cameron","artistic cello piece?,30,60,20","Jack","this piece is okay. I wish it was more colorful, but it is certainly intriguing.,23,320,20","Luis","I love the dark and edgy nature of this,50,400,20","1"
"6635","","survey-text","75","367413","0.0-72.0-0.0","A1HRH92NH49RX2","","","","{""Q0"":""beautiful""}","","","","","","","","","","","","","","","","","","","","","","",""
"4677.800000190735","","image-slider-response","76","372092","0.0-73.0","A1HRH92NH49RX2","","","","","21","","","","","","","","","","","","","","","","","","","","","",""
"4301","","image-button-response","77","377096","0.0-74.0","A1HRH92NH49RX2","img_art/9.jpg","1","","","","","","","","","","","","","","","","","","","","","","","","",""
"2342","","image-button-response","78","379441","0.0-75.0","A1HRH92NH49RX2","img_art/9.jpg","2","","","","","","","","","","","","","","","","","","","","","","","","",""
"1120","","image-button-response","79","380563","0.0-76.0-0.0","A1HRH92NH49RX2","img_art/9.jpg","1","","","","","","","","","","","","","","","","","","","","","","","","",""
"2151","","image-button-response","80","382716","0.0-77.0-0.0","A1HRH92NH49RX2","img_art/9.jpg","5","","","","","","","","","","","","","","","","","","","","","","","","",""
"null","","html-keyboard-response","81","384222","0.0-78.0","A1HRH92NH49RX2","<p style=""font-size: 48px;"">+</p>","","","","","null","allTrialResponses","1500","1","5","img_art/9.jpg","21","beautiful","Tyler,Jack,Luis,Cameron,Juan,Blake","No cohesive form whatsoever. Hard pass.,-31,320,20","gorgeous colors, love the little details,42,320,20","Calming and relaxing,42,400,20","Dark fantasy seaside cave carnival? Fun.,15,60,20","It's too abstract for my taste. I wish there were more definition.,-9,260,20","looks like a woman in bed and its ok,8,280,20","Luis","Calming and relaxing,42,400,20","Jack","gorgeous colors, love the little details,42,320,20","Blake","looks like a woman in bed and its ok,8,280,20","1"
"6323","","survey-text","82","390553","0.0-79.0-0.0","A1HRH92NH49RX2","","","","{""Q0"":""sky""}","","","","","","","","","","","","","","","","","","","","","","",""
"8692","","survey-text","83","399247","0.0-80.0-0.0","A1HRH92NH49RX2","","","","{""Q0"":""beautiful""}","","","","","","","","","","","","","","","","","","","","","","",""
"13962.699999809265","","image-slider-response","84","413211","0.0-81.0","A1HRH92NH49RX2","","","","","32","","","","","","","","","","","","","","","","","","","","","",""
"4755","","image-button-response","85","418215","0.0-82.0","A1HRH92NH49RX2","img_art/25.jpg","0","","","","","","","","","","","","","","","","","","","","","","","","",""
"2589","","image-button-response","86","420807","0.0-83.0","A1HRH92NH49RX2","img_art/25.jpg","2","","","","","","","","","","","","","","","","","","","","","","","","",""
"1360","","image-button-response","87","422169","0.0-84.0-0.0","A1HRH92NH49RX2","img_art/25.jpg","0","","","","","","","","","","","","","","","","","","","","","","","","",""
"788","","image-button-response","88","422960","0.0-85.0-0.0","A1HRH92NH49RX2","img_art/25.jpg","1","","","","","","","","","","","","","","","","","","","","","","","","",""
"null","","html-keyboard-response","89","423962","0.0-86.0","A1HRH92NH49RX2","<p style=""font-size: 48px;"">+</p>","","","","","null","allTrialResponses","1000","1","6","img_art/25.jpg","32","beautiful","Lucas,Jack,Luis,Brandon,Brendan,Blake","Well-designed, interesting.,30,380,20","beautiful in a primitive way,10,320,20","New life, rising from your personal battles,50,400,20","Reminds me of cave drawings,21,320,20","is this an ancient woman?,-16,340,20","ugly color and very sad old lady,-45,280,20","Luis","New life, rising from your personal battles,50,400,20","Lucas","Well-designed, interesting.,30,380,20","Jack","beautiful in a primitive way,10,320,20","1"
"6971","","survey-text","90","430937","0.0-87.0-0.0","A1HRH92NH49RX2","","","","{""Q0"":""beautiful""}","","","","","","","","","","","","","","","","","","","","","","",""
"5932.200000762939","","image-slider-response","91","436872","0.0-88.0","A1HRH92NH49RX2","","","","","35","","","","","","","","","","","","","","","","","","","","","",""
"3975","","image-button-response","92","441875","0.0-89.0","A1HRH92NH49RX2","img_art/12.jpg","0","","","","","","","","","","","","","","","","","","","","","","","","",""
"1709","","image-button-response","93","443586","0.0-90.0","A1HRH92NH49RX2","img_art/12.jpg","2","","","","","","","","","","","","","","","","","","","","","","","","",""
"1052","","image-button-response","94","444640","0.0-91.0-0.0","A1HRH92NH49RX2","img_art/12.jpg","1","","","","","","","","","","","","","","","","","","","","","","","","",""
"826","","image-button-response","95","445468","0.0-92.0-0.0","A1HRH92NH49RX2","img_art/12.jpg","0","","","","","","","","","","","","","","","","","","","","","","","","",""
"null","","html-keyboard-response","96","446471","0.0-93.0","A1HRH92NH49RX2","<p style=""font-size: 48px;"">+</p>","","","","","null","allTrialResponses","1000","1","7","img_art/12.jpg","35","beautiful","Lucas,Jack,Luis,Bryce,Chase,Travis","Seems to be puzzles.,25,380,20","interesting, but feels like someone cut up a picture and pasted it together wrong. want to see the original,15,320,20","I like the fact it shares both light and edgy,32,400,20","A little bit boring.,-24,20,20","It's not particularly interesting or ugly.,-7,120,20","Neutral...just blocks.,3,260,20","Luis","I like the fact it shares both light and edgy,32,400,20","Jack","interesting, but feels like someone cut up a picture and pasted it together wrong. want to see the original,15,320,20","Lucas","Seems to be puzzles.,25,380,20","1"
"6378","","survey-text","97","452853","0.0-94.0-0.0","A1HRH92NH49RX2","","","","{""Q0"":""beautiful""}","","","","","","","","","","","","","","","","","","","","","","",""
"4413.800000190735","","image-slider-response","98","457269","0.0-95.0","A1HRH92NH49RX2","","","","","13","","","","","","","","","","","","","","","","","","","","","",""
"null","","image-button-response","99","462273","0.0-96.0","A1HRH92NH49RX2","img_art/28.jpg","null","","","","","","","","","","","","","","","","","","","","","","","","",""
"2208","","image-button-response","100","464483","0.0-97.0","A1HRH92NH49RX2","img_art/28.jpg","0","","","","","","","","","","","","","","","","","","","","","","","","",""
"2290","","image-button-response","101","466775","0.0-98.0-0.0","A1HRH92NH49RX2","img_art/28.jpg","1","","","","","","","","","","","","","","","","","","","","","","","","",""
"2434","","image-button-response","102","469212","0.0-99.0-0.0","A1HRH92NH49RX2","img_art/28.jpg","5","","","","","","","","","","","","","","","","","","","","","","","","",""
"null","","html-keyboard-response","103","470226","0.0-100.0","A1HRH92NH49RX2","<p style=""font-size: 48px;"">+</p>","","","","","null","allTrialResponses","1000","1","8","img_art/28.jpg","13","beautiful","Lucas,Jack,Luis,Dylan,Devin,Bryan","This painting is mysterious, it makes me curious.,5,380,20","looks like humanoid figures in distress. I like it, but makes me slightly uncomfortable,35,320,20","Self-hate and abuse at home, unsafe and torturing,-30,400,20","Boring, looks like it belongs in a coffee shop,-20,40,20","It is a bit drab,-10,380,20","A meeting in Old Jerusalem.,11,400,20","Lucas","This painting is mysterious, it makes me curious.,5,380,20","Jack","looks like humanoid figures in distress. I like it, but makes me slightly uncomfortable,35,320,20","Bryan","A meeting in Old Jerusalem.,11,400,20","1"
"11315","","survey-text","104","481545","0.0-101.0-0.0","A1HRH92NH49RX2","","","","{""Q0"":""dark hell""}","","","","","","","","","","","","","","","","","","","","","","",""
"4455.900000572205","","image-slider-response","105","486003","0.0-102.0","A1HRH92NH49RX2","","","","","14","","","","","","","","","","","","","","","","","","","","","",""
"4868","","image-button-response","106","491011","0.0-103.0","A1HRH92NH49RX2","img_art/29.jpg","0","","","","","","","","","","","","","","","","","","","","","","","","",""
"1383","","image-button-response","107","492396","0.0-104.0","A1HRH92NH49RX2","img_art/29.jpg","0","","","","","","","","","","","","","","","","","","","","","","","","",""
"2194","","image-button-response","108","494592","0.0-105.0-0.0","A1HRH92NH49RX2","img_art/29.jpg","5","","","","","","","","","","","","","","","","","","","","","","","","",""
"1068","","image-button-response","109","495661","0.0-106.0-0.0","A1HRH92NH49RX2","img_art/29.jpg","4","","","","","","","","","","","","","","","","","","","","","","","","",""
"null","","html-keyboard-response","110","496663","0.0-107.0","A1HRH92NH49RX2","<p style=""font-size: 48px;"">+</p>","","","","","null","allTrialResponses","1000","1","9","img_art/29.jpg","14","dark hell","Lucas,Jack,Nathaniel,Trevor,Ethan,Bryan","Looks kinda scary.,25,380,20","risks well taken. the brush is hilarious. feels like an artist's frustration, which is relatable.,50,320,20","Giant messy blob. Looks like it tries to be edgy, but fails.,-40,220,20","It's too on trend with the gray and doesn't look like a lasting piece,-4,280,20","I love the angry emotion to this art. I feel very drawn to it.,18,120,20","Doesn't do much for me. I like some of the colors but not much else.,-10,400,20","Lucas","Looks kinda scary.,25,380,20","Bryan","Doesn't do much for me. I like some of the colors but not much else.,-10,400,20","Ethan","I love the angry emotion to this art. I feel very drawn to it.,18,120,20","1"
"20245","","survey-text","111","516914","0.0-108.0-0.0","A1HRH92NH49RX2","","","","{""Q0"":""need better""}","","","","","","","","","","","","","","","","","","","","","","",""
"7490.300000190735","","image-slider-response","112","524406","0.0-109.0","A1HRH92NH49RX2","","","","","19","","","","","","","","","","","","","","","","","","","","","",""
"2850","","image-button-response","113","529408","0.0-110.0","A1HRH92NH49RX2","img_art/20.jpg","4","","","","","","","","","","","","","","","","","","","","","","","","",""
"1286","","image-button-response","114","530696","0.0-111.0","A1HRH92NH49RX2","img_art/20.jpg","2","","","","","","","","","","","","","","","","","","","","","","","","",""
"1019","","image-button-response","115","531718","0.0-112.0-0.0","A1HRH92NH49RX2","img_art/20.jpg","0","","","","","","","","","","","","","","","","","","","","","","","","",""
"1394","","image-button-response","116","533116","0.0-113.0-0.0","A1HRH92NH49RX2","img_art/20.jpg","4","","","","","","","","","","","","","","","","","","","","","","","","",""
"null","","html-keyboard-response","117","533622","0.0-114.0","A1HRH92NH49RX2","<p style=""font-size: 48px;"">+</p>","","","","","null","allTrialResponses","500","1","10","img_art/20.jpg","19","need better","Lucas,Colton,Jesse,Jason,Ethan,Bryan","Phenomenal painting of building.,25,380,20","reminds me of Salvadore Dali,24,220,20","I do at least like the dark colors blending,6,80,20","The picture looks smudged and dirty,-4,20,20","I can tell this artist has experience. I just don't care for the color combo.,7,120,20","Reminds me of Georgia O'Keefe.,11,400,20","Jesse","I do at least like the dark colors blending,6,80,20","Lucas","Phenomenal painting of building.,25,380,20","Ethan","I can tell this artist has experience. I just don't care for the color combo.,7,120,20","1"
"12863","","survey-text","118","546494","0.0-115.0-0.0","A1HRH92NH49RX2","","","","{""Q0"":""our""}","","","","","","","","","","","","","","","","","","","","","","",""
"15320","","survey-text","119","561816","0.0-116.0-0.0","A1HRH92NH49RX2","","","","{""Q0"":""worst than ever""}","","","","","","","","","","","","","","","","","","","","","","",""
"7407.699999809265","","image-slider-response","120","569226","0.0-117.0","A1HRH92NH49RX2","","","","","-37","","","","","","","","","","","","","","","","","","","","","",""
"3877","","image-button-response","121","574237","0.0-118.0","A1HRH92NH49RX2","img_art/5.jpg","1","","","","","","","","","","","","","","","","","","","","","","","","",""
"8294","","image-button-response","122","582533","0.0-119.0","A1HRH92NH49RX2","img_art/5.jpg","1","","","","","","","","","","","","","","","","","","","","","","","","",""
"1421","","image-button-response","123","583956","0.0-120.0-0.0","A1HRH92NH49RX2","img_art/5.jpg","0","","","","","","","","","","","","","","","","","","","","","","","","",""
"1153","","image-button-response","124","585112","0.0-121.0-0.0","A1HRH92NH49RX2","img_art/5.jpg","2","","","","","","","","","","","","","","","","","","","","","","","","",""
"null","","html-keyboard-response","125","586113","0.0-122.0","A1HRH92NH49RX2","<p style=""font-size: 48px;"">+</p>","","","","","null","allTrialResponses","1000","1","11","img_art/5.jpg","-37","worst than ever","Lucas,Cody,Jesse,Dalton,Ethan,Devon","Very non-dynamic painting, dislike it.,-10,380,20","Kind of ugly ....,-21,180,20","I just dont get it. Means very little to me,-22,80,20","its something. i just dont know what it is.,1,300,20","This piece has a good flow. I like the yellow with black combo.,11,120,20","a bit confused about this picture,-9,400,20","Cody","Kind of ugly ....,-21,180,20","Lucas","Very non-dynamic painting, dislike it.,-10,380,20","Jesse","I just dont get it. Means very little to me,-22,80,20","1"
"5778","","survey-text","126","591896","0.0-123.0-0.0","A1HRH92NH49RX2","","","","{""Q0"":""beautiful""}","","","","","","","","","","","","","","","","","","","","","","",""
"6398.300000190735","","image-slider-response","127","598296","0.0-124.0","A1HRH92NH49RX2","","","","","30","","","","","","","","","","","","","","","","","","","","","",""
"null","","image-button-response","128","603310","0.0-125.0","A1HRH92NH49RX2","img_art/8.jpg","null","","","","","","","","","","","","","","","","","","","","","","","","",""
"1704","","image-button-response","129","605016","0.0-126.0","A1HRH92NH49RX2","img_art/8.jpg","3","","","","","","","","","","","","","","","","","","","","","","","","",""
"1803","","image-button-response","130","606821","0.0-127.0-0.0","A1HRH92NH49RX2","img_art/8.jpg","1","","","","","","","","","","","","","","","","","","","","","","","","",""
"1034","","image-button-response","131","607857","0.0-128.0-0.0","A1HRH92NH49RX2","img_art/8.jpg","0","","","","","","","","","","","","","","","","","","","","","","","","",""
"null","","html-keyboard-response","132","609370","0.0-129.0","A1HRH92NH49RX2","<p style=""font-size: 48px;"">+</p>","","","","","null","allTrialResponses","1500","1","12","img_art/8.jpg","30","beautiful","Lucas,Cody,Jesse,Garrett,Caleb,William","Different styles make this picture outstanding.,20,380,20","Love the colors & block-style,50,180,20","I like the definition and the strong lines. It makes me think of someone watching over the world,24,80,20","I like that it looks like a city and the way the shapes and colors are put together,40,180,20","Despite the detail, this picture is very abstract!,31,40,20","makes me think of a busy city,-18,380,20","Garrett","I like that it looks like a city and the way the shapes and colors are put together,40,180,20","Cody","Love the colors & block-style,50,180,20","Lucas","Different styles make this picture outstanding.,20,380,20","1"
"12500","","survey-text","133","621877","0.0-130.0-0.0","A1HRH92NH49RX2","","","","{""Q0"":""need to improve""}","","","","","","","","","","","","","","","","","","","","","","",""
"4453.099999427795","","image-slider-response","134","626332","0.0-131.0","A1HRH92NH49RX2","","","","","-22","","","","","","","","","","","","","","","","","","","","","",""
"4338","","image-button-response","135","631346","0.0-132.0","A1HRH92NH49RX2","img_art/7.jpg","5","","","","","","","","","","","","","","","","","","","","","","","","",""
"2044","","image-button-response","136","633393","0.0-133.0","A1HRH92NH49RX2","img_art/7.jpg","5","","","","","","","","","","","","","","","","","","","","","","","","",""
"1928","","image-button-response","137","635322","0.0-134.0-0.0","A1HRH92NH49RX2","img_art/7.jpg","1","","","","","","","","","","","","","","","","","","","","","","","","",""
"1279","","image-button-response","138","636604","0.0-135.0-0.0","A1HRH92NH49RX2","img_art/7.jpg","0","","","","","","","","","","","","","","","","","","","","","","","","",""
"null","","html-keyboard-response","139","637616","0.0-136.0","A1HRH92NH49RX2","<p style=""font-size: 48px;"">+</p>","","","","","null","allTrialResponses","1000","1","13","img_art/7.jpg","-22","need to improve","Lucas,Cody,Jacob,Garrett,Jesus,Jake","Don't understand the meaning of this picture.,-30,380,20","Cool, makes me think of archeology,15,180,20","Looks like a natural texture, reminds me of rocks.,0,340,20","I don't like the repetitiveness of the colors, and I think there should be more colors.,-50,180,20","Is simple in color and texture,11,100,20","This is vague and ugly.,-3,360,20","Jake","This is vague and ugly.,-3,360,20","Cody","Cool, makes me think of archeology,15,180,20","Lucas","Don't understand the meaning of this picture.,-30,380,20","1"
"7929","","survey-text","140","645549","0.0-137.0-0.0","A1HRH92NH49RX2","","","","{""Q0"":""beautiful""}","","","","","","","","","","","","","","","","","","","","","","",""
"5429.099999427795","","image-slider-response","141","650981","0.0-138.0","A1HRH92NH49RX2","","","","","17","","","","","","","","","","","","","","","","","","","","","",""
"3721","","image-button-response","142","655984","0.0-139.0","A1HRH92NH49RX2","img_art/14.jpg","4","","","","","","","","","","","","","","","","","","","","","","","","",""
"1042","","image-button-response","143","657029","0.0-140.0","A1HRH92NH49RX2","img_art/14.jpg","3","","","","","","","","","","","","","","","","","","","","","","","","",""
"2667","","image-button-response","144","659700","0.0-141.0-0.0","A1HRH92NH49RX2","img_art/14.jpg","4","","","","","","","","","","","","","","","","","","","","","","","","",""
"1303","","image-button-response","145","661007","0.0-142.0-0.0","A1HRH92NH49RX2","img_art/14.jpg","2","","","","","","","","","","","","","","","","","","","","","","","","",""
"null","","html-keyboard-response","146","662025","0.0-143.0","A1HRH92NH49RX2","<p style=""font-size: 48px;"">+</p>","","","","","null","allTrialResponses","1000","1","14","img_art/14.jpg","17","beautiful","Lucas,Cody,Charles,Andrew,Shawn,Jake","In my opinion it's spectacular.,35,380,20","Don't love it.,-10,180,20","In some ways it looks natural, but I'm just not feeling it,0,100,20","Makes me think of my plants growing,11,160,20","Like the brushstrokes but not the composition,9,100,20","This is poorly done and not aesthetically appealing.,-2,360,20","Andrew","Makes me think of my plants growing,11,160,20","Shawn","Like the brushstrokes but not the composition,9,100,20","Charles","In some ways it looks natural, but I'm just not feeling it,0,100,20","1"
"7851","","survey-text","147","669882","0.0-144.0-0.0","A1HRH92NH49RX2","","","","{""Q0"":""beautiful""}","","","","","","","","","","","","","","","","","","","","","","",""
"4802.5","","image-slider-response","148","674687","0.0-145.0","A1HRH92NH49RX2","","","","","22","","","","","","","","","","","","","","","","","","","","","",""
"null","","image-button-response","149","679691","0.0-146.0","A1HRH92NH49RX2","img_art/23.jpg","null","","","","","","","","","","","","","","","","","","","","","","","","",""
"1209","","image-button-response","150","680903","0.0-147.0","A1HRH92NH49RX2","img_art/23.jpg","5","","","","","","","","","","","","","","","","","","","","","","","","",""
"4248","","image-button-response","151","685153","0.0-148.0-0.0","A1HRH92NH49RX2","img_art/23.jpg","2","","","","","","","","","","","","","","","","","","","","","","","","",""
"1467","","image-button-response","152","686622","0.0-149.0-0.0","A1HRH92NH49RX2","img_art/23.jpg","0","","","","","","","","","","","","","","","","","","","","","","","","",""
"null","","html-keyboard-response","153","688125","0.0-150.0","A1HRH92NH49RX2","<p style=""font-size: 48px;"">+</p>","","","","","null","allTrialResponses","1500","1","15","img_art/23.jpg","22","beautiful","Jose,Mark,Charles,Andrew,Shawn,Justin","This one is awesome, kinda looks like a cake with sprinkles but in a different universe,50,200,20","I see souls in torment and that makes me feel uneasy.,-21,80,20","Look at all the dancers,26,100,20","The color contrast makes me happy,40,160,20","Poster shop camp.,-40,100,20","The white paint through the middle really draws the eye.,30,280,20","Justin","The white paint through the middle really draws the eye.,30,280,20","Charles","Look at all the dancers,26,100,20","Jose","This one is awesome, kinda looks like a cake with sprinkles but in a different universe,50,200,20","1"
"9485","","survey-text","154","697619","0.0-151.0-0.0","A1HRH92NH49RX2","","","","{""Q0"":""course""}","","","","","","","","","","","","","","","","","","","","","","",""
"19803","","survey-text","155","717425","0.0-152.0-0.0","A1HRH92NH49RX2","","","","{""Q0"":""heart valve""}","","","","","","","","","","","","","","","","","","","","","","",""
"4424.5","","image-slider-response","156","721851","0.0-153.0","A1HRH92NH49RX2","","","","","16","","","","","","","","","","","","","","","","","","","","","",""
"1821","","image-button-response","157","726854","0.0-154.0","A1HRH92NH49RX2","img_art/30.jpg","4","","","","","","","","","","","","","","","","","","","","","","","","",""
"1711","","image-button-response","158","728567","0.0-155.0","A1HRH92NH49RX2","img_art/30.jpg","1","","","","","","","","","","","","","","","","","","","","","","","","",""
"1345","","image-button-response","159","729914","0.0-156.0-0.0","A1HRH92NH49RX2","img_art/30.jpg","3","","","","","","","","","","","","","","","","","","","","","","","","",""
"1307","","image-button-response","160","731224","0.0-157.0-0.0","A1HRH92NH49RX2","img_art/30.jpg","5","","","","","","","","","","","","","","","","","","","","","","","","",""
"null","","html-keyboard-response","161","732227","0.0-158.0","A1HRH92NH49RX2","<p style=""font-size: 48px;"">+</p>","","","","","null","allTrialResponses","1000","1","16","img_art/30.jpg","16","heart valve","Jose,Robert,Charles,Evan,Patrick,Justin","For some reason I like the red in this one. Maybe it's the style of lines/blurs,46,200,20","My kindergarten class could do this,-50,360,20","looks like eels,-20,100,20","I really like the broad and colorful strokes,21,140,20","I don't like the blended colors,-20,280,20","The colors and the brushstrokes are interesting enough.,17,280,20","Robert","My kindergarten class could do this,-50,360,20","Evan","I really like the broad and colorful strokes,21,140,20","Justin","The colors and the brushstrokes are interesting enough.,17,280,20","1"
"6029","","survey-text","162","738263","0.0-159.0-0.0","A1HRH92NH49RX2","","","","{""Q0"":""beautiful""}","","","","","","","","","","","","","","","","","","","","","","",""
"3481.8999996185303","","image-slider-response","163","741747","0.0-160.0","A1HRH92NH49RX2","","","","","15","","","","","","","","","","","","","","","","","","","","","",""
"4548","","image-button-response","164","746756","0.0-161.0","A1HRH92NH49RX2","img_art/16.jpg","0","","","","","","","","","","","","","","","","","","","","","","","","",""
"1344","","image-button-response","165","748103","0.0-162.0","A1HRH92NH49RX2","img_art/16.jpg","0","","","","","","","","","","","","","","","","","","","","","","","","",""
"1208","","image-button-response","166","749312","0.0-163.0-0.0","A1HRH92NH49RX2","img_art/16.jpg","4","","","","","","","","","","","","","","","","","","","","","","","","",""
"1127","","image-button-response","167","750442","0.0-164.0-0.0","A1HRH92NH49RX2","img_art/16.jpg","3","","","","","","","","","","","","","","","","","","","","","","","","",""
"null","","html-keyboard-response","168","751949","0.0-165.0","A1HRH92NH49RX2","<p style=""font-size: 48px;"">+</p>","","","","","null","allTrialResponses","1500","1","17","img_art/16.jpg","15","beautiful","Thomas,Robert,Ryan,Evan,Jordan,Justin","Makes me want to know more,5,220,20","It looks violent.,-30,360,20","Very modern, reminds me of bansky,43,380,20","I do not like this dark and twisted portrayal of childhood,-42,140,20","The bear makes me very uncomfortable,-50,160,20","Kind of dull, colors and drawings are not really interesting.,0,280,20","Thomas","Makes me want to know more,5,220,20","Jordan","The bear makes me very uncomfortable,-50,160,20","Evan","I do not like this dark and twisted portrayal of childhood,-42,140,20","1"
"12717","","survey-text","169","764670","0.0-166.0-0.0","A1HRH92NH49RX2","","","","{""Q0"":""not soo good""}","","","","","","","","","","","","","","","","","","","","","","",""
"5647.900000572205","","image-slider-response","170","770320","0.0-167.0","A1HRH92NH49RX2","","","","","-11","","","","","","","","","","","","","","","","","","","","","",""
"null","","image-button-response","171","775333","0.0-168.0","A1HRH92NH49RX2","img_art/17.jpg","null","","","","","","","","","","","","","","","","","","","","","","","","",""
"943","","image-button-response","172","776278","0.0-169.0","A1HRH92NH49RX2","img_art/17.jpg","4","","","","","","","","","","","","","","","","","","","","","","","","",""
"1644","","image-button-response","173","777925","0.0-170.0-0.0","A1HRH92NH49RX2","img_art/17.jpg","3","","","","","","","","","","","","","","","","","","","","","","","","",""
"1256","","image-button-response","174","779183","0.0-171.0-0.0","A1HRH92NH49RX2","img_art/17.jpg","2","","","","","","","","","","","","","","","","","","","","","","","","",""
"null","","html-keyboard-response","175","780185","0.0-172.0","A1HRH92NH49RX2","<p style=""font-size: 48px;"">+</p>","","","","","null","allTrialResponses","1000","1","18","img_art/17.jpg","-11","not soo good","Thomas,Alexander,Logan,Evan,Jordan,Taylor","Colors and composition are beautiful. I would hang this in my home.,50,220,20","Tree of knowledge in a quiet school.,17,120,20","similar to last one, still pretty cool but I liked arrangement of last one better,13,360,20","This reminds me of spring,24,140,20","Really love the branches. The bottom made it not perfect,42,160,20","Somewhat should trim the tree branches at the shopping mall.,10,200,20","Jordan","Really love the branches. The bottom made it not perfect,42,160,20","Evan","This reminds me of spring,24,140,20","Logan","similar to last one, still pretty cool but I liked arrangement of last one better,13,360,20","1"
"7860","","survey-text","176","788050","0.0-173.0-0.0","A1HRH92NH49RX2","","","","{""Q0"":""beautiful""}","","","","","","","","","","","","","","","","","","","","","","",""
"4482.300000190735","","image-slider-response","177","792534","0.0-174.0","A1HRH92NH49RX2","","","","","37","","","","","","","","","","","","","","","","","","","","","",""
"null","","image-button-response","178","797545","0.0-175.0","A1HRH92NH49RX2","img_art/4.jpg","null","","","","","","","","","","","","","","","","","","","","","","","","",""
"44442","","image-button-response","179","841989","0.0-176.0","A1HRH92NH49RX2","img_art/4.jpg","3","","","","","","","","","","","","","","","","","","","","","","","","",""
"1412","","image-button-response","180","843403","0.0-177.0-0.0","A1HRH92NH49RX2","img_art/4.jpg","1","","","","","","","","","","","","","","","","","","","","","","","","",""
"1498","","image-button-response","181","844904","0.0-178.0-0.0","A1HRH92NH49RX2","img_art/4.jpg","2","","","","","","","","","","","","","","","","","","","","","","","","",""
"null","","html-keyboard-response","182","845406","0.0-179.0","A1HRH92NH49RX2","<p style=""font-size: 48px;"">+</p>","","","","","null","allTrialResponses","500","1","19","img_art/4.jpg","37","beautiful","Alejandro,Cole,Logan,Evan,Jordan,Zachary","Looks like finger nails from the Guinness world record book.,-30,80,20","Fingerpaint of a hand?,-30,200,20","it looks like a preschooler just dragged his fingers around,-36,360,20","I'm disappointed that such a simple piece, with very little effort spent, could be grouped with other detailed pieces,-31,140,20","A hand reaching for something it cannot obtain,-9,160,20","Not a huge fan of the color story, but it reminds me of a child finger-painting.,12,400,20","Evan","I'm disappointed that such a simple piece, with very little effort spent, could be grouped with other detailed pieces,-31,140,20","Cole","Fingerpaint of a hand?,-30,200,20","Logan","it looks like a preschooler just dragged his fingers around,-36,360,20","1"
"14118","","survey-text","183","859528","0.0-180.0-0.0","A1HRH92NH49RX2","","","","{""Q0"":""silent water""}","","","","","","","","","","","","","","","","","","","","","","",""
"3588","","image-slider-response","184","863118","0.0-181.0","A1HRH92NH49RX2","","","","","29","","","","","","","","","","","","","","","","","","","","","",""
"2664","","image-button-response","185","868122","0.0-182.0","A1HRH92NH49RX2","img_art/24.jpg","0","","","","","","","","","","","","","","","","","","","","","","","","",""
"1056","","image-button-response","186","869179","0.0-183.0","A1HRH92NH49RX2","img_art/24.jpg","4","","","","","","","","","","","","","","","","","","","","","","","","",""
"2706","","image-button-response","187","871888","0.0-184.0-0.0","A1HRH92NH49RX2","img_art/24.jpg","3","","","","","","","","","","","","","","","","","","","","","","","","",""
"2144","","image-button-response","188","874035","0.0-185.0-0.0","A1HRH92NH49RX2","img_art/24.jpg","0","","","","","","","","","","","","","","","","","","","","","","","","",""
"null","","html-keyboard-response","189","875538","0.0-186.0","A1HRH92NH49RX2","<p style=""font-size: 48px;"">+</p>","","","","","null","allTrialResponses","1500","1","20","img_art/24.jpg","29","silent water","Aaron,Cole,Logan,Evan,Isaac,Jeremy","I like how it evokes the feeling of being in a forest. The colors are pretty,31,20,20","Abstract waterfall landscape. Confusing,-13,200,20","brick wall waterfall girl you think you got it all,50,360,20","It feels very serene,19,140,20","The colors are relaxing and cheerful.,32,280,20","somewhat happy. I like the colors,38,60,20","Isaac","The colors are relaxing and cheerful.,32,280,20","Evan","It feels very serene,19,140,20","Aaron","I like how it evokes the feeling of being in a forest. The colors are pretty,31,20,20","1"
"12124","","survey-text","190","887673","0.0-187.0-0.0","A1HRH92NH49RX2","","","","{""Q0"":""we""}","","","","","","","","","","","","","","","","","","","","","","",""
"11129","","survey-text","191","898805","0.0-188.0-0.0","A1HRH92NH49RX2","","","","{""Q0"":""very worst""}","","","","","","","","","","","","","","","","","","","","","","",""
"5358.099999427795","","image-slider-response","192","904165","0.0-189.0","A1HRH92NH49RX2","","","","","-42","","","","","","","","","","","","","","","","","","","","","",""
"2842","","image-button-response","193","909184","0.0-190.0","A1HRH92NH49RX2","img_art/2.jpg","0","","","","","","","","","","","","","","","","","","","","","","","","",""
"4202","","image-button-response","194","913389","0.0-191.0","A1HRH92NH49RX2","img_art/2.jpg","5","","","","","","","","","","","","","","","","","","","","","","","","",""
"1362","","image-button-response","195","914755","0.0-192.0-0.0","A1HRH92NH49RX2","img_art/2.jpg","4","","","","","","","","","","","","","","","","","","","","","","","","",""
"1035","","image-button-response","196","915793","0.0-193.0-0.0","A1HRH92NH49RX2","img_art/2.jpg","3","","","","","","","","","","","","","","","","","","","","","","","","",""
"null","","html-keyboard-response","197","916295","0.0-194.0","A1HRH92NH49RX2","<p style=""font-size: 48px;"">+</p>","","","","","null","allTrialResponses","500","1","21","img_art/2.jpg","-42","very worst","Aaron,Brian,Bradley,Evan,Isaac,Antonio","The colors are pretty but I don't really like the shapes in it.,-20,20,20","I like how it looks like a cute smiling face,43,380,20","I'm not fond of the colors in this one.,-33,300,20","I feel bothered by the dark and dingy choice of colors,-22,140,20","Not sure what is happening. I'm not a big fan of the colors but they don't bother me either.,1,280,20","Colors are drab and cause a sense of blandness,-28,220,20","Antonio","Colors are drab and cause a sense of blandness,-28,220,20","Isaac","Not sure what is happening. I'm not a big fan of the colors but they don't bother me either.,1,280,20","Evan","I feel bothered by the dark and dingy choice of colors,-22,140,20","1"
"17472","","survey-text","198","933773","0.0-195.0-0.0","A1HRH92NH49RX2","","","","{""Q0"":""normal or bad""}","","","","","","","","","","","","","","","","","","","","","","",""
"4689.89999961853","","image-slider-response","199","938465","0.0-196.0","A1HRH92NH49RX2","","","","","-14","","","","","","","","","","","","","","","","","","","","","",""
"2874","","image-button-response","200","943468","0.0-197.0","A1HRH92NH49RX2","img_art/27.jpg","1","","","","","","","","","","","","","","","","","","","","","","","","",""
"2529","","image-button-response","201","946000","0.0-198.0","A1HRH92NH49RX2","img_art/27.jpg","3","","","","","","","","","","","","","","","","","","","","","","","","",""
"1443","","image-button-response","202","947446","0.0-199.0-0.0","A1HRH92NH49RX2","img_art/27.jpg","5","","","","","","","","","","","","","","","","","","","","","","","","",""
"916","","image-button-response","203","948365","0.0-200.0-0.0","A1HRH92NH49RX2","img_art/27.jpg","4","","","","","","","","","","","","","","","","","","","","","","","","",""
"null","","html-keyboard-response","204","948867","0.0-201.0","A1HRH92NH49RX2","<p style=""font-size: 48px;"">+</p>","","","","","null","allTrialResponses","500","1","22","img_art/27.jpg","-14","normal or bad","Nicholas,Noah,Carlos,Evan,Isaac,Antonio","I like all it has going but i wouldnt put it in my house unless my child did it,25,240,20","I generally enjoy the style, but I'm finding the green lines grating,-9,260,20","The green lines disrupt the image in an unpleasant and hurried way.,-30,80,20","I am bothered by the green doodles,-20,140,20","The green lines look like a child drew over a painting.,-36,280,20","Didnt actually make me feel anything, sort of bland,3,220,20","Evan","I am bothered by the green doodles,-20,140,20","Antonio","Didnt actually make me feel anything, sort of bland,3,220,20","Isaac","The green lines look like a child drew over a painting.,-36,280,20","1"
"5958","","survey-text","205","954831","0.0-202.0-0.0","A1HRH92NH49RX2","","","","{""Q0"":""beautiful""}","","","","","","","","","","","","","","","","","","","","","","",""
"4211.599999427795","","image-slider-response","206","959045","0.0-203.0","A1HRH92NH49RX2","","","","","8","","","","","","","","","","","","","","","","","","","","","",""
"null","","image-button-response","207","964047","0.0-204.0","A1HRH92NH49RX2","img_art/3.jpg","null","","","","","","","","","","","","","","","","","","","","","","","","",""
"2368","","image-button-response","208","966418","0.0-205.0","A1HRH92NH49RX2","img_art/3.jpg","5","","","","","","","","","","","","","","","","","","","","","","","","",""
"3670","","image-button-response","209","970090","0.0-206.0-0.0","A1HRH92NH49RX2","img_art/3.jpg","2","","","","","","","","","","","","","","","","","","","","","","","","",""
"1870","","image-button-response","210","971961","0.0-207.0-0.0","A1HRH92NH49RX2","img_art/3.jpg","0","","","","","","","","","","","","","","","","","","","","","","","","",""
"null","","html-keyboard-response","211","973470","0.0-208.0","A1HRH92NH49RX2","<p style=""font-size: 48px;"">+</p>","","","","","null","allTrialResponses","1500","1","23","img_art/3.jpg","8","beautiful","Jorge,Brett,Sean,Evan,Isaac,Antonio","This makes me feel vulnerable,-32,180,20","Confusion and mayhem,-10,360,20","my response to the picture is a lot of red, danger,,-21,40,20","It feels like a half assed and failed imitation of Japanese signatures on old paintings,-22,140,20","It looks like scribbles.,-40,280,20","The red makes me think of blood which makes me think of pain,-50,220,20","Antonio","The red makes me think of blood which makes me think of pain,-50,220,20","Sean","my response to the picture is a lot of red, danger,,-21,40,20","Jorge","This makes me feel vulnerable,-32,180,20","1"
"7576","","survey-text","212","981055","0.0-209.0-0.0","A1HRH92NH49RX2","","","","{""Q0"":""beautiful""}","","","","","","","","","","","","","","","","","","","","","","",""
"4557.700000762939","","image-slider-response","213","985614","0.0-210.0","A1HRH92NH49RX2","","","","","10","","","","","","","","","","","","","","","","","","","","","",""
"null","","image-button-response","214","990629","0.0-211.0","A1HRH92NH49RX2","img_art/19.jpg","null","","","","","","","","","","","","","","","","","","","","","","","","",""
"4789","","image-button-response","215","995419","0.0-212.0","A1HRH92NH49RX2","img_art/19.jpg","0","","","","","","","","","","","","","","","","","","","","","","","","",""
"1232","","image-button-response","216","996654","0.0-213.0-0.0","A1HRH92NH49RX2","img_art/19.jpg","1","","","","","","","","","","","","","","","","","","","","","","","","",""
"1504","","image-button-response","217","998161","0.0-214.0-0.0","A1HRH92NH49RX2","img_art/19.jpg","4","","","","","","","","","","","","","","","","","","","","","","","","",""
"null","","html-keyboard-response","218","998663","0.0-215.0","A1HRH92NH49RX2","<p style=""font-size: 48px;"">+</p>","","","","","null","allTrialResponses","500","1","24","img_art/19.jpg","10","beautiful","Jorge,Scott,Sean,Samuel,Malik,Antonio","confused and emotional,-4,180,20","looks like a shopping center,20,20,20","the picture gave me anxiety,-38,40,20","city life energy,8,400,20","Very dreamlike,26,40,20","Chaotic. Too much going on in the picture,14,220,20","Jorge","confused and emotional,-4,180,20","Scott","looks like a shopping center,20,20,20","Malik","Very dreamlike,26,40,20","1"
"7511","","survey-text","219","1006180","0.0-216.0-0.0","A1HRH92NH49RX2","","","","{""Q0"":""beautiful""}","","","","","","","","","","","","","","","","","","","","","","",""
"6355.10000038147","","image-slider-response","220","1012537","0.0-217.0","A1HRH92NH49RX2","","","","","7","","","","","","","","","","","","","","","","","","","","","",""
"3282","","image-button-response","221","1017545","0.0-218.0","A1HRH92NH49RX2","img_art/22.jpg","4","","","","","","","","","","","","","","","","","","","","","","","","",""
"2348","","image-button-response","222","1019895","0.0-219.0","A1HRH92NH49RX2","img_art/22.jpg","1","","","","","","","","","","","","","","","","","","","","","","","","",""
"1487","","image-button-response","223","1021384","0.0-220.0-0.0","A1HRH92NH49RX2","img_art/22.jpg","3","","","","","","","","","","","","","","","","","","","","","","","","",""
"801","","image-button-response","224","1022187","0.0-221.0-0.0","A1HRH92NH49RX2","img_art/22.jpg","5","","","","","","","","","","","","","","","","","","","","","","","","",""
"null","","html-keyboard-response","225","1022690","0.0-222.0","A1HRH92NH49RX2","<p style=""font-size: 48px;"">+</p>","","","","","null","allTrialResponses","500","1","25","img_art/22.jpg","7","beautiful","Jorge,Scott,Richard,Dakota,Malik,Miguel","A key to the unknown,15,180,20","really beautiful colors and contrast,30,20,20","another OK work, mostly because of the blend of colors,12,340,20","muddy and rough,14,280,20","Beautiful forms, using color to define shape,14,40,20","Same az the last one?,-49,160,20","Scott","really beautiful colors and contrast,30,20,20","Dakota","muddy and rough,14,280,20","Miguel","Same az the last one?,-49,160,20","1"
"6795","","survey-text","226","1029509","0.0-223.0-0.0","A1HRH92NH49RX2","","","","{""Q0"":""table""}","","","","","","","","","","","","","","","","","","","","","","",""
"12247","","survey-text","227","1041757","0.0-224.0-0.0","A1HRH92NH49RX2","","","","{""Q0"":""beautiful pleassnt""}","","","","","","","","","","","","","","","","","","","","","","",""
"7681","","image-slider-response","228","1049441","0.0-225.0","A1HRH92NH49RX2","","","","","31","","","","","","","","","","","","","","","","","","","","","",""
"null","","image-button-response","229","1054445","0.0-226.0","A1HRH92NH49RX2","img_art/13.jpg","null","","","","","","","","","","","","","","","","","","","","","","","","",""
"1716","","image-button-response","230","1056162","0.0-227.0","A1HRH92NH49RX2","img_art/13.jpg","0","","","","","","","","","","","","","","","","","","","","","","","","",""
"1121","","image-button-response","231","1057286","0.0-228.0-0.0","A1HRH92NH49RX2","img_art/13.jpg","1","","","","","","","","","","","","","","","","","","","","","","","","",""
"1305","","image-button-response","232","1058593","0.0-229.0-0.0","A1HRH92NH49RX2","img_art/13.jpg","3","","","","","","","","","","","","","","","","","","","","","","","","",""
"null","","html-keyboard-response","233","1059096","0.0-230.0","A1HRH92NH49RX2","<p style=""font-size: 48px;"">+</p>","","","","","null","allTrialResponses","500","1","26","img_art/13.jpg","31","beautiful pleassnt","Corey,Scott,Paul,Dakota,Mason,Miguel","i like the splatters and the colors,21,260,20","I like the transition to other colors,24,20,20","It's like any other splatter paint art piece, nothing special,1,300,20","water on my shower curtain - I feel refreshed, renewed,9,280,20","meh, 80's. retro,-9,100,20","Nice color abstractions.,21,160,20","Corey","i like the splatters and the colors,21,260,20","Scott","I like the transition to other colors,24,20,20","Dakota","water on my shower curtain - I feel refreshed, renewed,9,280,20","1"
"6238","","survey-text","234","1065341","0.0-231.0-0.0","A1HRH92NH49RX2","","","","{""Q0"":""beautiful""}","","","","","","","","","","","","","","","","","","","","","","",""
"4302.300000190735","","image-slider-response","235","1069645","0.0-232.0","A1HRH92NH49RX2","","","","","41","","","","","","","","","","","","","","","","","","","","","",""
"4320","","image-button-response","236","1074648","0.0-233.0","A1HRH92NH49RX2","img_art/18.jpg","4","","","","","","","","","","","","","","","","","","","","","","","","",""
"1150","","image-button-response","237","1075800","0.0-234.0","A1HRH92NH49RX2","img_art/18.jpg","1","","","","","","","","","","","","","","","","","","","","","","","","",""
"873","","image-button-response","238","1076675","0.0-235.0-0.0","A1HRH92NH49RX2","img_art/18.jpg","0","","","","","","","","","","","","","","","","","","","","","","","","",""
"860","","image-button-response","239","1077538","0.0-236.0-0.0","A1HRH92NH49RX2","img_art/18.jpg","2","","","","","","","","","","","","","","","","","","","","","","","","",""
"null","","html-keyboard-response","240","1078539","0.0-237.0","A1HRH92NH49RX2","<p style=""font-size: 48px;"">+</p>","","","","","null","allTrialResponses","1000","1","27","img_art/18.jpg","41","beautiful","Corey,Scott,Eric,Dakota,Alex,Isaiah","reminds me of dying at sea in the 1700s,-8,260,20","reminds me of sailors on a boat,17,20,20","I like the colors being used, but I don't like the chaos in the middle of it.,20,100,20","afraid and anxious,21,280,20","The small lines elicit a very nauseating response for some reason, too Dali like for me,-19,100,20","I'm mildly disgusted by the colors, and can't piece together the story the figures are trying to tell.,-10,300,20","Scott","reminds me of sailors on a boat,17,20,20","Corey","reminds me of dying at sea in the 1700s,-8,260,20","Eric","I like the colors being used, but I don't like the chaos in the middle of it.,20,100,20","1"
"13224","","survey-text","241","1091770","0.0-238.0-0.0","A1HRH92NH49RX2","","","","{""Q0"":""very worst""}","","","","","","","","","","","","","","","","","","","","","","",""
"4007.800000190735","","image-slider-response","242","1095780","0.0-239.0","A1HRH92NH49RX2","","","","","-15","","","","","","","","","","","","","","","","","","","","","",""
"2305","","image-button-response","243","1100789","0.0-240.0","A1HRH92NH49RX2","img_art/1.jpg","1","","","","","","","","","","","","","","","","","","","","","","","","",""
"429","","image-button-response","244","1101220","0.0-241.0","A1HRH92NH49RX2","img_art/1.jpg","4","","","","","","","","","","","","","","","","","","","","","","","","",""
"788","","image-button-response","245","1102010","0.0-242.0-0.0","A1HRH92NH49RX2","img_art/1.jpg","3","","","","","","","","","","","","","","","","","","","","","","","","",""
"800","","image-button-response","246","1102814","0.0-243.0-0.0","A1HRH92NH49RX2","img_art/1.jpg","5","","","","","","","","","","","","","","","","","","","","","","","","",""
"null","","html-keyboard-response","247","1103817","0.0-244.0","A1HRH92NH49RX2","<p style=""font-size: 48px;"">+</p>","","","","","null","allTrialResponses","1000","1","28","img_art/1.jpg","-15","very worst","Corey,Scott,Eric,Adam,Grant,Adrian","basic reminds me of something a school would have on the wall,-7,260,20","good colors and contrast,31,20,20","I like the way that the colors blend.,35,100,20","Messy mix of primary colors.,-10,40,20","The use of reds, blues, and yellows together reminds me of fire. Very interesting to look at.,40,200,20","Not a fan of the colors. Makes me think of the Australian bush fires.,-5,60,20","Grant","The use of reds, blues, and yellows together reminds me of fire. Very interesting to look at.,40,200,20","Adam","Messy mix of primary colors.,-10,40,20","Adrian","Not a fan of the colors. Makes me think of the Australian bush fires.,-5,60,20","1"
"5267","","survey-text","248","1109090","0.0-245.0-0.0","A1HRH92NH49RX2","","","","{""Q0"":""beautiful""}","","","","","","","","","","","","","","","","","","","","","","",""
"3547","","image-slider-response","249","1112640","0.0-246.0","A1HRH92NH49RX2","","","","","20","","","","","","","","","","","","","","","","","","","","","",""
"2112","","image-button-response","250","1117643","0.0-247.0","A1HRH92NH49RX2","img_art/21.jpg","3","","","","","","","","","","","","","","","","","","","","","","","","",""
"1467","","image-button-response","251","1119112","0.0-248.0","A1HRH92NH49RX2","img_art/21.jpg","2","","","","","","","","","","","","","","","","","","","","","","","","",""
"1515","","image-button-response","252","1120630","0.0-249.0-0.0","A1HRH92NH49RX2","img_art/21.jpg","0","","","","","","","","","","","","","","","","","","","","","","","","",""
"1413","","image-button-response","253","1122047","0.0-250.0-0.0","A1HRH92NH49RX2","img_art/21.jpg","1","","","","","","","","","","","","","","","","","","","","","","","","",""
"null","","html-keyboard-response","254","1122549","0.0-251.0","A1HRH92NH49RX2","<p style=""font-size: 48px;"">+</p>","","","","","null","allTrialResponses","500","1","29","img_art/21.jpg","20","beautiful","Peter,Seth,Timothy,Adam,Grant,Adrian","I like the two sides meeting, like a movie scene,15,320,20","Makes me feel light and airy. Like I've gone back in time to 1700th century France.,43,60,20","Very calming and soft, makes me feel good,31,240,20","I like color mix here,15,40,20","The colors make me think of a perilous scene at sea, and are pretty interesting.,15,200,20","I like this piece more the more I look at. Still wouldn't want it in my home, though.,8,60,20","Timothy","Very calming and soft, makes me feel good,31,240,20","Peter","I like the two sides meeting, like a movie scene,15,320,20","Seth","Makes me feel light and airy. Like I've gone back in time to 1700th century France.,43,60,20","1"
"6207","","survey-text","255","1128763","0.0-252.0-0.0","A1HRH92NH49RX2","","","","{""Q0"":""beautiful""}","","","","","","","","","","","","","","","","","","","","","","",""
"4771.10000038147","","image-slider-response","256","1133536","0.0-253.0","A1HRH92NH49RX2","","","","","22","","","","","","","","","","","","","","","","","","","","","",""
"null","","image-button-response","257","1138538","0.0-254.0","A1HRH92NH49RX2","img_art/6.jpg","null","","","","","","","","","","","","","","","","","","","","","","","","",""
"2185","","image-button-response","258","1140726","0.0-255.0","A1HRH92NH49RX2","img_art/6.jpg","3","","","","","","","","","","","","","","","","","","","","","","","","",""
"1478","","image-button-response","259","1142206","0.0-256.0-0.0","A1HRH92NH49RX2","img_art/6.jpg","0","","","","","","","","","","","","","","","","","","","","","","","","",""
"983","","image-button-response","260","1143191","0.0-257.0-0.0","A1HRH92NH49RX2","img_art/6.jpg","1","","","","","","","","","","","","","","","","","","","","","","","","",""
"null","","html-keyboard-response","261","1144194","0.0-258.0","A1HRH92NH49RX2","<p style=""font-size: 48px;"">+</p>","","","","","null","allTrialResponses","1000","1","30","img_art/6.jpg","22","beautiful","Peter,Seth,Timothy,Kyle,Christian,Jeffrey","Don't like the black space,2,320,20","I love it. It reminds me of a bird sitting on a wall.,26,60,20","I dont feel much of a responce or connection to this one,0,240,20","Simple and clean,11,340,20","??????? fake floating leaf? headless bird,-28,140,20","positive because of bright colours and a bird,20,40,20","Kyle","Simple and clean,11,340,20","Peter","Don't like the black space,2,320,20","Seth","I love it. It reminds me of a bird sitting on a wall.,26,60,20","1"
"11611","","image-button-response_instructions","262","1155812","0.0-259.0","A1HRH92NH49RX2","","0","instructions","","","","","","","","","","","","","","","","","","","","","","","",""
"1785","","image-button-response","263","1157604","0.0-260.0","A1HRH92NH49RX2","","0","","","","","","","","","","","","","","","","","","","","","","","","",""
