"rt","url","trial_type","trial_index","time_elapsed","internal_node_id","participant_id","stimulus","button_pressed","Name","responses","response","key_press","variableName","fixationTime","condition","trial","photo","subjectRating","subjectResponse","agentsNames","agent_1_Response","agent_2_Response","agent_3_Response","agent_4_Response","agent_5_Response","agent_6_Response","kept_1_name","kept_1_response","kept_2_name","kept_2_response","kept_3_name","kept_3_response","errorCounter"
"17232","external_page_harvard.html","external-html","0","17310","0.0-0.0","A1IEW0TLXGL6HJ","","","","","","","","","","","","","","","","","","","","","","","","","","",""
"1801","","image-button-response","1","19113","0.0-1.0","A1IEW0TLXGL6HJ","","1","","","","","","","","","","","","","","","","","","","","","","","","",""
"2408","","image-button-response","2","21525","0.0-2.0-0.0","A1IEW0TLXGL6HJ","","1","phone","","","","","","","","","","","","","","","","","","","","","","","",""
"6632","","survey-text","3","28158","0.0-3.0-0.0","A1IEW0TLXGL6HJ","","","","{""Q0"":""A1IEW0TLXGL6HJ""}","","","","","","","","","","","","","","","","","","","","","","",""
"3283","","image-button-response_instructions","4","31444","0.0-4.0","A1IEW0TLXGL6HJ","","0","instructions","","","","","","","","","","","","","","","","","","","","","","","",""
"7541","","image-button-response_instructions","5","38986","0.0-5.0","A1IEW0TLXGL6HJ","img_art/ins/popularity/ins1.png","0","instructions","","","","","","","","","","","","","","","","","","","","","","","",""
"3970","","image-button-response_instructions","6","42958","0.0-6.0","A1IEW0TLXGL6HJ","img_art/ins/popularity/ins2.png","0","instructions","","","","","","","","","","","","","","","","","","","","","","","",""
"5910","","image-button-response_instructions","7","48870","0.0-7.0","A1IEW0TLXGL6HJ","img_art/ins/popularity/ins2Extreme.png","0","instructions","","","","","","","","","","","","","","","","","","","","","","","",""
"12171","","image-button-response_instructions","8","61042","0.0-8.0","A1IEW0TLXGL6HJ","img_art/ins/popularity/ins3KEEPpop.PNG","0","instructions","","","","","","","","","","","","","","","","","","","","","","","",""
"2139","","image-button-response_instructions","9","63182","0.0-9.0","A1IEW0TLXGL6HJ","img_art/ins/popularity/ins3ANamepop.PNG","0","instructions","","","","","","","","","","","","","","","","","","","","","","","",""
"2688","","image-button-response_instructions","10","65871","0.0-10.0","A1IEW0TLXGL6HJ","img_art/ins/popularity/ins3ARatingpop.png","0","instructions","","","","","","","","","","","","","","","","","","","","","","","",""
"2970","","image-button-response_instructions","11","68842","0.0-11.0","A1IEW0TLXGL6HJ","img_art/ins/popularity/ins3ATextpop.png","0","instructions","","","","","","","","","","","","","","","","","","","","","","","",""
"4559","","image-button-response_instructions","12","73403","0.0-12.0","A1IEW0TLXGL6HJ","img_art/ins/popularity/ins3ALikespop.png","0","instructions","","","","","","","","","","","","","","","","","","","","","","","",""
"9040","","image-button-response_instructions","13","82444","0.0-13.0","A1IEW0TLXGL6HJ","img_art/ins/popularity/ins3KEEPpop.PNG","0","instructions","","","","","","","","","","","","","","","","","","","","","","","",""
"9212","","image-button-response_instructions","14","91658","0.0-14.0","A1IEW0TLXGL6HJ","img_art/ins/popularity/ins3_5RED.png","0","instructions","","","","","","","","","","","","","","","","","","","","","","","",""
"2439","","image-button-response_instructions","15","94099","0.0-15.0","A1IEW0TLXGL6HJ","img_art/ins/popularity/ins3KEEPpop.PNG","0","instructions","","","","","","","","","","","","","","","","","","","","","","","",""
"6471","","image-button-response_instructions","16","100572","0.0-16.0","A1IEW0TLXGL6HJ","img_art/ins/popularity/ins4KEEPpop.PNG","0","instructions","","","","","","","","","","","","","","","","","","","","","","","",""
"4333","","image-button-response_instructions","17","104906","0.0-17.0","A1IEW0TLXGL6HJ","img_art/ins/popularity/ins5KEEPpop.PNG","0","instructions","","","","","","","","","","","","","","","","","","","","","","","",""
"1481","","image-button-response_instructions","18","106388","0.0-18.0","A1IEW0TLXGL6HJ","","0","instructions","","","","","","","","","","","","","","","","","","","","","","","",""
"4740","","survey-text","19","111150","0.0-19.0-0.0","A1IEW0TLXGL6HJ","","","","{""Q0"":""but""}","","","","","","","","","","","","","","","","","","","","","","",""
"12932","","survey-text","20","124084","0.0-20.0-0.0","A1IEW0TLXGL6HJ","","","","{""Q0"":""I like the colors, but I'm not a fan of abstract""}","","","","","","","","","","","","","","","","","","","","","","",""
"5331.800000011921","","image-slider-response","21","129420","0.0-21.0","A1IEW0TLXGL6HJ","","","","","-19","","","","","","","","","","","","","","","","","","","","","",""
"null","","image-button-response","22","134435","0.0-22.0","A1IEW0TLXGL6HJ","img_art/ins/1.jpg","null","","","","","","","","","","","","","","","","","","","","","","","","",""
"3814","","image-button-response","23","138254","0.0-23.0","A1IEW0TLXGL6HJ","img_art/ins/1.jpg","3","","","","","","","","","","","","","","","","","","","","","","","","",""
"1807","","image-button-response","24","140064","0.0-24.0-0.0","A1IEW0TLXGL6HJ","img_art/ins/1.jpg","1","","","","","","","","","","","","","","","","","","","","","","","","",""
"9318","","image-button-response","25","149385","0.0-25.0-0.0","A1IEW0TLXGL6HJ","img_art/ins/1.jpg","0","","","","","","","","","","","","","","","","","","","","","","","","",""
"null","","html-keyboard-response","26","150390","0.0-26.0","A1IEW0TLXGL6HJ","<p style=""font-size: 48px;"">+</p>","","","","","null","allTrialResponses","1000","1","-2","img_art/ins/1.jpg","-19","I like the colors, but I'm not a fan of abstract","Allison,Ashley,Beth,Dora,Erika,Jen","looks like a lot of things going on in the mist,20,20,20","I just don't get why these type of art would be popular,-32,40,20","This color reminds me of poo,-46,60,20","looks like what my niece in 3rd grade did this afternoon,-50,80,20","I like the sophisticated brushwork,40,100,20","It reminds me of a candy land dream I had,36,120,20","Dora","looks like what my niece in 3rd grade did this afternoon,-50,80,20","Ashley","I just don't get why these type of art would be popular,-32,40,20","Allison","looks like a lot of things going on in the mist,20,20,20","0"
"41816","","survey-text","27","192212","0.0-27.0-0.0","A1IEW0TLXGL6HJ","","","","{""Q0"":""The colors are gross and the shapes are heavy""}","","","","","","","","","","","","","","","","","","","","","","",""
"5005.0999999940395","","image-slider-response","28","197220","0.0-28.0","A1IEW0TLXGL6HJ","","","","","-45","","","","","","","","","","","","","","","","","","","","","",""
"null","","image-button-response","29","202239","0.0-29.0","A1IEW0TLXGL6HJ","img_art/ins/2.jpg","null","","","","","","","","","","","","","","","","","","","","","","","","",""
"5693","","image-button-response","30","207934","0.0-30.0","A1IEW0TLXGL6HJ","img_art/ins/2.jpg","3","","","","","","","","","","","","","","","","","","","","","","","","",""
"1664","","image-button-response","31","209601","0.0-31.0-0.0","A1IEW0TLXGL6HJ","img_art/ins/2.jpg","1","","","","","","","","","","","","","","","","","","","","","","","","",""
"1388","","image-button-response","32","210992","0.0-32.0-0.0","A1IEW0TLXGL6HJ","img_art/ins/2.jpg","2","","","","","","","","","","","","","","","","","","","","","","","","",""
"null","","html-keyboard-response","33","211494","0.0-33.0","A1IEW0TLXGL6HJ","<p style=""font-size: 48px;"">+</p>","","","","","null","allTrialResponses","500","1","-1","img_art/ins/2.jpg","-45","The colors are gross and the shapes are heavy","Allison,Ashley,Jenna,Dora,Kara,Katie","I don't have strong feelings about this,10,20,20","Idk, it is just annoying,-32,40,20","One of my pet peevs,-48,140,20","looks too angry,-50,80,20","I like the blocks of color arrangements,30,160,20","too much color!,-28,180,20","Dora","looks too angry,-50,80,20","Ashley","Idk, it is just annoying,-32,40,20","Jenna","One of my pet peevs,-48,140,20","0"
"13249","","survey-text","34","224746","0.0-34.0-0.0","A1IEW0TLXGL6HJ","","","","{""Q0"":""It reminds me of old Christmas cards""}","","","","","","","","","","","","","","","","","","","","","","",""
"7563.4000000059605","","image-slider-response","35","232312","0.0-35.0","A1IEW0TLXGL6HJ","","","","","-3","","","","","","","","","","","","","","","","","","","","","",""
"null","","image-button-response","36","237329","0.0-36.0","A1IEW0TLXGL6HJ","img_art/ins/3.jpg","null","","","","","","","","","","","","","","","","","","","","","","","","",""
"585","","image-button-response","37","237917","0.0-37.0","A1IEW0TLXGL6HJ","img_art/ins/3.jpg","0","","","","","","","","","","","","","","","","","","","","","","","","",""
"10273","","image-button-response","38","248193","0.0-38.0-0.0","A1IEW0TLXGL6HJ","img_art/ins/3.jpg","5","","","","","","","","","","","","","","","","","","","","","","","","",""
"10496","","image-button-response","39","258691","0.0-39.0-0.0","A1IEW0TLXGL6HJ","img_art/ins/3.jpg","1","","","","","","","","","","","","","","","","","","","","","","","","",""
"null","","html-keyboard-response","40","260193","0.0-40.0","A1IEW0TLXGL6HJ","<p style=""font-size: 48px;"">+</p>","","","","","null","allTrialResponses","1500","1","0","img_art/ins/3.jpg","-3","It reminds me of old Christmas cards","Leslie,Ashley,Jenna,Dora,Mary,Rose","It's an alright work,15,200,20","It looks like a playground for bats,-36,40,20","looks like a murder room,-35,140,20","My worst nightmare,-42,80,20","I like the overlapping of brushes,41,220,20","My daily routine, it's depressing,-20,240,20","Leslie","It's an alright work,15,200,20","Rose","My daily routine, it's depressing,-20,240,20","Ashley","It looks like a playground for bats,-36,40,20","0"
"4273","","image-button-response_instructions","41","264476","0.0-41.0","A1IEW0TLXGL6HJ","","0","instructions","","","","","","","","","","","","","","","","","","","","","","","",""
"7605","","survey-likert","42","272083","0.0-42.0-0.0","A1IEW0TLXGL6HJ","","","","{""Q0"":"""",""Q1"":0,""Q2"":1}","","","","","","","","","","","","","","","","","","","","","","",""
"3499","","survey-text","43","275588","0.0-43.0-0.0","A1IEW0TLXGL6HJ","","","","{""Q0"":""rock""}","","","","","","","","","","","","","","","","","","","","","","",""
"10033","","survey-text","44","285623","0.0-44.0-0.0","A1IEW0TLXGL6HJ","","","","{""Q0"":""This is creepy""}","","","","","","","","","","","","","","","","","","","","","","",""
"5087.700000017881","","image-slider-response","45","290713","0.0-45.0","A1IEW0TLXGL6HJ","","","","","14","","","","","","","","","","","","","","","","","","","","","",""
"null","","image-button-response","46","295750","0.0-46.0","A1IEW0TLXGL6HJ","img_art/16.jpg","null","","","","","","","","","","","","","","","","","","","","","","","","",""
"2176","","image-button-response","47","297932","0.0-47.0","A1IEW0TLXGL6HJ","img_art/16.jpg","4","","","","","","","","","","","","","","","","","","","","","","","","",""
"5592","","image-button-response","48","303527","0.0-48.0-0.0","A1IEW0TLXGL6HJ","img_art/16.jpg","1","","","","","","","","","","","","","","","","","","","","","","","","",""
"5132","","image-button-response","49","308662","0.0-49.0-0.0","A1IEW0TLXGL6HJ","img_art/16.jpg","5","","","","","","","","","","","","","","","","","","","","","","","","",""
"null","","html-keyboard-response","50","310178","0.0-50.0","A1IEW0TLXGL6HJ","<p style=""font-size: 48px;"">+</p>","","","","","null","allTrialResponses","1500","1","1","img_art/16.jpg","14","This is creepy","Elizabeth,Alexandria,Savannah,Madison,Cheyenne,Leah","Picture seems unique,12,20,20","while simple, it seems to have a deeper meaning on childhood,33,80,20","A strange collage made by a child. Do not like the colored face of the bear.,-29,200,20","Pop art, Tate Modern horse dung.,-50,60,20","Cute but there's a lot going on.,7,200,20","Know it is a piece relating to children and gun violence. Sad,-30,360,20","Cheyenne","Cute but there's a lot going on.,7,200,20","Alexandria","while simple, it seems to have a deeper meaning on childhood,33,80,20","Leah","Know it is a piece relating to children and gun violence. Sad,-30,360,20","0"
"16641","","survey-text","51","326825","0.0-51.0-0.0","A1IEW0TLXGL6HJ","","","","{""Q0"":""The more I look at it, the more I discover""}","","","","","","","","","","","","","","","","","","","","","","",""
"4579.899999976158","","image-slider-response","52","331406","0.0-52.0","A1IEW0TLXGL6HJ","","","","","23","","","","","","","","","","","","","","","","","","","","","",""
"null","","image-button-response","53","336422","0.0-53.0","A1IEW0TLXGL6HJ","img_art/18.jpg","null","","","","","","","","","","","","","","","","","","","","","","","","",""
"4022","","image-button-response","54","340447","0.0-54.0","A1IEW0TLXGL6HJ","img_art/18.jpg","0","","","","","","","","","","","","","","","","","","","","","","","","",""
"4778","","image-button-response","55","345228","0.0-55.0-0.0","A1IEW0TLXGL6HJ","img_art/18.jpg","5","","","","","","","","","","","","","","","","","","","","","","","","",""
"5278","","image-button-response","56","350509","0.0-56.0-0.0","A1IEW0TLXGL6HJ","img_art/18.jpg","3","","","","","","","","","","","","","","","","","","","","","","","","",""
"null","","html-keyboard-response","57","351522","0.0-57.0","A1IEW0TLXGL6HJ","<p style=""font-size: 48px;"">+</p>","","","","","null","allTrialResponses","1000","1","2","img_art/18.jpg","23","The more I look at it, the more I discover","Brittany,Alexandria,Monica,Gabriela,Cheyenne,Leah","This is really interesting to look at. I like the colors and the spectral look.,27,40,20","the harsh lines with the smooth lines makes me think of wild animals,20,80,20","It doesn't look like much, the colors are dark and it doesn't really make me feel anything.,-2,360,20","It's possibly of a mermaid luring in a ship,15,140,20","Too abstract to me,-30,200,20","I really like it, like hells drivers,43,360,20","Brittany","This is really interesting to look at. I like the colors and the spectral look.,27,40,20","Leah","I really like it, like hells drivers,43,360,20","Gabriela","It's possibly of a mermaid luring in a ship,15,140,20","0"
"7629","","survey-text","58","359158","0.0-58.0-0.0","A1IEW0TLXGL6HJ","","","","{""Q0"":""It hurts my eyes""}","","","","","","","","","","","","","","","","","","","","","","",""
"3953.699999988079","","image-slider-response","59","363113","0.0-59.0","A1IEW0TLXGL6HJ","","","","","-36","","","","","","","","","","","","","","","","","","","","","",""
"null","","image-button-response","60","368117","0.0-60.0","A1IEW0TLXGL6HJ","img_art/15.jpg","null","","","","","","","","","","","","","","","","","","","","","","","","",""
"1661","","image-button-response","61","369782","0.0-61.0","A1IEW0TLXGL6HJ","img_art/15.jpg","2","","","","","","","","","","","","","","","","","","","","","","","","",""
"1636","","image-button-response","62","371421","0.0-62.0-0.0","A1IEW0TLXGL6HJ","img_art/15.jpg","0","","","","","","","","","","","","","","","","","","","","","","","","",""
"3206","","image-button-response","63","374631","0.0-63.0-0.0","A1IEW0TLXGL6HJ","img_art/15.jpg","4","","","","","","","","","","","","","","","","","","","","","","","","",""
"null","","html-keyboard-response","64","375639","0.0-64.0","A1IEW0TLXGL6HJ","<p style=""font-size: 48px;"">+</p>","","","","","null","allTrialResponses","1000","1","3","img_art/15.jpg","-36","It hurts my eyes","Brittany,Kaylee,Kaitlin,Gabriela,Angela,Leah","Color scheme and design are rather boring.,-10,40,20","some trees in the forest,15,200,20","This one seems a bit frightening,-19,60,20","it is dark and gloomy,-9,140,20","Interesting, but don't really like it. Gloomy.,-10,260,20","Pretty, like in a field of poppies,19,360,20","Kaitlin","This one seems a bit frightening,-19,60,20","Brittany","Color scheme and design are rather boring.,-10,40,20","Angela","Interesting, but don't really like it. Gloomy.,-10,260,20","0"
"38376","","survey-text","65","414020","0.0-65.0-0.0","A1IEW0TLXGL6HJ","","","","{""Q0"":""Reminds me of childhood picture books for some reason""}","","","","","","","","","","","","","","","","","","","","","","",""
"5080.800000011921","","image-slider-response","66","419102","0.0-66.0","A1IEW0TLXGL6HJ","","","","","7","","","","","","","","","","","","","","","","","","","","","",""
"null","","image-button-response","67","424113","0.0-67.0","A1IEW0TLXGL6HJ","img_art/6.jpg","null","","","","","","","","","","","","","","","","","","","","","","","","",""
"7276","","image-button-response","68","431391","0.0-68.0","A1IEW0TLXGL6HJ","img_art/6.jpg","0","","","","","","","","","","","","","","","","","","","","","","","","",""
"10003","","image-button-response","69","441397","0.0-69.0-0.0","A1IEW0TLXGL6HJ","img_art/6.jpg","4","","","","","","","","","","","","","","","","","","","","","","","","",""
"1732","","image-button-response","70","443133","0.0-70.0-0.0","A1IEW0TLXGL6HJ","img_art/6.jpg","5","","","","","","","","","","","","","","","","","","","","","","","","",""
"null","","html-keyboard-response","71","443636","0.0-71.0","A1IEW0TLXGL6HJ","<p style=""font-size: 48px;"">+</p>","","","","","null","allTrialResponses","500","1","4","img_art/6.jpg","7","Reminds me of childhood picture books for some reason","Brittany,Madeline,Kaitlin,Alexandra,Angela,Christina","It's alright. I imagined the peach from James and the Giant Peach.,1,40,20","Looks a bit like a pickle or something?,-16,40,20","This one also confuses me a bit.,-19,60,20","this is interesting and unique,11,60,20","I like the orange color, and I don't know why but I like this piece.,22,260,20","i like the simplicity of the tree and the colors,50,240,20","Brittany","It's alright. I imagined the peach from James and the Giant Peach.,1,40,20","Angela","I like the orange color, and I don't know why but I like this piece.,22,260,20","Christina","i like the simplicity of the tree and the colors,50,240,20","0"
"12921","","survey-text","72","456564","0.0-72.0-0.0","A1IEW0TLXGL6HJ","","","","{""Q0"":""Looks like 70's dancers to me""}","","","","","","","","","","","","","","","","","","","","","","",""
"4037.5","","image-slider-response","73","460604","0.0-73.0","A1IEW0TLXGL6HJ","","","","","12","","","","","","","","","","","","","","","","","","","","","",""
"null","","image-button-response","74","465619","0.0-74.0","A1IEW0TLXGL6HJ","img_art/23.jpg","null","","","","","","","","","","","","","","","","","","","","","","","","",""
"7461","","image-button-response","75","473083","0.0-75.0","A1IEW0TLXGL6HJ","img_art/23.jpg","0","","","","","","","","","","","","","","","","","","","","","","","","",""
"1064","","image-button-response","76","474150","0.0-76.0-0.0","A1IEW0TLXGL6HJ","img_art/23.jpg","1","","","","","","","","","","","","","","","","","","","","","","","","",""
"602","","image-button-response","77","474755","0.0-77.0-0.0","A1IEW0TLXGL6HJ","img_art/23.jpg","5","","","","","","","","","","","","","","","","","","","","","","","","",""
"null","","html-keyboard-response","78","475257","0.0-78.0","A1IEW0TLXGL6HJ","<p style=""font-size: 48px;"">+</p>","","","","","null","allTrialResponses","500","1","5","img_art/23.jpg","12","Looks like 70's dancers to me","Brittany,Mackenzie,Lindsey,Margaret,Angela,Christina","The white paint through the middle really draws the eye.,30,40,20","The usage of color is great, but not my style.,-15,20,20","Too much contrasting colors together. I hate it.,-50,400,20","white reminds me of screamo music band tshirts when they have their name in the unreadable lettering,-9,100,20","Like the background colors and the energy, but the white bits ruin it for me,-7,260,20","nice bright colors but looks like it's from the 90's,6,240,20","Brittany","The white paint through the middle really draws the eye.,30,40,20","Mackenzie","The usage of color is great, but not my style.,-15,20,20","Christina","nice bright colors but looks like it's from the 90's,6,240,20","0"
"2736","","survey-text","79","478001","0.0-79.0-0.0","A1IEW0TLXGL6HJ","","","","{""Q0"":""sky""}","","","","","","","","","","","","","","","","","","","","","","",""
"13990","","survey-text","80","491994","0.0-80.0-0.0","A1IEW0TLXGL6HJ","","","","{""Q0"":""Such a pretty watercolor tree!""}","","","","","","","","","","","","","","","","","","","","","","",""
"3799.399999976158","","image-slider-response","81","495796","0.0-81.0","A1IEW0TLXGL6HJ","","","","","28","","","","","","","","","","","","","","","","","","","","","",""
"null","","image-button-response","82","500800","0.0-82.0","A1IEW0TLXGL6HJ","img_art/14.jpg","null","","","","","","","","","","","","","","","","","","","","","","","","",""
"1147","","image-button-response","83","501950","0.0-83.0","A1IEW0TLXGL6HJ","img_art/14.jpg","0","","","","","","","","","","","","","","","","","","","","","","","","",""
"1006","","image-button-response","84","502959","0.0-84.0-0.0","A1IEW0TLXGL6HJ","img_art/14.jpg","1","","","","","","","","","","","","","","","","","","","","","","","","",""
"1740","","image-button-response","85","504701","0.0-85.0-0.0","A1IEW0TLXGL6HJ","img_art/14.jpg","5","","","","","","","","","","","","","","","","","","","","","","","","",""
"null","","html-keyboard-response","86","505203","0.0-86.0","A1IEW0TLXGL6HJ","<p style=""font-size: 48px;"">+</p>","","","","","null","allTrialResponses","500","1","6","img_art/14.jpg","28","Such a pretty watercolor tree!","Brittany,Mackenzie,Kylie,Alexa,Alexis,Christina","The colors are good and the design is intriguing.,15,40,20","I like the combination of colors and textures.,35,20,20","Confusion or an explosion,40,300,20","Very abstract and colorful,40,40,20","Don't like the colors on this. Too simple,-20,100,20","has a tree look to it and it's colors are happy,9,240,20","Brittany","The colors are good and the design is intriguing.,15,40,20","Mackenzie","I like the combination of colors and textures.,35,20,20","Christina","has a tree look to it and it's colors are happy,9,240,20","0"
"21196","","survey-text","87","526407","0.0-87.0-0.0","A1IEW0TLXGL6HJ","","","","{""Q0"":""The colors look flat and like a child painted it""}","","","","","","","","","","","","","","","","","","","","","","",""
"4818.800000011921","","image-slider-response","88","531228","0.0-88.0","A1IEW0TLXGL6HJ","","","","","-27","","","","","","","","","","","","","","","","","","","","","",""
"null","","image-button-response","89","536233","0.0-89.0","A1IEW0TLXGL6HJ","img_art/2.jpg","null","","","","","","","","","","","","","","","","","","","","","","","","",""
"4350","","image-button-response","90","540587","0.0-90.0","A1IEW0TLXGL6HJ","img_art/2.jpg","0","","","","","","","","","","","","","","","","","","","","","","","","",""
"518","","image-button-response","91","541108","0.0-91.0-0.0","A1IEW0TLXGL6HJ","img_art/2.jpg","1","","","","","","","","","","","","","","","","","","","","","","","","",""
"1246","","image-button-response","92","542357","0.0-92.0-0.0","A1IEW0TLXGL6HJ","img_art/2.jpg","5","","","","","","","","","","","","","","","","","","","","","","","","",""
"null","","html-keyboard-response","93","542859","0.0-93.0","A1IEW0TLXGL6HJ","<p style=""font-size: 48px;"">+</p>","","","","","null","allTrialResponses","500","1","7","img_art/2.jpg","-27","The colors look flat and like a child painted it","Brittany,Mackenzie,Jasmine,Chelsea,Rebecca,Christina","This one feels rather flat and not engaging.,-15,40,20","Muted green is overpowering,-10,20,20","Color picks are a bad mesh with each other,-17,340,20","Not sure what is happening. I'm not a big fan of the colors but they don't bother me either.,1,180,20","do not understand,-21,100,20","It looks like a little kids primary color picture,3,240,20","Brittany","This one feels rather flat and not engaging.,-15,40,20","Mackenzie","Muted green is overpowering,-10,20,20","Christina","It looks like a little kids primary color picture,3,240,20","0"
"12361","","survey-text","94","555226","0.0-94.0-0.0","A1IEW0TLXGL6HJ","","","","{""Q0"":""Interesting lines""}","","","","","","","","","","","","","","","","","","","","","","",""
"3633.2999999821186","","image-slider-response","95","558862","0.0-95.0","A1IEW0TLXGL6HJ","","","","","24","","","","","","","","","","","","","","","","","","","","","",""
"null","","image-button-response","96","563878","0.0-96.0","A1IEW0TLXGL6HJ","img_art/25.jpg","null","","","","","","","","","","","","","","","","","","","","","","","","",""
"7220","","image-button-response","97","571100","0.0-97.0","A1IEW0TLXGL6HJ","img_art/25.jpg","3","","","","","","","","","","","","","","","","","","","","","","","","",""
"933","","image-button-response","98","572037","0.0-98.0-0.0","A1IEW0TLXGL6HJ","img_art/25.jpg","3","","","","","","","","","","","","","","","","","","","","","","","","",""
"6200","","image-button-response","99","581714","0.0-98.1-0.1","A1IEW0TLXGL6HJ","img_art/25.jpg","2","","","","","","","","","","","","","","","","","","","","","","","","",""
"1204","","image-button-response","100","582921","0.0-99.0-0.0","A1IEW0TLXGL6HJ","img_art/25.jpg","0","","","","","","","","","","","","","","","","","","","","","","","","",""
"null","","html-keyboard-response","101","583432","0.0-100.0","A1IEW0TLXGL6HJ","<p style=""font-size: 48px;"">+</p>","","","","","null","allTrialResponses","500","1","8","img_art/25.jpg","24","Interesting lines","Brittany,Mackenzie,Megan,Destiny,Brooke,Christina","It's a rather intriguing design,12,40,20","Very nice color contrast and design.,40,20,20","Beautiful color with an interesting otherworldly figure,29,200,20","creeeeeppyyyyyyy but mad cool,-26,360,20","Like the color, but what is that thing.,-10,60,20","nice colors and it looks like a native work,32,240,20","Destiny","creeeeeppyyyyyyy but mad cool,-26,360,20","Megan","Beautiful color with an interesting otherworldly figure,29,200,20","Brittany","It's a rather intriguing design,12,40,20","2"
"10318","","survey-text","102","593755","0.0-101.0-0.0","A1IEW0TLXGL6HJ","","","","{""Q0"":""Makes me dizzy""}","","","","","","","","","","","","","","","","","","","","","","",""
"7738.0999999940395","","image-slider-response","103","601496","0.0-102.0","A1IEW0TLXGL6HJ","","","","","7","","","","","","","","","","","","","","","","","","","","","",""
"null","","image-button-response","104","606512","0.0-103.0","A1IEW0TLXGL6HJ","img_art/12.jpg","null","","","","","","","","","","","","","","","","","","","","","","","","",""
"3689","","image-button-response","105","610203","0.0-104.0","A1IEW0TLXGL6HJ","img_art/12.jpg","1","","","","","","","","","","","","","","","","","","","","","","","","",""
"1163","","image-button-response","106","611369","0.0-105.0-0.0","A1IEW0TLXGL6HJ","img_art/12.jpg","5","","","","","","","","","","","","","","","","","","","","","","","","",""
"9422","","image-button-response","107","620793","0.0-106.0-0.0","A1IEW0TLXGL6HJ","img_art/12.jpg","4","","","","","","","","","","","","","","","","","","","","","","","","",""
"null","","html-keyboard-response","108","621296","0.0-107.0","A1IEW0TLXGL6HJ","<p style=""font-size: 48px;"">+</p>","","","","","null","allTrialResponses","500","1","9","img_art/12.jpg","7","Makes me dizzy","Brittany,Erin,Megan,Destiny,Michaela,Abigail","Too blocky and not interesting enough.,-15,40,20","City scape but palette is odd,4,120,20","Blocky windowed, safe and selfish,-41,200,20","giving me major endless summer vibes,26,360,20","It looks like old lady upholstery,12,260,20","Made me uncomfortable, reminded me of the 90s,-9,20,20","Erin","City scape but palette is odd,4,120,20","Abigail","Made me uncomfortable, reminded me of the 90s,-9,20,20","Michaela","It looks like old lady upholstery,12,260,20","2"
"33584","","survey-text","109","654883","0.0-108.0-0.0","A1IEW0TLXGL6HJ","","","","{""Q0"":""Reminds me of pictures in science textbooks""}","","","","","","","","","","","","","","","","","","","","","","",""
"4259.4000000059605","","image-slider-response","110","659145","0.0-109.0","A1IEW0TLXGL6HJ","","","","","-10","","","","","","","","","","","","","","","","","","","","","",""
"null","","image-button-response","111","664147","0.0-110.0","A1IEW0TLXGL6HJ","img_art/7.jpg","null","","","","","","","","","","","","","","","","","","","","","","","","",""
"1152","","image-button-response","112","665302","0.0-111.0","A1IEW0TLXGL6HJ","img_art/7.jpg","2","","","","","","","","","","","","","","","","","","","","","","","","",""
"5542","","image-button-response","113","670848","0.0-112.0-0.0","A1IEW0TLXGL6HJ","img_art/7.jpg","0","","","","","","","","","","","","","","","","","","","","","","","","",""
"2629","","image-button-response","114","673482","0.0-113.0-0.0","A1IEW0TLXGL6HJ","img_art/7.jpg","5","","","","","","","","","","","","","","","","","","","","","","","","",""
"null","","html-keyboard-response","115","674491","0.0-114.0","A1IEW0TLXGL6HJ","<p style=""font-size: 48px;"">+</p>","","","","","null","allTrialResponses","1000","1","10","img_art/7.jpg","-10","Reminds me of pictures in science textbooks","Leslie,Erin,Claire,Melissa,Michaela,Abigail","This elicits no reaction in me.,0,380,20","Color is bland and looks damaged,-37,120,20","reminds me of a cave wall,-21,260,20","textures are engaging,8,240,20","It looks like maybe some seeds?,14,260,20","Looks like a skin disease,-31,20,20","Claire","reminds me of a cave wall,-21,260,20","Leslie","This elicits no reaction in me.,0,380,20","Abigail","Looks like a skin disease,-31,20,20","2"
"3272","","survey-text","116","677772","0.0-115.0-0.0","A1IEW0TLXGL6HJ","","","","{""Q0"":""our""}","","","","","","","","","","","","","","","","","","","","","","",""
"17209","","survey-text","117","694982","0.0-116.0-0.0","A1IEW0TLXGL6HJ","","","","{""Q0"":""Abstract violin""}","","","","","","","","","","","","","","","","","","","","","","",""
"4174.899999976158","","image-slider-response","118","699159","0.0-117.0","A1IEW0TLXGL6HJ","","","","","12","","","","","","","","","","","","","","","","","","","","","",""
"null","","image-button-response","119","704164","0.0-118.0","A1IEW0TLXGL6HJ","img_art/10.jpg","null","","","","","","","","","","","","","","","","","","","","","","","","",""
"1914","","image-button-response","120","706081","0.0-119.0","A1IEW0TLXGL6HJ","img_art/10.jpg","3","","","","","","","","","","","","","","","","","","","","","","","","",""
"1623","","image-button-response","121","707707","0.0-120.0-0.0","A1IEW0TLXGL6HJ","img_art/10.jpg","2","","","","","","","","","","","","","","","","","","","","","","","","",""
"1376","","image-button-response","122","709085","0.0-121.0-0.0","A1IEW0TLXGL6HJ","img_art/10.jpg","1","","","","","","","","","","","","","","","","","","","","","","","","",""
"null","","html-keyboard-response","123","709588","0.0-122.0","A1IEW0TLXGL6HJ","<p style=""font-size: 48px;"">+</p>","","","","","null","allTrialResponses","500","1","11","img_art/10.jpg","12","Abstract violin","Leslie,Morgan,Claire,Heather,Amanda,Abigail","I love the chaotic feel of the brush strokes.,35,380,20","Roller coaster on an island.,9,380,20","it looks very musical,24,260,20","for some reason reminds me of music,2,260,20","Reminds me of a beautiful ship wreck,36,180,20","Looks gross and messy,-39,20,20","Heather","for some reason reminds me of music,2,260,20","Claire","it looks very musical,24,260,20","Morgan","Roller coaster on an island.,9,380,20","2"
"9583","","survey-text","124","719175","0.0-123.0-0.0","A1IEW0TLXGL6HJ","","","","{""Q0"":""Such a pretty waterfall!""}","","","","","","","","","","","","","","","","","","","","","","",""
"4380.800000011921","","image-slider-response","125","723558","0.0-124.0","A1IEW0TLXGL6HJ","","","","","34","","","","","","","","","","","","","","","","","","","","","",""
"null","","image-button-response","126","728570","0.0-125.0","A1IEW0TLXGL6HJ","img_art/24.jpg","null","","","","","","","","","","","","","","","","","","","","","","","","",""
"952","","image-button-response","127","729526","0.0-126.0","A1IEW0TLXGL6HJ","img_art/24.jpg","3","","","","","","","","","","","","","","","","","","","","","","","","",""
"1432","","image-button-response","128","730960","0.0-127.0-0.0","A1IEW0TLXGL6HJ","img_art/24.jpg","4","","","","","","","","","","","","","","","","","","","","","","","","",""
"2813","","image-button-response","129","733777","0.0-128.0-0.0","A1IEW0TLXGL6HJ","img_art/24.jpg","2","","","","","","","","","","","","","","","","","","","","","","","","",""
"null","","html-keyboard-response","130","735291","0.0-129.0","A1IEW0TLXGL6HJ","<p style=""font-size: 48px;"">+</p>","","","","","null","allTrialResponses","1500","1","12","img_art/24.jpg","34","Such a pretty waterfall!","Alicia,Morgan,Claire,Heather,Sierra,Cassandra","Nature, abstract, I'd hang this in my house.,37,120,20","Water through the fruit.,15,380,20","reminds me of a beautiful waterfall,50,260,20","i feel peace and wanting. i love waterfalls,50,260,20","i like that the water seems in motion,6,260,20","I like it...looks like a waterfall.,11,120,20","Heather","i feel peace and wanting. i love waterfalls,50,260,20","Sierra","i like that the water seems in motion,6,260,20","Claire","reminds me of a beautiful waterfall,50,260,20","2"
"24246","","survey-text","131","759545","0.0-130.0-0.0","A1IEW0TLXGL6HJ","","","","{""Q0"":""I don't know what's going on here, but I like the lines""}","","","","","","","","","","","","","","","","","","","","","","",""
"3694.800000011921","","image-slider-response","132","763243","0.0-131.0","A1IEW0TLXGL6HJ","","","","","21","","","","","","","","","","","","","","","","","","","","","",""
"null","","image-button-response","133","768256","0.0-132.0","A1IEW0TLXGL6HJ","img_art/17.jpg","null","","","","","","","","","","","","","","","","","","","","","","","","",""
"4193","","image-button-response","134","772451","0.0-133.0","A1IEW0TLXGL6HJ","img_art/17.jpg","1","","","","","","","","","","","","","","","","","","","","","","","","",""
"941","","image-button-response","135","773396","0.0-134.0-0.0","A1IEW0TLXGL6HJ","img_art/17.jpg","2","","","","","","","","","","","","","","","","","","","","","","","","",""
"4413","","image-button-response","136","777814","0.0-135.0-0.0","A1IEW0TLXGL6HJ","img_art/17.jpg","4","","","","","","","","","","","","","","","","","","","","","","","","",""
"null","","html-keyboard-response","137","778324","0.0-136.0","A1IEW0TLXGL6HJ","<p style=""font-size: 48px;"">+</p>","","","","","null","allTrialResponses","500","1","13","img_art/17.jpg","21","I don't know what's going on here, but I like the lines","Julia,Sarah,Claire,Heather,Sierra,Haley","I'm not into paintings of trees,-18,40,20","i like the delicate wispy part, but overall i don't love it,10,180,20","its whimsical and light,50,260,20","Beautiful simply beautiful. i would love this,,50,260,20","the colors, the arch and the wall,15,260,20","Colors and composition are beautiful. I would hang this in my home.,50,220,20","Sarah","i like the delicate wispy part, but overall i don't love it,10,180,20","Claire","its whimsical and light,50,260,20","Sierra","the colors, the arch and the wall,15,260,20","2"
"18952","","survey-text","138","797282","0.0-137.0-0.0","A1IEW0TLXGL6HJ","","","","{""Q0"":""I see an abstract city scene""}","","","","","","","","","","","","","","","","","","","","","","",""
"5959.800000011921","","image-slider-response","139","803244","0.0-138.0","A1IEW0TLXGL6HJ","","","","","16","","","","","","","","","","","","","","","","","","","","","",""
"null","","image-button-response","140","808250","0.0-139.0","A1IEW0TLXGL6HJ","img_art/19.jpg","null","","","","","","","","","","","","","","","","","","","","","","","","",""
"165","","image-button-response","141","808417","0.0-140.0","A1IEW0TLXGL6HJ","img_art/19.jpg","3","","","","","","","","","","","","","","","","","","","","","","","","",""
"1053","","image-button-response","142","809473","0.0-141.0-0.0","A1IEW0TLXGL6HJ","img_art/19.jpg","0","","","","","","","","","","","","","","","","","","","","","","","","",""
"1804","","image-button-response","143","811281","0.0-142.0-0.0","A1IEW0TLXGL6HJ","img_art/19.jpg","5","","","","","","","","","","","","","","","","","","","","","","","","",""
"null","","html-keyboard-response","144","811782","0.0-143.0","A1IEW0TLXGL6HJ","<p style=""font-size: 48px;"">+</p>","","","","","null","allTrialResponses","500","1","14","img_art/19.jpg","16","I see an abstract city scene","Taylor,Sarah,Claire,Olivia,Sierra,Rachel","It reminds me of sitting at a cafe on the side of a river.,45,340,20","too much of a mix of lines and shading,-22,180,20","way too much going on,-33,260,20","city life energy,8,40,20","green and orange are my favorite colors.  this cityscape feels warm,34,260,20","Reminds me of a busy town. Chaotic in nature.,-11,80,20","Olivia","city life energy,8,40,20","Taylor","It reminds me of sitting at a cafe on the side of a river.,45,340,20","Rachel","Reminds me of a busy town. Chaotic in nature.,-11,80,20","2"
"36287","","survey-text","145","848081","0.0-144.0-0.0","A1IEW0TLXGL6HJ","","","","{""Q0"":""What the heck? Looks like a total mess""}","","","","","","","","","","","","","","","","","","","","","","",""
"5894.5999999940395","","image-slider-response","146","853978","0.0-145.0","A1IEW0TLXGL6HJ","","","","","-50","","","","","","","","","","","","","","","","","","","","","",""
"null","","image-button-response","147","858981","0.0-146.0","A1IEW0TLXGL6HJ","img_art/29.jpg","null","","","","","","","","","","","","","","","","","","","","","","","","",""
"2767","","image-button-response","148","861751","0.0-147.0","A1IEW0TLXGL6HJ","img_art/29.jpg","4","","","","","","","","","","","","","","","","","","","","","","","","",""
"3614","","image-button-response","149","865367","0.0-148.0-0.0","A1IEW0TLXGL6HJ","img_art/29.jpg","1","","","","","","","","","","","","","","","","","","","","","","","","",""
"2418","","image-button-response","150","867786","0.0-149.0-0.0","A1IEW0TLXGL6HJ","img_art/29.jpg","2","","","","","","","","","","","","","","","","","","","","","","","","",""
"null","","html-keyboard-response","151","868800","0.0-150.0","A1IEW0TLXGL6HJ","<p style=""font-size: 48px;"">+</p>","","","","","null","allTrialResponses","1000","1","15","img_art/29.jpg","-50","What the heck? Looks like a total mess","Taylor,Jacqueline,Vanessa,Olivia,Kayla,Rachel","It seems like there's anger in the painting.,-20,340,20","This is ugly as fuck,-50,300,20","I hate the red x over everything, hate the black hate how hopeless this is.,-50,380,20","too challenging to comprehend,-28,40,20","It looks like graffiti in a subway tunnel- destruction.,-20,180,20","It looks like someone did not like their art and drew an x over it.,-32,80,20","Kayla","It looks like graffiti in a subway tunnel- destruction.,-20,180,20","Jacqueline","This is ugly as fuck,-50,300,20","Vanessa","I hate the red x over everything, hate the black hate how hopeless this is.,-50,380,20","2"
"3887","","survey-text","152","872695","0.0-151.0-0.0","A1IEW0TLXGL6HJ","","","","{""Q0"":""course""}","","","","","","","","","","","","","","","","","","","","","","",""
"16478","","survey-text","153","889175","0.0-152.0-0.0","A1IEW0TLXGL6HJ","","","","{""Q0"":""Bland and the colors are flat""}","","","","","","","","","","","","","","","","","","","","","","",""
"5993.5999999940395","","image-slider-response","154","895170","0.0-153.0","A1IEW0TLXGL6HJ","","","","","-27","","","","","","","","","","","","","","","","","","","","","",""
"null","","image-button-response","155","900176","0.0-154.0","A1IEW0TLXGL6HJ","img_art/27.jpg","null","","","","","","","","","","","","","","","","","","","","","","","","",""
"4536","","image-button-response","156","904715","0.0-155.0","A1IEW0TLXGL6HJ","img_art/27.jpg","3","","","","","","","","","","","","","","","","","","","","","","","","",""
"2079","","image-button-response","157","906798","0.0-156.0-0.0","A1IEW0TLXGL6HJ","img_art/27.jpg","1","","","","","","","","","","","","","","","","","","","","","","","","",""
"7123","","image-button-response","158","913926","0.0-157.0-0.0","A1IEW0TLXGL6HJ","img_art/27.jpg","2","","","","","","","","","","","","","","","","","","","","","","","","",""
"null","","html-keyboard-response","159","914430","0.0-158.0","A1IEW0TLXGL6HJ","<p style=""font-size: 48px;"">+</p>","","","","","null","allTrialResponses","500","1","16","img_art/27.jpg","-27","Bland and the colors are flat","Samantha,Jacqueline,Vanessa,Jennifer,Kayla,Katie","I like all it has going but i wouldnt put it in my house unless my child did it,25,140,20","I don't really see anything to this art.,-5,300,20","Colors make me think of fall, but I don't like how the picture was done or the weird lines across the background,6,380,20","Somewhat boring piece,-3,380,20","Don't know what it is, but I do like it.,10,180,20","Fire, explosion. Red/orange colors are fire/explosion. White is smoke. Makes me worried/scared/anxious,-20,160,20","Jennifer","Somewhat boring piece,-3,380,20","Jacqueline","I don't really see anything to this art.,-5,300,20","Vanessa","Colors make me think of fall, but I don't like how the picture was done or the weird lines across the background,6,380,20","2"
"13218","","survey-text","160","927655","0.0-159.0-0.0","A1IEW0TLXGL6HJ","","","","{""Q0"":""Looks like a child's crayon scribbling""}","","","","","","","","","","","","","","","","","","","","","","",""
"11070.09999999404","","image-slider-response","161","938727","0.0-160.0","A1IEW0TLXGL6HJ","","","","","-50","","","","","","","","","","","","","","","","","","","","","",""
"null","","image-button-response","162","943732","0.0-161.0","A1IEW0TLXGL6HJ","img_art/3.jpg","null","","","","","","","","","","","","","","","","","","","","","","","","",""
"118","","image-button-response","163","943853","0.0-162.0","A1IEW0TLXGL6HJ","img_art/3.jpg","3","","","","","","","","","","","","","","","","","","","","","","","","",""
"1569","","image-button-response","164","945424","0.0-163.0-0.0","A1IEW0TLXGL6HJ","img_art/3.jpg","2","","","","","","","","","","","","","","","","","","","","","","","","",""
"3090","","image-button-response","165","948517","0.0-164.0-0.0","A1IEW0TLXGL6HJ","img_art/3.jpg","5","","","","","","","","","","","","","","","","","","","","","","","","",""
"null","","html-keyboard-response","166","950034","0.0-165.0","A1IEW0TLXGL6HJ","<p style=""font-size: 48px;"">+</p>","","","","","null","allTrialResponses","1500","1","17","img_art/3.jpg","-50","Looks like a child's crayon scribbling","Briana,Jacqueline,Vanessa,Jennifer,Cynthia,Alyssa","Sharp peaks look like sharp teeth,-37,400,20","Looks like a bloody head with teeth.,-16,300,20","It makes me think of just an angry scribble. There's no beauty to it for me.,-50,380,20","This looks like something a child created in 5 minutes.,-50,380,20","This makes me feel vulnerable,-32,320,20","Looks like someone spilled ketchup and forgot to clean it up,-30,160,20","Jennifer","This looks like something a child created in 5 minutes.,-50,380,20","Vanessa","It makes me think of just an angry scribble. There's no beauty to it for me.,-50,380,20","Alyssa","Looks like someone spilled ketchup and forgot to clean it up,-30,160,20","2"
"18131","","survey-text","167","968171","0.0-166.0-0.0","A1IEW0TLXGL6HJ","","","","{""Q0"":""Basic, simple watercolor. Don't love it or hate it""}","","","","","","","","","","","","","","","","","","","","","","",""
"4415.800000011921","","image-slider-response","168","972589","0.0-167.0","A1IEW0TLXGL6HJ","","","","","7","","","","","","","","","","","","","","","","","","","","","",""
"null","","image-button-response","169","977597","0.0-168.0","A1IEW0TLXGL6HJ","img_art/26.jpg","null","","","","","","","","","","","","","","","","","","","","","","","","",""
"3737","","image-button-response","170","981337","0.0-169.0","A1IEW0TLXGL6HJ","img_art/26.jpg","0","","","","","","","","","","","","","","","","","","","","","","","","",""
"5836","","image-button-response","171","987175","0.0-170.0-0.0","A1IEW0TLXGL6HJ","img_art/26.jpg","5","","","","","","","","","","","","","","","","","","","","","","","","",""
"2790","","image-button-response","172","989968","0.0-171.0-0.0","A1IEW0TLXGL6HJ","img_art/26.jpg","1","","","","","","","","","","","","","","","","","","","","","","","","",""
"null","","html-keyboard-response","173","990471","0.0-172.0","A1IEW0TLXGL6HJ","<p style=""font-size: 48px;"">+</p>","","","","","null","allTrialResponses","500","1","18","img_art/26.jpg","7","Basic, simple watercolor. Don't love it or hate it","Sophia,Erica,Vanessa,Jennifer,Sara,Alyssa","I like this. Looks like a city street and I can use my imagination to make it come alive.,15,280,20","very relaxing and easy going,22,80,20","Something I'd see in a thrift store. It looks like not much effort was used to paint this.,9,380,20","This picture doesn't really stand out.,0,380,20","I can somewhat city a city in this drawing,11,160,20","Its pretty.And a nice use of water colors.,25,160,20","Sophia","I like this. Looks like a city street and I can use my imagination to make it come alive.,15,280,20","Alyssa","Its pretty.And a nice use of water colors.,25,160,20","Erica","very relaxing and easy going,22,80,20","2"
"8428","","survey-text","174","998903","0.0-173.0-0.0","A1IEW0TLXGL6HJ","","","","{""Q0"":""I can see a woman in this""}","","","","","","","","","","","","","","","","","","","","","","",""
"3592.0999999940395","","image-slider-response","175","1002498","0.0-174.0","A1IEW0TLXGL6HJ","","","","","26","","","","","","","","","","","","","","","","","","","","","",""
"null","","image-button-response","176","1007504","0.0-175.0","A1IEW0TLXGL6HJ","img_art/9.jpg","null","","","","","","","","","","","","","","","","","","","","","","","","",""
"3620","","image-button-response","177","1011128","0.0-176.0","A1IEW0TLXGL6HJ","img_art/9.jpg","1","","","","","","","","","","","","","","","","","","","","","","","","",""
"1477","","image-button-response","178","1012610","0.0-177.0-0.0","A1IEW0TLXGL6HJ","img_art/9.jpg","4","","","","","","","","","","","","","","","","","","","","","","","","",""
"1141","","image-button-response","179","1013754","0.0-178.0-0.0","A1IEW0TLXGL6HJ","img_art/9.jpg","2","","","","","","","","","","","","","","","","","","","","","","","","",""
"null","","html-keyboard-response","180","1015258","0.0-179.0","A1IEW0TLXGL6HJ","<p style=""font-size: 48px;"">+</p>","","","","","null","allTrialResponses","1500","1","19","img_art/9.jpg","26","I can see a woman in this","Sophia,Erica,Cassidy,Jordan,Katherine,Alyssa","Yikes. I'm not sure what to make of this one.,-14,280,20","Looks very relaxing; someone laying in a meadow,13,80,20","The colors are okay, but this looks like someone scribbled with a crayon,1,140,20","I just dont like it, no reaction from me at all,-50,20,20","Idk what is in the middle but the blurry image makes it seem like the subject is of the painters interest,22,120,20","Unpleasant, alot of dark colors and strange lines,-26,160,20","Erica","Looks very relaxing; someone laying in a meadow,13,80,20","Katherine","Idk what is in the middle but the blurry image makes it seem like the subject is of the painters interest,22,120,20","Cassidy","The colors are okay, but this looks like someone scribbled with a crayon,1,140,20","2"
"9527","","survey-text","181","1024797","0.0-180.0-0.0","A1IEW0TLXGL6HJ","","","","{""Q0"":""Scares me for some reason""}","","","","","","","","","","","","","","","","","","","","","","",""
"3624.300000011921","","image-slider-response","182","1028425","0.0-181.0","A1IEW0TLXGL6HJ","","","","","-30","","","","","","","","","","","","","","","","","","","","","",""
"null","","image-button-response","183","1033440","0.0-182.0","A1IEW0TLXGL6HJ","img_art/20.jpg","null","","","","","","","","","","","","","","","","","","","","","","","","",""
"3239","","image-button-response","184","1036680","0.0-183.0","A1IEW0TLXGL6HJ","img_art/20.jpg","0","","","","","","","","","","","","","","","","","","","","","","","","",""
"4472","","image-button-response","185","1041155","0.0-184.0-0.0","A1IEW0TLXGL6HJ","img_art/20.jpg","5","","","","","","","","","","","","","","","","","","","","","","","","",""
"5394","","image-button-response","186","1046553","0.0-185.0-0.0","A1IEW0TLXGL6HJ","img_art/20.jpg","2","","","","","","","","","","","","","","","","","","","","","","","","",""
"null","","html-keyboard-response","187","1047055","0.0-186.0","A1IEW0TLXGL6HJ","<p style=""font-size: 48px;"">+</p>","","","","","null","allTrialResponses","500","1","20","img_art/20.jpg","-30","Scares me for some reason","Sabrina,Erica,Cassidy,Victoria,Katherine,Miranda","I love the way it expresses dark nature and uncontrolled situations.,44,120,20","looks like an auto accident,-30,80,20","sort of pleasant to look at, but can't tell if it's supposed to be something,13,140,20","like the colors and desert feel,7,400,20","More dark colors and blurry objects.,13,120,20","A painting within a painting, the inner painting looks like a car crash with a semi truck.,21,320,20","Sabrina","I love the way it expresses dark nature and uncontrolled situations.,44,120,20","Miranda","A painting within a painting, the inner painting looks like a car crash with a semi truck.,21,320,20","Cassidy","sort of pleasant to look at, but can't tell if it's supposed to be something,13,140,20","2"
"2233","","survey-text","188","1049295","0.0-187.0-0.0","A1IEW0TLXGL6HJ","","","","{""Q0"":""we""}","","","","","","","","","","","","","","","","","","","","","","",""
"12620","","survey-text","189","1061916","0.0-188.0-0.0","A1IEW0TLXGL6HJ","","","","{""Q0"":""creepy french fry fingers""}","","","","","","","","","","","","","","","","","","","","","","",""
"4476.5","","image-slider-response","190","1066396","0.0-189.0","A1IEW0TLXGL6HJ","","","","","-50","","","","","","","","","","","","","","","","","","","","","",""
"null","","image-button-response","191","1071414","0.0-190.0","A1IEW0TLXGL6HJ","img_art/4.jpg","null","","","","","","","","","","","","","","","","","","","","","","","","",""
"2435","","image-button-response","192","1073853","0.0-191.0","A1IEW0TLXGL6HJ","img_art/4.jpg","1","","","","","","","","","","","","","","","","","","","","","","","","",""
"689","","image-button-response","193","1074545","0.0-192.0-0.0","A1IEW0TLXGL6HJ","img_art/4.jpg","0","","","","","","","","","","","","","","","","","","","","","","","","",""
"1446","","image-button-response","194","1075993","0.0-193.0-0.0","A1IEW0TLXGL6HJ","img_art/4.jpg","3","","","","","","","","","","","","","","","","","","","","","","","","",""
"null","","html-keyboard-response","195","1076995","0.0-194.0","A1IEW0TLXGL6HJ","<p style=""font-size: 48px;"">+</p>","","","","","null","allTrialResponses","1000","1","21","img_art/4.jpg","-50","creepy french fry fingers","Sabrina,Allison,Cassidy,Amy,Diana,Miranda","Its just not giving the vibe i should be finding,-31,120,20","McDonald's French Fries.,-10,140,20","Hate the color, and just do not get the point.,-13,140,20","disturbing and uncomfortable.,10,220,20","Odd but intriguing. I feel emotion from this. Like a woman bent over carrying these emotions on her back.,33,380,20","I just don't understand this one at all, I do not like it,-43,320,20","Allison","McDonald's French Fries.,-10,140,20","Sabrina","Its just not giving the vibe i should be finding,-31,120,20","Amy","disturbing and uncomfortable.,10,220,20","2"
"10105","","survey-text","196","1087107","0.0-195.0-0.0","A1IEW0TLXGL6HJ","","","","{""Q0"":""Looks like no effort was put in""}","","","","","","","","","","","","","","","","","","","","","","",""
"5327.9000000059605","","image-slider-response","197","1092437","0.0-196.0","A1IEW0TLXGL6HJ","","","","","-27","","","","","","","","","","","","","","","","","","","","","",""
"null","","image-button-response","198","1097441","0.0-197.0","A1IEW0TLXGL6HJ","img_art/30.jpg","null","","","","","","","","","","","","","","","","","","","","","","","","",""
"3786","","image-button-response","199","1101230","0.0-198.0","A1IEW0TLXGL6HJ","img_art/30.jpg","3","","","","","","","","","","","","","","","","","","","","","","","","",""
"10481","","image-button-response","200","1111717","0.0-199.0-0.0","A1IEW0TLXGL6HJ","img_art/30.jpg","0","","","","","","","","","","","","","","","","","","","","","","","","",""
"3062","","image-button-response","201","1114785","0.0-200.0-0.0","A1IEW0TLXGL6HJ","img_art/30.jpg","4","","","","","","","","","","","","","","","","","","","","","","","","",""
"null","","html-keyboard-response","202","1116296","0.0-201.0","A1IEW0TLXGL6HJ","<p style=""font-size: 48px;"">+</p>","","","","","null","allTrialResponses","1500","1","22","img_art/30.jpg","-27","Looks like no effort was put in","Sabrina,Allison,Maria,Amy,Emma,Ashley","Flowing freely of the rest of the world,42,120,20","Dislike the contrast here.,-5,140,20","uplifted and yet calmed,15,120,20","Too much abstraction for me, leaving my focus mainly on color. I like the texture.,-20,220,20","Like the design, not a big fan of the colors,20,60,20","Decent abstract art, ncie colors.,23,320,20","Amy","Too much abstraction for me, leaving my focus mainly on color. I like the texture.,-20,220,20","Sabrina","Flowing freely of the rest of the world,42,120,20","Emma","Like the design, not a big fan of the colors,20,60,20","2"
"21041","","survey-text","203","1137344","0.0-202.0-0.0","A1IEW0TLXGL6HJ","","","","{""Q0"":""Venice with a random key""}","","","","","","","","","","","","","","","","","","","","","","",""
"4044.2000000178814","","image-slider-response","204","1141390","0.0-203.0","A1IEW0TLXGL6HJ","","","","","19","","","","","","","","","","","","","","","","","","","","","",""
"3627","","image-button-response","205","1146405","0.0-204.0","A1IEW0TLXGL6HJ","img_art/22.jpg","2","","","","","","","","","","","","","","","","","","","","","","","","",""
"7936","","image-button-response","206","1154343","0.0-205.0","A1IEW0TLXGL6HJ","img_art/22.jpg","2","","","","","","","","","","","","","","","","","","","","","","","","",""
"750","","image-button-response","207","1155096","0.0-206.0-0.0","A1IEW0TLXGL6HJ","img_art/22.jpg","3","","","","","","","","","","","","","","","","","","","","","","","","",""
"3178","","image-button-response","208","1158275","0.0-207.0-0.0","A1IEW0TLXGL6HJ","img_art/22.jpg","1","","","","","","","","","","","","","","","","","","","","","","","","",""
"null","","html-keyboard-response","209","1159778","0.0-208.0","A1IEW0TLXGL6HJ","<p style=""font-size: 48px;"">+</p>","","","","","null","allTrialResponses","1500","1","23","img_art/22.jpg","19","Venice with a random key","Sabrina,Michelle,Kimberly,Amy,Emma,Kelsey","Just not feeling it,-19,120,20","Not a huge fan of the blocks, also very abstract, I have no idea what it is,8,280,20","I like the key near the sphere in the center,19,260,20","I appreciate the shapes but the abundance of primary colors make it seem garrish.,-10,220,20","Love the use of color,50,60,20","its messy, like a child painted it,-14,240,20","Kimberly","I like the key near the sphere in the center,19,260,20","Amy","I appreciate the shapes but the abundance of primary colors make it seem garrish.,-10,220,20","Michelle","Not a huge fan of the blocks, also very abstract, I have no idea what it is,8,280,20","2"
"18447","","survey-text","210","1178236","0.0-209.0-0.0","A1IEW0TLXGL6HJ","","","","{""Q0"":""makes me dizzy and hard to focus""}","","","","","","","","","","","","","","","","","","","","","","",""
"4470.5999999940395","","image-slider-response","211","1182709","0.0-210.0","A1IEW0TLXGL6HJ","","","","","-10","","","","","","","","","","","","","","","","","","","","","",""
"null","","image-button-response","212","1187725","0.0-211.0","A1IEW0TLXGL6HJ","img_art/8.jpg","null","","","","","","","","","","","","","","","","","","","","","","","","",""
"2184","","image-button-response","213","1189913","0.0-212.0","A1IEW0TLXGL6HJ","img_art/8.jpg","0","","","","","","","","","","","","","","","","","","","","","","","","",""
"6117","","image-button-response","214","1196030","0.0-213.0-0.0","A1IEW0TLXGL6HJ","img_art/8.jpg","1","","","","","","","","","","","","","","","","","","","","","","","","",""
"4259","","image-button-response","215","1200292","0.0-214.0-0.0","A1IEW0TLXGL6HJ","img_art/8.jpg","2","","","","","","","","","","","","","","","","","","","","","","","","",""
"null","","html-keyboard-response","216","1201802","0.0-215.0","A1IEW0TLXGL6HJ","<p style=""font-size: 48px;"">+</p>","","","","","null","allTrialResponses","1500","1","24","img_art/8.jpg","-10","makes me dizzy and hard to focus","Meghan,Michelle,Kimberly,Amy,Emily,Sydney","the face is creepy,-49,220,20","I appreciate the complexity of this piece but it's too cubist for me,3,280,20","Feels very 90's but I like the doorway,15,260,20","The definition and the colors give make this painting accessible and thought provoking.,30,220,20","It is interesting to look at. Abstract but ordered.,9,40,20","I love the colors in this piece.,25,320,20","Meghan","the face is creepy,-49,220,20","Michelle","I appreciate the complexity of this piece but it's too cubist for me,3,280,20","Kimberly","Feels very 90's but I like the doorway,15,260,20","2"
"12662","","survey-text","217","1214471","0.0-216.0-0.0","A1IEW0TLXGL6HJ","","","","{""Q0"":""Looks like raindrops on a window""}","","","","","","","","","","","","","","","","","","","","","","",""
"4025.5999999940395","","image-slider-response","218","1218499","0.0-217.0","A1IEW0TLXGL6HJ","","","","","25","","","","","","","","","","","","","","","","","","","","","",""
"null","","image-button-response","219","1223509","0.0-218.0","A1IEW0TLXGL6HJ","img_art/13.jpg","null","","","","","","","","","","","","","","","","","","","","","","","","",""
"3089","","image-button-response","220","1226602","0.0-219.0","A1IEW0TLXGL6HJ","img_art/13.jpg","0","","","","","","","","","","","","","","","","","","","","","","","","",""
"2029","","image-button-response","221","1228636","0.0-220.0-0.0","A1IEW0TLXGL6HJ","img_art/13.jpg","4","","","","","","","","","","","","","","","","","","","","","","","","",""
"4262","","image-button-response","222","1232901","0.0-221.0-0.0","A1IEW0TLXGL6HJ","img_art/13.jpg","1","","","","","","","","","","","","","","","","","","","","","","","","",""
"null","","html-keyboard-response","223","1233903","0.0-222.0","A1IEW0TLXGL6HJ","<p style=""font-size: 48px;"">+</p>","","","","","null","allTrialResponses","1000","1","25","img_art/13.jpg","25","Looks like raindrops on a window","Meghan,Michelle,Kimberly,Jenna,Tiffany,Caroline","I like the transition to other colors,24,220,20","I like the blue colors and the symmetry and paint splatters but I would not hang it in my house,8,280,20","It's like a pattern on a bus seat,10,260,20","exciting & chaotic. love the colors.,50,360,20","The painting makes me feel awe and like I am very little. Like I am alone at the bottom of the ocean.,41,360,20","Pretty but didnt cause a reaction,33,100,20","Meghan","I like the transition to other colors,24,220,20","Tiffany","The painting makes me feel awe and like I am very little. Like I am alone at the bottom of the ocean.,41,360,20","Michelle","I like the blue colors and the symmetry and paint splatters but I would not hang it in my house,8,280,20","2"
"3487","","survey-text","224","1237398","0.0-223.0-0.0","A1IEW0TLXGL6HJ","","","","{""Q0"":""table""}","","","","","","","","","","","","","","","","","","","","","","",""
"12081","","survey-text","225","1249480","0.0-224.0-0.0","A1IEW0TLXGL6HJ","","","","{""Q0"":""Boring splotches""}","","","","","","","","","","","","","","","","","","","","","","",""
"3262.0999999940395","","image-slider-response","226","1252745","0.0-225.0","A1IEW0TLXGL6HJ","","","","","-32","","","","","","","","","","","","","","","","","","","","","",""
"null","","image-button-response","227","1257749","0.0-226.0","A1IEW0TLXGL6HJ","img_art/1.jpg","null","","","","","","","","","","","","","","","","","","","","","","","","",""
"1362","","image-button-response","228","1259114","0.0-227.0","A1IEW0TLXGL6HJ","img_art/1.jpg","5","","","","","","","","","","","","","","","","","","","","","","","","",""
"806","","image-button-response","229","1259922","0.0-228.0-0.0","A1IEW0TLXGL6HJ","img_art/1.jpg","1","","","","","","","","","","","","","","","","","","","","","","","","",""
"635","","image-button-response","230","1260560","0.0-229.0-0.0","A1IEW0TLXGL6HJ","img_art/1.jpg","2","","","","","","","","","","","","","","","","","","","","","","","","",""
"null","","html-keyboard-response","231","1262063","0.0-230.0","A1IEW0TLXGL6HJ","<p style=""font-size: 48px;"">+</p>","","","","","null","allTrialResponses","1500","1","26","img_art/1.jpg","-32","Boring splotches","Meghan,Michelle,Jessica,Isabella,Tiffany,Makayla","good colors and contrast,31,220,20","Random paint does not make art,-5,280,20","Looks like the same thing as the last piece shown to me,10,400,20","Warmth of the sun,22,280,20","I feel relaxed, like I'm watching the leaves change color.,17,360,20","Nothing whatsoever,2,80,20","Makayla","Nothing whatsoever,2,80,20","Michelle","Random paint does not make art,-5,280,20","Jessica","Looks like the same thing as the last piece shown to me,10,400,20","2"
"16943","","survey-text","232","1279013","0.0-231.0-0.0","A1IEW0TLXGL6HJ","","","","{""Q0"":""Interesting... don't know what to make of it""}","","","","","","","","","","","","","","","","","","","","","","",""
"3660.7999999821186","","image-slider-response","233","1282677","0.0-232.0","A1IEW0TLXGL6HJ","","","","","11","","","","","","","","","","","","","","","","","","","","","",""
"null","","image-button-response","234","1287684","0.0-233.0","A1IEW0TLXGL6HJ","img_art/28.jpg","null","","","","","","","","","","","","","","","","","","","","","","","","",""
"2590","","image-button-response","235","1290278","0.0-234.0","A1IEW0TLXGL6HJ","img_art/28.jpg","2","","","","","","","","","","","","","","","","","","","","","","","","",""
"1116","","image-button-response","236","1291399","0.0-235.0-0.0","A1IEW0TLXGL6HJ","img_art/28.jpg","0","","","","","","","","","","","","","","","","","","","","","","","","",""
"3245","","image-button-response","237","1294648","0.0-236.0-0.0","A1IEW0TLXGL6HJ","img_art/28.jpg","4","","","","","","","","","","","","","","","","","","","","","","","","",""
"null","","html-keyboard-response","238","1295655","0.0-237.0","A1IEW0TLXGL6HJ","<p style=""font-size: 48px;"">+</p>","","","","","null","allTrialResponses","1000","1","27","img_art/28.jpg","11","Interesting... don't know what to make of it","Courtney,Michelle,Jessica,Anna,Mikayla,Makayla","Looks like some guys in s band playing at a busy park.,18,280,20","This piece is depressing to me, reminds me of German paintings,-6,280,20","I can't tell what's going on but it looks a little bit more lively at least,7,400,20","It's drab and looks like stereotypical abstract art.,-30,300,20","It gives me weird vibes.,-25,300,20","The earthy colors smeared around looks like prison food tray,-17,80,20","Jessica","I can't tell what's going on but it looks a little bit more lively at least,7,400,20","Courtney","Looks like some guys in s band playing at a busy park.,18,280,20","Mikayla","It gives me weird vibes.,-25,300,20","2"
"17489","","survey-text","239","1313149","0.0-238.0-0.0","A1IEW0TLXGL6HJ","","","","{""Q0"":""Hurts my eyes and makes no sense""}","","","","","","","","","","","","","","","","","","","","","","",""
"3488.7999999821186","","image-slider-response","240","1316640","0.0-239.0","A1IEW0TLXGL6HJ","","","","","-42","","","","","","","","","","","","","","","","","","","","","",""
"null","","image-button-response","241","1321654","0.0-240.0","A1IEW0TLXGL6HJ","img_art/5.jpg","null","","","","","","","","","","","","","","","","","","","","","","","","",""
"994","","image-button-response","242","1322651","0.0-241.0","A1IEW0TLXGL6HJ","img_art/5.jpg","2","","","","","","","","","","","","","","","","","","","","","","","","",""
"1176","","image-button-response","243","1323830","0.0-242.0-0.0","A1IEW0TLXGL6HJ","img_art/5.jpg","1","","","","","","","","","","","","","","","","","","","","","","","","",""
"2641","","image-button-response","244","1326473","0.0-243.0-0.0","A1IEW0TLXGL6HJ","img_art/5.jpg","5","","","","","","","","","","","","","","","","","","","","","","","","",""
"null","","html-keyboard-response","245","1326974","0.0-244.0","A1IEW0TLXGL6HJ","<p style=""font-size: 48px;"">+</p>","","","","","null","allTrialResponses","500","1","28","img_art/5.jpg","-42","Hurts my eyes and makes no sense","Courtney,Hannah,Jessica,Shelby,Mikayla,Autumn","A rabbits head.,4,280,20","Very basic, but at least has some color to it.,-9,240,20","Don't really know the point of this one.,-11,400,20","This feels joyful,39,240,20","I love the yellow! It really pops!,30,300,20","Appealing but shapeless,24,340,20","Jessica","Don't really know the point of this one.,-11,400,20","Hannah","Very basic, but at least has some color to it.,-9,240,20","Autumn","Appealing but shapeless,24,340,20","2"
"8125","","survey-text","246","1335108","0.0-245.0-0.0","A1IEW0TLXGL6HJ","","","","{""Q0"":""Pretty. Dreamy""}","","","","","","","","","","","","","","","","","","","","","","",""
"4847.300000011921","","image-slider-response","247","1339958","0.0-246.0","A1IEW0TLXGL6HJ","","","","","30","","","","","","","","","","","","","","","","","","","","","",""
"null","","image-button-response","248","1344976","0.0-247.0","A1IEW0TLXGL6HJ","img_art/21.jpg","null","","","","","","","","","","","","","","","","","","","","","","","","",""
"1226","","image-button-response","249","1346205","0.0-248.0","A1IEW0TLXGL6HJ","img_art/21.jpg","0","","","","","","","","","","","","","","","","","","","","","","","","",""
"1350","","image-button-response","250","1347558","0.0-249.0-0.0","A1IEW0TLXGL6HJ","img_art/21.jpg","2","","","","","","","","","","","","","","","","","","","","","","","","",""
"1330","","image-button-response","251","1348892","0.0-250.0-0.0","A1IEW0TLXGL6HJ","img_art/21.jpg","5","","","","","","","","","","","","","","","","","","","","","","","","",""
"null","","html-keyboard-response","252","1349399","0.0-251.0","A1IEW0TLXGL6HJ","<p style=""font-size: 48px;"">+</p>","","","","","null","allTrialResponses","500","1","29","img_art/21.jpg","30","Pretty. Dreamy","Erika,Hannah,Jessica,Paige,Brianna,Autumn","Indistinct, but beautiful hues,10,100,20","Boring colors and look. Too much 1980s.,-20,240,20","I like how the colors blend together like a beautiful sunset.,25,400,20","the picture is boring,1,60,20","Don't really lean either way.,1,20,20","Amazing colors.,34,340,20","Erika","Indistinct, but beautiful hues,10,100,20","Jessica","I like how the colors blend together like a beautiful sunset.,25,400,20","Autumn","Amazing colors.,34,340,20","2"
"13239","","survey-text","253","1362643","0.0-252.0-0.0","A1IEW0TLXGL6HJ","","","","{""Q0"":""I like the waves""}","","","","","","","","","","","","","","","","","","","","","","",""
"4277.5","","image-slider-response","254","1366923","0.0-253.0","A1IEW0TLXGL6HJ","","","","","26","","","","","","","","","","","","","","","","","","","","","",""
"null","","image-button-response","255","1371928","0.0-254.0","A1IEW0TLXGL6HJ","img_art/11.jpg","null","","","","","","","","","","","","","","","","","","","","","","","","",""
"1770","","image-button-response","256","1373701","0.0-255.0","A1IEW0TLXGL6HJ","img_art/11.jpg","2","","","","","","","","","","","","","","","","","","","","","","","","",""
"1836","","image-button-response","257","1375540","0.0-256.0-0.0","A1IEW0TLXGL6HJ","img_art/11.jpg","0","","","","","","","","","","","","","","","","","","","","","","","","",""
"2686","","image-button-response","258","1378229","0.0-257.0-0.0","A1IEW0TLXGL6HJ","img_art/11.jpg","3","","","","","","","","","","","","","","","","","","","","","","","","",""
"null","","html-keyboard-response","259","1379233","0.0-258.0","A1IEW0TLXGL6HJ","<p style=""font-size: 48px;"">+</p>","","","","","null","allTrialResponses","1000","1","30","img_art/11.jpg","26","I like the waves","Erika,Mariah,Jessica,Katelyn,Kelly,Autumn","I want to know which skyline the artist is depicting,26,100,20","The colors are lovely. February getting ready to yield to March.,41,140,20","This looks cool, and definitely comes to life in a way,36,400,20","I like the dark lines and it interests me,13,100,20","Its a little psychedelic.,10,220,20","Good but not eye catching,14,340,20","Jessica","This looks cool, and definitely comes to life in a way,36,400,20","Erika","I want to know which skyline the artist is depicting,26,100,20","Katelyn","I like the dark lines and it interests me,13,100,20","2"
"2331","","image-button-response_instructions","260","1381570","0.0-259.0","A1IEW0TLXGL6HJ","","0","instructions","","","","","","","","","","","","","","","","","","","","","","","",""
"1368","","image-button-response","261","1382944","0.0-260.0","A1IEW0TLXGL6HJ","","0","","","","","","","","","","","","","","","","","","","","","","","","",""
