"rt","url","trial_type","trial_index","time_elapsed","internal_node_id","participant_id","stimulus","button_pressed","Name","responses","response","key_press","variableName","fixationTime","condition","trial","photo","subjectRating","subjectResponse","agentsNames","agent_1_Response","agent_2_Response","agent_3_Response","agent_4_Response","agent_5_Response","agent_6_Response","kept_1_name","kept_1_response","kept_2_name","kept_2_response","kept_3_name","kept_3_response","errorCounter"
"6481","external_page_harvard.html","external-html","0","6528","0.0-0.0","A1J4INYRDDX84W","","","","","","","","","","","","","","","","","","","","","","","","","","",""
"1874","","image-button-response","1","8405","0.0-1.0","A1J4INYRDDX84W","","1","","","","","","","","","","","","","","","","","","","","","","","","",""
"2345","","image-button-response","2","10756","0.0-2.0-0.0","A1J4INYRDDX84W","","1","phone","","","","","","","","","","","","","","","","","","","","","","","",""
"3261","","survey-text","3","14020","0.0-3.0-0.0","A1J4INYRDDX84W","","","","{""Q0"":""A1J4INYRDDX84W""}","","","","","","","","","","","","","","","","","","","","","","",""
"8670","","image-button-response_instructions","4","22692","0.0-4.0","A1J4INYRDDX84W","","0","instructions","","","","","","","","","","","","","","","","","","","","","","","",""
"17239","","image-button-response_instructions","5","39932","0.0-5.0","A1J4INYRDDX84W","img_art/ins/popularity/ins1.png","0","instructions","","","","","","","","","","","","","","","","","","","","","","","",""
"5095","","image-button-response_instructions","6","45028","0.0-6.0","A1J4INYRDDX84W","img_art/ins/popularity/ins2.png","0","instructions","","","","","","","","","","","","","","","","","","","","","","","",""
"43087","","image-button-response_instructions","7","88117","0.0-7.0","A1J4INYRDDX84W","img_art/ins/popularity/ins2Extreme.png","0","instructions","","","","","","","","","","","","","","","","","","","","","","","",""
"8406","","image-button-response_instructions","8","96525","0.0-8.0","A1J4INYRDDX84W","img_art/ins/popularity/ins3KEEPpop.PNG","0","instructions","","","","","","","","","","","","","","","","","","","","","","","",""
"6110","","image-button-response_instructions","9","102637","0.0-9.0","A1J4INYRDDX84W","img_art/ins/popularity/ins3ANamepop.PNG","0","instructions","","","","","","","","","","","","","","","","","","","","","","","",""
"3870","","image-button-response_instructions","10","106509","0.0-10.0","A1J4INYRDDX84W","img_art/ins/popularity/ins3ARatingpop.png","0","instructions","","","","","","","","","","","","","","","","","","","","","","","",""
"3327","","image-button-response_instructions","11","109837","0.0-11.0","A1J4INYRDDX84W","img_art/ins/popularity/ins3ATextpop.png","0","instructions","","","","","","","","","","","","","","","","","","","","","","","",""
"3774","","image-button-response_instructions","12","113613","0.0-12.0","A1J4INYRDDX84W","img_art/ins/popularity/ins3ALikespop.png","0","instructions","","","","","","","","","","","","","","","","","","","","","","","",""
"4046","","image-button-response_instructions","13","117660","0.0-13.0","A1J4INYRDDX84W","img_art/ins/popularity/ins3KEEPpop.PNG","0","instructions","","","","","","","","","","","","","","","","","","","","","","","",""
"5911","","image-button-response_instructions","14","123572","0.0-14.0","A1J4INYRDDX84W","img_art/ins/popularity/ins3_5RED.png","0","instructions","","","","","","","","","","","","","","","","","","","","","","","",""
"1503","","image-button-response_instructions","15","125076","0.0-15.0","A1J4INYRDDX84W","img_art/ins/popularity/ins3KEEPpop.PNG","0","instructions","","","","","","","","","","","","","","","","","","","","","","","",""
"3695","","image-button-response_instructions","16","128772","0.0-16.0","A1J4INYRDDX84W","img_art/ins/popularity/ins4KEEPpop.PNG","0","instructions","","","","","","","","","","","","","","","","","","","","","","","",""
"6007","","image-button-response_instructions","17","134780","0.0-17.0","A1J4INYRDDX84W","img_art/ins/popularity/ins5KEEPpop.PNG","0","instructions","","","","","","","","","","","","","","","","","","","","","","","",""
"11135","","image-button-response_instructions","18","145917","0.0-18.0","A1J4INYRDDX84W","","0","instructions","","","","","","","","","","","","","","","","","","","","","","","",""
"8951","","survey-text","19","154908","0.0-19.0-0.0","A1J4INYRDDX84W","","","","{""Q0"":""but""}","","","","","","","","","","","","","","","","","","","","","","",""
"9606","","survey-text","20","164516","0.0-20.0-0.0","A1J4INYRDDX84W","","","","{""Q0"":""abstract""}","","","","","","","","","","","","","","","","","","","","","","",""
"8108.099999904633","","image-slider-response","21","172628","0.0-21.0","A1J4INYRDDX84W","","","","","3","","","","","","","","","","","","","","","","","","","","","",""
"null","","image-button-response","22","177646","0.0-22.0","A1J4INYRDDX84W","img_art/ins/1.jpg","null","","","","","","","","","","","","","","","","","","","","","","","","",""
"11917","","image-button-response","23","189565","0.0-23.0","A1J4INYRDDX84W","img_art/ins/1.jpg","4","","","","","","","","","","","","","","","","","","","","","","","","",""
"6780","","image-button-response","24","196349","0.0-24.0-0.0","A1J4INYRDDX84W","img_art/ins/1.jpg","0","","","","","","","","","","","","","","","","","","","","","","","","",""
"1084","","image-button-response","25","197438","0.0-25.0-0.0","A1J4INYRDDX84W","img_art/ins/1.jpg","5","","","","","","","","","","","","","","","","","","","","","","","","",""
"null","","html-keyboard-response","26","198448","0.0-26.0","A1J4INYRDDX84W","<p style=""font-size: 48px;"">+</p>","","","","","null","allTrialResponses","1000","1","-2","img_art/ins/1.jpg","3","abstract","Allison,Ashley,Beth,Dora,Erika,Jen","looks like a lot of things going on in the mist,20,20,20","I just don't get why these type of art would be popular,-32,40,20","This color reminds me of poo,-46,60,20","looks like what my niece in 3rd grade did this afternoon,-50,80,20","I like the sophisticated brushwork,40,100,20","It reminds me of a candy land dream I had,36,120,20","Erika","I like the sophisticated brushwork,40,100,20","Allison","looks like a lot of things going on in the mist,20,20,20","Jen","It reminds me of a candy land dream I had,36,120,20","0"
"62695","","survey-text","27","261149","0.0-27.0-0.0","A1J4INYRDDX84W","","","","{""Q0"":""Art work looks like it has been brushes slapped with heavy paint and tin foil.""}","","","","","","","","","","","","","","","","","","","","","","",""
"40277.10000002384","","image-slider-response","28","301428","0.0-28.0","A1J4INYRDDX84W","","","","","-43","","","","","","","","","","","","","","","","","","","","","",""
"null","","image-button-response","29","306432","0.0-29.0","A1J4INYRDDX84W","img_art/ins/2.jpg","null","","","","","","","","","","","","","","","","","","","","","","","","",""
"7795","","image-button-response","30","314229","0.0-30.0","A1J4INYRDDX84W","img_art/ins/2.jpg","2","","","","","","","","","","","","","","","","","","","","","","","","",""
"2509","","image-button-response","31","316741","0.0-31.0-0.0","A1J4INYRDDX84W","img_art/ins/2.jpg","0","","","","","","","","","","","","","","","","","","","","","","","","",""
"1373","","image-button-response","32","318117","0.0-32.0-0.0","A1J4INYRDDX84W","img_art/ins/2.jpg","1","","","","","","","","","","","","","","","","","","","","","","","","",""
"null","","html-keyboard-response","33","319619","0.0-33.0","A1J4INYRDDX84W","<p style=""font-size: 48px;"">+</p>","","","","","null","allTrialResponses","1500","1","-1","img_art/ins/2.jpg","-43","Art work looks like it has been brushes slapped with heavy paint and tin foil.","Allison,Kara,Katie,Jenna,Erika,Jen","I don't have strong feelings about this,10,20,20","I like the blocks of color arrangements,30,160,20","too much color!,-28,180,20","One of my pet peevs,-48,140,20","I would never be able to compose a sophisticated pallete like this,48,100,20","It reminds me of a fireplace,36,120,20","Katie","too much color!,-28,180,20","Allison","I don't have strong feelings about this,10,20,20","Kara","I like the blocks of color arrangements,30,160,20","0"
"53044","","survey-text","34","372669","0.0-34.0-0.0","A1J4INYRDDX84W","","","","{""Q0"":""Look likes snow with aqua blue splatter.""}","","","","","","","","","","","","","","","","","","","","","","",""
"4165.5","","image-slider-response","35","376837","0.0-35.0","A1J4INYRDDX84W","","","","","16","","","","","","","","","","","","","","","","","","","","","",""
"null","","image-button-response","36","381841","0.0-36.0","A1J4INYRDDX84W","img_art/ins/3.jpg","null","","","","","","","","","","","","","","","","","","","","","","","","",""
"163","","image-button-response","37","382005","0.0-37.0","A1J4INYRDDX84W","img_art/ins/3.jpg","0","","","","","","","","","","","","","","","","","","","","","","","","",""
"6517","","image-button-response","38","388525","0.0-38.0-0.0","A1J4INYRDDX84W","img_art/ins/3.jpg","0","","","","","","","","","","","","","","","","","","","","","","","","",""
"886","","image-button-response","39","394157","0.0-38.1-0.1","A1J4INYRDDX84W","img_art/ins/3.jpg","1","","","","","","","","","","","","","","","","","","","","","","","","",""
"5678","","image-button-response","40","399838","0.0-39.0-0.0","A1J4INYRDDX84W","img_art/ins/3.jpg","4","","","","","","","","","","","","","","","","","","","","","","","","",""
"null","","html-keyboard-response","41","400341","0.0-40.0","A1J4INYRDDX84W","<p style=""font-size: 48px;"">+</p>","","","","","null","allTrialResponses","500","1","0","img_art/ins/3.jpg","16","Look likes snow with aqua blue splatter.","Allison,Kara,Katie,Leslie,Mary,Rose","enjoy the different shades of blue,22,20,20","calming blue is very nice,36,160,20","It looks depressing,-26,180,20","It's an alright work,15,200,20","I like the overlapping of brushes,41,220,20","My daily routine, it's depressing,-20,240,20","Allison","enjoy the different shades of blue,22,20,20","Kara","calming blue is very nice,36,160,20","Mary","I like the overlapping of brushes,41,220,20","2"
"6017","","image-button-response_instructions","42","406365","0.0-41.0","A1J4INYRDDX84W","","0","instructions","","","","","","","","","","","","","","","","","","","","","","","",""
"20238","","survey-likert","43","426606","0.0-42.0-0.0","A1J4INYRDDX84W","","","","{""Q0"":"""",""Q1"":0,""Q2"":0}","","","","","","","","","","","","","","","","","","","","","","",""
"12271","","survey-likert","44","441581","0.0-42.1-0.1","A1J4INYRDDX84W","","","","{""Q0"":"""",""Q1"":1,""Q2"":0}","","","","","","","","","","","","","","","","","","","","","","",""
"5191","","survey-likert","45","449781","0.0-42.2-0.2","A1J4INYRDDX84W","","","","{""Q0"":"""",""Q1"":0,""Q2"":0}","","","","","","","","","","","","","","","","","","","","","","",""
"4543","","survey-likert","46","456997","0.0-42.3-0.3","A1J4INYRDDX84W","","","","{""Q0"":"""",""Q1"":0,""Q2"":1}","","","","","","","","","","","","","","","","","","","","","","",""
"5120","","survey-text","47","462124","0.0-43.0-0.0","A1J4INYRDDX84W","","","","{""Q0"":""rock""}","","","","","","","","","","","","","","","","","","","","","","",""
"30886","","survey-text","48","493012","0.0-44.0-0.0","A1J4INYRDDX84W","","","","{""Q0"":""Looks like gold magical energy.""}","","","","","","","","","","","","","","","","","","","","","","",""
"3069.399999976158","","image-slider-response","49","496084","0.0-45.0","A1J4INYRDDX84W","","","","","41","","","","","","","","","","","","","","","","","","","","","",""
"null","","image-button-response","50","501130","0.0-46.0","A1J4INYRDDX84W","img_art/4.jpg","null","","","","","","","","","","","","","","","","","","","","","","","","",""
"953","","image-button-response","51","502085","0.0-47.0","A1J4INYRDDX84W","img_art/4.jpg","0","","","","","","","","","","","","","","","","","","","","","","","","",""
"11269","","image-button-response","52","513357","0.0-48.0-0.0","A1J4INYRDDX84W","img_art/4.jpg","4","","","","","","","","","","","","","","","","","","","","","","","","",""
"5565","","image-button-response","53","518925","0.0-49.0-0.0","A1J4INYRDDX84W","img_art/4.jpg","3","","","","","","","","","","","","","","","","","","","","","","","","",""
"null","","html-keyboard-response","54","519928","0.0-50.0","A1J4INYRDDX84W","<p style=""font-size: 48px;"">+</p>","","","","","null","allTrialResponses","1000","1","1","img_art/4.jpg","41","Looks like gold magical energy.","Lauren,Kelly,Anna,Michaela,Vanessa,Mikayla","I like the design. It can be interpreted in various ways, such as a hand of horror or still piece.,15,340,20","The longer I stare at this the less I like it.,-19,220,20","It doesn't make me feel anything it just looks like a kid did it.,-30,300,20","It reminds me of something a kid would make for their parents,13,260,20","Again, this is too abstract and I really don't like the colors.,-21,380,20","Not very interesting to look at.,-34,300,20","Lauren","I like the design. It can be interpreted in various ways, such as a hand of horror or still piece.,15,340,20","Vanessa","Again, this is too abstract and I really don't like the colors.,-21,380,20","Michaela","It reminds me of something a kid would make for their parents,13,260,20","5"
"46776","","survey-text","55","566709","0.0-51.0-0.0","A1J4INYRDDX84W","","","","{""Q0"":""Looks like a beautiful oil painting of a house and trees.""}","","","","","","","","","","","","","","","","","","","","","","",""
"2620.7999999523163","","image-slider-response","56","569333","0.0-52.0","A1J4INYRDDX84W","","","","","36","","","","","","","","","","","","","","","","","","","","","",""
"null","","image-button-response","57","574336","0.0-53.0","A1J4INYRDDX84W","img_art/26.jpg","null","","","","","","","","","","","","","","","","","","","","","","","","",""
"1443","","image-button-response","58","575781","0.0-54.0","A1J4INYRDDX84W","img_art/26.jpg","3","","","","","","","","","","","","","","","","","","","","","","","","",""
"2701","","image-button-response","59","578485","0.0-55.0-0.0","A1J4INYRDDX84W","img_art/26.jpg","2","","","","","","","","","","","","","","","","","","","","","","","","",""
"4021","","image-button-response","60","582509","0.0-56.0-0.0","A1J4INYRDDX84W","img_art/26.jpg","5","","","","","","","","","","","","","","","","","","","","","","","","",""
"null","","html-keyboard-response","61","583014","0.0-57.0","A1J4INYRDDX84W","<p style=""font-size: 48px;"">+</p>","","","","","null","allTrialResponses","500","1","2","img_art/26.jpg","36","Looks like a beautiful oil painting of a house and trees.","Lauren,Haley,Kayla,Michaela,Vanessa,Mary","The piece doesn't really invoke anything for me.,0,340,20","It feels almost unfinished, but I like the color palette,9,220,20","Looks like the suburbs. I live in those.,13,180,20","Elevator art but the watercolors are good,29,260,20","Something I'd see in a thrift store. It looks like not much effort was used to paint this.,9,380,20","I can tell it's some sort of outdoor scene. It looks very amateurish.,-9,180,20","Michaela","Elevator art but the watercolors are good,29,260,20","Kayla","Looks like the suburbs. I live in those.,13,180,20","Mary","I can tell it's some sort of outdoor scene. It looks very amateurish.,-9,180,20","5"
"44178","","survey-text","62","627197","0.0-58.0-0.0","A1J4INYRDDX84W","","","","{""Q0"":""I see tall buildings and 1 person n dreary colors I disilike.""}","","","","","","","","","","","","","","","","","","","","","","",""
"3588.7999999523163","","image-slider-response","63","630789","0.0-59.0","A1J4INYRDDX84W","","","","","-29","","","","","","","","","","","","","","","","","","","","","",""
"null","","image-button-response","64","635793","0.0-60.0","A1J4INYRDDX84W","img_art/19.jpg","null","","","","","","","","","","","","","","","","","","","","","","","","",""
"6994","","image-button-response","65","642790","0.0-61.0","A1J4INYRDDX84W","img_art/19.jpg","5","","","","","","","","","","","","","","","","","","","","","","","","",""
"909","","image-button-response","66","643702","0.0-62.0-0.0","A1J4INYRDDX84W","img_art/19.jpg","3","","","","","","","","","","","","","","","","","","","","","","","","",""
"5053","","image-button-response","67","648758","0.0-63.0-0.0","A1J4INYRDDX84W","img_art/19.jpg","0","","","","","","","","","","","","","","","","","","","","","","","","",""
"null","","html-keyboard-response","68","650261","0.0-64.0","A1J4INYRDDX84W","<p style=""font-size: 48px;"">+</p>","","","","","null","allTrialResponses","1500","1","3","img_art/19.jpg","-29","I see tall buildings and 1 person n dreary colors I disilike.","Emma,Jacqueline,Kayla,Michaela,Megan,Mary","Interesting, leaves you wondering what it is,40,60,20","This is just a mess.,-30,300,20","Too messy and busy. Too much going on there for me.,-12,180,20","It's ok but it's nothing I would hang on my wall,11,260,20","Simple, scratchy lack of negative space.,-10,200,20","I interpret an outdoor scene. It's good because it makes me want to look longer.,22,180,20","Mary","I interpret an outdoor scene. It's good because it makes me want to look longer.,22,180,20","Michaela","It's ok but it's nothing I would hang on my wall,11,260,20","Emma","Interesting, leaves you wondering what it is,40,60,20","5"
"50698","","survey-text","69","700965","0.0-65.0-0.0","A1J4INYRDDX84W","","","","{""Q0"":""Looks like an outdoor spring setting with a bare tree.""}","","","","","","","","","","","","","","","","","","","","","","",""
"2364.7000000476837","","image-slider-response","70","703333","0.0-66.0","A1J4INYRDDX84W","","","","","-8","","","","","","","","","","","","","","","","","","","","","",""
"3230","","image-button-response","71","708336","0.0-67.0","A1J4INYRDDX84W","img_art/14.jpg","1","","","","","","","","","","","","","","","","","","","","","","","","",""
"4634","","image-button-response","72","712974","0.0-68.0","A1J4INYRDDX84W","img_art/14.jpg","5","","","","","","","","","","","","","","","","","","","","","","","","",""
"732","","image-button-response","73","713709","0.0-69.0-0.0","A1J4INYRDDX84W","img_art/14.jpg","2","","","","","","","","","","","","","","","","","","","","","","","","",""
"5869","","image-button-response","74","719581","0.0-70.0-0.0","A1J4INYRDDX84W","img_art/14.jpg","1","","","","","","","","","","","","","","","","","","","","","","","","",""
"null","","html-keyboard-response","75","720084","0.0-71.0","A1J4INYRDDX84W","<p style=""font-size: 48px;"">+</p>","","","","","null","allTrialResponses","500","1","4","img_art/14.jpg","-8","Looks like an outdoor spring setting with a bare tree.","Emma,Kaylee,Jessica,Michaela,Kaitlyn,Mary","Don't love it.,-10,60,20","it looks like a tree on desert,23,200,20","I kind of like it!,6,400,20","I just really like light and wispy things,33,260,20","Focal point is interesting,5,80,20","I like the layers of color in this piece. The circles and lines are interesting.,29,180,20","Mary","I like the layers of color in this piece. The circles and lines are interesting.,29,180,20","Jessica","I kind of like it!,6,400,20","Kaylee","it looks like a tree on desert,23,200,20","5"
"33122","","survey-text","76","753212","0.0-72.0-0.0","A1J4INYRDDX84W","","","","{""Q0"":""The colors are bold. Looks like a Mediterranean setting.""}","","","","","","","","","","","","","","","","","","","","","","",""
"2092.8000000715256","","image-slider-response","77","755309","0.0-73.0","A1J4INYRDDX84W","","","","","16","","","","","","","","","","","","","","","","","","","","","",""
"null","","image-button-response","78","760327","0.0-74.0","A1J4INYRDDX84W","img_art/20.jpg","null","","","","","","","","","","","","","","","","","","","","","","","","",""
"3411","","image-button-response","79","763741","0.0-75.0","A1J4INYRDDX84W","img_art/20.jpg","1","","","","","","","","","","","","","","","","","","","","","","","","",""
"2133","","image-button-response","80","765877","0.0-76.0-0.0","A1J4INYRDDX84W","img_art/20.jpg","2","","","","","","","","","","","","","","","","","","","","","","","","",""
"6805","","image-button-response","81","772685","0.0-77.0-0.0","A1J4INYRDDX84W","img_art/20.jpg","3","","","","","","","","","","","","","","","","","","","","","","","","",""
"null","","html-keyboard-response","82","774189","0.0-78.0","A1J4INYRDDX84W","<p style=""font-size: 48px;"">+</p>","","","","","null","allTrialResponses","1500","1","5","img_art/20.jpg","16","The colors are bold. Looks like a Mediterranean setting.","Cynthia,Kaylee,Jessica,Kimberly,Olivia,Mary","Curious about what lies here,10,320,20","i can see a car crash,13,200,20","It looks painted really nicely.,5,400,20","Something bad has happened TO reality,-23,260,20","crash after traffic causing grief,-11,40,20","I can tell this artist has experience. I just don't care for the color combo.,7,180,20","Kaylee","i can see a car crash,13,200,20","Jessica","It looks painted really nicely.,5,400,20","Kimberly","Something bad has happened TO reality,-23,260,20","5"
"4815","","survey-text","83","779013","0.0-79.0-0.0","A1J4INYRDDX84W","","","","{""Q0"":""sky""}","","","","","","","","","","","","","","","","","","","","","","",""
"48814","","survey-text","84","827829","0.0-80.0-0.0","A1J4INYRDDX84W","","","","{""Q0"":""Looks like abstract art of guns.""}","","","","","","","","","","","","","","","","","","","","","","",""
"2285.0999999046326","","image-slider-response","85","830117","0.0-81.0","A1J4INYRDDX84W","","","","","-50","","","","","","","","","","","","","","","","","","","","","",""
"null","","image-button-response","86","835135","0.0-82.0","A1J4INYRDDX84W","img_art/29.jpg","null","","","","","","","","","","","","","","","","","","","","","","","","",""
"636","","image-button-response","87","835774","0.0-83.0","A1J4INYRDDX84W","img_art/29.jpg","1","","","","","","","","","","","","","","","","","","","","","","","","",""
"3038","","image-button-response","88","838814","0.0-84.0-0.0","A1J4INYRDDX84W","img_art/29.jpg","4","","","","","","","","","","","","","","","","","","","","","","","","",""
"2277","","image-button-response","89","841094","0.0-85.0-0.0","A1J4INYRDDX84W","img_art/29.jpg","0","","","","","","","","","","","","","","","","","","","","","","","","",""
"null","","html-keyboard-response","90","842602","0.0-86.0","A1J4INYRDDX84W","<p style=""font-size: 48px;"">+</p>","","","","","null","allTrialResponses","1500","1","6","img_art/29.jpg","-50","Looks like abstract art of guns.","Tiffany,Kaylee,Jessica,Kimberly,Melissa,Allison","I feel a little disgust. There is something off-putting about the smooth shapes and dark colors.,-43,360,20","it looks like a prison,-33,200,20","It looks cool but I don't really get what's going on, it looks too busy,0,400,20","I like the usage of a physical object,33,260,20","abrasive and grotesque textures,-36,240,20","Flash is too strong. Dislike the colors,-5,140,20","Kaylee","it looks like a prison,-33,200,20","Melissa","abrasive and grotesque textures,-36,240,20","Tiffany","I feel a little disgust. There is something off-putting about the smooth shapes and dark colors.,-43,360,20","5"
"1401884","","survey-text","91","2244491","0.0-87.0-0.0","A1J4INYRDDX84W","","","","{""Q0"":""looks like a feather on a stick on an orange ground.""}","","","","","","","","","","","","","","","","","","","","","","",""
"2180.399999976158","","image-slider-response","92","2246675","0.0-88.0","A1J4INYRDDX84W","","","","","-22","","","","","","","","","","","","","","","","","","","","","",""
"null","","image-button-response","93","2251679","0.0-89.0","A1J4INYRDDX84W","img_art/6.jpg","null","","","","","","","","","","","","","","","","","","","","","","","","",""
"1611","","image-button-response","94","2253292","0.0-90.0","A1J4INYRDDX84W","img_art/6.jpg","0","","","","","","","","","","","","","","","","","","","","","","","","",""
"3126","","image-button-response","95","2256420","0.0-91.0-0.0","A1J4INYRDDX84W","img_art/6.jpg","4","","","","","","","","","","","","","","","","","","","","","","","","",""
"5029","","image-button-response","96","2261452","0.0-92.0-0.0","A1J4INYRDDX84W","img_art/6.jpg","1","","","","","","","","","","","","","","","","","","","","","","","","",""
"null","","html-keyboard-response","97","2262455","0.0-93.0","A1J4INYRDDX84W","<p style=""font-size: 48px;"">+</p>","","","","","null","allTrialResponses","1000","1","7","img_art/6.jpg","-22","looks like a feather on a stick on an orange ground.","Tiffany,Kaylee,Natalie,Sabrina,Melissa,Caroline","The painting makes me happy. Like I'm looking at a little bird.,6,360,20","just an another tree on a desert?,9,200,20","reminds me a giant peach,19,400,20","I love the representation of death and life.,50,120,20","composition is engaging,28,240,20","Lonely and kinda sad,-25,100,20","Tiffany","The painting makes me happy. Like I'm looking at a little bird.,6,360,20","Melissa","composition is engaging,28,240,20","Kaylee","just an another tree on a desert?,9,200,20","5"
"44582","","survey-text","98","2307044","0.0-94.0-0.0","A1J4INYRDDX84W","","","","{""Q0"":""I see an abstract image of someone laying in a hammock.""}","","","","","","","","","","","","","","","","","","","","","","",""
"2444.5","","image-slider-response","99","2309492","0.0-95.0","A1J4INYRDDX84W","","","","","-20","","","","","","","","","","","","","","","","","","","","","",""
"null","","image-button-response","100","2314495","0.0-96.0","A1J4INYRDDX84W","img_art/9.jpg","null","","","","","","","","","","","","","","","","","","","","","","","","",""
"3819","","image-button-response","101","2318316","0.0-97.0","A1J4INYRDDX84W","img_art/9.jpg","5","","","","","","","","","","","","","","","","","","","","","","","","",""
"2349","","image-button-response","102","2320668","0.0-98.0-0.0","A1J4INYRDDX84W","img_art/9.jpg","3","","","","","","","","","","","","","","","","","","","","","","","","",""
"3773","","image-button-response","103","2324444","0.0-99.0-0.0","A1J4INYRDDX84W","img_art/9.jpg","0","","","","","","","","","","","","","","","","","","","","","","","","",""
"null","","html-keyboard-response","104","2324947","0.0-100.0","A1J4INYRDDX84W","<p style=""font-size: 48px;"">+</p>","","","","","null","allTrialResponses","500","1","8","img_art/9.jpg","-20","I see an abstract image of someone laying in a hammock.","Tiffany,Kaylee,Sophia,Heather,Melissa,Brooke","The piece of art makes me happy, it reminds me of a lively carnival.,15,360,20","not my type of art,-33,200,20","Yikes. I'm not sure what to make of this one.,-14,280,20","a mother in bed surrounded by emotions,1,260,20","strong focal point, appealing use of selective line,11,240,20","Dark fantasy seaside cave carnival? Fun.,15,60,20","Brooke","Dark fantasy seaside cave carnival? Fun.,15,60,20","Heather","a mother in bed surrounded by emotions,1,260,20","Tiffany","The piece of art makes me happy, it reminds me of a lively carnival.,15,360,20","5"
"18715","","survey-text","105","2343667","0.0-101.0-0.0","A1J4INYRDDX84W","","","","{""Q0"":""too abstract with ugly colors.""}","","","","","","","","","","","","","","","","","","","","","","",""
"2204.899999976158","","image-slider-response","106","2345875","0.0-102.0","A1J4INYRDDX84W","","","","","-45","","","","","","","","","","","","","","","","","","","","","",""
"4638","","image-button-response","107","2350879","0.0-103.0","A1J4INYRDDX84W","img_art/27.jpg","1","","","","","","","","","","","","","","","","","","","","","","","","",""
"2659","","image-button-response","108","2353540","0.0-104.0","A1J4INYRDDX84W","img_art/27.jpg","5","","","","","","","","","","","","","","","","","","","","","","","","",""
"2397","","image-button-response","109","2355940","0.0-105.0-0.0","A1J4INYRDDX84W","img_art/27.jpg","3","","","","","","","","","","","","","","","","","","","","","","","","",""
"3812","","image-button-response","110","2359756","0.0-106.0-0.0","A1J4INYRDDX84W","img_art/27.jpg","1","","","","","","","","","","","","","","","","","","","","","","","","",""
"null","","html-keyboard-response","111","2360259","0.0-107.0","A1J4INYRDDX84W","<p style=""font-size: 48px;"">+</p>","","","","","null","allTrialResponses","500","1","9","img_art/27.jpg","-45","too abstract with ugly colors.","Tiffany,Bailey,Angela,Heather,Kylie,Brooke","I feel peaceful and a little nervous at the same time.,11,360,20","Looks like a splash of different colors and designs without purpose,-44,360,20","It's okay. Not really interesting to me.,-10,260,20","looks like a garden in between two storms.,33,260,20","Soothing in the middle of some confusion,40,300,20","Like it, autumn colors, trees and foliage scene.,25,60,20","Brooke","Like it, autumn colors, trees and foliage scene.,25,60,20","Heather","looks like a garden in between two storms.,33,260,20","Bailey","Looks like a splash of different colors and designs without purpose,-44,360,20","5"
"58883","","survey-text","112","2419148","0.0-108.0-0.0","A1J4INYRDDX84W","","","","{""Q0"":""Just a bunch of black dots clumped in a mass between lines...""}","","","","","","","","","","","","","","","","","","","","","","",""
"3268.7000000476837","","image-slider-response","113","2422420","0.0-109.0","A1J4INYRDDX84W","","","","","-50","","","","","","","","","","","","","","","","","","","","","",""
"4645","","image-button-response","114","2427423","0.0-110.0","A1J4INYRDDX84W","img_art/15.jpg","0","","","","","","","","","","","","","","","","","","","","","","","","",""
"1458","","image-button-response","115","2428884","0.0-111.0","A1J4INYRDDX84W","img_art/15.jpg","4","","","","","","","","","","","","","","","","","","","","","","","","",""
"1941","","image-button-response","116","2430828","0.0-112.0-0.0","A1J4INYRDDX84W","img_art/15.jpg","2","","","","","","","","","","","","","","","","","","","","","","","","",""
"2045","","image-button-response","117","2432876","0.0-113.0-0.0","A1J4INYRDDX84W","img_art/15.jpg","0","","","","","","","","","","","","","","","","","","","","","","","","",""
"null","","html-keyboard-response","118","2433379","0.0-114.0","A1J4INYRDDX84W","<p style=""font-size: 48px;"">+</p>","","","","","null","allTrialResponses","500","1","10","img_art/15.jpg","-50","Just a bunch of black dots clumped in a mass between lines...","Hailey,Bailey,Sydney,Heather,Makayla,Brooke","ugly picture and don't like it,-22,200,20","This is passable, but personally it just has nothing I'd like to see.,-14,360,20","This picture is too confusing for me. I wouldn't want to stare at it to figure it out.,-10,320,20","black leaves makes the blue birds stand out.,1,260,20","It's just dots. Doesn't bring any positive or negative feelings,2,80,20","This one reminds me of a postage stamp, but branches and leaves. Kind of fun.,15,60,20","Makayla","It's just dots. Doesn't bring any positive or negative feelings,2,80,20","Sydney","This picture is too confusing for me. I wouldn't want to stare at it to figure it out.,-10,320,20","Hailey","ugly picture and don't like it,-22,200,20","5"
"4006","","survey-text","119","2437396","0.0-115.0-0.0","A1J4INYRDDX84W","","","","{""Q0"":""our""}","","","","","","","","","","","","","","","","","","","","","","",""
"45279","","survey-text","120","2482676","0.0-116.0-0.0","A1J4INYRDDX84W","","","","{""Q0"":""Looks like life under the sea  with sea snakes.""}","","","","","","","","","","","","","","","","","","","","","","",""
"2460.600000023842","","image-slider-response","121","2485140","0.0-117.0","A1J4INYRDDX84W","","","","","10","","","","","","","","","","","","","","","","","","","","","",""
"null","","image-button-response","122","2490143","0.0-118.0","A1J4INYRDDX84W","img_art/30.jpg","null","","","","","","","","","","","","","","","","","","","","","","","","",""
"3507","","image-button-response","123","2493653","0.0-119.0","A1J4INYRDDX84W","img_art/30.jpg","5","","","","","","","","","","","","","","","","","","","","","","","","",""
"989","","image-button-response","124","2494645","0.0-120.0-0.0","A1J4INYRDDX84W","img_art/30.jpg","2","","","","","","","","","","","","","","","","","","","","","","","","",""
"2173","","image-button-response","125","2496820","0.0-121.0-0.0","A1J4INYRDDX84W","img_art/30.jpg","0","","","","","","","","","","","","","","","","","","","","","","","","",""
"null","","html-keyboard-response","126","2498332","0.0-122.0","A1J4INYRDDX84W","<p style=""font-size: 48px;"">+</p>","","","","","null","allTrialResponses","1500","1","11","img_art/30.jpg","10","Looks like life under the sea  with sea snakes.","Hailey,Kaitlin,Sydney,Rebecca,Makayla,Kristen","snakes in the grass, I don't like it,-17,200,20","the different roads to take in life,10,60,20","I love the colors, the style, and the uniqueness in this piece. I love everything.,50,320,20","don't know but it somehow speaks to me,29,100,20","I feel nothing towards,-1,80,20","makes me think of a tunnel filled with graffiti,19,280,20","Kristen","makes me think of a tunnel filled with graffiti,19,280,20","Sydney","I love the colors, the style, and the uniqueness in this piece. I love everything.,50,320,20","Hailey","snakes in the grass, I don't like it,-17,200,20","5"
"38112","","survey-text","127","2536452","0.0-123.0-0.0","A1J4INYRDDX84W","","","","{""Q0"":""I see a teddy bear surrounded by dysfunction.""}","","","","","","","","","","","","","","","","","","","","","","",""
"6372.900000095367","","image-slider-response","128","2542828","0.0-124.0","A1J4INYRDDX84W","","","","","-46","","","","","","","","","","","","","","","","","","","","","",""
"4997","","image-button-response","129","2547832","0.0-125.0","A1J4INYRDDX84W","img_art/16.jpg","1","","","","","","","","","","","","","","","","","","","","","","","","",""
"675","","image-button-response","130","2548509","0.0-126.0","A1J4INYRDDX84W","img_art/16.jpg","1","","","","","","","","","","","","","","","","","","","","","","","","",""
"3653","","image-button-response","131","2552165","0.0-127.0-0.0","A1J4INYRDDX84W","img_art/16.jpg","5","","","","","","","","","","","","","","","","","","","","","","","","",""
"501","","image-button-response","132","2552669","0.0-128.0-0.0","A1J4INYRDDX84W","img_art/16.jpg","4","","","","","","","","","","","","","","","","","","","","","","","","",""
"null","","html-keyboard-response","133","2554185","0.0-129.0","A1J4INYRDDX84W","<p style=""font-size: 48px;"">+</p>","","","","","null","allTrialResponses","1500","1","12","img_art/16.jpg","-46","I see a teddy bear surrounded by dysfunction.","Hailey,Katherine,Sydney,Claire,Molly,Kristen","cute and warm. i like the bear,15,200,20","Super weird. Id like to know more about it,24,120,20","This piece is unusual but unique.,5,320,20","the materials used are interesting,30,260,20","It's frightening.,30,340,20","sad. desth of childhood,-5,280,20","Katherine","Super weird. Id like to know more about it,24,120,20","Kristen","sad. desth of childhood,-5,280,20","Molly","It's frightening.,30,340,20","5"
"19509","","survey-text","134","2573700","0.0-130.0-0.0","A1J4INYRDDX84W","","","","{""Q0"":""Looks like an abstract explosion.""}","","","","","","","","","","","","","","","","","","","","","","",""
"3676.899999976158","","image-slider-response","135","2577380","0.0-131.0","A1J4INYRDDX84W","","","","","-43","","","","","","","","","","","","","","","","","","","","","",""
"null","","image-button-response","136","2582383","0.0-132.0","A1J4INYRDDX84W","img_art/21.jpg","null","","","","","","","","","","","","","","","","","","","","","","","","",""
"1243","","image-button-response","137","2583629","0.0-133.0","A1J4INYRDDX84W","img_art/21.jpg","0","","","","","","","","","","","","","","","","","","","","","","","","",""
"2998","","image-button-response","138","2586629","0.0-134.0-0.0","A1J4INYRDDX84W","img_art/21.jpg","4","","","","","","","","","","","","","","","","","","","","","","","","",""
"3548","","image-button-response","139","2590181","0.0-135.0-0.0","A1J4INYRDDX84W","img_art/21.jpg","5","","","","","","","","","","","","","","","","","","","","","","","","",""
"null","","html-keyboard-response","140","2591183","0.0-136.0","A1J4INYRDDX84W","<p style=""font-size: 48px;"">+</p>","","","","","null","allTrialResponses","1000","1","13","img_art/21.jpg","-43","Looks like an abstract explosion.","Kathryn,Katherine,Katie,Sierra,Molly,Kristen","This feels chaotic, like a battle or a storm.,-20,140,20","I can't explain why this struck me as absolutely gorgeous. Like the clashing between 2 different worlds,43,120,20","Immediately a positive response! I like the muted colors. the blurriness calms me. It's serene,40,160,20","i like the way the colors divide the canvas.,16,260,20","Looks like a war. Many things happening on the painting, really enjoy it.,30,340,20","calm, ship at sea, sunset,16,280,20","Kathryn","This feels chaotic, like a battle or a storm.,-20,140,20","Molly","Looks like a war. Many things happening on the painting, really enjoy it.,30,340,20","Kristen","calm, ship at sea, sunset,16,280,20","5"
"58622","","survey-text","141","2649811","0.0-137.0-0.0","A1J4INYRDDX84W","","","","{""Q0"":""Looks like people with musical instruments embedded in abstract art.""}","","","","","","","","","","","","","","","","","","","","","","",""
"6788.700000047684","","image-slider-response","142","2656603","0.0-138.0","A1J4INYRDDX84W","","","","","-22","","","","","","","","","","","","","","","","","","","","","",""
"4750","","image-button-response","143","2661607","0.0-139.0","A1J4INYRDDX84W","img_art/23.jpg","1","","","","","","","","","","","","","","","","","","","","","","","","",""
"1459","","image-button-response","144","2663068","0.0-140.0","A1J4INYRDDX84W","img_art/23.jpg","0","","","","","","","","","","","","","","","","","","","","","","","","",""
"3686","","image-button-response","145","2666756","0.0-141.0-0.0","A1J4INYRDDX84W","img_art/23.jpg","3","","","","","","","","","","","","","","","","","","","","","","","","",""
"4605","","image-button-response","146","2671364","0.0-142.0-0.0","A1J4INYRDDX84W","img_art/23.jpg","1","","","","","","","","","","","","","","","","","","","","","","","","",""
"null","","html-keyboard-response","147","2672367","0.0-143.0","A1J4INYRDDX84W","<p style=""font-size: 48px;"">+</p>","","","","","null","allTrialResponses","1000","1","14","img_art/23.jpg","-22","Looks like people with musical instruments embedded in abstract art.","Kathryn,Stephanie,Alexandra,Morgan,Molly,Kristen","I feel positive community and comfort. Singing along at a concert, united with a bunch of strangers through shared joy.,20,140,20","This makes me think of an orchestra playing a forth of july song,12,300,20","This is my favorite of them all. I love the colors.,41,60,20","Unicorns flying through a colorful space.,25,380,20","Shocked, beautiful.,20,340,20","fsiries, happy, spiritual,16,280,20","Kathryn","I feel positive community and comfort. Singing along at a concert, united with a bunch of strangers through shared joy.,20,140,20","Morgan","Unicorns flying through a colorful space.,25,380,20","Stephanie","This makes me think of an orchestra playing a forth of july song,12,300,20","5"
"37061","","survey-text","148","2709436","0.0-144.0-0.0","A1J4INYRDDX84W","","","","{""Q0"":""nothing here but distraction.,""}","","","","","","","","","","","","","","","","","","","","","","",""
"2404.600000023842","","image-slider-response","149","2711844","0.0-145.0","A1J4INYRDDX84W","","","","","-50","","","","","","","","","","","","","","","","","","","","","",""
"4774","","image-button-response","150","2716861","0.0-146.0","A1J4INYRDDX84W","img_art/13.jpg","0","","","","","","","","","","","","","","","","","","","","","","","","",""
"428","","image-button-response","151","2717292","0.0-147.0","A1J4INYRDDX84W","img_art/13.jpg","0","","","","","","","","","","","","","","","","","","","","","","","","",""
"3494","","image-button-response","152","2720788","0.0-148.0-0.0","A1J4INYRDDX84W","img_art/13.jpg","3","","","","","","","","","","","","","","","","","","","","","","","","",""
"1317","","image-button-response","153","2722108","0.0-149.0-0.0","A1J4INYRDDX84W","img_art/13.jpg","1","","","","","","","","","","","","","","","","","","","","","","","","",""
"null","","html-keyboard-response","154","2723615","0.0-150.0","A1J4INYRDDX84W","<p style=""font-size: 48px;"">+</p>","","","","","null","allTrialResponses","1500","1","15","img_art/13.jpg","-50","nothing here but distraction.,","Kathryn,Stephanie,Dominique,Morgan,Jenna,Crystal","Reminds me of depression anxiety, but negativity is dampened by motion. It's trying to release itself through expression.,-10,140,20","Raindrops splashing on the window.,50,300,20","I love the colors reminds me of a rainy day..it's calm and relaxing,32,400,20","Seeing the world through different lenses.,15,380,20","exciting & chaotic. love the colors.,50,360,20","Reminiscent of Jackson Pollock and gives me a feeling of chaotic satisfaction,50,300,20","Kathryn","Reminds me of depression anxiety, but negativity is dampened by motion. It's trying to release itself through expression.,-10,140,20","Morgan","Seeing the world through different lenses.,15,380,20","Stephanie","Raindrops splashing on the window.,50,300,20","5"
"4849","","survey-text","155","2728475","0.0-151.0-0.0","A1J4INYRDDX84W","","","","{""Q0"":""course""}","","","","","","","","","","","","","","","","","","","","","","",""
"76174","","survey-text","156","2804652","0.0-152.0-0.0","A1J4INYRDDX84W","","","","{""Q0"":""The apocalypse.""}","","","","","","","","","","","","","","","","","","","","","","",""
"5348.899999976158","","image-slider-response","157","2810004","0.0-153.0","A1J4INYRDDX84W","","","","","-5","","","","","","","","","","","","","","","","","","","","","",""
"4902","","image-button-response","158","2815014","0.0-154.0","A1J4INYRDDX84W","img_art/18.jpg","0","","","","","","","","","","","","","","","","","","","","","","","","",""
"956","","image-button-response","159","2815972","0.0-155.0","A1J4INYRDDX84W","img_art/18.jpg","0","","","","","","","","","","","","","","","","","","","","","","","","",""
"5118","","image-button-response","160","2821093","0.0-156.0-0.0","A1J4INYRDDX84W","img_art/18.jpg","4","","","","","","","","","","","","","","","","","","","","","","","","",""
"525","","image-button-response","161","2821621","0.0-157.0-0.0","A1J4INYRDDX84W","img_art/18.jpg","3","","","","","","","","","","","","","","","","","","","","","","","","",""
"null","","html-keyboard-response","162","2822623","0.0-158.0","A1J4INYRDDX84W","<p style=""font-size: 48px;"">+</p>","","","","","null","allTrialResponses","1000","1","16","img_art/18.jpg","-5","The apocalypse.","Kathryn,Stephanie,Autumn,Morgan,Michelle,Chelsea","Like riding into battle. A sense of confidence, but also trepidation for what's coming. Could be a personification of death.,-10,140,20","It made me think of a car crash,-39,300,20","This looks amazing.,40,340,20","Ghostly sea adventure.,20,380,20","The small lines elicit a very nauseating response for some reason, too Dali like for me,-19,280,20","I like the detail but I wouldn't hang this up on my wall.,14,180,20","Kathryn","Like riding into battle. A sense of confidence, but also trepidation for what's coming. Could be a personification of death.,-10,140,20","Michelle","The small lines elicit a very nauseating response for some reason, too Dali like for me,-19,280,20","Morgan","Ghostly sea adventure.,20,380,20","5"
"26054","","survey-text","163","2848684","0.0-159.0-0.0","A1J4INYRDDX84W","","","","{""Q0"":""a lot of ink blots a child could create. ""}","","","","","","","","","","","","","","","","","","","","","","",""
"2469","","image-slider-response","164","2851156","0.0-160.0","A1J4INYRDDX84W","","","","","-50","","","","","","","","","","","","","","","","","","","","","",""
"null","","image-button-response","165","2856166","0.0-161.0","A1J4INYRDDX84W","img_art/3.jpg","null","","","","","","","","","","","","","","","","","","","","","","","","",""
"677","","image-button-response","166","2856845","0.0-162.0","A1J4INYRDDX84W","img_art/3.jpg","2","","","","","","","","","","","","","","","","","","","","","","","","",""
"3350","","image-button-response","167","2860197","0.0-163.0-0.0","A1J4INYRDDX84W","img_art/3.jpg","4","","","","","","","","","","","","","","","","","","","","","","","","",""
"1165","","image-button-response","168","2861365","0.0-164.0-0.0","A1J4INYRDDX84W","img_art/3.jpg","3","","","","","","","","","","","","","","","","","","","","","","","","",""
"null","","html-keyboard-response","169","2861870","0.0-165.0","A1J4INYRDDX84W","<p style=""font-size: 48px;"">+</p>","","","","","null","allTrialResponses","500","1","17","img_art/3.jpg","-50","a lot of ink blots a child could create. ","Kathryn,Erika,Shannon,Morgan,Michelle,Amber","This gives me a negative feeling, like someone trying to scratch out their flaws. I see low self-esteem.,-20,140,20","Unaure what the artist  was doing, needs context,11,100,20","I can't tell what this image is supposed to be it looks extremely ugly and color variety is boring.,-50,220,20","Somewhere between a child's art and a poorly drawn battle map.,8,380,20","Ok, just a bunch of red lines and a grey smudge. Would pass this right by in a gallery,-12,280,20","seems to be a lot of angry scribble.,-20,200,20","Shannon","I can't tell what this image is supposed to be it looks extremely ugly and color variety is boring.,-50,220,20","Michelle","Ok, just a bunch of red lines and a grey smudge. Would pass this right by in a gallery,-12,280,20","Morgan","Somewhere between a child's art and a poorly drawn battle map.,8,380,20","5"
"16855","","survey-text","170","2878732","0.0-166.0-0.0","A1J4INYRDDX84W","","","","{""Q0"":""colors of leaves in autumn""}","","","","","","","","","","","","","","","","","","","","","","",""
"2245.6999999284744","","image-slider-response","171","2880980","0.0-167.0","A1J4INYRDDX84W","","","","","-21","","","","","","","","","","","","","","","","","","","","","",""
"null","","image-button-response","172","2885997","0.0-168.0","A1J4INYRDDX84W","img_art/1.jpg","null","","","","","","","","","","","","","","","","","","","","","","","","",""
"4670","","image-button-response","173","2890669","0.0-169.0","A1J4INYRDDX84W","img_art/1.jpg","5","","","","","","","","","","","","","","","","","","","","","","","","",""
"2661","","image-button-response","174","2893333","0.0-170.0-0.0","A1J4INYRDDX84W","img_art/1.jpg","2","","","","","","","","","","","","","","","","","","","","","","","","",""
"1229","","image-button-response","175","2894565","0.0-171.0-0.0","A1J4INYRDDX84W","img_art/1.jpg","1","","","","","","","","","","","","","","","","","","","","","","","","",""
"null","","html-keyboard-response","176","2895069","0.0-172.0","A1J4INYRDDX84W","<p style=""font-size: 48px;"">+</p>","","","","","null","allTrialResponses","500","1","18","img_art/1.jpg","-21","colors of leaves in autumn","Rachel,Monica,Shannon,Morgan,Michelle,Briana","While I like the colors, I find nothing interesting or thought provoking about it.,10,80,20","I like the yellow and purple but the large red spot reminds me of blood and isn't great,6,360,20","I think that this picture has nice colors and its pleasing to the eyes.,20,220,20","Flat colors with no flavor.,5,380,20","Random paint does not make art,-5,280,20","I like the colors. But it doesnt look like anything,27,400,20","Briana","I like the colors. But it doesnt look like anything,27,400,20","Shannon","I think that this picture has nice colors and its pleasing to the eyes.,20,220,20","Monica","I like the yellow and purple but the large red spot reminds me of blood and isn't great,6,360,20","5"
"43287","","survey-text","177","2938364","0.0-173.0-0.0","A1J4INYRDDX84W","","","","{""Q0"":""A blood moon surrounded by negativity.""}","","","","","","","","","","","","","","","","","","","","","","",""
"2972.5","","image-slider-response","178","2941340","0.0-174.0","A1J4INYRDDX84W","","","","","-50","","","","","","","","","","","","","","","","","","","","","",""
"null","","image-button-response","179","2946343","0.0-175.0","A1J4INYRDDX84W","img_art/22.jpg","null","","","","","","","","","","","","","","","","","","","","","","","","",""
"730","","image-button-response","180","2947076","0.0-176.0","A1J4INYRDDX84W","img_art/22.jpg","0","","","","","","","","","","","","","","","","","","","","","","","","",""
"2365","","image-button-response","181","2949444","0.0-177.0-0.0","A1J4INYRDDX84W","img_art/22.jpg","3","","","","","","","","","","","","","","","","","","","","","","","","",""
"1925","","image-button-response","182","2951372","0.0-178.0-0.0","A1J4INYRDDX84W","img_art/22.jpg","4","","","","","","","","","","","","","","","","","","","","","","","","",""
"null","","html-keyboard-response","183","2952885","0.0-179.0","A1J4INYRDDX84W","<p style=""font-size: 48px;"">+</p>","","","","","null","allTrialResponses","1500","1","19","img_art/22.jpg","-50","A blood moon surrounded by negativity.","Ashley,Monica,Shannon,Catherine,Madison,Briana","Another servicable piece of abstract art?,20,320,20","I really like the bright colors and sunset feel,31,360,20","I think this picture looks interesting because of the way the colors work together.,20,220,20","Scary monsters lurking causing confusion.,-40,160,20","Like the colors, and the even blur. The more I look, the more a story forms. A very narrative image.,18,60,20","Bright colors feel warm,22,400,20","Ashley","Another servicable piece of abstract art?,20,320,20","Catherine","Scary monsters lurking causing confusion.,-40,160,20","Madison","Like the colors, and the even blur. The more I look, the more a story forms. A very narrative image.,18,60,20","5"
"44990","","survey-text","184","2997884","0.0-180.0-0.0","A1J4INYRDDX84W","","","","{""Q0"":""I see abeautiful well painted   waterfall.""}","","","","","","","","","","","","","","","","","","","","","","",""
"3005.5","","image-slider-response","185","3000892","0.0-181.0","A1J4INYRDDX84W","","","","","48","","","","","","","","","","","","","","","","","","","","","",""
"4325","","image-button-response","186","3005910","0.0-182.0","A1J4INYRDDX84W","img_art/24.jpg","0","","","","","","","","","","","","","","","","","","","","","","","","",""
"1339","","image-button-response","187","3007252","0.0-183.0","A1J4INYRDDX84W","img_art/24.jpg","3","","","","","","","","","","","","","","","","","","","","","","","","",""
"1445","","image-button-response","188","3008700","0.0-184.0-0.0","A1J4INYRDDX84W","img_art/24.jpg","0","","","","","","","","","","","","","","","","","","","","","","","","",""
"1101","","image-button-response","189","3009804","0.0-185.0-0.0","A1J4INYRDDX84W","img_art/24.jpg","0","","","","","","","","","","","","","","","","","","","","","","","","",""
"5094","","image-button-response","190","3020445","0.0-185.1-0.1","A1J4INYRDDX84W","img_art/24.jpg","5","","","","","","","","","","","","","","","","","","","","","","","","",""
"null","","html-keyboard-response","191","3020947","0.0-186.0","A1J4INYRDDX84W","<p style=""font-size: 48px;"">+</p>","","","","","null","allTrialResponses","500","1","20","img_art/24.jpg","48","I see abeautiful well painted   waterfall.","Ashley,Paige,Chloe,Catherine,Madison,Angelica","NOt quite Bob Ross, but still good.,30,320,20","somewhat happy. I like the colors,38,60,20","Pretty but cheesy,-15,220,20","Nature, Peace, connected.,50,160,20","Exceedingly garish,-19,60,20","This looks ugly and simple, as if done by a young person.,-2,280,20","Catherine","Nature, Peace, connected.,50,160,20","Ashley","NOt quite Bob Ross, but still good.,30,320,20","Angelica","This looks ugly and simple, as if done by a young person.,-2,280,20","7"
"3532","","survey-text","192","3024492","0.0-187.0-0.0","A1J4INYRDDX84W","","","","{""Q0"":""we""}","","","","","","","","","","","","","","","","","","","","","","",""
"29133","","survey-text","193","3053628","0.0-188.0-0.0","A1J4INYRDDX84W","","","","{""Q0"":""pure abstraction""}","","","","","","","","","","","","","","","","","","","","","","",""
"2069.6999999284744","","image-slider-response","194","3055700","0.0-189.0","A1J4INYRDDX84W","","","","","-30","","","","","","","","","","","","","","","","","","","","","",""
"4319","","image-button-response","195","3060703","0.0-190.0","A1J4INYRDDX84W","img_art/5.jpg","0","","","","","","","","","","","","","","","","","","","","","","","","",""
"2819","","image-button-response","196","3063525","0.0-191.0","A1J4INYRDDX84W","img_art/5.jpg","3","","","","","","","","","","","","","","","","","","","","","","","","",""
"925","","image-button-response","197","3064453","0.0-192.0-0.0","A1J4INYRDDX84W","img_art/5.jpg","4","","","","","","","","","","","","","","","","","","","","","","","","",""
"3589","","image-button-response","198","3068045","0.0-193.0-0.0","A1J4INYRDDX84W","img_art/5.jpg","1","","","","","","","","","","","","","","","","","","","","","","","","",""
"null","","html-keyboard-response","199","3069053","0.0-194.0","A1J4INYRDDX84W","<p style=""font-size: 48px;"">+</p>","","","","","null","allTrialResponses","1000","1","21","img_art/5.jpg","-30","pure abstraction","Ashley,Christina,Grace,Catherine,Meghan,Angelica","I like the simple shapes and colors.,23,320,20","looks like a little kids painting,-50,240,20","Looks like a yellow plastic trash bag.,-42,180,20","Building remnants in the sand.,1,160,20","I like it but I don't know why,15,220,20","This is interesting and nice.,16,280,20","Catherine","Building remnants in the sand.,1,160,20","Meghan","I like it but I don't know why,15,220,20","Christina","looks like a little kids painting,-50,240,20","7"
"32200","","survey-text","200","3101261","0.0-195.0-0.0","A1J4INYRDDX84W","","","","{""Q0"":""The grim reaper surrounded by spirits.""}","","","","","","","","","","","","","","","","","","","","","","",""
"2372.100000023842","","image-slider-response","201","3103636","0.0-196.0","A1J4INYRDDX84W","","","","","3","","","","","","","","","","","","","","","","","","","","","",""
"3646","","image-button-response","202","3108640","0.0-197.0","A1J4INYRDDX84W","img_art/25.jpg","0","","","","","","","","","","","","","","","","","","","","","","","","",""
"2931","","image-button-response","203","3111573","0.0-198.0","A1J4INYRDDX84W","img_art/25.jpg","4","","","","","","","","","","","","","","","","","","","","","","","","",""
"1757","","image-button-response","204","3113333","0.0-199.0-0.0","A1J4INYRDDX84W","img_art/25.jpg","2","","","","","","","","","","","","","","","","","","","","","","","","",""
"2188","","image-button-response","205","3115525","0.0-200.0-0.0","A1J4INYRDDX84W","img_art/25.jpg","0","","","","","","","","","","","","","","","","","","","","","","","","",""
"null","","html-keyboard-response","206","3116533","0.0-201.0","A1J4INYRDDX84W","<p style=""font-size: 48px;"">+</p>","","","","","null","allTrialResponses","1000","1","22","img_art/25.jpg","3","The grim reaper surrounded by spirits.","Danielle,Christina,Victoria,Catherine,Meghan,Margaret","I like it, a bit cryptic and obscene, I enjoy that,30,340,20","nice colors and it looks like a native work,32,240,20","makes me think of a scary movie,-20,400,20","culture, tradition. Village people with an honored elder.,40,160,20","reminds me of a zombie,-36,220,20","love the color and the contrast of the black on teal,50,100,20","Meghan","reminds me of a zombie,-36,220,20","Victoria","makes me think of a scary movie,-20,400,20","Danielle","I like it, a bit cryptic and obscene, I enjoy that,30,340,20","7"
"31535","","survey-text","207","3148076","0.0-202.0-0.0","A1J4INYRDDX84W","","","","{""Q0"":""Bridges and tunnels entwined in Asia.""}","","","","","","","","","","","","","","","","","","","","","","",""
"2804.6999999284744","","image-slider-response","208","3150884","0.0-203.0","A1J4INYRDDX84W","","","","","16","","","","","","","","","","","","","","","","","","","","","",""
"null","","image-button-response","209","3155888","0.0-204.0","A1J4INYRDDX84W","img_art/11.jpg","null","","","","","","","","","","","","","","","","","","","","","","","","",""
"131","","image-button-response","210","3156021","0.0-205.0","A1J4INYRDDX84W","img_art/11.jpg","0","","","","","","","","","","","","","","","","","","","","","","","","",""
"3494","","image-button-response","211","3159517","0.0-206.0-0.0","A1J4INYRDDX84W","img_art/11.jpg","5","","","","","","","","","","","","","","","","","","","","","","","","",""
"1756","","image-button-response","212","3161277","0.0-207.0-0.0","A1J4INYRDDX84W","img_art/11.jpg","1","","","","","","","","","","","","","","","","","","","","","","","","",""
"null","","html-keyboard-response","213","3162789","0.0-208.0","A1J4INYRDDX84W","<p style=""font-size: 48px;"">+</p>","","","","","null","allTrialResponses","1500","1","23","img_art/11.jpg","16","Bridges and tunnels entwined in Asia.","Danielle,Andrea,Victoria,Samantha,Meghan,Miranda","Reminds me of some of post-apocalyptic view of street lights or maybe a city,30,340,20","My initial thought was roller coasters but I see ship masts on a cloudy day too.,35,240,20","reminds me of a rainy day in the city,32,400,20","Love the colors and flow,50,140,20","makes me feel dizzy,-37,220,20","This one is a little erie, gives me post-apocalyptic feeling,27,320,20","Danielle","Reminds me of some of post-apocalyptic view of street lights or maybe a city,30,340,20","Miranda","This one is a little erie, gives me post-apocalyptic feeling,27,320,20","Andrea","My initial thought was roller coasters but I see ship masts on a cloudy day too.,35,240,20","7"
"24591","","survey-text","214","3187388","0.0-209.0-0.0","A1J4INYRDDX84W","","","","{""Q0"":""A building in a 3rd world country. ""}","","","","","","","","","","","","","","","","","","","","","","",""
"2773.5","","image-slider-response","215","3190164","0.0-210.0","A1J4INYRDDX84W","","","","","-3","","","","","","","","","","","","","","","","","","","","","",""
"4102","","image-button-response","216","3195168","0.0-211.0","A1J4INYRDDX84W","img_art/12.jpg","0","","","","","","","","","","","","","","","","","","","","","","","","",""
"1611","","image-button-response","217","3196781","0.0-212.0","A1J4INYRDDX84W","img_art/12.jpg","4","","","","","","","","","","","","","","","","","","","","","","","","",""
"1597","","image-button-response","218","3198381","0.0-213.0-0.0","A1J4INYRDDX84W","img_art/12.jpg","5","","","","","","","","","","","","","","","","","","","","","","","","",""
"2333","","image-button-response","219","3200717","0.0-214.0-0.0","A1J4INYRDDX84W","img_art/12.jpg","2","","","","","","","","","","","","","","","","","","","","","","","","",""
"null","","html-keyboard-response","220","3201219","0.0-215.0","A1J4INYRDDX84W","<p style=""font-size: 48px;"">+</p>","","","","","null","allTrialResponses","500","1","24","img_art/12.jpg","-3","A building in a 3rd world country. ","Danielle,Andrea,Erin,Mackenzie,Alyssa,Miranda","Kind of interesting, seems almost nostalgic in a way to me.,10,340,20","It just feels like a jigsaw puzzle,-4,240,20","City scape but palette is odd,4,120,20","I like the color scheme.,10,20,20","Its cool,reminiscent of Andy Warhol type of style,10,160,20","This is like going to a really old mcdoanlds in a tiny town and it's never been renovated so it's breaking down,-31,320,20","Alyssa","Its cool,reminiscent of Andy Warhol type of style,10,160,20","Miranda","This is like going to a really old mcdoanlds in a tiny town and it's never been renovated so it's breaking down,-31,320,20","Erin","City scape but palette is odd,4,120,20","7"
"66046","","survey-text","221","3267276","0.0-216.0-0.0","A1J4INYRDDX84W","","","","{""Q0"":""A very good art work of a building going into the sea with spirits surrounding it. ""}","","","","","","","","","","","","","","","","","","","","","","",""
"2189.600000023842","","image-slider-response","222","3269468","0.0-217.0","A1J4INYRDDX84W","","","","","47","","","","","","","","","","","","","","","","","","","","","",""
"3013","","image-button-response","223","3274474","0.0-218.0","A1J4INYRDDX84W","img_art/8.jpg","2","","","","","","","","","","","","","","","","","","","","","","","","",""
"3264","","image-button-response","224","3277740","0.0-219.0","A1J4INYRDDX84W","img_art/8.jpg","5","","","","","","","","","","","","","","","","","","","","","","","","",""
"1173","","image-button-response","225","3278916","0.0-220.0-0.0","A1J4INYRDDX84W","img_art/8.jpg","2","","","","","","","","","","","","","","","","","","","","","","","","",""
"3293","","image-button-response","226","3282212","0.0-221.0-0.0","A1J4INYRDDX84W","img_art/8.jpg","3","","","","","","","","","","","","","","","","","","","","","","","","",""
"null","","html-keyboard-response","227","3283217","0.0-222.0","A1J4INYRDDX84W","<p style=""font-size: 48px;"">+</p>","","","","","null","allTrialResponses","1000","1","25","img_art/8.jpg","47","A very good art work of a building going into the sea with spirits surrounding it. ","Destiny,Brianna,Erin,Cassandra,Alyssa,Miranda","a cute little cute with some protectors,25,360,20","It's very odd and I don't really like it,-30,20,20","Lots of depth, faces, city, arch,3,120,20","I like the colors and the scene.,24,120,20","I like how the more you like at it there are more things to discover.Very creative.,33,160,20","I like this, the longer I look at in the more details I see.,41,320,20","Miranda","I like this, the longer I look at in the more details I see.,41,320,20","Erin","Lots of depth, faces, city, arch,3,120,20","Cassandra","I like the colors and the scene.,24,120,20","7"
"5387","","survey-text","228","3288620","0.0-223.0-0.0","A1J4INYRDDX84W","","","","{""Q0"":""table""}","","","","","","","","","","","","","","","","","","","","","","",""
"20326","","survey-text","229","3308948","0.0-224.0-0.0","A1J4INYRDDX84W","","","","{""Q0"":""fossils in the sand.""}","","","","","","","","","","","","","","","","","","","","","","",""
"2061.6999999284744","","image-slider-response","230","3311012","0.0-225.0","A1J4INYRDDX84W","","","","","-15","","","","","","","","","","","","","","","","","","","","","",""
"4070","","image-button-response","231","3316015","0.0-226.0","A1J4INYRDDX84W","img_art/7.jpg","1","","","","","","","","","","","","","","","","","","","","","","","","",""
"410","","image-button-response","232","3316428","0.0-227.0","A1J4INYRDDX84W","img_art/7.jpg","0","","","","","","","","","","","","","","","","","","","","","","","","",""
"1310","","image-button-response","233","3317740","0.0-228.0-0.0","A1J4INYRDDX84W","img_art/7.jpg","4","","","","","","","","","","","","","","","","","","","","","","","","",""
"157","","image-button-response","234","3317900","0.0-229.0-0.0","A1J4INYRDDX84W","img_art/7.jpg","4","","","","","","","","","","","","","","","","","","","","","","","","",""
"694","","image-button-response","235","3321820","0.0-229.1-0.1","A1J4INYRDDX84W","img_art/7.jpg","0","","","","","","","","","","","","","","","","","","","","","","","","",""
"518","","image-button-response","236","3325220","0.0-229.2-0.2","A1J4INYRDDX84W","img_art/7.jpg","3","","","","","","","","","","","","","","","","","","","","","","","","",""
"null","","html-keyboard-response","237","3326237","0.0-230.0","A1J4INYRDDX84W","<p style=""font-size: 48px;"">+</p>","","","","","null","allTrialResponses","1000","1","26","img_art/7.jpg","-15","fossils in the sand.","Jordan,Laura,Erin,Cassandra,Diana,Miranda","looks like the surface of the moon.,1,20,20","I feel thirsty - reminds me of desert sand,11,320,20","Color is bland and looks damaged,-37,120,20","Just neutral...looks like sand at the beach.,3,120,20","This piece reminds me of ants and it makes my skin crawl.,-37,380,20","This looks like a literal picture of the ground so I'm really not too sure about this one.,-42,320,20","Jordan","looks like the surface of the moon.,1,20,20","Diana","This piece reminds me of ants and it makes my skin crawl.,-37,380,20","Cassandra","Just neutral...looks like sand at the beach.,3,120,20","11"
"26309","","survey-text","238","3352556","0.0-231.0-0.0","A1J4INYRDDX84W","","","","{""Q0"":""nice abstract colors""}","","","","","","","","","","","","","","","","","","","","","","",""
"2260.5","","image-slider-response","239","3354820","0.0-232.0","A1J4INYRDDX84W","","","","","-2","","","","","","","","","","","","","","","","","","","","","",""
"4422","","image-button-response","240","3359824","0.0-233.0","A1J4INYRDDX84W","img_art/17.jpg","0","","","","","","","","","","","","","","","","","","","","","","","","",""
"482","","image-button-response","241","3360309","0.0-234.0","A1J4INYRDDX84W","img_art/17.jpg","3","","","","","","","","","","","","","","","","","","","","","","","","",""
"2501","","image-button-response","242","3362813","0.0-235.0-0.0","A1J4INYRDDX84W","img_art/17.jpg","5","","","","","","","","","","","","","","","","","","","","","","","","",""
"1092","","image-button-response","243","3363909","0.0-236.0-0.0","A1J4INYRDDX84W","img_art/17.jpg","2","","","","","","","","","","","","","","","","","","","","","","","","",""
"null","","html-keyboard-response","244","3364412","0.0-237.0","A1J4INYRDDX84W","<p style=""font-size: 48px;"">+</p>","","","","","null","allTrialResponses","500","1","27","img_art/17.jpg","-2","nice abstract colors","Jordan,Sarah,Sara,Cassandra,Diana,Amy","absolutely gorgeous, I feel solitude again, but the beauty is there also,50,20,20","i like the delicate wispy part, but overall i don't love it,10,180,20","Beautiful patterns but evokes sad emotions in me due to the color shades,31,160,20","Very pretty...the colors and good and flow well.,33,120,20","I really enjoyed this piece, it's a play on bringing the outside indoors.,32,380,20","peaceful. contemplative. balanced. old,10,220,20","Cassandra","Very pretty...the colors and good and flow well.,33,120,20","Amy","peaceful. contemplative. balanced. old,10,220,20","Sara","Beautiful patterns but evokes sad emotions in me due to the color shades,31,160,20","11"
"18976","","survey-text","245","3383397","0.0-238.0-0.0","A1J4INYRDDX84W","","","","{""Q0"":""Looks like a kindergarten painting.""}","","","","","","","","","","","","","","","","","","","","","","",""
"2708.600000023842","","image-slider-response","246","3386109","0.0-239.0","A1J4INYRDDX84W","","","","","-29","","","","","","","","","","","","","","","","","","","","","",""
"2862","","image-button-response","247","3391112","0.0-240.0","A1J4INYRDDX84W","img_art/2.jpg","1","","","","","","","","","","","","","","","","","","","","","","","","",""
"2538","","image-button-response","248","3393653","0.0-241.0","A1J4INYRDDX84W","img_art/2.jpg","5","","","","","","","","","","","","","","","","","","","","","","","","",""
"2765","","image-button-response","249","3396421","0.0-242.0-0.0","A1J4INYRDDX84W","img_art/2.jpg","1","","","","","","","","","","","","","","","","","","","","","","","","",""
"781","","image-button-response","250","3397205","0.0-243.0-0.0","A1J4INYRDDX84W","img_art/2.jpg","2","","","","","","","","","","","","","","","","","","","","","","","","",""
"null","","html-keyboard-response","251","3398707","0.0-244.0","A1J4INYRDDX84W","<p style=""font-size: 48px;"">+</p>","","","","","null","allTrialResponses","1500","1","28","img_art/2.jpg","-29","Looks like a kindergarten painting.","Jennifer,Gabriela,Sara,Cassandra,Emily,Amy","Ugly color scheme,-50,380,20","The people look blurred together,-21,140,20","Dark tone feels sad,-30,160,20","I didn't like this it looked like a kindergardner painted it and the green was out of place.,-46,120,20","Random colors and shapes mashed together. Nothing artistic, but better than some of the other ones.,-37,40,20","The color palette of this painting is for me displeasing and immature.,-30,220,20","Amy","The color palette of this painting is for me displeasing and immature.,-30,220,20","Gabriela","The people look blurred together,-21,140,20","Sara","Dark tone feels sad,-30,160,20","11"
"21783","","survey-text","252","3420500","0.0-245.0-0.0","A1J4INYRDDX84W","","","","{""Q0"":""Looks too grim in ugly colors.""}","","","","","","","","","","","","","","","","","","","","","","",""
"1805.7000000476837","","image-slider-response","253","3422308","0.0-246.0","A1J4INYRDDX84W","","","","","-50","","","","","","","","","","","","","","","","","","","","","",""
"2637","","image-button-response","254","3427312","0.0-247.0","A1J4INYRDDX84W","img_art/28.jpg","1","","","","","","","","","","","","","","","","","","","","","","","","",""
"1209","","image-button-response","255","3428525","0.0-248.0","A1J4INYRDDX84W","img_art/28.jpg","1","","","","","","","","","","","","","","","","","","","","","","","","",""
"694","","image-button-response","256","3429221","0.0-249.0-0.0","A1J4INYRDDX84W","img_art/28.jpg","2","","","","","","","","","","","","","","","","","","","","","","","","",""
"532","","image-button-response","257","3429756","0.0-250.0-0.0","A1J4INYRDDX84W","img_art/28.jpg","0","","","","","","","","","","","","","","","","","","","","","","","","",""
"null","","html-keyboard-response","258","3430268","0.0-251.0","A1J4INYRDDX84W","<p style=""font-size: 48px;"">+</p>","","","","","null","allTrialResponses","500","1","29","img_art/28.jpg","-50","Looks too grim in ugly colors.","Jasmine,Gabriela,Sara,Alexandria,Breanna,Amy","Colors too dull for me,-10,340,20","The brown and green colors used look dull and unappealing,-30,140,20","This swirly drawing i snot my type I get confused and dizzy,-20,160,20","no clear colors or meaning to evoke emotions,-15,80,20","The colors are depressing,-5,380,20","Contemplative and a little dark. The muted colors and subject create a sense of mystery.,15,220,20","Gabriela","The brown and green colors used look dull and unappealing,-30,140,20","Sara","This swirly drawing i snot my type I get confused and dizzy,-20,160,20","Jasmine","Colors too dull for me,-10,340,20","11"
"32063","","survey-text","259","3462340","0.0-252.0-0.0","A1J4INYRDDX84W","","","","{""Q0"":""Looks like a violin with vibrations around it.""}","","","","","","","","","","","","","","","","","","","","","","",""
"2916.7000000476837","","image-slider-response","260","3465260","0.0-253.0","A1J4INYRDDX84W","","","","","20","","","","","","","","","","","","","","","","","","","","","",""
"2941","","image-button-response","261","3470264","0.0-254.0","A1J4INYRDDX84W","img_art/10.jpg","1","","","","","","","","","","","","","","","","","","","","","","","","",""
"730","","image-button-response","262","3470997","0.0-255.0","A1J4INYRDDX84W","img_art/10.jpg","5","","","","","","","","","","","","","","","","","","","","","","","","",""
"381","","image-button-response","263","3471381","0.0-256.0-0.0","A1J4INYRDDX84W","img_art/10.jpg","4","","","","","","","","","","","","","","","","","","","","","","","","",""
"876","","image-button-response","264","3472260","0.0-257.0-0.0","A1J4INYRDDX84W","img_art/10.jpg","2","","","","","","","","","","","","","","","","","","","","","","","","",""
"null","","html-keyboard-response","265","3472764","0.0-258.0","A1J4INYRDDX84W","<p style=""font-size: 48px;"">+</p>","","","","","null","allTrialResponses","500","1","30","img_art/10.jpg","20","Looks like a violin with vibrations around it.","Jasmine,Gabriela,Sara,Caitlin,Leslie,Elizabeth","It's okay but not giving me the strongest reaction,6,340,20","It looks like a sea monster overtaking a ship,21,140,20","I don't like the colors,-20,160,20","The roller coaster from hell !!!,-10,80,20","I love the chaotic feel of the brush strokes.,35,380,20","Has an air of mystery around it,39,20,20","Elizabeth","Has an air of mystery around it,39,20,20","Leslie","I love the chaotic feel of the brush strokes.,35,380,20","Sara","I don't like the colors,-20,160,20","11"
"10302","","image-button-response_instructions","266","3483076","0.0-259.0","A1J4INYRDDX84W","","0","instructions","","","","","","","","","","","","","","","","","","","","","","","",""
"1383","","image-button-response","267","3484468","0.0-260.0","A1J4INYRDDX84W","","0","","","","","","","","","","","","","","","","","","","","","","","","",""
