"rt","url","trial_type","trial_index","time_elapsed","internal_node_id","participant_id","stimulus","button_pressed","Name","responses","response","key_press","variableName","fixationTime","condition","trial","photo","subjectRating","subjectResponse","agentsNames","agent_1_Response","agent_2_Response","agent_3_Response","agent_4_Response","agent_5_Response","agent_6_Response","kept_1_name","kept_1_response","kept_2_name","kept_2_response","kept_3_name","kept_3_response","errorCounter"
"25490","external_page_harvard.html","external-html","0","25631","0.0-0.0","A1J6LV7NWDKV9N","","","","","","","","","","","","","","","","","","","","","","","","","","",""
"5409","","image-button-response","1","31043","0.0-1.0","A1J6LV7NWDKV9N","","1","","","","","","","","","","","","","","","","","","","","","","","","",""
"3142","","image-button-response","2","34193","0.0-2.0-0.0","A1J6LV7NWDKV9N","","1","phone","","","","","","","","","","","","","","","","","","","","","","","",""
"21386","","survey-text","3","55583","0.0-3.0-0.0","A1J6LV7NWDKV9N","","","","{""Q0"":""A1J6LV7NWDKV9N""}","","","","","","","","","","","","","","","","","","","","","","",""
"18487","","image-button-response_instructions","4","74074","0.0-4.0","A1J6LV7NWDKV9N","","0","instructions","","","","","","","","","","","","","","","","","","","","","","","",""
"21978","","image-button-response_instructions","5","96054","0.0-5.0","A1J6LV7NWDKV9N","img_art/ins/popularity/ins1.png","0","instructions","","","","","","","","","","","","","","","","","","","","","","","",""
"7889","","image-button-response_instructions","6","103944","0.0-6.0","A1J6LV7NWDKV9N","img_art/ins/popularity/ins2.png","0","instructions","","","","","","","","","","","","","","","","","","","","","","","",""
"14240","","image-button-response_instructions","7","118186","0.0-7.0","A1J6LV7NWDKV9N","img_art/ins/popularity/ins2Extreme.png","0","instructions","","","","","","","","","","","","","","","","","","","","","","","",""
"16709","","image-button-response_instructions","8","134897","0.0-8.0","A1J6LV7NWDKV9N","img_art/ins/popularity/ins3KEEPpop.PNG","0","instructions","","","","","","","","","","","","","","","","","","","","","","","",""
"5919","","image-button-response_instructions","9","140819","0.0-9.0","A1J6LV7NWDKV9N","img_art/ins/popularity/ins3ANamepop.PNG","0","instructions","","","","","","","","","","","","","","","","","","","","","","","",""
"8785","","image-button-response_instructions","10","149606","0.0-10.0","A1J6LV7NWDKV9N","img_art/ins/popularity/ins3ARatingpop.png","0","instructions","","","","","","","","","","","","","","","","","","","","","","","",""
"4979","","image-button-response_instructions","11","154587","0.0-11.0","A1J6LV7NWDKV9N","img_art/ins/popularity/ins3ATextpop.png","0","instructions","","","","","","","","","","","","","","","","","","","","","","","",""
"8834","","image-button-response_instructions","12","163423","0.0-12.0","A1J6LV7NWDKV9N","img_art/ins/popularity/ins3ALikespop.png","0","instructions","","","","","","","","","","","","","","","","","","","","","","","",""
"20128","","image-button-response_instructions","13","183553","0.0-13.0","A1J6LV7NWDKV9N","img_art/ins/popularity/ins3KEEPpop.PNG","0","instructions","","","","","","","","","","","","","","","","","","","","","","","",""
"17767","","image-button-response_instructions","14","201322","0.0-14.0","A1J6LV7NWDKV9N","img_art/ins/popularity/ins3_5RED.png","0","instructions","","","","","","","","","","","","","","","","","","","","","","","",""
"7353","","image-button-response_instructions","15","208677","0.0-15.0","A1J6LV7NWDKV9N","img_art/ins/popularity/ins3KEEPpop.PNG","0","instructions","","","","","","","","","","","","","","","","","","","","","","","",""
"16645","","image-button-response_instructions","16","225324","0.0-16.0","A1J6LV7NWDKV9N","img_art/ins/popularity/ins4KEEPpop.PNG","0","instructions","","","","","","","","","","","","","","","","","","","","","","","",""
"7245","","image-button-response_instructions","17","232571","0.0-17.0","A1J6LV7NWDKV9N","img_art/ins/popularity/ins5KEEPpop.PNG","0","instructions","","","","","","","","","","","","","","","","","","","","","","","",""
"2285","","image-button-response_instructions","18","234857","0.0-18.0","A1J6LV7NWDKV9N","","0","instructions","","","","","","","","","","","","","","","","","","","","","","","",""
"7577","","survey-text","19","242464","0.0-19.0-0.0","A1J6LV7NWDKV9N","","","","{""Q0"":""but""}","","","","","","","","","","","","","","","","","","","","","","",""
"20507","","survey-text","20","262974","0.0-20.0-0.0","A1J6LV7NWDKV9N","","","","{""Q0"":""Colorful meadow scene""}","","","","","","","","","","","","","","","","","","","","","","",""
"8302.599999997765","","image-slider-response","21","271280","0.0-21.0","A1J6LV7NWDKV9N","","","","","12","","","","","","","","","","","","","","","","","","","","","",""
"null","","image-button-response","22","276288","0.0-22.0","A1J6LV7NWDKV9N","img_art/ins/1.jpg","null","","","","","","","","","","","","","","","","","","","","","","","","",""
"3344","","image-button-response","23","279635","0.0-23.0","A1J6LV7NWDKV9N","img_art/ins/1.jpg","0","","","","","","","","","","","","","","","","","","","","","","","","",""
"10412","","image-button-response","24","290052","0.0-24.0-0.0","A1J6LV7NWDKV9N","img_art/ins/1.jpg","5","","","","","","","","","","","","","","","","","","","","","","","","",""
"3615","","image-button-response","25","293671","0.0-25.0-0.0","A1J6LV7NWDKV9N","img_art/ins/1.jpg","0","","","","","","","","","","","","","","","","","","","","","","","","",""
"1491","","image-button-response","26","308513","0.0-25.1-0.1","A1J6LV7NWDKV9N","img_art/ins/1.jpg","4","","","","","","","","","","","","","","","","","","","","","","","","",""
"null","","html-keyboard-response","27","309522","0.0-26.0","A1J6LV7NWDKV9N","<p style=""font-size: 48px;"">+</p>","","","","","null","allTrialResponses","1000","1","-2","img_art/ins/1.jpg","12","Colorful meadow scene","Allison,Ashley,Beth,Dora,Erika,Jen","looks like a lot of things going on in the mist,20,20,20","I just don't get why these type of art would be popular,-32,40,20","This color reminds me of poo,-46,60,20","looks like what my niece in 3rd grade did this afternoon,-50,80,20","I like the sophisticated brushwork,40,100,20","It reminds me of a candy land dream I had,36,120,20","Allison","looks like a lot of things going on in the mist,20,20,20","Jen","It reminds me of a candy land dream I had,36,120,20","Erika","I like the sophisticated brushwork,40,100,20","2"
"15826","","survey-text","28","325354","0.0-27.0-0.0","A1J6LV7NWDKV9N","","","","{""Q0"":""Strong urban feel""}","","","","","","","","","","","","","","","","","","","","","","",""
"7406.800000000745","","image-slider-response","29","332763","0.0-28.0","A1J6LV7NWDKV9N","","","","","12","","","","","","","","","","","","","","","","","","","","","",""
"null","","image-button-response","30","337771","0.0-29.0","A1J6LV7NWDKV9N","img_art/ins/2.jpg","null","","","","","","","","","","","","","","","","","","","","","","","","",""
"15237","","image-button-response","31","353011","0.0-30.0","A1J6LV7NWDKV9N","img_art/ins/2.jpg","4","","","","","","","","","","","","","","","","","","","","","","","","",""
"1254","","image-button-response","32","354268","0.0-31.0-0.0","A1J6LV7NWDKV9N","img_art/ins/2.jpg","5","","","","","","","","","","","","","","","","","","","","","","","","",""
"1805","","image-button-response","33","356076","0.0-32.0-0.0","A1J6LV7NWDKV9N","img_art/ins/2.jpg","0","","","","","","","","","","","","","","","","","","","","","","","","",""
"null","","html-keyboard-response","34","357079","0.0-33.0","A1J6LV7NWDKV9N","<p style=""font-size: 48px;"">+</p>","","","","","null","allTrialResponses","1000","1","-1","img_art/ins/2.jpg","12","Strong urban feel","Allison,Kara,Katie,Jenna,Erika,Jen","I don't have strong feelings about this,10,20,20","I like the blocks of color arrangements,30,160,20","too much color!,-28,180,20","One of my pet peevs,-48,140,20","I would never be able to compose a sophisticated pallete like this,48,100,20","It reminds me of a fireplace,36,120,20","Erika","I would never be able to compose a sophisticated pallete like this,48,100,20","Jen","It reminds me of a fireplace,36,120,20","Allison","I don't have strong feelings about this,10,20,20","2"
"13312","","survey-text","35","370398","0.0-34.0-0.0","A1J6LV7NWDKV9N","","","","{""Q0"":""Cool icy man""}","","","","","","","","","","","","","","","","","","","","","","",""
"6911.800000000745","","image-slider-response","36","377312","0.0-35.0","A1J6LV7NWDKV9N","","","","","33","","","","","","","","","","","","","","","","","","","","","",""
"null","","image-button-response","37","382318","0.0-36.0","A1J6LV7NWDKV9N","img_art/ins/3.jpg","null","","","","","","","","","","","","","","","","","","","","","","","","",""
"801","","image-button-response","38","383122","0.0-37.0","A1J6LV7NWDKV9N","img_art/ins/3.jpg","0","","","","","","","","","","","","","","","","","","","","","","","","",""
"6752","","image-button-response","39","389877","0.0-38.0-0.0","A1J6LV7NWDKV9N","img_art/ins/3.jpg","1","","","","","","","","","","","","","","","","","","","","","","","","",""
"14082","","image-button-response","40","403962","0.0-39.0-0.0","A1J6LV7NWDKV9N","img_art/ins/3.jpg","4","","","","","","","","","","","","","","","","","","","","","","","","",""
"null","","html-keyboard-response","41","404968","0.0-40.0","A1J6LV7NWDKV9N","<p style=""font-size: 48px;"">+</p>","","","","","null","allTrialResponses","1000","1","0","img_art/ins/3.jpg","33","Cool icy man","Allison,Mary,Rose,Leslie,Erika,Jen","enjoy the different shades of blue,22,20,20","I like the overlapping of brushes,41,220,20","My daily routine, it's depressing,-20,240,20","It's an alright work,15,200,20","I feel connected to the artist,40,100,20","I can feel a rainy day from this painting,18,120,20","Allison","enjoy the different shades of blue,22,20,20","Mary","I like the overlapping of brushes,41,220,20","Erika","I feel connected to the artist,40,100,20","2"
"6983","","image-button-response_instructions","42","411958","0.0-41.0","A1J6LV7NWDKV9N","","0","instructions","","","","","","","","","","","","","","","","","","","","","","","",""
"16630","","survey-likert","43","428591","0.0-42.0-0.0","A1J6LV7NWDKV9N","","","","{""Q0"":"""",""Q1"":0,""Q2"":1}","","","","","","","","","","","","","","","","","","","","","","",""
"5786","","survey-text","44","434386","0.0-43.0-0.0","A1J6LV7NWDKV9N","","","","{""Q0"":""rock""}","","","","","","","","","","","","","","","","","","","","","","",""
"32351","","survey-text","45","466740","0.0-44.0-0.0","A1J6LV7NWDKV9N","","","","{""Q0"":""waterfall with swarming birds""}","","","","","","","","","","","","","","","","","","","","","","",""
"7507.800000000745","","image-slider-response","46","474250","0.0-45.0","A1J6LV7NWDKV9N","","","","","25","","","","","","","","","","","","","","","","","","","","","",""
"null","","image-button-response","47","479278","0.0-46.0","A1J6LV7NWDKV9N","img_art/30.jpg","null","","","","","","","","","","","","","","","","","","","","","","","","",""
"2920","","image-button-response","48","482201","0.0-47.0","A1J6LV7NWDKV9N","img_art/30.jpg","1","","","","","","","","","","","","","","","","","","","","","","","","",""
"3228","","image-button-response","49","485432","0.0-48.0-0.0","A1J6LV7NWDKV9N","img_art/30.jpg","2","","","","","","","","","","","","","","","","","","","","","","","","",""
"12088","","image-button-response","50","497523","0.0-49.0-0.0","A1J6LV7NWDKV9N","img_art/30.jpg","3","","","","","","","","","","","","","","","","","","","","","","","","",""
"null","","html-keyboard-response","51","498027","0.0-50.0","A1J6LV7NWDKV9N","<p style=""font-size: 48px;"">+</p>","","","","","null","allTrialResponses","500","1","1","img_art/30.jpg","25","waterfall with swarming birds","Alexis,Kaitlin,Sydney,Haley,Erika,Sophia","Too abstract, looks like something I could paint,-50,100,20","the different roads to take in life,10,60,20","I love the colors, the style, and the uniqueness in this piece. I love everything.,50,320,20","I like the colors,18,220,20","I can't parse any intention or emotion,-17,100,20","Hmmm. I think the artist is trying to direct me to a spreadsheet?  (s/s),-10,280,20","Kaitlin","the different roads to take in life,10,60,20","Sydney","I love the colors, the style, and the uniqueness in this piece. I love everything.,50,320,20","Haley","I like the colors,18,220,20","2"
"24751","","survey-text","52","522785","0.0-51.0-0.0","A1J6LV7NWDKV9N","","","","{""Q0"":""Dark night in a field""}","","","","","","","","","","","","","","","","","","","","","","",""
"6784.599999997765","","image-slider-response","53","529572","0.0-52.0","A1J6LV7NWDKV9N","","","","","32","","","","","","","","","","","","","","","","","","","","","",""
"null","","image-button-response","54","534580","0.0-53.0","A1J6LV7NWDKV9N","img_art/15.jpg","null","","","","","","","","","","","","","","","","","","","","","","","","",""
"7294","","image-button-response","55","541878","0.0-54.0","A1J6LV7NWDKV9N","img_art/15.jpg","4","","","","","","","","","","","","","","","","","","","","","","","","",""
"2826","","image-button-response","56","544708","0.0-55.0-0.0","A1J6LV7NWDKV9N","img_art/15.jpg","5","","","","","","","","","","","","","","","","","","","","","","","","",""
"1222","","image-button-response","57","545932","0.0-56.0-0.0","A1J6LV7NWDKV9N","img_art/15.jpg","0","","","","","","","","","","","","","","","","","","","","","","","","",""
"null","","html-keyboard-response","58","547435","0.0-57.0","A1J6LV7NWDKV9N","<p style=""font-size: 48px;"">+</p>","","","","","null","allTrialResponses","1500","1","2","img_art/15.jpg","32","Dark night in a field","Taylor,Kaitlin,Sydney,Haley,Kimberly,Jenna","The blues are soothing,21,340,20","This one seems a bit frightening,-19,60,20","This picture is too confusing for me. I wouldn't want to stare at it to figure it out.,-10,320,20","Interesting, and I don't dislike it.,9,220,20","it looks like lavender,10,260,20","interesting technique. the blue is very pretty,18,360,20","Kimberly","it looks like lavender,10,260,20","Jenna","interesting technique. the blue is very pretty,18,360,20","Taylor","The blues are soothing,21,340,20","2"
"19862","","survey-text","59","567304","0.0-58.0-0.0","A1J6LV7NWDKV9N","","","","{""Q0"":""Gods looking over the city""}","","","","","","","","","","","","","","","","","","","","","","",""
"5466.20000000298","","image-slider-response","60","572772","0.0-59.0","A1J6LV7NWDKV9N","","","","","42","","","","","","","","","","","","","","","","","","","","","",""
"4624","","image-button-response","61","577782","0.0-60.0","A1J6LV7NWDKV9N","img_art/8.jpg","0","","","","","","","","","","","","","","","","","","","","","","","","",""
"11797","","image-button-response","62","589582","0.0-61.0","A1J6LV7NWDKV9N","img_art/8.jpg","5","","","","","","","","","","","","","","","","","","","","","","","","",""
"9952","","image-button-response","63","599538","0.0-62.0-0.0","A1J6LV7NWDKV9N","img_art/8.jpg","4","","","","","","","","","","","","","","","","","","","","","","","","",""
"2250","","image-button-response","64","601792","0.0-63.0-0.0","A1J6LV7NWDKV9N","img_art/8.jpg","0","","","","","","","","","","","","","","","","","","","","","","","","",""
"null","","html-keyboard-response","65","602295","0.0-64.0","A1J6LV7NWDKV9N","<p style=""font-size: 48px;"">+</p>","","","","","null","allTrialResponses","500","1","3","img_art/8.jpg","42","Gods looking over the city","Taylor,Chelsea,Elizabeth,Cheyenne,Kimberly,Jenna","Looks like it would be an interesting place to live,35,340,20","It looks like it took a lot of time to complete.,34,180,20","Very unique and different,31,20,20","Has nice depth to it.,12,200,20","Feels very 90's but I like the doorway,15,260,20","beautiful colors & details. love the surrealism & strange angle. the faces are interesting.,50,360,20","Jenna","beautiful colors & details. love the surrealism & strange angle. the faces are interesting.,50,360,20","Kimberly","Feels very 90's but I like the doorway,15,260,20","Taylor","Looks like it would be an interesting place to live,35,340,20","2"
"14623","","survey-text","66","616925","0.0-65.0-0.0","A1J6LV7NWDKV9N","","","","{""Q0"":""Depths of despair""}","","","","","","","","","","","","","","","","","","","","","","",""
"4397.699999999255","","image-slider-response","67","621325","0.0-66.0","A1J6LV7NWDKV9N","","","","","24","","","","","","","","","","","","","","","","","","","","","",""
"4460","","image-button-response","68","626330","0.0-67.0","A1J6LV7NWDKV9N","img_art/29.jpg","0","","","","","","","","","","","","","","","","","","","","","","","","",""
"1976","","image-button-response","69","628310","0.0-68.0","A1J6LV7NWDKV9N","img_art/29.jpg","0","","","","","","","","","","","","","","","","","","","","","","","","",""
"21409","","image-button-response","70","649722","0.0-69.0-0.0","A1J6LV7NWDKV9N","img_art/29.jpg","5","","","","","","","","","","","","","","","","","","","","","","","","",""
"4854","","image-button-response","71","654579","0.0-70.0-0.0","A1J6LV7NWDKV9N","img_art/29.jpg","2","","","","","","","","","","","","","","","","","","","","","","","","",""
"null","","html-keyboard-response","72","655086","0.0-71.0","A1J6LV7NWDKV9N","<p style=""font-size: 48px;"">+</p>","","","","","null","allTrialResponses","500","1","4","img_art/29.jpg","24","Depths of despair","Taylor,Angela,Kaylee,Grace,Kimberly,Jenna","It seems like there's anger in the painting.,-20,340,20","I would like this piece better without the red X across it,-10,260,20","it looks like a prison,-33,200,20","Doesn't do much for me. I like some of the colors but not much else.,-10,180,20","I like the usage of a physical object,33,260,20","risks well taken. the brush is hilarious. feels like an artist's frustration, which is relatable.,50,360,20","Taylor","It seems like there's anger in the painting.,-20,340,20","Jenna","risks well taken. the brush is hilarious. feels like an artist's frustration, which is relatable.,50,360,20","Kaylee","it looks like a prison,-33,200,20","2"
"52586","","survey-text","73","707679","0.0-72.0-0.0","A1J6LV7NWDKV9N","","","","{""Q0"":""natives worshipping their god""}","","","","","","","","","","","","","","","","","","","","","","",""
"7083.89999999851","","image-slider-response","74","714767","0.0-73.0","A1J6LV7NWDKV9N","","","","","8","","","","","","","","","","","","","","","","","","","","","",""
"null","","image-button-response","75","719774","0.0-74.0","A1J6LV7NWDKV9N","img_art/25.jpg","null","","","","","","","","","","","","","","","","","","","","","","","","",""
"4400","","image-button-response","76","724177","0.0-75.0","A1J6LV7NWDKV9N","img_art/25.jpg","1","","","","","","","","","","","","","","","","","","","","","","","","",""
"966","","image-button-response","77","725146","0.0-76.0-0.0","A1J6LV7NWDKV9N","img_art/25.jpg","0","","","","","","","","","","","","","","","","","","","","","","","","",""
"7395","","image-button-response","78","732544","0.0-77.0-0.0","A1J6LV7NWDKV9N","img_art/25.jpg","5","","","","","","","","","","","","","","","","","","","","","","","","",""
"null","","html-keyboard-response","79","733047","0.0-78.0","A1J6LV7NWDKV9N","<p style=""font-size: 48px;"">+</p>","","","","","null","allTrialResponses","500","1","5","img_art/25.jpg","8","natives worshipping their god","Taylor,Lindsey,Kaylee,Olivia,Diana,Jenna","It makes me feel a little uneasy, but I like the painting,11,340,20","This piece makes me think of oppression and fighting it. Makes me feel calm, sad and strong.,11,400,20","is this an ancient woman?,-16,200,20","reminds me of burning man,18,40,20","This piece feels cultural. Like it represents something culturally.,22,380,20","beautiful in a primitive way,10,360,20","Lindsey","This piece makes me think of oppression and fighting it. Makes me feel calm, sad and strong.,11,400,20","Taylor","It makes me feel a little uneasy, but I like the painting,11,340,20","Jenna","beautiful in a primitive way,10,360,20","2"
"5712","","survey-text","80","738769","0.0-79.0-0.0","A1J6LV7NWDKV9N","","","","{""Q0"":""sky""}","","","","","","","","","","","","","","","","","","","","","","",""
"12123","","survey-text","81","750895","0.0-80.0-0.0","A1J6LV7NWDKV9N","","","","{""Q0"":""urban decay""}","","","","","","","","","","","","","","","","","","","","","","",""
"6440","","image-slider-response","82","757338","0.0-81.0","A1J6LV7NWDKV9N","","","","","28","","","","","","","","","","","","","","","","","","","","","",""
"null","","image-button-response","83","762342","0.0-82.0","A1J6LV7NWDKV9N","img_art/20.jpg","null","","","","","","","","","","","","","","","","","","","","","","","","",""
"17029","","image-button-response","84","779375","0.0-83.0","A1J6LV7NWDKV9N","img_art/20.jpg","5","","","","","","","","","","","","","","","","","","","","","","","","",""
"8114","","image-button-response","85","787492","0.0-84.0-0.0","A1J6LV7NWDKV9N","img_art/20.jpg","2","","","","","","","","","","","","","","","","","","","","","","","","",""
"2165","","image-button-response","86","789661","0.0-85.0-0.0","A1J6LV7NWDKV9N","img_art/20.jpg","0","","","","","","","","","","","","","","","","","","","","","","","","",""
"null","","html-keyboard-response","87","791167","0.0-86.0","A1J6LV7NWDKV9N","<p style=""font-size: 48px;"">+</p>","","","","","null","allTrialResponses","1500","1","6","img_art/20.jpg","28","urban decay","Taylor,Lindsey,Mikayla,Makayla,Mariah,Jenna","I just love this painting,47,340,20","Not sure what it is. The colors are pleasant; makes me want to figure it out. An animal skull in the desert?,10,400,20","Kinda freaks me out.,-40,300,20","Little picturesque town that I would like to visit,19,80,20","It feels like it ""almost"" several things.,-10,140,20","could look for hours. love the brush work. color choices look like a desert.,50,360,20","Jenna","could look for hours. love the brush work. color choices look like a desert.,50,360,20","Mikayla","Kinda freaks me out.,-40,300,20","Taylor","I just love this painting,47,340,20","2"
"20843","","survey-text","88","812017","0.0-87.0-0.0","A1J6LV7NWDKV9N","","","","{""Q0"":""Prehistoric footprints""}","","","","","","","","","","","","","","","","","","","","","","",""
"8432.70000000298","","image-slider-response","89","820453","0.0-88.0","A1J6LV7NWDKV9N","","","","","-13","","","","","","","","","","","","","","","","","","","","","",""
"3420","","image-button-response","90","825459","0.0-89.0","A1J6LV7NWDKV9N","img_art/7.jpg","0","","","","","","","","","","","","","","","","","","","","","","","","",""
"9081","","image-button-response","91","834544","0.0-90.0","A1J6LV7NWDKV9N","img_art/7.jpg","5","","","","","","","","","","","","","","","","","","","","","","","","",""
"853","","image-button-response","92","835400","0.0-91.0-0.0","A1J6LV7NWDKV9N","img_art/7.jpg","4","","","","","","","","","","","","","","","","","","","","","","","","",""
"3491","","image-button-response","93","838894","0.0-92.0-0.0","A1J6LV7NWDKV9N","img_art/7.jpg","0","","","","","","","","","","","","","","","","","","","","","","","","",""
"null","","html-keyboard-response","94","839401","0.0-93.0","A1J6LV7NWDKV9N","<p style=""font-size: 48px;"">+</p>","","","","","null","allTrialResponses","500","1","7","img_art/7.jpg","-13","Prehistoric footprints","Taylor,Sabrina,Mikayla,Briana,Kayla,Jenna","It makes me think of new archaeology discoveries,15,340,20","Not getting the vibe i would like from this,-30,120,20","I love the texture.,20,300,20","Are these ancient cave paintings?,-7,400,20","Dinosaur bones. Death.,-14,180,20","reminds me of a desert from far above,23,360,20","Jenna","reminds me of a desert from far above,23,360,20","Kayla","Dinosaur bones. Death.,-14,180,20","Taylor","It makes me think of new archaeology discoveries,15,340,20","2"
"58536","","survey-text","95","897943","0.0-94.0-0.0","A1J6LV7NWDKV9N","","","","{""Q0"":""Trees in the meadow""}","","","","","","","","","","","","","","","","","","","","","","",""
"7302.60000000149","","image-slider-response","96","905250","0.0-95.0","A1J6LV7NWDKV9N","","","","","36","","","","","","","","","","","","","","","","","","","","","",""
"null","","image-button-response","97","910255","0.0-96.0","A1J6LV7NWDKV9N","img_art/14.jpg","null","","","","","","","","","","","","","","","","","","","","","","","","",""
"24567","","image-button-response","98","934824","0.0-97.0","A1J6LV7NWDKV9N","img_art/14.jpg","2","","","","","","","","","","","","","","","","","","","","","","","","",""
"11482","","image-button-response","99","946309","0.0-98.0-0.0","A1J6LV7NWDKV9N","img_art/14.jpg","0","","","","","","","","","","","","","","","","","","","","","","","","",""
"1464","","image-button-response","100","947779","0.0-99.0-0.0","A1J6LV7NWDKV9N","img_art/14.jpg","5","","","","","","","","","","","","","","","","","","","","","","","","",""
"null","","html-keyboard-response","101","948785","0.0-100.0","A1J6LV7NWDKV9N","<p style=""font-size: 48px;"">+</p>","","","","","null","allTrialResponses","1000","1","8","img_art/14.jpg","36","Trees in the meadow","Taylor,Catherine,Jordan,Jennifer,Kayla,Jenna","Makes me think of my plants growing,11,340,20","Tornado, nature. trees falling and displaced creatures. Love the colors though.,1,160,20","this one isn't bad, reminds me a tree that gives life, and people are waiting for someone new to be born,27,20,20","This piece is average compared to the others.,1,380,20","I like that it looks like plants on a table, which reminds me of life.,4,180,20","love the colors. despite their brightness it seems sad somehow.,41,360,20","Jordan","this one isn't bad, reminds me a tree that gives life, and people are waiting for someone new to be born,27,20,20","Taylor","Makes me think of my plants growing,11,340,20","Jenna","love the colors. despite their brightness it seems sad somehow.,41,360,20","2"
"28919","","survey-text","102","977710","0.0-101.0-0.0","A1J6LV7NWDKV9N","","","","{""Q0"":""Visting grandma""}","","","","","","","","","","","","","","","","","","","","","","",""
"6397.300000000745","","image-slider-response","103","984110","0.0-102.0","A1J6LV7NWDKV9N","","","","","-8","","","","","","","","","","","","","","","","","","","","","",""
"null","","image-button-response","104","989115","0.0-103.0","A1J6LV7NWDKV9N","img_art/28.jpg","null","","","","","","","","","","","","","","","","","","","","","","","","",""
"386","","image-button-response","105","989504","0.0-104.0","A1J6LV7NWDKV9N","img_art/28.jpg","1","","","","","","","","","","","","","","","","","","","","","","","","",""
"9031","","image-button-response","106","998538","0.0-105.0-0.0","A1J6LV7NWDKV9N","img_art/28.jpg","4","","","","","","","","","","","","","","","","","","","","","","","","",""
"4475","","image-button-response","107","1003018","0.0-106.0-0.0","A1J6LV7NWDKV9N","img_art/28.jpg","5","","","","","","","","","","","","","","","","","","","","","","","","",""
"null","","html-keyboard-response","108","1004521","0.0-107.0","A1J6LV7NWDKV9N","<p style=""font-size: 48px;"">+</p>","","","","","null","allTrialResponses","1500","1","9","img_art/28.jpg","-8","Visting grandma","Taylor,Hailey,Jordan,Chloe,Sarah,Jenna","Doesn't give me an emotional response,0,340,20","an old woman in a wheelchair. sad,-35,200,20","It's a bike that was left abandoned by someone who doesnt care for it,1,20,20","Evocative but a little dreary.,20,220,20","something about all the off-greys is pretty interesting,5,180,20","looks like humanoid figures in distress. I like it, but makes me slightly uncomfortable,35,360,20","Hailey","an old woman in a wheelchair. sad,-35,200,20","Sarah","something about all the off-greys is pretty interesting,5,180,20","Jenna","looks like humanoid figures in distress. I like it, but makes me slightly uncomfortable,35,360,20","2"
"32065","","survey-text","109","1036593","0.0-108.0-0.0","A1J6LV7NWDKV9N","","","","{""Q0"":""Library has something for everyone""}","","","","","","","","","","","","","","","","","","","","","","",""
"6089.10000000149","","image-slider-response","110","1042685","0.0-109.0","A1J6LV7NWDKV9N","","","","","9","","","","","","","","","","","","","","","","","","","","","",""
"null","","image-button-response","111","1047689","0.0-110.0","A1J6LV7NWDKV9N","img_art/12.jpg","null","","","","","","","","","","","","","","","","","","","","","","","","",""
"30388","","image-button-response","112","1078079","0.0-111.0","A1J6LV7NWDKV9N","img_art/12.jpg","2","","","","","","","","","","","","","","","","","","","","","","","","",""
"3646","","image-button-response","113","1081730","0.0-112.0-0.0","A1J6LV7NWDKV9N","img_art/12.jpg","4","","","","","","","","","","","","","","","","","","","","","","","","",""
"7495","","image-button-response","114","1089229","0.0-113.0-0.0","A1J6LV7NWDKV9N","img_art/12.jpg","1","","","","","","","","","","","","","","","","","","","","","","","","",""
"null","","html-keyboard-response","115","1090236","0.0-114.0","A1J6LV7NWDKV9N","<p style=""font-size: 48px;"">+</p>","","","","","null","allTrialResponses","1000","1","10","img_art/12.jpg","9","Library has something for everyone","Angelica,Hailey,Cassidy,Courtney,Sarah,Jenna","It's strange looking and unappealing.,-4,280,20","negative feelings with these blocks,-20,200,20","I like the colors and pattern,21,140,20","That is a warn quilt grama made.,11,280,20","i think it's a good piece but it doesn't appeal to me,-18,180,20","interesting, but feels like someone cut up a picture and pasted it together wrong. want to see the original,15,360,20","Cassidy","I like the colors and pattern,21,140,20","Sarah","i think it's a good piece but it doesn't appeal to me,-18,180,20","Hailey","negative feelings with these blocks,-20,200,20","2"
"4230","","survey-text","116","1094476","0.0-115.0-0.0","A1J6LV7NWDKV9N","","","","{""Q0"":""our""}","","","","","","","","","","","","","","","","","","","","","","",""
"15046","","survey-text","117","1109524","0.0-116.0-0.0","A1J6LV7NWDKV9N","","","","{""Q0"":""autumn at the castle""}","","","","","","","","","","","","","","","","","","","","","","",""
"4166.60000000149","","image-slider-response","118","1113694","0.0-117.0","A1J6LV7NWDKV9N","","","","","37","","","","","","","","","","","","","","","","","","","","","",""
"null","","image-button-response","119","1118698","0.0-118.0","A1J6LV7NWDKV9N","img_art/27.jpg","null","","","","","","","","","","","","","","","","","","","","","","","","",""
"12726","","image-button-response","120","1131427","0.0-119.0","A1J6LV7NWDKV9N","img_art/27.jpg","4","","","","","","","","","","","","","","","","","","","","","","","","",""
"2312","","image-button-response","121","1133742","0.0-120.0-0.0","A1J6LV7NWDKV9N","img_art/27.jpg","1","","","","","","","","","","","","","","","","","","","","","","","","",""
"24943","","image-button-response","122","1158690","0.0-121.0-0.0","A1J6LV7NWDKV9N","img_art/27.jpg","5","","","","","","","","","","","","","","","","","","","","","","","","",""
"null","","html-keyboard-response","123","1159194","0.0-122.0","A1J6LV7NWDKV9N","<p style=""font-size: 48px;"">+</p>","","","","","null","allTrialResponses","500","1","11","img_art/27.jpg","37","autumn at the castle","Bailey,Hailey,Cassidy,Shannon,Sarah,Morgan","Looks like a splash of different colors and designs without purpose,-44,360,20","fruity and sweet. warm and juicy,10,200,20","doesn't look like any effort was put into this piece.,-19,140,20","This image could do a better job of showing what is going on and it could use more colors.,-42,220,20","i don't think i should like this one because it's a little chaotic and simple but I do,6,180,20","Messy field of various plants.,-5,380,20","Sarah","i don't think i should like this one because it's a little chaotic and simple but I do,6,180,20","Hailey","fruity and sweet. warm and juicy,10,200,20","Morgan","Messy field of various plants.,-5,380,20","2"
"27676","","survey-text","124","1186876","0.0-123.0-0.0","A1J6LV7NWDKV9N","","","","{""Q0"":""on the waterfront""}","","","","","","","","","","","","","","","","","","","","","","",""
"6012.39999999851","","image-slider-response","125","1192891","0.0-124.0","A1J6LV7NWDKV9N","","","","","30","","","","","","","","","","","","","","","","","","","","","",""
"null","","image-button-response","126","1197900","0.0-125.0","A1J6LV7NWDKV9N","img_art/19.jpg","null","","","","","","","","","","","","","","","","","","","","","","","","",""
"1887","","image-button-response","127","1199791","0.0-126.0","A1J6LV7NWDKV9N","img_art/19.jpg","1","","","","","","","","","","","","","","","","","","","","","","","","",""
"12419","","image-button-response","128","1212212","0.0-127.0-0.0","A1J6LV7NWDKV9N","img_art/19.jpg","0","","","","","","","","","","","","","","","","","","","","","","","","",""
"16289","","image-button-response","129","1228504","0.0-128.0-0.0","A1J6LV7NWDKV9N","img_art/19.jpg","5","","","","","","","","","","","","","","","","","","","","","","","","",""
"null","","html-keyboard-response","130","1229011","0.0-129.0","A1J6LV7NWDKV9N","<p style=""font-size: 48px;"">+</p>","","","","","null","allTrialResponses","500","1","12","img_art/19.jpg","30","on the waterfront","Caroline,Hailey,Shelby,Brooke,Sarah,Morgan","Chaotic. Too much going on in the picture,14,100,20","an old cityfrom many years ago. its ok,6,200,20","Something weird is going on in this painting,-20,240,20","Snowy winter scene,25,60,20","too much of a mix of lines and shading,-22,180,20","Messy pantry full of food.,5,380,20","Hailey","an old cityfrom many years ago. its ok,6,200,20","Caroline","Chaotic. Too much going on in the picture,14,100,20","Morgan","Messy pantry full of food.,5,380,20","2"
"62517","","survey-text","131","1291535","0.0-130.0-0.0","A1J6LV7NWDKV9N","","","","{""Q0"":""Reaching for truth""}","","","","","","","","","","","","","","","","","","","","","","",""
"5400.60000000149","","image-slider-response","132","1296939","0.0-131.0","A1J6LV7NWDKV9N","","","","","-13","","","","","","","","","","","","","","","","","","","","","",""
"null","","image-button-response","133","1301944","0.0-132.0","A1J6LV7NWDKV9N","img_art/4.jpg","null","","","","","","","","","","","","","","","","","","","","","","","","",""
"6697","","image-button-response","134","1308644","0.0-133.0","A1J6LV7NWDKV9N","img_art/4.jpg","5","","","","","","","","","","","","","","","","","","","","","","","","",""
"2503","","image-button-response","135","1311150","0.0-134.0-0.0","A1J6LV7NWDKV9N","img_art/4.jpg","0","","","","","","","","","","","","","","","","","","","","","","","","",""
"2227","","image-button-response","136","1313380","0.0-135.0-0.0","A1J6LV7NWDKV9N","img_art/4.jpg","1","","","","","","","","","","","","","","","","","","","","","","","","",""
"null","","html-keyboard-response","137","1314883","0.0-136.0","A1J6LV7NWDKV9N","<p style=""font-size: 48px;"">+</p>","","","","","null","allTrialResponses","1500","1","13","img_art/4.jpg","-13","Reaching for truth","Caroline,Hailey,Gabrielle,Emily,Paige,Morgan","Blah feeling, nothing,-8,100,20","ugly puke yellow is cold and dark,-29,200,20","too childish, not really art in my world,-50,160,20","Looks like a child did it.,-42,40,20","the colors are calming,31,60,20","Pretzel noodles.,7,380,20","Morgan","Pretzel noodles.,7,380,20","Caroline","Blah feeling, nothing,-8,100,20","Hailey","ugly puke yellow is cold and dark,-29,200,20","2"
"40088","","survey-text","138","1354979","0.0-137.0-0.0","A1J6LV7NWDKV9N","","","","{""Q0"":""loch ness monster""}","","","","","","","","","","","","","","","","","","","","","","",""
"4038.199999999255","","image-slider-response","139","1359020","0.0-138.0","A1J6LV7NWDKV9N","","","","","-8","","","","","","","","","","","","","","","","","","","","","",""
"null","","image-button-response","140","1364024","0.0-139.0","A1J6LV7NWDKV9N","img_art/10.jpg","null","","","","","","","","","","","","","","","","","","","","","","","","",""
"16429","","image-button-response","141","1380455","0.0-140.0","A1J6LV7NWDKV9N","img_art/10.jpg","4","","","","","","","","","","","","","","","","","","","","","","","","",""
"3236","","image-button-response","142","1383694","0.0-141.0-0.0","A1J6LV7NWDKV9N","img_art/10.jpg","0","","","","","","","","","","","","","","","","","","","","","","","","",""
"2368","","image-button-response","143","1386066","0.0-142.0-0.0","A1J6LV7NWDKV9N","img_art/10.jpg","5","","","","","","","","","","","","","","","","","","","","","","","","",""
"null","","html-keyboard-response","144","1386572","0.0-143.0","A1J6LV7NWDKV9N","<p style=""font-size: 48px;"">+</p>","","","","","null","allTrialResponses","500","1","14","img_art/10.jpg","-8","loch ness monster","Caroline,Hailey,Erica,Alexandra,Rebecca,Morgan","This painting made me think of a guitar which made me think of music which envoked happy feelings.,28,100,20","a fast racetrack. go, go, go,5,200,20","Relaxing; a lot of going on but colours make it easy to look at,20,80,20","The longer I looked at this, the more I liked it,33,60,20","gives a sense of a roller coaster unit splashed in water. it's not but i love it nevertheless,44,100,20","Roller coaster on an island.,9,380,20","Rebecca","gives a sense of a roller coaster unit splashed in water. it's not but i love it nevertheless,44,100,20","Caroline","This painting made me think of a guitar which made me think of music which envoked happy feelings.,28,100,20","Morgan","Roller coaster on an island.,9,380,20","2"
"18476","","survey-text","145","1405054","0.0-144.0-0.0","A1J6LV7NWDKV9N","","","","{""Q0"":""The courtyard""}","","","","","","","","","","","","","","","","","","","","","","",""
"6348","","image-slider-response","146","1411405","0.0-145.0","A1J6LV7NWDKV9N","","","","","30","","","","","","","","","","","","","","","","","","","","","",""
"4334","","image-button-response","147","1416409","0.0-146.0","A1J6LV7NWDKV9N","img_art/17.jpg","0","","","","","","","","","","","","","","","","","","","","","","","","",""
"12798","","image-button-response","148","1429211","0.0-147.0","A1J6LV7NWDKV9N","img_art/17.jpg","5","","","","","","","","","","","","","","","","","","","","","","","","",""
"3477","","image-button-response","149","1432691","0.0-148.0-0.0","A1J6LV7NWDKV9N","img_art/17.jpg","0","","","","","","","","","","","","","","","","","","","","","","","","",""
"11491","","image-button-response","150","1444186","0.0-149.0-0.0","A1J6LV7NWDKV9N","img_art/17.jpg","4","","","","","","","","","","","","","","","","","","","","","","","","",""
"null","","html-keyboard-response","151","1445688","0.0-150.0","A1J6LV7NWDKV9N","<p style=""font-size: 48px;"">+</p>","","","","","null","allTrialResponses","1500","1","15","img_art/17.jpg","30","The courtyard","Caroline,Kaitlyn,Ashley,Katie,Rebecca,Morgan","Beautiful colors. Made me feel soft and feminine,50,100,20","Very beautiful,19,80,20","taste the rainbow, feel the flavor.,23,320,20","Is it a tree/plant of some sort?  Or, I see hair?  I don't get it. But, the colors are pleasing to me.,1,160,20","tree sprouting out of a box (house) the invasion of nature?,39,100,20","Tree of knowledge in a quiet school.,17,380,20","Morgan","Tree of knowledge in a quiet school.,17,380,20","Caroline","Beautiful colors. Made me feel soft and feminine,50,100,20","Rebecca","tree sprouting out of a box (house) the invasion of nature?,39,100,20","2"
"4728","","survey-text","152","1450428","0.0-151.0-0.0","A1J6LV7NWDKV9N","","","","{""Q0"":""course""}","","","","","","","","","","","","","","","","","","","","","","",""
"27279","","survey-text","153","1477709","0.0-152.0-0.0","A1J6LV7NWDKV9N","","","","{""Q0"":""society hill""}","","","","","","","","","","","","","","","","","","","","","","",""
"3806.10000000149","","image-slider-response","154","1481518","0.0-153.0","A1J6LV7NWDKV9N","","","","","16","","","","","","","","","","","","","","","","","","","","","",""
"null","","image-button-response","155","1486522","0.0-154.0","A1J6LV7NWDKV9N","img_art/26.jpg","null","","","","","","","","","","","","","","","","","","","","","","","","",""
"2277","","image-button-response","156","1488802","0.0-155.0","A1J6LV7NWDKV9N","img_art/26.jpg","1","","","","","","","","","","","","","","","","","","","","","","","","",""
"5997","","image-button-response","157","1494802","0.0-156.0-0.0","A1J6LV7NWDKV9N","img_art/26.jpg","4","","","","","","","","","","","","","","","","","","","","","","","","",""
"2371","","image-button-response","158","1497177","0.0-157.0-0.0","A1J6LV7NWDKV9N","img_art/26.jpg","0","","","","","","","","","","","","","","","","","","","","","","","","",""
"null","","html-keyboard-response","159","1498183","0.0-158.0","A1J6LV7NWDKV9N","<p style=""font-size: 48px;"">+</p>","","","","","null","allTrialResponses","1000","1","16","img_art/26.jpg","16","society hill","Caroline,Sara,Laura,Brittany,Rebecca,Morgan","Calming and relaxing,28,100,20","I can somewhat city a city in this drawing,11,160,20","juvenile, faint and weak,-41,320,20","It looks boring and too rough.,-9,40,20","love the ""lowkey"" vibrant colors that are colorful but at the same time greyscale,12,100,20","Confusing park picture.,8,380,20","Sara","I can somewhat city a city in this drawing,11,160,20","Rebecca","love the ""lowkey"" vibrant colors that are colorful but at the same time greyscale,12,100,20","Caroline","Calming and relaxing,28,100,20","2"
"34775","","survey-text","160","1532965","0.0-159.0-0.0","A1J6LV7NWDKV9N","","","","{""Q0"":""Waterfalls""}","","","","","","","","","","","","","","","","","","","","","","",""
"5931.39999999851","","image-slider-response","161","1538900","0.0-160.0","A1J6LV7NWDKV9N","","","","","37","","","","","","","","","","","","","","","","","","","","","",""
"4247","","image-button-response","162","1543904","0.0-161.0","A1J6LV7NWDKV9N","img_art/24.jpg","0","","","","","","","","","","","","","","","","","","","","","","","","",""
"1792","","image-button-response","163","1545700","0.0-162.0","A1J6LV7NWDKV9N","img_art/24.jpg","0","","","","","","","","","","","","","","","","","","","","","","","","",""
"9385","","image-button-response","164","1555087","0.0-163.0-0.0","A1J6LV7NWDKV9N","img_art/24.jpg","2","","","","","","","","","","","","","","","","","","","","","","","","",""
"2931","","image-button-response","165","1558023","0.0-164.0-0.0","A1J6LV7NWDKV9N","img_art/24.jpg","1","","","","","","","","","","","","","","","","","","","","","","","","",""
"null","","html-keyboard-response","166","1559029","0.0-165.0","A1J6LV7NWDKV9N","<p style=""font-size: 48px;"">+</p>","","","","","null","allTrialResponses","1000","1","17","img_art/24.jpg","37","Waterfalls","Caroline,Sara,Marissa,Caitlin,Rebecca,Kelly","Waterfalls and spring and gives me a sense of renewal,34,100,20","Beautiful scenic drawing with perfect color coordination,43,160,20","It feels very serene,19,160,20","I actually like this one. You can tell what it is.,25,80,20","organized mess at first glance, would love to inspect this in closer proximity,39,100,20","Cute; I like what the image itself & the colors.,25,220,20","Caroline","Waterfalls and spring and gives me a sense of renewal,34,100,20","Marissa","It feels very serene,19,160,20","Sara","Beautiful scenic drawing with perfect color coordination,43,160,20","2"
"8212","","survey-text","167","1567247","0.0-166.0-0.0","A1J6LV7NWDKV9N","","","","{""Q0"":""The raven""}","","","","","","","","","","","","","","","","","","","","","","",""
"6640.099999997765","","image-slider-response","168","1573890","0.0-167.0","A1J6LV7NWDKV9N","","","","","32","","","","","","","","","","","","","","","","","","","","","",""
"null","","image-button-response","169","1578895","0.0-168.0","A1J6LV7NWDKV9N","img_art/6.jpg","null","","","","","","","","","","","","","","","","","","","","","","","","",""
"11057","","image-button-response","170","1589954","0.0-169.0","A1J6LV7NWDKV9N","img_art/6.jpg","0","","","","","","","","","","","","","","","","","","","","","","","","",""
"958","","image-button-response","171","1590915","0.0-170.0-0.0","A1J6LV7NWDKV9N","img_art/6.jpg","1","","","","","","","","","","","","","","","","","","","","","","","","",""
"934","","image-button-response","172","1591852","0.0-171.0-0.0","A1J6LV7NWDKV9N","img_art/6.jpg","2","","","","","","","","","","","","","","","","","","","","","","","","",""
"null","","html-keyboard-response","173","1593355","0.0-172.0","A1J6LV7NWDKV9N","<p style=""font-size: 48px;"">+</p>","","","","","null","allTrialResponses","1500","1","18","img_art/6.jpg","32","The raven","Caroline,Sara,Marissa,Samantha,Natalie,Jamie","Lonely and kinda sad,-25,100,20","It looks sad and scary at the same time,11,160,20","I am intrigued but unsure whether I enjoy this or not,6,160,20","It isnt bad but sort of too bland,0,140,20","reminds me a giant peach,19,400,20","Tree growing in a desert. Gives me feelings of hope,5,320,20","Caroline","Lonely and kinda sad,-25,100,20","Sara","It looks sad and scary at the same time,11,160,20","Marissa","I am intrigued but unsure whether I enjoy this or not,6,160,20","2"
"19799","","survey-text","174","1613161","0.0-173.0-0.0","A1J6LV7NWDKV9N","","","","{""Q0"":""A day at school""}","","","","","","","","","","","","","","","","","","","","","","",""
"5855.400000002235","","image-slider-response","175","1619020","0.0-174.0","A1J6LV7NWDKV9N","","","","","-24","","","","","","","","","","","","","","","","","","","","","",""
"null","","image-button-response","176","1624029","0.0-175.0","A1J6LV7NWDKV9N","img_art/2.jpg","null","","","","","","","","","","","","","","","","","","","","","","","","",""
"11125","","image-button-response","177","1635157","0.0-176.0","A1J6LV7NWDKV9N","img_art/2.jpg","5","","","","","","","","","","","","","","","","","","","","","","","","",""
"4036","","image-button-response","178","1639197","0.0-177.0-0.0","A1J6LV7NWDKV9N","img_art/2.jpg","1","","","","","","","","","","","","","","","","","","","","","","","","",""
"4181","","image-button-response","179","1643381","0.0-178.0-0.0","A1J6LV7NWDKV9N","img_art/2.jpg","2","","","","","","","","","","","","","","","","","","","","","","","","",""
"null","","html-keyboard-response","180","1644386","0.0-179.0","A1J6LV7NWDKV9N","<p style=""font-size: 48px;"">+</p>","","","","","null","allTrialResponses","1000","1","19","img_art/2.jpg","-24","A day at school","Caroline,Sara,Marissa,Tiffany,Monica,Victoria","Colors are drab and cause a sense of blandness,-28,100,20","Dark tone feels sad,-30,160,20","I feel bothered by the dark and dingy choice of colors,-22,160,20","I feel claustrophobic. I'm looking at a busy shop, but the simple shapes and continuous colors make it hectic.,-8,360,20","I like the blue color in the center but that's it, the green is a gross color,-3,360,20","I like the colors,22,400,20","Victoria","I like the colors,22,400,20","Sara","Dark tone feels sad,-30,160,20","Marissa","I feel bothered by the dark and dingy choice of colors,-22,160,20","2"
"52348","","survey-text","181","1696741","0.0-180.0-0.0","A1J6LV7NWDKV9N","","","","{""Q0"":""Uncertain travel""}","","","","","","","","","","","","","","","","","","","","","","",""
"3836.5","","image-slider-response","182","1700580","0.0-181.0","A1J6LV7NWDKV9N","","","","","-11","","","","","","","","","","","","","","","","","","","","","",""
"null","","image-button-response","183","1705586","0.0-182.0","A1J6LV7NWDKV9N","img_art/11.jpg","null","","","","","","","","","","","","","","","","","","","","","","","","",""
"8050","","image-button-response","184","1713638","0.0-183.0","A1J6LV7NWDKV9N","img_art/11.jpg","0","","","","","","","","","","","","","","","","","","","","","","","","",""
"9052","","image-button-response","185","1722694","0.0-184.0-0.0","A1J6LV7NWDKV9N","img_art/11.jpg","3","","","","","","","","","","","","","","","","","","","","","","","","",""
"5397","","image-button-response","186","1728094","0.0-185.0-0.0","A1J6LV7NWDKV9N","img_art/11.jpg","4","","","","","","","","","","","","","","","","","","","","","","","","",""
"null","","html-keyboard-response","187","1729100","0.0-186.0","A1J6LV7NWDKV9N","<p style=""font-size: 48px;"">+</p>","","","","","null","allTrialResponses","1000","1","20","img_art/11.jpg","-11","Uncertain travel","Jasmine,Sara,Marissa,Amy,Abigail,Victoria","Reminds me of a city on a grey/rainy winter's day,25,340,20","Looks sad but clean,31,160,20","I dislike how dark this is,-21,160,20","Simple and complex. Hopeful yet dark. I love this,35,220,20","Rainy highways in RI,20,20,20","reminds me of a rainy day in the city,32,400,20","Jasmine","Reminds me of a city on a grey/rainy winter's day,25,340,20","Amy","Simple and complex. Hopeful yet dark. I love this,35,220,20","Abigail","Rainy highways in RI,20,20,20","2"
"5891","","survey-text","188","1735003","0.0-187.0-0.0","A1J6LV7NWDKV9N","","","","{""Q0"":""we""}","","","","","","","","","","","","","","","","","","","","","","",""
"38360","","survey-text","189","1773366","0.0-188.0-0.0","A1J6LV7NWDKV9N","","","","{""Q0"":""Excalibur""}","","","","","","","","","","","","","","","","","","","","","","",""
"6918.400000002235","","image-slider-response","190","1780287","0.0-189.0","A1J6LV7NWDKV9N","","","","","-5","","","","","","","","","","","","","","","","","","","","","",""
"null","","image-button-response","191","1785296","0.0-190.0","A1J6LV7NWDKV9N","img_art/5.jpg","null","","","","","","","","","","","","","","","","","","","","","","","","",""
"19089","","image-button-response","192","1804387","0.0-191.0","A1J6LV7NWDKV9N","img_art/5.jpg","0","","","","","","","","","","","","","","","","","","","","","","","","",""
"2062","","image-button-response","193","1806452","0.0-192.0-0.0","A1J6LV7NWDKV9N","img_art/5.jpg","2","","","","","","","","","","","","","","","","","","","","","","","","",""
"9149","","image-button-response","194","1815604","0.0-193.0-0.0","A1J6LV7NWDKV9N","img_art/5.jpg","1","","","","","","","","","","","","","","","","","","","","","","","","",""
"null","","html-keyboard-response","195","1816106","0.0-194.0","A1J6LV7NWDKV9N","<p style=""font-size: 48px;"">+</p>","","","","","null","allTrialResponses","500","1","21","img_art/5.jpg","-5","Excalibur","Jasmine,Sierra,Brianna,Amy,Abigail,Christina","Not sure what to say about this piece honestly. It's okay I guess.,0,340,20","i dont like the yellow or the shape,-26,260,20","Very bright and has colors you wouldn't think would go together,11,20,20","Nearly white background gives a lack of context. Questionable skills,-45,220,20","Reminds me of a broken umbrella,-9,20,20","looks like a little kids painting,-50,240,20","Jasmine","Not sure what to say about this piece honestly. It's okay I guess.,0,340,20","Brianna","Very bright and has colors you wouldn't think would go together,11,20,20","Sierra","i dont like the yellow or the shape,-26,260,20","2"
"21078","","survey-text","196","1837192","0.0-195.0-0.0","A1J6LV7NWDKV9N","","","","{""Q0"":""Aliens in space""}","","","","","","","","","","","","","","","","","","","","","","",""
"3681.5","","image-slider-response","197","1840877","0.0-196.0","A1J6LV7NWDKV9N","","","","","12","","","","","","","","","","","","","","","","","","","","","",""
"null","","image-button-response","198","1845883","0.0-197.0","A1J6LV7NWDKV9N","img_art/18.jpg","null","","","","","","","","","","","","","","","","","","","","","","","","",""
"2007","","image-button-response","199","1847893","0.0-198.0","A1J6LV7NWDKV9N","img_art/18.jpg","2","","","","","","","","","","","","","","","","","","","","","","","","",""
"2447","","image-button-response","200","1850343","0.0-199.0-0.0","A1J6LV7NWDKV9N","img_art/18.jpg","3","","","","","","","","","","","","","","","","","","","","","","","","",""
"6014","","image-button-response","201","1856360","0.0-200.0-0.0","A1J6LV7NWDKV9N","img_art/18.jpg","4","","","","","","","","","","","","","","","","","","","","","","","","",""
"null","","html-keyboard-response","202","1857366","0.0-201.0","A1J6LV7NWDKV9N","<p style=""font-size: 48px;"">+</p>","","","","","null","allTrialResponses","1000","1","22","img_art/18.jpg","12","Aliens in space","Jasmine,Sierra,Brianna,Gabriela,Michaela,Kelsey","I feel indifferent about this one,0,340,20","it looks like people,9,260,20","Very eerie and it's spooky,11,20,20","It's possibly of a mermaid luring in a ship,15,140,20","Reminds me of the four horsemen of the apocalypse,29,260,20","its messy, it seems angry,-21,240,20","Brianna","Very eerie and it's spooky,11,20,20","Gabriela","It's possibly of a mermaid luring in a ship,15,140,20","Michaela","Reminds me of the four horsemen of the apocalypse,29,260,20","2"
"26417","","survey-text","203","1883790","0.0-202.0-0.0","A1J6LV7NWDKV9N","","","","{""Q0"":""floating down the river""}","","","","","","","","","","","","","","","","","","","","","","",""
"3845.2999999970198","","image-slider-response","204","1887639","0.0-203.0","A1J6LV7NWDKV9N","","","","","34","","","","","","","","","","","","","","","","","","","","","",""
"null","","image-button-response","205","1892647","0.0-204.0","A1J6LV7NWDKV9N","img_art/1.jpg","null","","","","","","","","","","","","","","","","","","","","","","","","",""
"3667","","image-button-response","206","1896317","0.0-205.0","A1J6LV7NWDKV9N","img_art/1.jpg","3","","","","","","","","","","","","","","","","","","","","","","","","",""
"4885","","image-button-response","207","1901205","0.0-206.0-0.0","A1J6LV7NWDKV9N","img_art/1.jpg","4","","","","","","","","","","","","","","","","","","","","","","","","",""
"2317","","image-button-response","208","1903526","0.0-207.0-0.0","A1J6LV7NWDKV9N","img_art/1.jpg","5","","","","","","","","","","","","","","","","","","","","","","","","",""
"null","","html-keyboard-response","209","1905033","0.0-208.0","A1J6LV7NWDKV9N","<p style=""font-size: 48px;"">+</p>","","","","","null","allTrialResponses","1500","1","23","img_art/1.jpg","34","floating down the river","Kathryn,Alyssa,Brianna,Gabriela,Michaela,Emma","For some reason this makes me want to go ice skating. It's whimsical and free but also very smooth.,20,140,20","Its okay,not great.,1,160,20","It's very colorful, and I like it,11,20,20","This photo reminds me of a fall afternoon, serene,11,140,20","That one piece in the middle gives it depth and it's really neat,21,260,20","Pretty, nice use of color,40,60,20","Gabriela","This photo reminds me of a fall afternoon, serene,11,140,20","Michaela","That one piece in the middle gives it depth and it's really neat,21,260,20","Emma","Pretty, nice use of color,40,60,20","2"
"7698","","survey-text","210","1912740","0.0-209.0-0.0","A1J6LV7NWDKV9N","","","","{""Q0"":""Rockettes""}","","","","","","","","","","","","","","","","","","","","","","",""
"4686.89999999851","","image-slider-response","211","1917430","0.0-210.0","A1J6LV7NWDKV9N","","","","","22","","","","","","","","","","","","","","","","","","","","","",""
"null","","image-button-response","212","1922438","0.0-211.0","A1J6LV7NWDKV9N","img_art/23.jpg","null","","","","","","","","","","","","","","","","","","","","","","","","",""
"8120","","image-button-response","213","1930562","0.0-212.0","A1J6LV7NWDKV9N","img_art/23.jpg","3","","","","","","","","","","","","","","","","","","","","","","","","",""
"1085","","image-button-response","214","1931650","0.0-213.0-0.0","A1J6LV7NWDKV9N","img_art/23.jpg","4","","","","","","","","","","","","","","","","","","","","","","","","",""
"853","","image-button-response","215","1932507","0.0-214.0-0.0","A1J6LV7NWDKV9N","img_art/23.jpg","5","","","","","","","","","","","","","","","","","","","","","","","","",""
"null","","html-keyboard-response","216","1934013","0.0-215.0","A1J6LV7NWDKV9N","<p style=""font-size: 48px;"">+</p>","","","","","null","allTrialResponses","1500","1","24","img_art/23.jpg","22","Rockettes","Alicia,Andrea,Mackenzie,Gabriela,Michaela,Emma","No reactions, childish.,-19,120,20","I see souls in torment and that makes me feel uneasy.,-21,240,20","The usage of color is great, but not my style.,-15,20,20","It looks like a parade of musicians full of excitement. Makes me feel upbeat,33,140,20","This would make a great mural,37,260,20","Love the use of colors and light,50,60,20","Gabriela","It looks like a parade of musicians full of excitement. Makes me feel upbeat,33,140,20","Michaela","This would make a great mural,37,260,20","Emma","Love the use of colors and light,50,60,20","2"
"12546","","survey-text","217","1946567","0.0-216.0-0.0","A1J6LV7NWDKV9N","","","","{""Q0"":""Trapped under the ice""}","","","","","","","","","","","","","","","","","","","","","","",""
"5344.800000000745","","image-slider-response","218","1951914","0.0-217.0","A1J6LV7NWDKV9N","","","","","34","","","","","","","","","","","","","","","","","","","","","",""
"null","","image-button-response","219","1956923","0.0-218.0","A1J6LV7NWDKV9N","img_art/13.jpg","null","","","","","","","","","","","","","","","","","","","","","","","","",""
"9007","","image-button-response","220","1965933","0.0-219.0","A1J6LV7NWDKV9N","img_art/13.jpg","0","","","","","","","","","","","","","","","","","","","","","","","","",""
"1706","","image-button-response","221","1967643","0.0-220.0-0.0","A1J6LV7NWDKV9N","img_art/13.jpg","4","","","","","","","","","","","","","","","","","","","","","","","","",""
"3492","","image-button-response","222","1971139","0.0-221.0-0.0","A1J6LV7NWDKV9N","img_art/13.jpg","2","","","","","","","","","","","","","","","","","","","","","","","","",""
"null","","html-keyboard-response","223","1972643","0.0-222.0","A1J6LV7NWDKV9N","<p style=""font-size: 48px;"">+</p>","","","","","null","allTrialResponses","1500","1","25","img_art/13.jpg","34","Trapped under the ice","Katelyn,Michelle,Leslie,Gabriela,Michaela,Emma","Really like this. Its like looking out a window into a beautiful storm,39,100,20","I like the blue colors and the symmetry and paint splatters but I would not hang it in my house,8,280,20","This elicits no reaction in me.,0,380,20","It looks too common, is a bit boring,-41,140,20","The colors are really pretty together,39,260,20","It's pretty ...........,41,60,20","Katelyn","Really like this. Its like looking out a window into a beautiful storm,39,100,20","Michaela","The colors are really pretty together,39,260,20","Leslie","This elicits no reaction in me.,0,380,20","2"
"5029","","survey-text","224","1977686","0.0-223.0-0.0","A1J6LV7NWDKV9N","","","","{""Q0"":""table""}","","","","","","","","","","","","","","","","","","","","","","",""
"29025","","survey-text","225","2006713","0.0-224.0-0.0","A1J6LV7NWDKV9N","","","","{""Q0"":""sleeping maiden""}","","","","","","","","","","","","","","","","","","","","","","",""
"3310.39999999851","","image-slider-response","226","2010025","0.0-225.0","A1J6LV7NWDKV9N","","","","","15","","","","","","","","","","","","","","","","","","","","","",""
"null","","image-button-response","227","2015029","0.0-226.0","A1J6LV7NWDKV9N","img_art/9.jpg","null","","","","","","","","","","","","","","","","","","","","","","","","",""
"225","","image-button-response","228","2015257","0.0-227.0","A1J6LV7NWDKV9N","img_art/9.jpg","1","","","","","","","","","","","","","","","","","","","","","","","","",""
"2066","","image-button-response","229","2017326","0.0-228.0-0.0","A1J6LV7NWDKV9N","img_art/9.jpg","2","","","","","","","","","","","","","","","","","","","","","","","","",""
"3891","","image-button-response","230","2021221","0.0-229.0-0.0","A1J6LV7NWDKV9N","img_art/9.jpg","4","","","","","","","","","","","","","","","","","","","","","","","","",""
"null","","html-keyboard-response","231","2022227","0.0-230.0","A1J6LV7NWDKV9N","<p style=""font-size: 48px;"">+</p>","","","","","null","allTrialResponses","1000","1","26","img_art/9.jpg","15","sleeping maiden","Katelyn,Amber,Leslie,Hannah,Michaela,Cassandra","The lack of concrete form kind of turns me off,-2,100,20","looks like sleeping beauty in a garden,10,200,20","The colors are pretty, and remind me of a circus.,5,380,20","Someone lying in bed?  Don't care for it.,-14,240,20","The colors remind me of peacocks,24,260,20","Stuipid looking...dumb,-48,120,20","Amber","looks like sleeping beauty in a garden,10,200,20","Leslie","The colors are pretty, and remind me of a circus.,5,380,20","Michaela","The colors remind me of peacocks,24,260,20","2"
"16661","","survey-text","232","2038898","0.0-231.0-0.0","A1J6LV7NWDKV9N","","","","{""Q0"":""iceberg at sunset""}","","","","","","","","","","","","","","","","","","","","","","",""
"3558.7999999970198","","image-slider-response","233","2042460","0.0-232.0","A1J6LV7NWDKV9N","","","","","30","","","","","","","","","","","","","","","","","","","","","",""
"null","","image-button-response","234","2047464","0.0-233.0","A1J6LV7NWDKV9N","img_art/21.jpg","null","","","","","","","","","","","","","","","","","","","","","","","","",""
"705","","image-button-response","235","2048173","0.0-234.0","A1J6LV7NWDKV9N","img_art/21.jpg","3","","","","","","","","","","","","","","","","","","","","","","","","",""
"2463","","image-button-response","236","2050640","0.0-235.0-0.0","A1J6LV7NWDKV9N","img_art/21.jpg","4","","","","","","","","","","","","","","","","","","","","","","","","",""
"4348","","image-button-response","237","2054992","0.0-236.0-0.0","A1J6LV7NWDKV9N","img_art/21.jpg","5","","","","","","","","","","","","","","","","","","","","","","","","",""
"null","","html-keyboard-response","238","2055495","0.0-237.0","A1J6LV7NWDKV9N","<p style=""font-size: 48px;"">+</p>","","","","","null","allTrialResponses","500","1","27","img_art/21.jpg","30","iceberg at sunset","Destiny,Amber,Leslie,Maria,Michaela,Savannah","Pink is my favorite, against blue it looks like sunset. Seems like a boat burning down, so don't absolutely love it,23,360,20","sunset after the rain,49,200,20","The colors make me think of a perilous scene at sea, and are pretty interesting.,15,380,20","brings up imagery of the sea and clashing, though not in a negative way,31,120,20","I love how vague it is but how you can imagine a story anyway, like clouds,45,260,20","Almost appears like the background of an old renaissance painting.,40,200,20","Maria","brings up imagery of the sea and clashing, though not in a negative way,31,120,20","Michaela","I love how vague it is but how you can imagine a story anyway, like clouds,45,260,20","Savannah","Almost appears like the background of an old renaissance painting.,40,200,20","2"
"9983","","survey-text","239","2065488","0.0-238.0-0.0","A1J6LV7NWDKV9N","","","","{""Q0"":""pantry closet""}","","","","","","","","","","","","","","","","","","","","","","",""
"5313.199999999255","","image-slider-response","240","2070803","0.0-239.0","A1J6LV7NWDKV9N","","","","","-26","","","","","","","","","","","","","","","","","","","","","",""
"null","","image-button-response","241","2075809","0.0-240.0","A1J6LV7NWDKV9N","img_art/3.jpg","null","","","","","","","","","","","","","","","","","","","","","","","","",""
"4865","","image-button-response","242","2080678","0.0-241.0","A1J6LV7NWDKV9N","img_art/3.jpg","3","","","","","","","","","","","","","","","","","","","","","","","","",""
"2055","","image-button-response","243","2082736","0.0-242.0-0.0","A1J6LV7NWDKV9N","img_art/3.jpg","2","","","","","","","","","","","","","","","","","","","","","","","","",""
"957","","image-button-response","244","2083697","0.0-243.0-0.0","A1J6LV7NWDKV9N","img_art/3.jpg","1","","","","","","","","","","","","","","","","","","","","","","","","",""
"null","","html-keyboard-response","245","2084199","0.0-244.0","A1J6LV7NWDKV9N","<p style=""font-size: 48px;"">+</p>","","","","","null","allTrialResponses","500","1","28","img_art/3.jpg","-26","pantry closet","Cynthia,Allison,Kylie,Maria,Michaela,Savannah","This makes me feel vulnerable,-32,320,20","Reminds me of a hot mess,-10,140,20","Confusion and mayhem,-10,300,20","I struggle to see the art,-20,120,20","It looks like someone took a red sharpie and just scribbled angrily,-20,260,20","Completely incomprehensible.,-33,200,20","Maria","I struggle to see the art,-20,120,20","Kylie","Confusion and mayhem,-10,300,20","Allison","Reminds me of a hot mess,-10,140,20","2"
"11184","","survey-text","246","2095394","0.0-245.0-0.0","A1J6LV7NWDKV9N","","","","{""Q0"":""Keys to the city""}","","","","","","","","","","","","","","","","","","","","","","",""
"6382.5","","image-slider-response","247","2101780","0.0-246.0","A1J6LV7NWDKV9N","","","","","-6","","","","","","","","","","","","","","","","","","","","","",""
"null","","image-button-response","248","2106784","0.0-247.0","A1J6LV7NWDKV9N","img_art/22.jpg","null","","","","","","","","","","","","","","","","","","","","","","","","",""
"2055","","image-button-response","249","2108842","0.0-248.0","A1J6LV7NWDKV9N","img_art/22.jpg","2","","","","","","","","","","","","","","","","","","","","","","","","",""
"7069","","image-button-response","250","2115915","0.0-249.0-0.0","A1J6LV7NWDKV9N","img_art/22.jpg","5","","","","","","","","","","","","","","","","","","","","","","","","",""
"2979","","image-button-response","251","2118898","0.0-250.0-0.0","A1J6LV7NWDKV9N","img_art/22.jpg","4","","","","","","","","","","","","","","","","","","","","","","","","",""
"null","","html-keyboard-response","252","2120401","0.0-251.0","A1J6LV7NWDKV9N","<p style=""font-size: 48px;"">+</p>","","","","","null","allTrialResponses","1500","1","29","img_art/22.jpg","-6","Keys to the city","Amanda,Allison,Kylie,Maria,Jacqueline,Rachel","Very generic, seen many times before,-43,180,20","Very generic mix of primary colors and shapes. Not a huge fan.,-10,140,20","Climate change in a big city,35,300,20","displeasure - not a fan of the colour or the shapes,-18,120,20","I feel like I've seen this one already.,-9,300,20","I like the vivid colors.,11,80,20","Kylie","Climate change in a big city,35,300,20","Rachel","I like the vivid colors.,11,80,20","Jacqueline","I feel like I've seen this one already.,-9,300,20","2"
"12052","","survey-text","253","2132462","0.0-252.0-0.0","A1J6LV7NWDKV9N","","","","{""Q0"":""The playroom""}","","","","","","","","","","","","","","","","","","","","","","",""
"5376.300000000745","","image-slider-response","254","2137841","0.0-253.0","A1J6LV7NWDKV9N","","","","","-28","","","","","","","","","","","","","","","","","","","","","",""
"null","","image-button-response","255","2142848","0.0-254.0","A1J6LV7NWDKV9N","img_art/16.jpg","null","","","","","","","","","","","","","","","","","","","","","","","","",""
"1922","","image-button-response","256","2144774","0.0-255.0","A1J6LV7NWDKV9N","img_art/16.jpg","4","","","","","","","","","","","","","","","","","","","","","","","","",""
"5037","","image-button-response","257","2149815","0.0-256.0-0.0","A1J6LV7NWDKV9N","img_art/16.jpg","5","","","","","","","","","","","","","","","","","","","","","","","","",""
"1058","","image-button-response","258","2150876","0.0-257.0-0.0","A1J6LV7NWDKV9N","img_art/16.jpg","3","","","","","","","","","","","","","","","","","","","","","","","","",""
"null","","html-keyboard-response","259","2151883","0.0-258.0","A1J6LV7NWDKV9N","<p style=""font-size: 48px;"">+</p>","","","","","null","allTrialResponses","1000","1","30","img_art/16.jpg","-28","The playroom","Jessica,Molly,Kylie,Breanna,Jacqueline,Rachel","Cool but the bear creeps me out?,8,400,20","It's frightening.,30,340,20","Mixed feelings. Warm and comfy yet somewhat violent. A stark contrast,0,300,20","The bear is terrifying,-50,380,20","Seems very twisted and dark.,-35,300,20","Not pleasing to the eyes. I do like that the gun is broken though.,-28,80,20","Jacqueline","Seems very twisted and dark.,-35,300,20","Rachel","Not pleasing to the eyes. I do like that the gun is broken though.,-28,80,20","Breanna","The bear is terrifying,-50,380,20","2"
"3915","","image-button-response_instructions","260","2155807","0.0-259.0","A1J6LV7NWDKV9N","","0","instructions","","","","","","","","","","","","","","","","","","","","","","","",""
"2111","","image-button-response","261","2157927","0.0-260.0","A1J6LV7NWDKV9N","","0","","","","","","","","","","","","","","","","","","","","","","","","",""
