"rt","url","trial_type","trial_index","time_elapsed","internal_node_id","participant_id","stimulus","button_pressed","Name","responses","response","key_press","variableName","fixationTime","condition","trial","photo","subjectRating","subjectResponse","agentsNames","agent_1_Response","agent_2_Response","agent_3_Response","agent_4_Response","agent_5_Response","agent_6_Response","kept_1_name","kept_1_response","kept_2_name","kept_2_response","kept_3_name","kept_3_response","errorCounter"
"18270","external_page_harvard.html","external-html","0","18541","0.0-0.0","A1JJYY622DGE5L","","","","","","","","","","","","","","","","","","","","","","","","","","",""
"2667","","image-button-response","1","21223","0.0-1.0","A1JJYY622DGE5L","","1","","","","","","","","","","","","","","","","","","","","","","","","",""
"2520","","image-button-response","2","23770","0.0-2.0-0.0","A1JJYY622DGE5L","","1","phone","","","","","","","","","","","","","","","","","","","","","","","",""
"9538","","survey-text","3","33316","0.0-3.0-0.0","A1JJYY622DGE5L","","","","{""Q0"":""A1JJYY622DGE5L""}","","","","","","","","","","","","","","","","","","","","","","",""
"14653","","image-button-response_instructions","4","47976","0.0-4.0","A1JJYY622DGE5L","","0","instructions","","","","","","","","","","","","","","","","","","","","","","","",""
"8663","","image-button-response_instructions","5","56647","0.0-5.0","A1JJYY622DGE5L","img_art/ins/popularity/ins1.png","0","instructions","","","","","","","","","","","","","","","","","","","","","","","",""
"3923","","image-button-response_instructions","6","60588","0.0-6.0","A1JJYY622DGE5L","img_art/ins/popularity/ins2.png","0","instructions","","","","","","","","","","","","","","","","","","","","","","","",""
"3605","","image-button-response_instructions","7","64202","0.0-7.0","A1JJYY622DGE5L","img_art/ins/popularity/ins2Extreme.png","0","instructions","","","","","","","","","","","","","","","","","","","","","","","",""
"5240","","image-button-response_instructions","8","69447","0.0-8.0","A1JJYY622DGE5L","img_art/ins/popularity/ins3KEEPpop.PNG","0","instructions","","","","","","","","","","","","","","","","","","","","","","","",""
"2074","","image-button-response_instructions","9","71527","0.0-9.0","A1JJYY622DGE5L","img_art/ins/popularity/ins3ANamepop.PNG","0","instructions","","","","","","","","","","","","","","","","","","","","","","","",""
"2839","","image-button-response_instructions","10","74373","0.0-10.0","A1JJYY622DGE5L","img_art/ins/popularity/ins3ARatingpop.png","0","instructions","","","","","","","","","","","","","","","","","","","","","","","",""
"2040","","image-button-response_instructions","11","76421","0.0-11.0","A1JJYY622DGE5L","img_art/ins/popularity/ins3ATextpop.png","0","instructions","","","","","","","","","","","","","","","","","","","","","","","",""
"4344","","image-button-response_instructions","12","80771","0.0-12.0","A1JJYY622DGE5L","img_art/ins/popularity/ins3ALikespop.png","0","instructions","","","","","","","","","","","","","","","","","","","","","","","",""
"1998","","image-button-response_instructions","13","82775","0.0-13.0","A1JJYY622DGE5L","img_art/ins/popularity/ins3KEEPpop.PNG","0","instructions","","","","","","","","","","","","","","","","","","","","","","","",""
"4142","","image-button-response_instructions","14","86921","0.0-14.0","A1JJYY622DGE5L","img_art/ins/popularity/ins3_5RED.png","0","instructions","","","","","","","","","","","","","","","","","","","","","","","",""
"1578","","image-button-response_instructions","15","88505","0.0-15.0","A1JJYY622DGE5L","img_art/ins/popularity/ins3KEEPpop.PNG","0","instructions","","","","","","","","","","","","","","","","","","","","","","","",""
"2174","","image-button-response_instructions","16","90688","0.0-16.0","A1JJYY622DGE5L","img_art/ins/popularity/ins4KEEPpop.PNG","0","instructions","","","","","","","","","","","","","","","","","","","","","","","",""
"3168","","image-button-response_instructions","17","93864","0.0-17.0","A1JJYY622DGE5L","img_art/ins/popularity/ins5KEEPpop.PNG","0","instructions","","","","","","","","","","","","","","","","","","","","","","","",""
"2208","","image-button-response_instructions","18","96079","0.0-18.0","A1JJYY622DGE5L","","0","instructions","","","","","","","","","","","","","","","","","","","","","","","",""
"5287","","survey-text","19","101502","0.0-19.0-0.0","A1JJYY622DGE5L","","","","{""Q0"":""but""}","","","","","","","","","","","","","","","","","","","","","","",""
"9160","","survey-text","20","110669","0.0-20.0-0.0","A1JJYY622DGE5L","","","","{""Q0"":""Love the colors""}","","","","","","","","","","","","","","","","","","","","","","",""
"4566.299999952316","","image-slider-response","21","115250","0.0-21.0","A1JJYY622DGE5L","","","","","30","","","","","","","","","","","","","","","","","","","","","",""
"null","","image-button-response","22","120271","0.0-22.0","A1JJYY622DGE5L","img_art/ins/1.jpg","null","","","","","","","","","","","","","","","","","","","","","","","","",""
"16206","","image-button-response","23","136485","0.0-23.0","A1JJYY622DGE5L","img_art/ins/1.jpg","4","","","","","","","","","","","","","","","","","","","","","","","","",""
"2281","","image-button-response","24","138777","0.0-24.0-0.0","A1JJYY622DGE5L","img_art/ins/1.jpg","5","","","","","","","","","","","","","","","","","","","","","","","","",""
"4084","","image-button-response","25","142870","0.0-25.0-0.0","A1JJYY622DGE5L","img_art/ins/1.jpg","0","","","","","","","","","","","","","","","","","","","","","","","","",""
"null","","html-keyboard-response","26","143379","0.0-26.0","A1JJYY622DGE5L","<p style=""font-size: 48px;"">+</p>","","","","","null","allTrialResponses","500","1","-2","img_art/ins/1.jpg","30","Love the colors","Allison,Ashley,Beth,Dora,Erika,Jen","looks like a lot of things going on in the mist,20,20,20","I just don't get why these type of art would be popular,-32,40,20","This color reminds me of poo,-46,60,20","looks like what my niece in 3rd grade did this afternoon,-50,80,20","I like the sophisticated brushwork,40,100,20","It reminds me of a candy land dream I had,36,120,20","Erika","I like the sophisticated brushwork,40,100,20","Jen","It reminds me of a candy land dream I had,36,120,20","Allison","looks like a lot of things going on in the mist,20,20,20","0"
"26448","","survey-text","27","169833","0.0-27.0-0.0","A1JJYY622DGE5L","","","","{""Q0"":""This is really intense.""}","","","","","","","","","","","","","","","","","","","","","","",""
"4151.899999976158","","image-slider-response","28","173994","0.0-28.0","A1JJYY622DGE5L","","","","","-14","","","","","","","","","","","","","","","","","","","","","",""
"null","","image-button-response","29","179016","0.0-29.0","A1JJYY622DGE5L","img_art/ins/2.jpg","null","","","","","","","","","","","","","","","","","","","","","","","","",""
"12669","","image-button-response","30","191693","0.0-30.0","A1JJYY622DGE5L","img_art/ins/2.jpg","1","","","","","","","","","","","","","","","","","","","","","","","","",""
"6092","","image-button-response","31","197795","0.0-31.0-0.0","A1JJYY622DGE5L","img_art/ins/2.jpg","5","","","","","","","","","","","","","","","","","","","","","","","","",""
"3645","","image-button-response","32","201450","0.0-32.0-0.0","A1JJYY622DGE5L","img_art/ins/2.jpg","0","","","","","","","","","","","","","","","","","","","","","","","","",""
"null","","html-keyboard-response","33","202470","0.0-33.0","A1JJYY622DGE5L","<p style=""font-size: 48px;"">+</p>","","","","","null","allTrialResponses","1000","1","-1","img_art/ins/2.jpg","-14","This is really intense.","Allison,Kara,Katie,Jenna,Erika,Jen","I don't have strong feelings about this,10,20,20","I like the blocks of color arrangements,30,160,20","too much color!,-28,180,20","One of my pet peevs,-48,140,20","I would never be able to compose a sophisticated pallete like this,48,100,20","It reminds me of a fireplace,36,120,20","Kara","I like the blocks of color arrangements,30,160,20","Jen","It reminds me of a fireplace,36,120,20","Allison","I don't have strong feelings about this,10,20,20","0"
"20445","","survey-text","34","222935","0.0-34.0-0.0","A1JJYY622DGE5L","","","","{""Q0"":""This makes me think of Antarctica""}","","","","","","","","","","","","","","","","","","","","","","",""
"5493.199999928474","","image-slider-response","35","228438","0.0-35.0","A1JJYY622DGE5L","","","","","7","","","","","","","","","","","","","","","","","","","","","",""
"null","","image-button-response","36","233455","0.0-36.0","A1JJYY622DGE5L","img_art/ins/3.jpg","null","","","","","","","","","","","","","","","","","","","","","","","","",""
"2639","","image-button-response","37","236100","0.0-37.0","A1JJYY622DGE5L","img_art/ins/3.jpg","0","","","","","","","","","","","","","","","","","","","","","","","","",""
"6288","","image-button-response","38","242401","0.0-38.0-0.0","A1JJYY622DGE5L","img_art/ins/3.jpg","5","","","","","","","","","","","","","","","","","","","","","","","","",""
"1668","","image-button-response","39","244080","0.0-39.0-0.0","A1JJYY622DGE5L","img_art/ins/3.jpg","3","","","","","","","","","","","","","","","","","","","","","","","","",""
"null","","html-keyboard-response","40","245086","0.0-40.0","A1JJYY622DGE5L","<p style=""font-size: 48px;"">+</p>","","","","","null","allTrialResponses","1000","1","0","img_art/ins/3.jpg","7","This makes me think of Antarctica","Allison,Kara,Rose,Leslie,Mary,Jen","enjoy the different shades of blue,22,20,20","calming blue is very nice,36,160,20","My daily routine, it's depressing,-20,240,20","It's an alright work,15,200,20","I like the overlapping of brushes,41,220,20","I can feel a rainy day from this painting,18,120,20","Allison","enjoy the different shades of blue,22,20,20","Jen","I can feel a rainy day from this painting,18,120,20","Leslie","It's an alright work,15,200,20","0"
"3525","","image-button-response_instructions","41","248636","0.0-41.0","A1JJYY622DGE5L","","0","instructions","","","","","","","","","","","","","","","","","","","","","","","",""
"12305","","survey-likert","42","260952","0.0-42.0-0.0","A1JJYY622DGE5L","","","","{""Q0"":"""",""Q1"":0,""Q2"":1}","","","","","","","","","","","","","","","","","","","","","","",""
"4146","","survey-text","43","265119","0.0-43.0-0.0","A1JJYY622DGE5L","","","","{""Q0"":""rock""}","","","","","","","","","","","","","","","","","","","","","","",""
"21133","","survey-text","44","286265","0.0-44.0-0.0","A1JJYY622DGE5L","","","","{""Q0"":""There is a lot of detail in this""}","","","","","","","","","","","","","","","","","","","","","","",""
"3858","","image-slider-response","45","290131","0.0-45.0","A1JJYY622DGE5L","","","","","15","","","","","","","","","","","","","","","","","","","","","",""
"null","","image-button-response","46","295180","0.0-46.0","A1JJYY622DGE5L","img_art/11.jpg","null","","","","","","","","","","","","","","","","","","","","","","","","",""
"6913","","image-button-response","47","302101","0.0-47.0","A1JJYY622DGE5L","img_art/11.jpg","4","","","","","","","","","","","","","","","","","","","","","","","","",""
"4168","","image-button-response","48","306282","0.0-48.0-0.0","A1JJYY622DGE5L","img_art/11.jpg","0","","","","","","","","","","","","","","","","","","","","","","","","",""
"8197","","image-button-response","49","314492","0.0-49.0-0.0","A1JJYY622DGE5L","img_art/11.jpg","5","","","","","","","","","","","","","","","","","","","","","","","","",""
"null","","html-keyboard-response","50","315001","0.0-50.0","A1JJYY622DGE5L","<p style=""font-size: 48px;"">+</p>","","","","","null","allTrialResponses","500","1","1","img_art/11.jpg","15","There is a lot of detail in this","Jenna,Brittany,Michelle,Kimberly,Kylie,Ashley","makes me think of city highways & bridges on a rainy, foggy day. I like the melancholy it evokes.,43,360,20","It reminds me of telephone wires.,1,40,20","I think this is a city but I'm not sure, very abstract,18,280,20","It's cables in a city,21,260,20","This looks like a busy highway system along a suburban background,40,300,20","Dark but bright, city but ocean, musical scales.,50,320,20","Kylie","This looks like a busy highway system along a suburban background,40,300,20","Jenna","makes me think of city highways & bridges on a rainy, foggy day. I like the melancholy it evokes.,43,360,20","Ashley","Dark but bright, city but ocean, musical scales.,50,320,20","0"
"27978","","survey-text","51","343007","0.0-51.0-0.0","A1JJYY622DGE5L","","","","{""Q0"":""This makes me feel homey. Reminds me of a tea kettle.""}","","","","","","","","","","","","","","","","","","","","","","",""
"5793.899999976158","","image-slider-response","52","348813","0.0-52.0","A1JJYY622DGE5L","","","","","18","","","","","","","","","","","","","","","","","","","","","",""
"null","","image-button-response","53","353825","0.0-53.0","A1JJYY622DGE5L","img_art/2.jpg","null","","","","","","","","","","","","","","","","","","","","","","","","",""
"9329","","image-button-response","54","363161","0.0-54.0","A1JJYY622DGE5L","img_art/2.jpg","3","","","","","","","","","","","","","","","","","","","","","","","","",""
"964","","image-button-response","55","364135","0.0-55.0-0.0","A1JJYY622DGE5L","img_art/2.jpg","5","","","","","","","","","","","","","","","","","","","","","","","","",""
"9014","","image-button-response","56","373160","0.0-56.0-0.0","A1JJYY622DGE5L","img_art/2.jpg","2","","","","","","","","","","","","","","","","","","","","","","","","",""
"null","","html-keyboard-response","57","373676","0.0-57.0","A1JJYY622DGE5L","<p style=""font-size: 48px;"">+</p>","","","","","null","allTrialResponses","500","1","2","img_art/2.jpg","18","This makes me feel homey. Reminds me of a tea kettle.","Jenna,Diana,Miranda,Michaela,Kylie,Ashley","the colors are a bit odd, and the squiggly line at the top is distracting,0,360,20","I think I see people sitting in lawn chairs in a circle watching an event. Not really sure so I rated it lower.,-35,380,20","I don't really like this but at the same time it's cute. It looks like a little monster kid.,-9,320,20","My immediate reaction was it looked like a class but then I saw a smile in the middle,11,260,20","Not very appealing,-5,300,20","I think I can make out a face in there.,25,320,20","Michaela","My immediate reaction was it looked like a class but then I saw a smile in the middle,11,260,20","Ashley","I think I can make out a face in there.,25,320,20","Miranda","I don't really like this but at the same time it's cute. It looks like a little monster kid.,-9,320,20","0"
"22803","","survey-text","58","396493","0.0-58.0-0.0","A1JJYY622DGE5L","","","","{""Q0"":""The colors are magnificent! ""}","","","","","","","","","","","","","","","","","","","","","","",""
"4337.800000071526","","image-slider-response","59","400838","0.0-59.0","A1JJYY622DGE5L","","","","","32","","","","","","","","","","","","","","","","","","","","","",""
"null","","image-button-response","60","405854","0.0-60.0","A1JJYY622DGE5L","img_art/1.jpg","null","","","","","","","","","","","","","","","","","","","","","","","","",""
"8067","","image-button-response","61","413928","0.0-61.0","A1JJYY622DGE5L","img_art/1.jpg","1","","","","","","","","","","","","","","","","","","","","","","","","",""
"6353","","image-button-response","62","420290","0.0-62.0-0.0","A1JJYY622DGE5L","img_art/1.jpg","3","","","","","","","","","","","","","","","","","","","","","","","","",""
"925","","image-button-response","63","421224","0.0-63.0-0.0","A1JJYY622DGE5L","img_art/1.jpg","3","","","","","","","","","","","","","","","","","","","","","","","","",""
"4909","","image-button-response","64","434517","0.0-63.1-0.1","A1JJYY622DGE5L","img_art/1.jpg","5","","","","","","","","","","","","","","","","","","","","","","","","",""
"null","","html-keyboard-response","65","436036","0.0-64.0","A1JJYY622DGE5L","<p style=""font-size: 48px;"">+</p>","","","","","null","allTrialResponses","1500","1","3","img_art/1.jpg","32","The colors are magnificent! ","Alicia,Stephanie,Miranda,Michaela,Makayla,Ashley","just colors mixed together. not interesting.,5,120,20","Pretty colors. Fall day in the East Coast of USA.,42,300,20","Someone painted a landscape and decided they didn't like it so they covered it up.,13,320,20","That one piece in the middle gives it depth and it's really neat,21,260,20","Nothing whatsoever,2,80,20","More passable, colorful, abstract.,13,320,20","Stephanie","Pretty colors. Fall day in the East Coast of USA.,42,300,20","Michaela","That one piece in the middle gives it depth and it's really neat,21,260,20","Ashley","More passable, colorful, abstract.,13,320,20","2"
"22743","","survey-text","66","458796","0.0-65.0-0.0","A1JJYY622DGE5L","","","","{""Q0"":""This gives me mixed emotions depending on how I look at it.""}","","","","","","","","","","","","","","","","","","","","","","",""
"12066.200000047684","","image-slider-response","67","470869","0.0-66.0","A1JJYY622DGE5L","","","","","-5","","","","","","","","","","","","","","","","","","","","","",""
"null","","image-button-response","68","475889","0.0-67.0","A1JJYY622DGE5L","img_art/9.jpg","null","","","","","","","","","","","","","","","","","","","","","","","","",""
"10042","","image-button-response","69","485940","0.0-68.0","A1JJYY622DGE5L","img_art/9.jpg","2","","","","","","","","","","","","","","","","","","","","","","","","",""
"4721","","image-button-response","70","490672","0.0-69.0-0.0","A1JJYY622DGE5L","img_art/9.jpg","4","","","","","","","","","","","","","","","","","","","","","","","","",""
"5678","","image-button-response","71","496364","0.0-70.0-0.0","A1JJYY622DGE5L","img_art/9.jpg","1","","","","","","","","","","","","","","","","","","","","","","","","",""
"null","","html-keyboard-response","72","496877","0.0-71.0","A1JJYY622DGE5L","<p style=""font-size: 48px;"">+</p>","","","","","null","allTrialResponses","500","1","4","img_art/9.jpg","-5","This gives me mixed emotions depending on how I look at it.","Jordan,Stephanie,Lauren,Michaela,Natalie,Ashley","I just dont like it, no reaction from me at all,-50,20,20","Someone sleeping in a cave. Dont like the scribble look.,-30,300,20","I like how design can be interpreted differently, I see a person sleeping or a mountainous region.,10,340,20","The colors remind me of peacocks,24,260,20","Gives me anxiety,-23,400,20","Similar to the tohers, but not as clear.,11,320,20","Lauren","I like how design can be interpreted differently, I see a person sleeping or a mountainous region.,10,340,20","Natalie","Gives me anxiety,-23,400,20","Stephanie","Someone sleeping in a cave. Dont like the scribble look.,-30,300,20","2"
"24956","","survey-text","73","521853","0.0-72.0-0.0","A1JJYY622DGE5L","","","","{""Q0"":""The simplicity is intriguing. Reminds me of a crow.""}","","","","","","","","","","","","","","","","","","","","","","",""
"5108.299999952316","","image-slider-response","74","526969","0.0-73.0","A1JJYY622DGE5L","","","","","16","","","","","","","","","","","","","","","","","","","","","",""
"4718","","image-button-response","75","531987","0.0-74.0","A1JJYY622DGE5L","img_art/6.jpg","2","","","","","","","","","","","","","","","","","","","","","","","","",""
"16299","","image-button-response","76","548293","0.0-75.0","A1JJYY622DGE5L","img_art/6.jpg","2","","","","","","","","","","","","","","","","","","","","","","","","",""
"2482","","image-button-response","77","550789","0.0-76.0-0.0","A1JJYY622DGE5L","img_art/6.jpg","0","","","","","","","","","","","","","","","","","","","","","","","","",""
"3588","","image-button-response","78","554389","0.0-77.0-0.0","A1JJYY622DGE5L","img_art/6.jpg","5","","","","","","","","","","","","","","","","","","","","","","","","",""
"null","","html-keyboard-response","79","554901","0.0-78.0","A1JJYY622DGE5L","<p style=""font-size: 48px;"">+</p>","","","","","null","allTrialResponses","500","1","5","img_art/6.jpg","16","The simplicity is intriguing. Reminds me of a crow.","Victoria,Stephanie,Lauren,Kaylee,Natalie,Savannah","makes me think of nature,30,400,20","Nevermore!  A black raven sitting on a pumpkin. Halloween,-35,300,20","I like the simplicity of the piece.,10,340,20","just an another tree on a desert?,9,200,20","reminds me a giant peach,19,400,20","Despite how simple it is, this piece has clear meaning.,34,200,20","Lauren","I like the simplicity of the piece.,10,340,20","Victoria","makes me think of nature,30,400,20","Savannah","Despite how simple it is, this piece has clear meaning.,34,200,20","2"
"4596","","survey-text","80","559511","0.0-79.0-0.0","A1JJYY622DGE5L","","","","{""Q0"":""sky""}","","","","","","","","","","","","","","","","","","","","","","",""
"16628","","survey-text","81","576148","0.0-80.0-0.0","A1JJYY622DGE5L","","","","{""Q0"":""This looks like an angry child made it.""}","","","","","","","","","","","","","","","","","","","","","","",""
"5457.899999976158","","image-slider-response","82","581618","0.0-81.0","A1JJYY622DGE5L","","","","","-36","","","","","","","","","","","","","","","","","","","","","",""
"null","","image-button-response","83","586641","0.0-82.0","A1JJYY622DGE5L","img_art/3.jpg","null","","","","","","","","","","","","","","","","","","","","","","","","",""
"5066","","image-button-response","84","591713","0.0-83.0","A1JJYY622DGE5L","img_art/3.jpg","0","","","","","","","","","","","","","","","","","","","","","","","","",""
"3816","","image-button-response","85","595539","0.0-84.0-0.0","A1JJYY622DGE5L","img_art/3.jpg","4","","","","","","","","","","","","","","","","","","","","","","","","",""
"1905","","image-button-response","86","597454","0.0-85.0-0.0","A1JJYY622DGE5L","img_art/3.jpg","3","","","","","","","","","","","","","","","","","","","","","","","","",""
"null","","html-keyboard-response","87","598968","0.0-86.0","A1JJYY622DGE5L","<p style=""font-size: 48px;"">+</p>","","","","","null","allTrialResponses","1500","1","6","img_art/3.jpg","-36","This looks like an angry child made it.","Victoria,Emma,Lauren,Megan,Sierra,Savannah","makes me think of anger,-33,400,20","Feels upset .......,-10,60,20","No clue what I'm looking. This just looks a series of scribbles in a box.,-20,340,20","5 min scribble by a 3 year old,-46,200,20","scattered and angry,-26,260,20","Completely incomprehensible.,-33,200,20","Victoria","makes me think of anger,-33,400,20","Sierra","scattered and angry,-26,260,20","Megan","5 min scribble by a 3 year old,-46,200,20","2"
"14248","","survey-text","88","613235","0.0-87.0-0.0","A1JJYY622DGE5L","","","","{""Q0"":""The earth tones are calming""}","","","","","","","","","","","","","","","","","","","","","","",""
"3403.899999976158","","image-slider-response","89","616646","0.0-88.0","A1JJYY622DGE5L","","","","","14","","","","","","","","","","","","","","","","","","","","","",""
"null","","image-button-response","90","621661","0.0-89.0","A1JJYY622DGE5L","img_art/7.jpg","null","","","","","","","","","","","","","","","","","","","","","","","","",""
"6054","","image-button-response","91","627722","0.0-90.0","A1JJYY622DGE5L","img_art/7.jpg","1","","","","","","","","","","","","","","","","","","","","","","","","",""
"4803","","image-button-response","92","632536","0.0-91.0-0.0","A1JJYY622DGE5L","img_art/7.jpg","3","","","","","","","","","","","","","","","","","","","","","","","","",""
"1998","","image-button-response","93","634545","0.0-92.0-0.0","A1JJYY622DGE5L","img_art/7.jpg","4","","","","","","","","","","","","","","","","","","","","","","","","",""
"null","","html-keyboard-response","94","636063","0.0-93.0","A1JJYY622DGE5L","<p style=""font-size: 48px;"">+</p>","","","","","null","allTrialResponses","1500","1","7","img_art/7.jpg","14","The earth tones are calming","Victoria,Alexandria,Leslie,Megan,Sierra,Madeline","looks like a photograph,-4,400,20","reminds me of the desert,-20,80,20","This elicits no reaction in me.,0,380,20","Great portrayal of solid surface,19,200,20","it looks like a dog ran through some wet cement,-22,260,20","Not very big on the sameness here,-20,40,20","Alexandria","reminds me of the desert,-20,80,20","Megan","Great portrayal of solid surface,19,200,20","Sierra","it looks like a dog ran through some wet cement,-22,260,20","2"
"25935","","survey-text","95","662014","0.0-94.0-0.0","A1JJYY622DGE5L","","","","{""Q0"":""I get the peacefulness of a waterfall in nature.""}","","","","","","","","","","","","","","","","","","","","","","",""
"4993.5","","image-slider-response","96","667019","0.0-95.0","A1JJYY622DGE5L","","","","","30","","","","","","","","","","","","","","","","","","","","","",""
"null","","image-button-response","97","672027","0.0-96.0","A1JJYY622DGE5L","img_art/24.jpg","null","","","","","","","","","","","","","","","","","","","","","","","","",""
"6616","","image-button-response","98","678650","0.0-97.0","A1JJYY622DGE5L","img_art/24.jpg","1","","","","","","","","","","","","","","","","","","","","","","","","",""
"5157","","image-button-response","99","683816","0.0-98.0-0.0","A1JJYY622DGE5L","img_art/24.jpg","4","","","","","","","","","","","","","","","","","","","","","","","","",""
"962","","image-button-response","100","684790","0.0-99.0-0.0","A1JJYY622DGE5L","img_art/24.jpg","5","","","","","","","","","","","","","","","","","","","","","","","","",""
"null","","html-keyboard-response","101","685806","0.0-100.0","A1JJYY622DGE5L","<p style=""font-size: 48px;"">+</p>","","","","","null","allTrialResponses","1000","1","8","img_art/24.jpg","30","I get the peacefulness of a waterfall in nature.","Rebecca,Alexandria,Amy,Megan,Sierra,Sara","organized mess at first glance, would love to inspect this in closer proximity,39,100,20","very colorful and intricate and makes me feel at peace,50,80,20","The contorted angles of the flowing water upset the harmony,-20,220,20","Classic palette lacks real world 3d construction,19,200,20","i like that the water seems in motion,6,260,20","Beautiful scenic drawing with perfect color coordination,43,160,20","Alexandria","very colorful and intricate and makes me feel at peace,50,80,20","Sierra","i like that the water seems in motion,6,260,20","Sara","Beautiful scenic drawing with perfect color coordination,43,160,20","2"
"12251","","survey-text","102","698074","0.0-101.0-0.0","A1JJYY622DGE5L","","","","{""Q0"":""A bit too abstract for my taste.""}","","","","","","","","","","","","","","","","","","","","","","",""
"6359.899999976158","","image-slider-response","103","704443","0.0-102.0","A1JJYY622DGE5L","","","","","-19","","","","","","","","","","","","","","","","","","","","","",""
"null","","image-button-response","104","709462","0.0-103.0","A1JJYY622DGE5L","img_art/28.jpg","null","","","","","","","","","","","","","","","","","","","","","","","","",""
"6691","","image-button-response","105","716161","0.0-104.0","A1JJYY622DGE5L","img_art/28.jpg","1","","","","","","","","","","","","","","","","","","","","","","","","",""
"7568","","image-button-response","106","723741","0.0-105.0-0.0","A1JJYY622DGE5L","img_art/28.jpg","5","","","","","","","","","","","","","","","","","","","","","","","","",""
"5811","","image-button-response","107","729569","0.0-106.0-0.0","A1JJYY622DGE5L","img_art/28.jpg","0","","","","","","","","","","","","","","","","","","","","","","","","",""
"null","","html-keyboard-response","108","730580","0.0-107.0","A1JJYY622DGE5L","<p style=""font-size: 48px;"">+</p>","","","","","null","allTrialResponses","1000","1","9","img_art/28.jpg","-19","A bit too abstract for my taste.","Jennifer,Alexandria,Haley,Erica,Sierra,Sara","This picture doesn't really stand out to me,1,380,20","no clear colors or meaning to evoke emotions,-15,80,20","I can't explain why, but I really love this one,50,220,20","Nothing calls my attention,15,80,20","i like the colors and the shapes look like people,20,260,20","This swirly drawing i snot my type I get confused and dizzy,-20,160,20","Alexandria","no clear colors or meaning to evoke emotions,-15,80,20","Sara","This swirly drawing i snot my type I get confused and dizzy,-20,160,20","Jennifer","This picture doesn't really stand out to me,1,380,20","2"
"24998","","survey-text","109","755596","0.0-108.0-0.0","A1JJYY622DGE5L","","","","{""Q0"":""There is depth to this and I love it.""}","","","","","","","","","","","","","","","","","","","","","","",""
"7322.799999952316","","image-slider-response","110","762926","0.0-109.0","A1JJYY622DGE5L","","","","","37","","","","","","","","","","","","","","","","","","","","","",""
"null","","image-button-response","111","767954","0.0-110.0","A1JJYY622DGE5L","img_art/21.jpg","null","","","","","","","","","","","","","","","","","","","","","","","","",""
"4366","","image-button-response","112","772325","0.0-111.0","A1JJYY622DGE5L","img_art/21.jpg","3","","","","","","","","","","","","","","","","","","","","","","","","",""
"2455","","image-button-response","113","774792","0.0-112.0-0.0","A1JJYY622DGE5L","img_art/21.jpg","2","","","","","","","","","","","","","","","","","","","","","","","","",""
"2366","","image-button-response","114","777167","0.0-113.0-0.0","A1JJYY622DGE5L","img_art/21.jpg","1","","","","","","","","","","","","","","","","","","","","","","","","",""
"null","","html-keyboard-response","115","778674","0.0-114.0","A1JJYY622DGE5L","<p style=""font-size: 48px;"">+</p>","","","","","null","allTrialResponses","1500","1","10","img_art/21.jpg","37","There is depth to this and I love it.","Jennifer,Alexandria,Rachel,Elizabeth,Briana,Sara","Bland, this painting is my least favorite,-20,380,20","the vast colors make me happy,15,80,20","Looks like a body of water during a sunset. I like this piece.,21,80,20","Touches the heart,50,20,20","Unfinished. Confusing to look at,-12,400,20","It looks confusing,-21,160,20","Elizabeth","Touches the heart,50,20,20","Rachel","Looks like a body of water during a sunset. I like this piece.,21,80,20","Alexandria","the vast colors make me happy,15,80,20","2"
"4156","","survey-text","116","782862","0.0-115.0-0.0","A1JJYY622DGE5L","","","","{""Q0"":""our""}","","","","","","","","","","","","","","","","","","","","","","",""
"27114","","survey-text","117","809982","0.0-116.0-0.0","A1JJYY622DGE5L","","","","{""Q0"":""Interesting watercolor look to this.""}","","","","","","","","","","","","","","","","","","","","","","",""
"3986.5","","image-slider-response","118","813977","0.0-117.0","A1JJYY622DGE5L","","","","","10","","","","","","","","","","","","","","","","","","","","","",""
"null","","image-button-response","119","818997","0.0-118.0","A1JJYY622DGE5L","img_art/26.jpg","null","","","","","","","","","","","","","","","","","","","","","","","","",""
"12520","","image-button-response","120","831525","0.0-119.0","A1JJYY622DGE5L","img_art/26.jpg","1","","","","","","","","","","","","","","","","","","","","","","","","",""
"1288","","image-button-response","121","832824","0.0-120.0-0.0","A1JJYY622DGE5L","img_art/26.jpg","2","","","","","","","","","","","","","","","","","","","","","","","","",""
"4491","","image-button-response","122","837326","0.0-121.0-0.0","A1JJYY622DGE5L","img_art/26.jpg","3","","","","","","","","","","","","","","","","","","","","","","","","",""
"null","","html-keyboard-response","123","838839","0.0-122.0","A1JJYY622DGE5L","<p style=""font-size: 48px;"">+</p>","","","","","null","allTrialResponses","1500","1","11","img_art/26.jpg","10","Interesting watercolor look to this.","Heather,Alexandria,Rachel,Elizabeth,Catherine,Amber","neighborhood and trees. i wonder if this is water paint.,1,260,20","makes me happy and reminds me of a paris courtyard,29,80,20","Pretty trees and bushes around fancy brown stones. I like the soft nature.,20,80,20","Like the soft blend of colors,26,20,20","Incomplete, The artist painted his impression of somthing he was thinking of,0,160,20","The colors are muted.,1,200,20","Alexandria","makes me happy and reminds me of a paris courtyard,29,80,20","Rachel","Pretty trees and bushes around fancy brown stones. I like the soft nature.,20,80,20","Elizabeth","Like the soft blend of colors,26,20,20","2"
"9155","","survey-text","124","848009","0.0-123.0-0.0","A1JJYY622DGE5L","","","","{""Q0"":""This is frightening""}","","","","","","","","","","","","","","","","","","","","","","",""
"4222.5","","image-slider-response","125","852242","0.0-124.0","A1JJYY622DGE5L","","","","","-34","","","","","","","","","","","","","","","","","","","","","",""
"null","","image-button-response","126","857260","0.0-125.0","A1JJYY622DGE5L","img_art/18.jpg","null","","","","","","","","","","","","","","","","","","","","","","","","",""
"5591","","image-button-response","127","862859","0.0-126.0","A1JJYY622DGE5L","img_art/18.jpg","2","","","","","","","","","","","","","","","","","","","","","","","","",""
"3569","","image-button-response","128","866438","0.0-127.0-0.0","A1JJYY622DGE5L","img_art/18.jpg","4","","","","","","","","","","","","","","","","","","","","","","","","",""
"1596","","image-button-response","129","868038","0.0-128.0-0.0","A1JJYY622DGE5L","img_art/18.jpg","5","","","","","","","","","","","","","","","","","","","","","","","","",""
"null","","html-keyboard-response","130","869050","0.0-129.0","A1JJYY622DGE5L","<p style=""font-size: 48px;"">+</p>","","","","","null","allTrialResponses","1000","1","12","img_art/18.jpg","-34","This is frightening","Jessica,Alexandria,Rachel,Elizabeth,Laura,Christina","I think this looks pretty cool, I can see what's kind of going on here.,22,400,20","the harsh lines with the smooth lines makes me think of wild animals,20,80,20","This one seems rather ghoulish to me.,-41,80,20","Nice abstract art,50,20,20","afraid and anxious,21,320,20","it looks dreary and not uplifting,-10,240,20","Rachel","This one seems rather ghoulish to me.,-41,80,20","Laura","afraid and anxious,21,320,20","Christina","it looks dreary and not uplifting,-10,240,20","2"
"21599","","survey-text","131","890673","0.0-130.0-0.0","A1JJYY622DGE5L","","","","{""Q0"":""This makes me nauseous.""}","","","","","","","","","","","","","","","","","","","","","","",""
"4533.900000095367","","image-slider-response","132","895211","0.0-131.0","A1JJYY622DGE5L","","","","","-39","","","","","","","","","","","","","","","","","","","","","",""
"null","","image-button-response","133","900233","0.0-132.0","A1JJYY622DGE5L","img_art/5.jpg","null","","","","","","","","","","","","","","","","","","","","","","","","",""
"263","","image-button-response","134","900501","0.0-133.0","A1JJYY622DGE5L","img_art/5.jpg","3","","","","","","","","","","","","","","","","","","","","","","","","",""
"16164","","image-button-response","135","916674","0.0-134.0-0.0","A1JJYY622DGE5L","img_art/5.jpg","5","","","","","","","","","","","","","","","","","","","","","","","","",""
"2931","","image-button-response","136","919617","0.0-135.0-0.0","A1JJYY622DGE5L","img_art/5.jpg","2","","","","","","","","","","","","","","","","","","","","","","","","",""
"null","","html-keyboard-response","137","920133","0.0-136.0","A1JJYY622DGE5L","<p style=""font-size: 48px;"">+</p>","","","","","null","allTrialResponses","500","1","13","img_art/5.jpg","-39","This makes me nauseous.","Katie,Cynthia,Rachel,Angela,Laura,Christina","I don't get it at all. But, maybe it is the top portion of a piece of fruit.,-50,160,20","boring and unsure,-25,320,20","Not sure what to make of this one.,-1,80,20","I really dislike this. It's ugly and looks dirty.,-44,260,20","fresh and fun - bright and active,16,320,20","looks like a little kids painting,-50,240,20","Angela","I really dislike this. It's ugly and looks dirty.,-44,260,20","Christina","looks like a little kids painting,-50,240,20","Rachel","Not sure what to make of this one.,-1,80,20","2"
"15312","","survey-text","138","935466","0.0-137.0-0.0","A1JJYY622DGE5L","","","","{""Q0"":""Fun to look at.""}","","","","","","","","","","","","","","","","","","","","","","",""
"3693.5","","image-slider-response","139","939167","0.0-138.0","A1JJYY622DGE5L","","","","","14","","","","","","","","","","","","","","","","","","","","","",""
"null","","image-button-response","140","944189","0.0-139.0","A1JJYY622DGE5L","img_art/19.jpg","null","","","","","","","","","","","","","","","","","","","","","","","","",""
"4879","","image-button-response","141","949075","0.0-140.0","A1JJYY622DGE5L","img_art/19.jpg","4","","","","","","","","","","","","","","","","","","","","","","","","",""
"1381","","image-button-response","142","950467","0.0-141.0-0.0","A1JJYY622DGE5L","img_art/19.jpg","5","","","","","","","","","","","","","","","","","","","","","","","","",""
"1432","","image-button-response","143","951910","0.0-142.0-0.0","A1JJYY622DGE5L","img_art/19.jpg","3","","","","","","","","","","","","","","","","","","","","","","","","",""
"null","","html-keyboard-response","144","953419","0.0-143.0","A1JJYY622DGE5L","<p style=""font-size: 48px;"">+</p>","","","","","null","allTrialResponses","1500","1","14","img_art/19.jpg","14","Fun to look at.","Angelica,Bailey,Rachel,Angela,Jamie,Christina","This is like an ugly version of a Basquiat.,-24,280,20","Horrible. Squiggly lines everywhere.,-50,360,20","Reminds me of a busy town. Chaotic in nature.,-11,80,20","I like the colors but the scene itself feels too jumbled and cluttered,9,260,20","Looks like a busy port,10,320,20","i like the colors and the way it looks like an actual scene,18,240,20","Jamie","Looks like a busy port,10,320,20","Christina","i like the colors and the way it looks like an actual scene,18,240,20","Angela","I like the colors but the scene itself feels too jumbled and cluttered,9,260,20","2"
"12437","","survey-text","145","965876","0.0-144.0-0.0","A1JJYY622DGE5L","","","","{""Q0"":""Really disturbing to look at.""}","","","","","","","","","","","","","","","","","","","","","","",""
"5942.699999928474","","image-slider-response","146","971823","0.0-145.0","A1JJYY622DGE5L","","","","","-35","","","","","","","","","","","","","","","","","","","","","",""
"null","","image-button-response","147","976839","0.0-146.0","A1JJYY622DGE5L","img_art/16.jpg","null","","","","","","","","","","","","","","","","","","","","","","","","",""
"1563","","image-button-response","148","978411","0.0-147.0","A1JJYY622DGE5L","img_art/16.jpg","5","","","","","","","","","","","","","","","","","","","","","","","","",""
"3619","","image-button-response","149","982039","0.0-148.0-0.0","A1JJYY622DGE5L","img_art/16.jpg","3","","","","","","","","","","","","","","","","","","","","","","","","",""
"8681","","image-button-response","150","990732","0.0-149.0-0.0","A1JJYY622DGE5L","img_art/16.jpg","2","","","","","","","","","","","","","","","","","","","","","","","","",""
"null","","html-keyboard-response","151","991740","0.0-150.0","A1JJYY622DGE5L","<p style=""font-size: 48px;"">+</p>","","","","","null","allTrialResponses","1000","1","15","img_art/16.jpg","-35","Really disturbing to look at.","Samantha,Jasmine,Leah,Angela,Jamie,Christina","Creepy teddybear,-50,140,20","I like it because it's quite different from the rest,23,340,20","Know it is a piece relating to children and gun violence. Sad,-30,360,20","Hate this, especially the jarring contrast of the super realistic teddybear face.,-50,260,20","Weird and funny,40,320,20","very creepy with a bear and a gun,-50,240,20","Christina","very creepy with a bear and a gun,-50,240,20","Angela","Hate this, especially the jarring contrast of the super realistic teddybear face.,-50,260,20","Leah","Know it is a piece relating to children and gun violence. Sad,-30,360,20","2"
"5473","","survey-text","152","997248","0.0-151.0-0.0","A1JJYY622DGE5L","","","","{""Q0"":""course""}","","","","","","","","","","","","","","","","","","","","","","",""
"23015","","survey-text","153","1020270","0.0-152.0-0.0","A1JJYY622DGE5L","","","","{""Q0"":""It's okay. Reminds me of mass produced cheap art, though""}","","","","","","","","","","","","","","","","","","","","","","",""
"4010.5","","image-slider-response","154","1024288","0.0-153.0","A1JJYY622DGE5L","","","","","3","","","","","","","","","","","","","","","","","","","","","",""
"null","","image-button-response","155","1029303","0.0-154.0","A1JJYY622DGE5L","img_art/22.jpg","null","","","","","","","","","","","","","","","","","","","","","","","","",""
"10796","","image-button-response","156","1040106","0.0-155.0","A1JJYY622DGE5L","img_art/22.jpg","2","","","","","","","","","","","","","","","","","","","","","","","","",""
"1139","","image-button-response","157","1041254","0.0-156.0-0.0","A1JJYY622DGE5L","img_art/22.jpg","1","","","","","","","","","","","","","","","","","","","","","","","","",""
"11561","","image-button-response","158","1052824","0.0-157.0-0.0","A1JJYY622DGE5L","img_art/22.jpg","3","","","","","","","","","","","","","","","","","","","","","","","","",""
"null","","html-keyboard-response","159","1053335","0.0-158.0","A1JJYY622DGE5L","<p style=""font-size: 48px;"">+</p>","","","","","null","allTrialResponses","500","1","16","img_art/22.jpg","3","It's okay. Reminds me of mass produced cheap art, though","Katherine,Andrea,Leah,Angela,Mary,Christina","Cool squares but what's the circle?,38,120,20","I don't feel much of anything.,0,240,20","Pretty colors but too blocky for me,-19,360,20","Like the colors. I enjoy looking at this one.,15,260,20","I do not like the color combo. This piece is too much the same throughout.,-1,180,20","i like the colors but it looks too 80s for me,7,240,20","Leah","Pretty colors but too blocky for me,-19,360,20","Andrea","I don't feel much of anything.,0,240,20","Angela","Like the colors. I enjoy looking at this one.,15,260,20","2"
"14849","","survey-text","160","1068207","0.0-159.0-0.0","A1JJYY622DGE5L","","","","{""Q0"":""This is really harsh and urban feeling""}","","","","","","","","","","","","","","","","","","","","","","",""
"4178.799999952316","","image-slider-response","161","1072396","0.0-160.0","A1JJYY622DGE5L","","","","","14","","","","","","","","","","","","","","","","","","","","","",""
"null","","image-button-response","162","1077407","0.0-161.0","A1JJYY622DGE5L","img_art/29.jpg","null","","","","","","","","","","","","","","","","","","","","","","","","",""
"8619","","image-button-response","163","1086034","0.0-162.0","A1JJYY622DGE5L","img_art/29.jpg","1","","","","","","","","","","","","","","","","","","","","","","","","",""
"5112","","image-button-response","164","1091154","0.0-163.0-0.0","A1JJYY622DGE5L","img_art/29.jpg","0","","","","","","","","","","","","","","","","","","","","","","","","",""
"6224","","image-button-response","165","1097396","0.0-164.0-0.0","A1JJYY622DGE5L","img_art/29.jpg","3","","","","","","","","","","","","","","","","","","","","","","","","",""
"null","","html-keyboard-response","166","1098405","0.0-165.0","A1JJYY622DGE5L","<p style=""font-size: 48px;"">+</p>","","","","","null","allTrialResponses","1000","1","17","img_art/29.jpg","14","This is really harsh and urban feeling","Olivia,Andrea,Leah,Angela,Cassandra,Courtney","too challenging to comprehend,-28,40,20","Bottomless pit and prison. Feels like its saying time is precious.,11,240,20","Scrawled graffiti, with a red x as saying it was a mistake,-40,360,20","I would like this piece better without the red X across it,-10,260,20","Neural...just a blackboard jungle.,3,120,20","Thats a pretty wierd picture.,6,280,20","Andrea","Bottomless pit and prison. Feels like its saying time is precious.,11,240,20","Olivia","too challenging to comprehend,-28,40,20","Angela","I would like this piece better without the red X across it,-10,260,20","2"
"12713","","survey-text","167","1111136","0.0-166.0-0.0","A1JJYY622DGE5L","","","","{""Q0"":""This makes me think of the southwest. I like it.""}","","","","","","","","","","","","","","","","","","","","","","",""
"4225.100000023842","","image-slider-response","168","1115369","0.0-167.0","A1JJYY622DGE5L","","","","","14","","","","","","","","","","","","","","","","","","","","","",""
"null","","image-button-response","169","1120391","0.0-168.0","A1JJYY622DGE5L","img_art/20.jpg","null","","","","","","","","","","","","","","","","","","","","","","","","",""
"4740","","image-button-response","170","1125139","0.0-169.0","A1JJYY622DGE5L","img_art/20.jpg","4","","","","","","","","","","","","","","","","","","","","","","","","",""
"6757","","image-button-response","171","1131905","0.0-170.0-0.0","A1JJYY622DGE5L","img_art/20.jpg","2","","","","","","","","","","","","","","","","","","","","","","","","",""
"7096","","image-button-response","172","1139015","0.0-171.0-0.0","A1JJYY622DGE5L","img_art/20.jpg","3","","","","","","","","","","","","","","","","","","","","","","","","",""
"null","","html-keyboard-response","173","1139525","0.0-172.0","A1JJYY622DGE5L","<p style=""font-size: 48px;"">+</p>","","","","","null","allTrialResponses","500","1","18","img_art/20.jpg","14","This makes me think of the southwest. I like it.","Olivia,Andrea,Lindsey,Angela,Emily,Gabriela","crash after traffic causing grief,-11,40,20","Reminds me of persistance of time (a favorite of mine).,30,240,20","Not sure what it is. The colors are pleasant; makes me want to figure it out. An animal skull in the desert?,10,400,20","I like the blues, and the sense of foreboding it makes me feel.,20,260,20","Brings about an emotion response of dspair. Loose lines but yet has a cohesion.,8,40,20","it is a bit disturbing, like a monster or ghost floating away from a bleak building,-8,140,20","Emily","Brings about an emotion response of dspair. Loose lines but yet has a cohesion.,8,40,20","Lindsey","Not sure what it is. The colors are pleasant; makes me want to figure it out. An animal skull in the desert?,10,400,20","Angela","I like the blues, and the sense of foreboding it makes me feel.,20,260,20","2"
"37803","","survey-text","174","1177356","0.0-173.0-0.0","A1JJYY622DGE5L","","","","{""Q0"":""I get an upward movement feeling with this.""}","","","","","","","","","","","","","","","","","","","","","","",""
"5192.600000023842","","image-slider-response","175","1182557","0.0-174.0","A1JJYY622DGE5L","","","","","4","","","","","","","","","","","","","","","","","","","","","",""
"null","","image-button-response","176","1187582","0.0-175.0","A1JJYY622DGE5L","img_art/30.jpg","null","","","","","","","","","","","","","","","","","","","","","","","","",""
"11696","","image-button-response","177","1199285","0.0-176.0","A1JJYY622DGE5L","img_art/30.jpg","2","","","","","","","","","","","","","","","","","","","","","","","","",""
"6562","","image-button-response","178","1205852","0.0-177.0-0.0","A1JJYY622DGE5L","img_art/30.jpg","5","","","","","","","","","","","","","","","","","","","","","","","","",""
"20759","","image-button-response","179","1226617","0.0-178.0-0.0","A1JJYY622DGE5L","img_art/30.jpg","0","","","","","","","","","","","","","","","","","","","","","","","","",""
"null","","html-keyboard-response","180","1227129","0.0-179.0","A1JJYY622DGE5L","<p style=""font-size: 48px;"">+</p>","","","","","null","allTrialResponses","500","1","19","img_art/30.jpg","4","I get an upward movement feeling with this.","Claire,Melissa,Lindsey,Angela,Emily,Isabella","too segmented, looks sloppy,-37,260,20","muddy, feels unintentional,-50,240,20","Interesting. Not sure what I'm seeing but it makes me want to figure it out.,5,400,20","Really don't like this piece. It feels very lazy to me.,-31,260,20","It looks like a child did it. There is nothing talented or special about it.,-16,40,20","I like the back but the red lines in the front distress me,-7,280,20","Lindsey","Interesting. Not sure what I'm seeing but it makes me want to figure it out.,5,400,20","Isabella","I like the back but the red lines in the front distress me,-7,280,20","Claire","too segmented, looks sloppy,-37,260,20","2"
"31268","","survey-text","181","1258405","0.0-180.0-0.0","A1JJYY622DGE5L","","","","{""Q0"":""You can really see a lot in this.""}","","","","","","","","","","","","","","","","","","","","","","",""
"7713.799999952316","","image-slider-response","182","1266128","0.0-181.0","A1JJYY622DGE5L","","","","","0","","","","","","","","","","","","","","","","","","","","","",""
"null","","image-button-response","183","1271140","0.0-182.0","A1JJYY622DGE5L","img_art/12.jpg","null","","","","","","","","","","","","","","","","","","","","","","","","",""
"9900","","image-button-response","184","1281048","0.0-183.0","A1JJYY622DGE5L","img_art/12.jpg","2","","","","","","","","","","","","","","","","","","","","","","","","",""
"3995","","image-button-response","185","1285052","0.0-184.0-0.0","A1JJYY622DGE5L","img_art/12.jpg","5","","","","","","","","","","","","","","","","","","","","","","","","",""
"7618","","image-button-response","186","1292681","0.0-185.0-0.0","A1JJYY622DGE5L","img_art/12.jpg","3","","","","","","","","","","","","","","","","","","","","","","","","",""
"null","","html-keyboard-response","187","1293690","0.0-186.0","A1JJYY622DGE5L","<p style=""font-size: 48px;"">+</p>","","","","","null","allTrialResponses","1000","1","20","img_art/12.jpg","0","You can really see a lot in this.","Claire,Morgan,Lindsey,Chelsea,Kelsey,Isabella","i like the repetition,30,260,20","Ugly color combinations, no focus.,-25,380,20","Ugly colors and I'm just not too much a fan of cubist abstract art.,-50,400,20","I like the gradient of little color on the top to colorful on the bottom.,24,180,20","dont like the squares,-16,240,20","Something you would see in a government building hallway,3,280,20","Lindsey","Ugly colors and I'm just not too much a fan of cubist abstract art.,-50,400,20","Isabella","Something you would see in a government building hallway,3,280,20","Chelsea","I like the gradient of little color on the top to colorful on the bottom.,24,180,20","2"
"4763","","survey-text","188","1298494","0.0-187.0-0.0","A1JJYY622DGE5L","","","","{""Q0"":""we""}","","","","","","","","","","","","","","","","","","","","","","",""
"35069","","survey-text","189","1333570","0.0-188.0-0.0","A1JJYY622DGE5L","","","","{""Q0"":""Looks like it is honoring a god.""}","","","","","","","","","","","","","","","","","","","","","","",""
"5916.200000047684","","image-slider-response","190","1339489","0.0-189.0","A1JJYY622DGE5L","","","","","-5","","","","","","","","","","","","","","","","","","","","","",""
"null","","image-button-response","191","1344510","0.0-190.0","A1JJYY622DGE5L","img_art/25.jpg","null","","","","","","","","","","","","","","","","","","","","","","","","",""
"4113","","image-button-response","192","1348629","0.0-191.0","A1JJYY622DGE5L","img_art/25.jpg","3","","","","","","","","","","","","","","","","","","","","","","","","",""
"10807","","image-button-response","193","1359446","0.0-192.0-0.0","A1JJYY622DGE5L","img_art/25.jpg","2","","","","","","","","","","","","","","","","","","","","","","","","",""
"7185","","image-button-response","194","1366646","0.0-193.0-0.0","A1JJYY622DGE5L","img_art/25.jpg","5","","","","","","","","","","","","","","","","","","","","","","","","",""
"null","","html-keyboard-response","195","1367155","0.0-194.0","A1JJYY622DGE5L","<p style=""font-size: 48px;"">+</p>","","","","","null","allTrialResponses","500","1","21","img_art/25.jpg","-5","Looks like it is honoring a god.","Gabrielle,Julia,Lindsey,Chelsea,Alexa,Isabella","interesting pattern and color choice, kind of unusual,2,160,20","the color is pleasing and draws out the contrast of the lines,10,40,20","This piece makes me think of oppression and fighting it. Makes me feel calm, sad and strong.,11,400,20","The color and image are unsettling.,-29,180,20","It's really neat and cool looking,20,40,20","I love the green and the figure is black but the green makes it pop,29,280,20","Chelsea","The color and image are unsettling.,-29,180,20","Lindsey","This piece makes me think of oppression and fighting it. Makes me feel calm, sad and strong.,11,400,20","Isabella","I love the green and the figure is black but the green makes it pop,29,280,20","2"
"23710","","survey-text","196","1390887","0.0-195.0-0.0","A1JJYY622DGE5L","","","","{""Q0"":""Beautiful blending of whispy color.""}","","","","","","","","","","","","","","","","","","","","","","",""
"4204.100000023842","","image-slider-response","197","1395095","0.0-196.0","A1JJYY622DGE5L","","","","","10","","","","","","","","","","","","","","","","","","","","","",""
"null","","image-button-response","198","1400122","0.0-197.0","A1JJYY622DGE5L","img_art/17.jpg","null","","","","","","","","","","","","","","","","","","","","","","","","",""
"1035","","image-button-response","199","1401166","0.0-198.0","A1JJYY622DGE5L","img_art/17.jpg","3","","","","","","","","","","","","","","","","","","","","","","","","",""
"4288","","image-button-response","200","1405462","0.0-199.0-0.0","A1JJYY622DGE5L","img_art/17.jpg","2","","","","","","","","","","","","","","","","","","","","","","","","",""
"4630","","image-button-response","201","1410102","0.0-200.0-0.0","A1JJYY622DGE5L","img_art/17.jpg","1","","","","","","","","","","","","","","","","","","","","","","","","",""
"null","","html-keyboard-response","202","1410612","0.0-201.0","A1JJYY622DGE5L","<p style=""font-size: 48px;"">+</p>","","","","","null","allTrialResponses","500","1","22","img_art/17.jpg","10","Beautiful blending of whispy color.","Cassidy,Mariah,Lindsey,Chelsea,Erin,Isabella","cool. Sharp and blocky below, light and flowing on top. Overall pleasing to look at,32,140,20","It feels like nature overtaking civilization.,21,140,20","Pretty composition and I like the colors.,20,400,20","The colors are soft.,32,180,20","Windows indoor tree, weird palette,-11,120,20","Pleasant fall to winter day,22,280,20","Chelsea","The colors are soft.,32,180,20","Lindsey","Pretty composition and I like the colors.,20,400,20","Mariah","It feels like nature overtaking civilization.,21,140,20","2"
"18449","","survey-text","203","1429084","0.0-202.0-0.0","A1JJYY622DGE5L","","","","{""Q0"":""This makes me queasy""}","","","","","","","","","","","","","","","","","","","","","","",""
"8191.399999976158","","image-slider-response","204","1437285","0.0-203.0","A1JJYY622DGE5L","","","","","-39","","","","","","","","","","","","","","","","","","","","","",""
"null","","image-button-response","205","1442301","0.0-204.0","A1JJYY622DGE5L","img_art/4.jpg","null","","","","","","","","","","","","","","","","","","","","","","","","",""
"10494","","image-button-response","206","1452802","0.0-205.0","A1JJYY622DGE5L","img_art/4.jpg","2","","","","","","","","","","","","","","","","","","","","","","","","",""
"3245","","image-button-response","207","1456061","0.0-206.0-0.0","A1JJYY622DGE5L","img_art/4.jpg","5","","","","","","","","","","","","","","","","","","","","","","","","",""
"4213","","image-button-response","208","1460285","0.0-207.0-0.0","A1JJYY622DGE5L","img_art/4.jpg","3","","","","","","","","","","","","","","","","","","","","","","","","",""
"null","","html-keyboard-response","209","1461297","0.0-208.0","A1JJYY622DGE5L","<p style=""font-size: 48px;"">+</p>","","","","","null","allTrialResponses","1000","1","23","img_art/4.jpg","-39","This makes me queasy","Shannon,Mariah,Lindsey,Chelsea,Cheyenne,Shelby","I think that this picture is too boring in terms of color and it looks ugly.,-41,220,20","Movement. Snakes. Hair. The uncertainty makes my eye return.,21,140,20","Looks like feces smeared on the canvas. I hate it.,-50,400,20","The colors remind me of McDonalds.,-41,180,20","Just doesn't look nice.,-40,200,20","The colors feel a bit off to me,-10,240,20","Lindsey","Looks like feces smeared on the canvas. I hate it.,-50,400,20","Shelby","The colors feel a bit off to me,-10,240,20","Chelsea","The colors remind me of McDonalds.,-41,180,20","2"
"26132","","survey-text","210","1487460","0.0-209.0-0.0","A1JJYY622DGE5L","","","","{""Q0"":""Interesting compilation. Makes me curious about it.""}","","","","","","","","","","","","","","","","","","","","","","",""
"3692.5","","image-slider-response","211","1491160","0.0-210.0","A1JJYY622DGE5L","","","","","15","","","","","","","","","","","","","","","","","","","","","",""
"null","","image-button-response","212","1496168","0.0-211.0","A1JJYY622DGE5L","img_art/14.jpg","null","","","","","","","","","","","","","","","","","","","","","","","","",""
"1893","","image-button-response","213","1498068","0.0-212.0","A1JJYY622DGE5L","img_art/14.jpg","3","","","","","","","","","","","","","","","","","","","","","","","","",""
"7176","","image-button-response","214","1505255","0.0-213.0-0.0","A1JJYY622DGE5L","img_art/14.jpg","1","","","","","","","","","","","","","","","","","","","","","","","","",""
"3262","","image-button-response","215","1508528","0.0-214.0-0.0","A1JJYY622DGE5L","img_art/14.jpg","2","","","","","","","","","","","","","","","","","","","","","","","","",""
"null","","html-keyboard-response","216","1509543","0.0-215.0","A1JJYY622DGE5L","<p style=""font-size: 48px;"">+</p>","","","","","null","allTrialResponses","1000","1","24","img_art/14.jpg","15","Interesting compilation. Makes me curious about it.","Hailey,Katelyn,Lindsey,Chelsea,Paige,Shelby","fuzzy and confused. ok then well,16,200,20","Its cute. Not striking but i would keep it in my home.,10,100,20","Warm, positive, growth.,8,400,20","The colors are pleasing.,29,180,20","It didn't really do anything to excite me.,21,60,20","Something about the cahotic imagery makes me uncomfortable,-15,240,20","Chelsea","The colors are pleasing.,29,180,20","Katelyn","Its cute. Not striking but i would keep it in my home.,10,100,20","Lindsey","Warm, positive, growth.,8,400,20","2"
"21383","","survey-text","217","1530951","0.0-216.0-0.0","A1JJYY622DGE5L","","","","{""Q0"":""The stark white against the dark colors is striking.""}","","","","","","","","","","","","","","","","","","","","","","",""
"2984.2000000476837","","image-slider-response","218","1533945","0.0-217.0","A1JJYY622DGE5L","","","","","23","","","","","","","","","","","","","","","","","","","","","",""
"null","","image-button-response","219","1538959","0.0-218.0","A1JJYY622DGE5L","img_art/23.jpg","null","","","","","","","","","","","","","","","","","","","","","","","","",""
"2422","","image-button-response","220","1541389","0.0-219.0","A1JJYY622DGE5L","img_art/23.jpg","1","","","","","","","","","","","","","","","","","","","","","","","","",""
"2324","","image-button-response","221","1543722","0.0-220.0-0.0","A1JJYY622DGE5L","img_art/23.jpg","0","","","","","","","","","","","","","","","","","","","","","","","","",""
"5847","","image-button-response","222","1549578","0.0-221.0-0.0","A1JJYY622DGE5L","img_art/23.jpg","5","","","","","","","","","","","","","","","","","","","","","","","","",""
"null","","html-keyboard-response","223","1551087","0.0-222.0","A1JJYY622DGE5L","<p style=""font-size: 48px;"">+</p>","","","","","null","allTrialResponses","1500","1","25","img_art/23.jpg","23","The stark white against the dark colors is striking.","Nicole,Katelyn,Lindsey,Chelsea,Dominique,Abigail","Those colors are awesome! And I love the strip of negative space that almost looks like a line of people,50,20,20","Makes me want to stare at it for hours. Like there is something deeper to find.,37,100,20","Too much contrasting colors together. I hate it.,-50,400,20","I like the royal colors.,38,180,20","Very happy , busy , free, and full of Hope,28,400,20","I like the contrast,29,20,20","Katelyn","Makes me want to stare at it for hours. Like there is something deeper to find.,37,100,20","Nicole","Those colors are awesome! And I love the strip of negative space that almost looks like a line of people,50,20,20","Abigail","I like the contrast,29,20,20","2"
"4637","","survey-text","224","1555767","0.0-223.0-0.0","A1JJYY622DGE5L","","","","{""Q0"":""table""}","","","","","","","","","","","","","","","","","","","","","","",""
"13822","","survey-text","225","1569598","0.0-224.0-0.0","A1JJYY622DGE5L","","","","{""Q0"":""Makes me think of birds in trees""}","","","","","","","","","","","","","","","","","","","","","","",""
"3761.6999999284744","","image-slider-response","226","1573370","0.0-225.0","A1JJYY622DGE5L","","","","","13","","","","","","","","","","","","","","","","","","","","","",""
"null","","image-button-response","227","1578395","0.0-226.0","A1JJYY622DGE5L","img_art/15.jpg","null","","","","","","","","","","","","","","","","","","","","","","","","",""
"1566","","image-button-response","228","1579967","0.0-227.0","A1JJYY622DGE5L","img_art/15.jpg","3","","","","","","","","","","","","","","","","","","","","","","","","",""
"8324","","image-button-response","229","1588300","0.0-228.0-0.0","A1JJYY622DGE5L","img_art/15.jpg","0","","","","","","","","","","","","","","","","","","","","","","","","",""
"5105","","image-button-response","230","1593416","0.0-229.0-0.0","A1JJYY622DGE5L","img_art/15.jpg","4","","","","","","","","","","","","","","","","","","","","","","","","",""
"null","","html-keyboard-response","231","1593932","0.0-230.0","A1JJYY622DGE5L","<p style=""font-size: 48px;"">+</p>","","","","","null","allTrialResponses","500","1","26","img_art/15.jpg","13","Makes me think of birds in trees","Nicole,Katelyn,Sydney,Brooke,Hannah,Abigail","Very cool, i want it in my living room,50,20,20","Doesnt trigger much of a reaction overall,-2,100,20","This picture is too confusing for me. I wouldn't want to stare at it to figure it out.,-10,320,20","This one reminds me of a postage stamp, but branches and leaves. Kind of fun.,15,60,20","Like this for the colors and arrangement.,11,240,20","This also has nice contrast,34,20,20","Brooke","This one reminds me of a postage stamp, but branches and leaves. Kind of fun.,15,60,20","Nicole","Very cool, i want it in my living room,50,20,20","Hannah","Like this for the colors and arrangement.,11,240,20","2"
"16065","","survey-text","232","1610024","0.0-231.0-0.0","A1JJYY622DGE5L","","","","{""Q0"":""The colors are nice but I don't like the middle column""}","","","","","","","","","","","","","","","","","","","","","","",""
"4100.900000095367","","image-slider-response","233","1614134","0.0-232.0","A1JJYY622DGE5L","","","","","-5","","","","","","","","","","","","","","","","","","","","","",""
"null","","image-button-response","234","1619147","0.0-233.0","A1JJYY622DGE5L","img_art/13.jpg","null","","","","","","","","","","","","","","","","","","","","","","","","",""
"1710","","image-button-response","235","1620863","0.0-234.0","A1JJYY622DGE5L","img_art/13.jpg","5","","","","","","","","","","","","","","","","","","","","","","","","",""
"6616","","image-button-response","236","1627483","0.0-235.0-0.0","A1JJYY622DGE5L","img_art/13.jpg","0","","","","","","","","","","","","","","","","","","","","","","","","",""
"1372","","image-button-response","237","1628865","0.0-236.0-0.0","A1JJYY622DGE5L","img_art/13.jpg","2","","","","","","","","","","","","","","","","","","","","","","","","",""
"null","","html-keyboard-response","238","1629382","0.0-237.0","A1JJYY622DGE5L","<p style=""font-size: 48px;"">+</p>","","","","","null","allTrialResponses","500","1","27","img_art/13.jpg","-5","The colors are nice but I don't like the middle column","Nicole,Kayla,Molly,Brooke,Hannah,Vanessa","It's pretty basic but it makes me feel like I'm looking at the ocean,30,20,20","Pleasing, happy, rainy.,12,180,20","Incredible, curious.,20,340,20","Like the use of color, not a fan of the splatter,29,60,20","Like this a lot and would hang in my house.,27,240,20","I love the colors and the contrast between the different blues.,21,380,20","Vanessa","I love the colors and the contrast between the different blues.,21,380,20","Nicole","It's pretty basic but it makes me feel like I'm looking at the ocean,30,20,20","Molly","Incredible, curious.,20,340,20","2"
"20693","","survey-text","239","1650098","0.0-238.0-0.0","A1JJYY622DGE5L","","","","{""Q0"":""It looks like a child wrote on their parent's artwork.""}","","","","","","","","","","","","","","","","","","","","","","",""
"4990.399999976158","","image-slider-response","240","1655098","0.0-239.0","A1JJYY622DGE5L","","","","","-6","","","","","","","","","","","","","","","","","","","","","",""
"null","","image-button-response","241","1660111","0.0-240.0","A1JJYY622DGE5L","img_art/27.jpg","null","","","","","","","","","","","","","","","","","","","","","","","","",""
"6599","","image-button-response","242","1666717","0.0-241.0","A1JJYY622DGE5L","img_art/27.jpg","5","","","","","","","","","","","","","","","","","","","","","","","","",""
"9424","","image-button-response","243","1676150","0.0-242.0-0.0","A1JJYY622DGE5L","img_art/27.jpg","0","","","","","","","","","","","","","","","","","","","","","","","","",""
"7256","","image-button-response","244","1683417","0.0-243.0-0.0","A1JJYY622DGE5L","img_art/27.jpg","3","","","","","","","","","","","","","","","","","","","","","","","","",""
"null","","html-keyboard-response","245","1683929","0.0-244.0","A1JJYY622DGE5L","<p style=""font-size: 48px;"">+</p>","","","","","null","allTrialResponses","500","1","28","img_art/27.jpg","-6","It looks like a child wrote on their parent's artwork.","Nicole,Madison,Molly,Sarah,Meghan,Vanessa","Very cool colors and I like the contrast of lights and darks,30,20,20","The photographing is horribly distracting. I would feel more favorable toward the original colors/ brightness,1,60,20","No clue what to say.,0,340,20","i don't think i should like this one because it's a little chaotic and simple but I do,6,180,20","again looks like childrens artwork,-40,220,20","Colors make me think of fall, but I don't like how the picture was done or the weird lines across the background,6,380,20","Vanessa","Colors make me think of fall, but I don't like how the picture was done or the weird lines across the background,6,380,20","Nicole","Very cool colors and I like the contrast of lights and darks,30,20,20","Sarah","i don't think i should like this one because it's a little chaotic and simple but I do,6,180,20","2"
"18533","","survey-text","246","1702499","0.0-245.0-0.0","A1JJYY622DGE5L","","","","{""Q0"":""I see a lot of disturbing things in this one.""}","","","","","","","","","","","","","","","","","","","","","","",""
"4009.6999999284744","","image-slider-response","247","1706517","0.0-246.0","A1JJYY622DGE5L","","","","","-41","","","","","","","","","","","","","","","","","","","","","",""
"null","","image-button-response","248","1711533","0.0-247.0","A1JJYY622DGE5L","img_art/10.jpg","null","","","","","","","","","","","","","","","","","","","","","","","","",""
"11235","","image-button-response","249","1722776","0.0-248.0","A1JJYY622DGE5L","img_art/10.jpg","5","","","","","","","","","","","","","","","","","","","","","","","","",""
"7492","","image-button-response","250","1730278","0.0-249.0-0.0","A1JJYY622DGE5L","img_art/10.jpg","0","","","","","","","","","","","","","","","","","","","","","","","","",""
"6944","","image-button-response","251","1737231","0.0-250.0-0.0","A1JJYY622DGE5L","img_art/10.jpg","3","","","","","","","","","","","","","","","","","","","","","","","","",""
"null","","html-keyboard-response","252","1738251","0.0-251.0","A1JJYY622DGE5L","<p style=""font-size: 48px;"">+</p>","","","","","null","allTrialResponses","1000","1","29","img_art/10.jpg","-41","I see a lot of disturbing things in this one.","Nicole,Caroline,Alexandra,Sarah,Maria,Vanessa","Too much negative space makes it feel unfinished,-25,20,20","This painting made me think of a guitar which made me think of music which envoked happy feelings.,28,100,20","The longer I looked at this, the more I liked it,33,60,20","i like this, the mix of brush textures is cool,24,180,20","not sure what to make of this one,0,120,20","It's interesting and my eyes keep being drawn to different parts of the picture.,11,380,20","Vanessa","It's interesting and my eyes keep being drawn to different parts of the picture.,11,380,20","Nicole","Too much negative space makes it feel unfinished,-25,20,20","Sarah","i like this, the mix of brush textures is cool,24,180,20","2"
"25146","","survey-text","253","1763421","0.0-252.0-0.0","A1JJYY622DGE5L","","","","{""Q0"":""Very interesting. I like the colors.""}","","","","","","","","","","","","","","","","","","","","","","",""
"4203.799999952316","","image-slider-response","254","1767632","0.0-253.0","A1JJYY622DGE5L","","","","","15","","","","","","","","","","","","","","","","","","","","","",""
"4114","","image-button-response","255","1772649","0.0-254.0","A1JJYY622DGE5L","img_art/8.jpg","4","","","","","","","","","","","","","","","","","","","","","","","","",""
"4275","","image-button-response","256","1776931","0.0-255.0","A1JJYY622DGE5L","img_art/8.jpg","2","","","","","","","","","","","","","","","","","","","","","","","","",""
"4238","","image-button-response","257","1781179","0.0-256.0-0.0","A1JJYY622DGE5L","img_art/8.jpg","0","","","","","","","","","","","","","","","","","","","","","","","","",""
"4758","","image-button-response","258","1785948","0.0-257.0-0.0","A1JJYY622DGE5L","img_art/8.jpg","0","","","","","","","","","","","","","","","","","","","","","","","","",""
"7884","","image-button-response","259","1798829","0.0-257.1-0.1","A1JJYY622DGE5L","img_art/8.jpg","4","","","","","","","","","","","","","","","","","","","","","","","","",""
"null","","html-keyboard-response","260","1799851","0.0-258.0","A1JJYY622DGE5L","<p style=""font-size: 48px;"">+</p>","","","","","null","allTrialResponses","1000","1","30","img_art/8.jpg","15","Very interesting. I like the colors.","Nicole,Destiny,Anna,Sarah,Kristen,Vanessa","It's very grand and ominous but I like it,25,20,20","a cute little cute with some protectors,25,360,20","The shapes and colors work well together.,40,300,20","it's interesting but i don't enjoy the style,-5,180,20","mothe nature/godess, watching over you,21,280,20","I don't like the negative emotion this picture makes me feel. It's also too abstract.,-30,380,20","Anna","The shapes and colors work well together.,40,300,20","Nicole","It's very grand and ominous but I like it,25,20,20","Kristen","mothe nature/godess, watching over you,21,280,20","4"
"2890","","image-button-response_instructions","261","1802763","0.0-259.0","A1JJYY622DGE5L","","0","instructions","","","","","","","","","","","","","","","","","","","","","","","",""
"1589","","image-button-response","262","1804379","0.0-260.0","A1JJYY622DGE5L","","0","","","","","","","","","","","","","","","","","","","","","","","","",""
