"rt","url","trial_type","trial_index","time_elapsed","internal_node_id","participant_id","stimulus","button_pressed","Name","responses","response","key_press","variableName","fixationTime","condition","trial","photo","subjectRating","subjectResponse","agentsNames","agent_1_Response","agent_2_Response","agent_3_Response","agent_4_Response","agent_5_Response","agent_6_Response","kept_1_name","kept_1_response","kept_2_name","kept_2_response","kept_3_name","kept_3_response","errorCounter"
"47571","external_page_harvard.html","external-html","0","47812","0.0-0.0","A1JV2S5C8QHD1B","","","","","","","","","","","","","","","","","","","","","","","","","","",""
"2145","","image-button-response","1","49960","0.0-1.0","A1JV2S5C8QHD1B","","0","","","","","","","","","","","","","","","","","","","","","","","","",""
"1750","","image-button-response","2","51719","0.0-2.0-0.0","A1JV2S5C8QHD1B","","1","phone","","","","","","","","","","","","","","","","","","","","","","","",""
"10543","","survey-text","3","62264","0.0-3.0-0.0","A1JV2S5C8QHD1B","","","","{""Q0"":""A1JV2S5C8QHD1B""}","","","","","","","","","","","","","","","","","","","","","","",""
"2937","","image-button-response_instructions","4","65204","0.0-4.0","A1JV2S5C8QHD1B","","0","instructions","","","","","","","","","","","","","","","","","","","","","","","",""
"11645","","image-button-response_instructions","5","76850","0.0-5.0","A1JV2S5C8QHD1B","img_art/ins/popularity/ins1.png","0","instructions","","","","","","","","","","","","","","","","","","","","","","","",""
"5444","","image-button-response_instructions","6","82296","0.0-6.0","A1JV2S5C8QHD1B","img_art/ins/popularity/ins2.png","0","instructions","","","","","","","","","","","","","","","","","","","","","","","",""
"7376","","image-button-response_instructions","7","89675","0.0-7.0","A1JV2S5C8QHD1B","img_art/ins/popularity/ins2Extreme.png","0","instructions","","","","","","","","","","","","","","","","","","","","","","","",""
"6198","","image-button-response_instructions","8","95875","0.0-8.0","A1JV2S5C8QHD1B","img_art/ins/popularity/ins3KEEPpop.PNG","0","instructions","","","","","","","","","","","","","","","","","","","","","","","",""
"2429","","image-button-response_instructions","9","98305","0.0-9.0","A1JV2S5C8QHD1B","img_art/ins/popularity/ins3ANamepop.PNG","0","instructions","","","","","","","","","","","","","","","","","","","","","","","",""
"2639","","image-button-response_instructions","10","100944","0.0-10.0","A1JV2S5C8QHD1B","img_art/ins/popularity/ins3ARatingpop.png","0","instructions","","","","","","","","","","","","","","","","","","","","","","","",""
"3929","","image-button-response_instructions","11","104875","0.0-11.0","A1JV2S5C8QHD1B","img_art/ins/popularity/ins3ATextpop.png","0","instructions","","","","","","","","","","","","","","","","","","","","","","","",""
"4998","","image-button-response_instructions","12","109875","0.0-12.0","A1JV2S5C8QHD1B","img_art/ins/popularity/ins3ALikespop.png","0","instructions","","","","","","","","","","","","","","","","","","","","","","","",""
"7028","","image-button-response_instructions","13","116905","0.0-13.0","A1JV2S5C8QHD1B","img_art/ins/popularity/ins3KEEPpop.PNG","0","instructions","","","","","","","","","","","","","","","","","","","","","","","",""
"3603","","image-button-response_instructions","14","120510","0.0-14.0","A1JV2S5C8QHD1B","img_art/ins/popularity/ins3_5RED.png","0","instructions","","","","","","","","","","","","","","","","","","","","","","","",""
"15148","","image-button-response_instructions","15","135660","0.0-15.0","A1JV2S5C8QHD1B","img_art/ins/popularity/ins3KEEPpop.PNG","0","instructions","","","","","","","","","","","","","","","","","","","","","","","",""
"4618","","image-button-response_instructions","16","140280","0.0-16.0","A1JV2S5C8QHD1B","img_art/ins/popularity/ins4KEEPpop.PNG","0","instructions","","","","","","","","","","","","","","","","","","","","","","","",""
"2229","","image-button-response_instructions","17","142510","0.0-17.0","A1JV2S5C8QHD1B","img_art/ins/popularity/ins5KEEPpop.PNG","0","instructions","","","","","","","","","","","","","","","","","","","","","","","",""
"1479","","image-button-response_instructions","18","143990","0.0-18.0","A1JV2S5C8QHD1B","","0","instructions","","","","","","","","","","","","","","","","","","","","","","","",""
"6483","","survey-text","19","150510","0.0-19.0-0.0","A1JV2S5C8QHD1B","","","","{""Q0"":""but""}","","","","","","","","","","","","","","","","","","","","","","",""
"11248","","survey-text","20","161760","0.0-20.0-0.0","A1JV2S5C8QHD1B","","","","{""Q0"":""it's calming, the colors are relaxing and comforting.""}","","","","","","","","","","","","","","","","","","","","","","",""
"5686.800000011921","","image-slider-response","21","167451","0.0-21.0","A1JV2S5C8QHD1B","","","","","23","","","","","","","","","","","","","","","","","","","","","",""
"2706","","image-button-response","22","172458","0.0-22.0","A1JV2S5C8QHD1B","img_art/ins/1.jpg","3","","","","","","","","","","","","","","","","","","","","","","","","",""
"3409","","image-button-response","23","175871","0.0-23.0","A1JV2S5C8QHD1B","img_art/ins/1.jpg","3","","","","","","","","","","","","","","","","","","","","","","","","",""
"2957","","image-button-response","24","178831","0.0-24.0-0.0","A1JV2S5C8QHD1B","img_art/ins/1.jpg","5","","","","","","","","","","","","","","","","","","","","","","","","",""
"1327","","image-button-response","25","180161","0.0-25.0-0.0","A1JV2S5C8QHD1B","img_art/ins/1.jpg","1","","","","","","","","","","","","","","","","","","","","","","","","",""
"null","","html-keyboard-response","26","181178","0.0-26.0","A1JV2S5C8QHD1B","<p style=""font-size: 48px;"">+</p>","","","","","null","allTrialResponses","1000","1","-2","img_art/ins/1.jpg","23","it's calming, the colors are relaxing and comforting.","Adam,Alex,Ben,Carl,Daniel,Jack","Seems like doodles,-20,20,20","very creative work.,36,40,20","This color reminds me of poo,-46,60,20","very calming artwork,42,80,20","It looks like a murder scene.,-48,100,20","I like the sophisticated brushwork,40,120,20","Carl","very calming artwork,42,80,20","Jack","I like the sophisticated brushwork,40,120,20","Alex","very creative work.,36,40,20","0"
"9491","","survey-text","27","190679","0.0-27.0-0.0","A1JV2S5C8QHD1B","","","","{""Q0"":""I love the intensity of the colors.""}","","","","","","","","","","","","","","","","","","","","","","",""
"4297.899999976158","","image-slider-response","28","194979","0.0-28.0","A1JV2S5C8QHD1B","","","","","11","","","","","","","","","","","","","","","","","","","","","",""
"null","","image-button-response","29","199984","0.0-29.0","A1JV2S5C8QHD1B","img_art/ins/2.jpg","null","","","","","","","","","","","","","","","","","","","","","","","","",""
"724","","image-button-response","30","200710","0.0-30.0","A1JV2S5C8QHD1B","img_art/ins/2.jpg","4","","","","","","","","","","","","","","","","","","","","","","","","",""
"1006","","image-button-response","31","201719","0.0-31.0-0.0","A1JV2S5C8QHD1B","img_art/ins/2.jpg","3","","","","","","","","","","","","","","","","","","","","","","","","",""
"816","","image-button-response","32","202538","0.0-32.0-0.0","A1JV2S5C8QHD1B","img_art/ins/2.jpg","5","","","","","","","","","","","","","","","","","","","","","","","","",""
"null","","html-keyboard-response","33","203558","0.0-33.0","A1JV2S5C8QHD1B","<p style=""font-size: 48px;"">+</p>","","","","","null","allTrialResponses","1000","1","-1","img_art/ins/2.jpg","11","I love the intensity of the colors.","James,Alex,Kyle,Carl,John,Jack","looks too angry,-50,140,20","I like the blocks of color arrangements,30,40,20","Idk, it is just annoying,-32,180,20","I can feel the artist's passion in it,45,80,20","love the texture of paint,48,160,20","I would never be able to compose a sophisticated pallete like this,48,120,20","John","love the texture of paint,48,160,20","Carl","I can feel the artist's passion in it,45,80,20","Jack","I would never be able to compose a sophisticated pallete like this,48,120,20","0"
"15677","","survey-text","34","219239","0.0-34.0-0.0","A1JV2S5C8QHD1B","","","","{""Q0"":""Wow, I LOVE the blues-- it's beautiful, so peaceful.""}","","","","","","","","","","","","","","","","","","","","","","",""
"5048.5","","image-slider-response","35","224291","0.0-35.0","A1JV2S5C8QHD1B","","","","","50","","","","","","","","","","","","","","","","","","","","","",""
"4376","","image-button-response","36","229297","0.0-36.0","A1JV2S5C8QHD1B","img_art/ins/3.jpg","5","","","","","","","","","","","","","","","","","","","","","","","","",""
"1520","","image-button-response","37","230820","0.0-37.0","A1JV2S5C8QHD1B","img_art/ins/3.jpg","0","","","","","","","","","","","","","","","","","","","","","","","","",""
"2777","","image-button-response","38","233601","0.0-38.0-0.0","A1JV2S5C8QHD1B","img_art/ins/3.jpg","5","","","","","","","","","","","","","","","","","","","","","","","","",""
"1636","","image-button-response","39","235240","0.0-39.0-0.0","A1JV2S5C8QHD1B","img_art/ins/3.jpg","0","","","","","","","","","","","","","","","","","","","","","","","","",""
"1068","","image-button-response","40","241221","0.0-39.1-0.1","A1JV2S5C8QHD1B","img_art/ins/3.jpg","1","","","","","","","","","","","","","","","","","","","","","","","","",""
"null","","html-keyboard-response","41","242239","0.0-40.0","A1JV2S5C8QHD1B","<p style=""font-size: 48px;"">+</p>","","","","","null","allTrialResponses","1000","1","0","img_art/ins/3.jpg","50","Wow, I LOVE the blues-- it's beautiful, so peaceful.","Mike,Sam,Ron,Carl,John,Jack","enjoy the different shades of blue,22,200,20","I can feel a rainy day from this painting,18,240,20","It looks depressing,-26,220,20","It's an alright work,15,80,20","I like the overlapping of brushes,41,160,20","I feel connected to the artist,40,120,20","Mike","enjoy the different shades of blue,22,200,20","Jack","I feel connected to the artist,40,120,20","Sam","I can feel a rainy day from this painting,18,240,20","2"
"5095","","image-button-response_instructions","42","247341","0.0-41.0","A1JV2S5C8QHD1B","","0","instructions","","","","","","","","","","","","","","","","","","","","","","","",""
"5577","","survey-likert","43","252922","0.0-42.0-0.0","A1JV2S5C8QHD1B","","","","{""Q0"":"""",""Q1"":"""",""Q2"":""""}","","","","","","","","","","","","","","","","","","","","","","",""
"10008","","survey-likert","44","264951","0.0-42.1-0.1","A1JV2S5C8QHD1B","","","","{""Q0"":"""",""Q1"":1,""Q2"":1}","","","","","","","","","","","","","","","","","","","","","","",""
"2999","","survey-likert","45","271102","0.0-42.2-0.2","A1JV2S5C8QHD1B","","","","{""Q0"":"""",""Q1"":0,""Q2"":""""}","","","","","","","","","","","","","","","","","","","","","","",""
"4606","","survey-likert","46","282721","0.0-42.3-0.3","A1JV2S5C8QHD1B","","","","{""Q0"":"""",""Q1"":0,""Q2"":0}","","","","","","","","","","","","","","","","","","","","","","",""
"3670","","survey-likert","47","288161","0.0-42.4-0.4","A1JV2S5C8QHD1B","","","","{""Q0"":"""",""Q1"":0,""Q2"":1}","","","","","","","","","","","","","","","","","","","","","","",""
"4381","","survey-text","48","292551","0.0-43.0-0.0","A1JV2S5C8QHD1B","","","","{""Q0"":""rock""}","","","","","","","","","","","","","","","","","","","","","","",""
"15406","","survey-text","49","307960","0.0-44.0-0.0","A1JV2S5C8QHD1B","","","","{""Q0"":""It's lovely, reminds me of a summer night with a thunderstorm.""}","","","","","","","","","","","","","","","","","","","","","","",""
"21017.19999998808","","image-slider-response","50","328980","0.0-45.0","A1JV2S5C8QHD1B","","","","","46","","","","","","","","","","","","","","","","","","","","","",""
"null","","image-button-response","51","334029","0.0-46.0","A1JV2S5C8QHD1B","img_art/13.jpg","null","","","","","","","","","","","","","","","","","","","","","","","","",""
"1799","","image-button-response","52","335831","0.0-47.0","A1JV2S5C8QHD1B","img_art/13.jpg","4","","","","","","","","","","","","","","","","","","","","","","","","",""
"5397","","image-button-response","53","341231","0.0-48.0-0.0","A1JV2S5C8QHD1B","img_art/13.jpg","0","","","","","","","","","","","","","","","","","","","","","","","","",""
"1516","","image-button-response","54","342751","0.0-49.0-0.0","A1JV2S5C8QHD1B","img_art/13.jpg","5","","","","","","","","","","","","","","","","","","","","","","","","",""
"null","","html-keyboard-response","55","343268","0.0-50.0","A1JV2S5C8QHD1B","<p style=""font-size: 48px;"">+</p>","","","","","null","allTrialResponses","500","1","1","img_art/13.jpg","46","It's lovely, reminds me of a summer night with a thunderstorm.","Devin,Dustin,Bryce,Dalton,Evan,Taylor","Really love the colors,11,380,20","Cool and calming colors. I like splatter art.,10,20,20","My favorite!,47,20,20","rain in blue black and white,1,300,20","It reminds me of looking out the window on a stormy night at cars drive by,21,140,20","Simple and in my favorite color. I actually like this one.,40,200,20","Evan","It reminds me of looking out the window on a stormy night at cars drive by,21,140,20","Devin","Really love the colors,11,380,20","Taylor","Simple and in my favorite color. I actually like this one.,40,200,20","6"
"12326","","survey-text","56","355600","0.0-51.0-0.0","A1JV2S5C8QHD1B","","","","{""Q0"":""its interesting, reminds me of a carnival.""}","","","","","","","","","","","","","","","","","","","","","","",""
"4397.300000011921","","image-slider-response","57","360000","0.0-52.0","A1JV2S5C8QHD1B","","","","","8","","","","","","","","","","","","","","","","","","","","","",""
"null","","image-button-response","58","365020","0.0-53.0","A1JV2S5C8QHD1B","img_art/30.jpg","null","","","","","","","","","","","","","","","","","","","","","","","","",""
"4270","","image-button-response","59","369292","0.0-54.0","A1JV2S5C8QHD1B","img_art/30.jpg","4","","","","","","","","","","","","","","","","","","","","","","","","",""
"7217","","image-button-response","60","376512","0.0-55.0-0.0","A1JV2S5C8QHD1B","img_art/30.jpg","1","","","","","","","","","","","","","","","","","","","","","","","","",""
"996","","image-button-response","61","377512","0.0-56.0-0.0","A1JV2S5C8QHD1B","img_art/30.jpg","5","","","","","","","","","","","","","","","","","","","","","","","","",""
"null","","html-keyboard-response","62","379020","0.0-57.0","A1JV2S5C8QHD1B","<p style=""font-size: 48px;"">+</p>","","","","","null","allTrialResponses","1500","1","2","img_art/30.jpg","8","its interesting, reminds me of a carnival.","Devin,Adam,James,Luke,Evan,Taylor","A bit haphazard looking and lacking in vision,2,380,20","Dislike the contrast here.,-5,40,20","I like the fact that it's a painting.,21,380,20","the lines and colors look purposeful,18,20,20","I really like the broad and colorful strokes,21,140,20","My kid drew this same picture at daycare!!!,5,200,20","Evan","I really like the broad and colorful strokes,21,140,20","Adam","Dislike the contrast here.,-5,40,20","Taylor","My kid drew this same picture at daycare!!!,5,200,20","6"
"16108","","survey-text","63","395141","0.0-58.0-0.0","A1JV2S5C8QHD1B","","","","{""Q0"":""this is so intriguing, looks like a rainy ship at sea.""}","","","","","","","","","","","","","","","","","","","","","","",""
"4468","","image-slider-response","64","399612","0.0-59.0","A1JV2S5C8QHD1B","","","","","15","","","","","","","","","","","","","","","","","","","","","",""
"null","","image-button-response","65","404630","0.0-60.0","A1JV2S5C8QHD1B","img_art/11.jpg","null","","","","","","","","","","","","","","","","","","","","","","","","",""
"409","","image-button-response","66","405042","0.0-61.0","A1JV2S5C8QHD1B","img_art/11.jpg","0","","","","","","","","","","","","","","","","","","","","","","","","",""
"3197","","image-button-response","67","408242","0.0-62.0-0.0","A1JV2S5C8QHD1B","img_art/11.jpg","1","","","","","","","","","","","","","","","","","","","","","","","","",""
"4846","","image-button-response","68","413093","0.0-63.0-0.0","A1JV2S5C8QHD1B","img_art/11.jpg","3","","","","","","","","","","","","","","","","","","","","","","","","",""
"null","","html-keyboard-response","69","414101","0.0-64.0","A1JV2S5C8QHD1B","<p style=""font-size: 48px;"">+</p>","","","","","null","allTrialResponses","1000","1","3","img_art/11.jpg","15","this is so intriguing, looks like a rainy ship at sea.","Jack,Adam,Alexis,Derek,Evan,Taylor","makes me think of city highways & bridges on a rainy, foggy day. I like the melancholy it evokes.,43,320,20","Kind of reminds me of DNA.,9,40,20","This photo makes me feel bleak,-16,140,20","There's a lot going on in this painting but it is pleasing and neat looking,31,360,20","I dislike how dark this is,-21,140,20","Busy, busy oceanside city.,-10,200,20","Jack","makes me think of city highways & bridges on a rainy, foggy day. I like the melancholy it evokes.,43,320,20","Adam","Kind of reminds me of DNA.,9,40,20","Derek","There's a lot going on in this painting but it is pleasing and neat looking,31,360,20","6"
"14064","","survey-text","70","428171","0.0-65.0-0.0","A1JV2S5C8QHD1B","","","","{""Q0"":""so soft looking like cotton candy on one side and a sky on the other.""}","","","","","","","","","","","","","","","","","","","","","","",""
"3888.2000000476837","","image-slider-response","71","432062","0.0-66.0","A1JV2S5C8QHD1B","","","","","16","","","","","","","","","","","","","","","","","","","","","",""
"4776","","image-button-response","72","437079","0.0-67.0","A1JV2S5C8QHD1B","img_art/21.jpg","0","","","","","","","","","","","","","","","","","","","","","","","","",""
"3869","","image-button-response","73","440951","0.0-68.0","A1JV2S5C8QHD1B","img_art/21.jpg","0","","","","","","","","","","","","","","","","","","","","","","","","",""
"2788","","image-button-response","74","443742","0.0-69.0-0.0","A1JV2S5C8QHD1B","img_art/21.jpg","4","","","","","","","","","","","","","","","","","","","","","","","","",""
"1995","","image-button-response","75","445741","0.0-70.0-0.0","A1JV2S5C8QHD1B","img_art/21.jpg","1","","","","","","","","","","","","","","","","","","","","","","","","",""
"null","","html-keyboard-response","76","446259","0.0-71.0","A1JV2S5C8QHD1B","<p style=""font-size: 48px;"">+</p>","","","","","null","allTrialResponses","500","1","4","img_art/21.jpg","16","so soft looking like cotton candy on one side and a sky on the other.","Jack,Adam,Jeffrey,Derek,Caleb,Angel","beautiful. reminds me of a storm brewing over sea. i love the white dots.,45,320,20","I like color mix here,15,40,20","Relaxing and easy to look at,27,40,20","I love the colors in this painting,30,360,20","Almost appears like the background of an old renaissance painting.,40,40,20","This feels chaotic, like a battle or a storm.,-20,180,20","Jack","beautiful. reminds me of a storm brewing over sea. i love the white dots.,45,320,20","Caleb","Almost appears like the background of an old renaissance painting.,40,40,20","Adam","I like color mix here,15,40,20","6"
"15025","","survey-text","77","461291","0.0-72.0-0.0","A1JV2S5C8QHD1B","","","","{""Q0"":""it remind me of dali, slightly chaotic and dismal.""}","","","","","","","","","","","","","","","","","","","","","","",""
"7846.699999988079","","image-slider-response","78","469141","0.0-73.0","A1JV2S5C8QHD1B","","","","","1","","","","","","","","","","","","","","","","","","","","","",""
"4807","","image-button-response","79","474159","0.0-74.0","A1JV2S5C8QHD1B","img_art/18.jpg","0","","","","","","","","","","","","","","","","","","","","","","","","",""
"2270","","image-button-response","80","476432","0.0-75.0","A1JV2S5C8QHD1B","img_art/18.jpg","0","","","","","","","","","","","","","","","","","","","","","","","","",""
"8367","","image-button-response","81","484801","0.0-76.0-0.0","A1JV2S5C8QHD1B","img_art/18.jpg","3","","","","","","","","","","","","","","","","","","","","","","","","",""
"1686","","image-button-response","82","486491","0.0-77.0-0.0","A1JV2S5C8QHD1B","img_art/18.jpg","2","","","","","","","","","","","","","","","","","","","","","","","","",""
"null","","html-keyboard-response","83","487500","0.0-78.0","A1JV2S5C8QHD1B","<p style=""font-size: 48px;"">+</p>","","","","","null","allTrialResponses","1000","1","5","img_art/18.jpg","1","it remind me of dali, slightly chaotic and dismal.","Jack,Adam,Andrew,Cameron,Caleb,Thomas","hauntingly beautiful. more things revealed the longer you look. love the spirit-like figure in the top left.,47,320,20","Colors are okay. Reminds me of cavalry.,10,40,20","Another ominous painting,-10,160,20","Don't like the color scheme. Or the theme.,-5,60,20","Accents make this piece.,21,40,20","I could stare at this for long stretches of time and still find new details. I love it.,40,220,20","Jack","hauntingly beautiful. more things revealed the longer you look. love the spirit-like figure in the top left.,47,320,20","Cameron","Don't like the color scheme. Or the theme.,-5,60,20","Andrew","Another ominous painting,-10,160,20","6"
"5286","","survey-text","84","492801","0.0-79.0-0.0","A1JV2S5C8QHD1B","","","","{""Q0"":""sky""}","","","","","","","","","","","","","","","","","","","","","","",""
"10619","","survey-text","85","503421","0.0-80.0-0.0","A1JV2S5C8QHD1B","","","","{""Q0"":""interesting work, block type colors are cool.""}","","","","","","","","","","","","","","","","","","","","","","",""
"7047.300000011921","","image-slider-response","86","510471","0.0-81.0","A1JV2S5C8QHD1B","","","","","3","","","","","","","","","","","","","","","","","","","","","",""
"null","","image-button-response","87","515481","0.0-82.0","A1JV2S5C8QHD1B","img_art/8.jpg","null","","","","","","","","","","","","","","","","","","","","","","","","",""
"21502","","image-button-response","88","536987","0.0-83.0","A1JV2S5C8QHD1B","img_art/8.jpg","5","","","","","","","","","","","","","","","","","","","","","","","","",""
"1252","","image-button-response","89","538241","0.0-84.0-0.0","A1JV2S5C8QHD1B","img_art/8.jpg","1","","","","","","","","","","","","","","","","","","","","","","","","",""
"3227","","image-button-response","90","541472","0.0-85.0-0.0","A1JV2S5C8QHD1B","img_art/8.jpg","0","","","","","","","","","","","","","","","","","","","","","","","","",""
"null","","html-keyboard-response","91","542480","0.0-86.0","A1JV2S5C8QHD1B","<p style=""font-size: 48px;"">+</p>","","","","","null","allTrialResponses","1000","1","6","img_art/8.jpg","3","interesting work, block type colors are cool.","Jack,Jared,Andrew,Cameron,Ian,Isaac","beautiful colors & details. love the surrealism & strange angle. the faces are interesting.,50,320,20","i love the colors, the church and the face,42,400,20","Looks like it would be an interesting place to live,35,160,20","what's going on here. looks like scary town.,-25,60,20","I like this, the longer I look at in the more details I see.,41,260,20","It looks like it took a lot of time to complete.,34,280,20","Isaac","It looks like it took a lot of time to complete.,34,280,20","Jared","i love the colors, the church and the face,42,400,20","Jack","beautiful colors & details. love the surrealism & strange angle. the faces are interesting.,50,320,20","6"
"14783","","survey-text","92","557271","0.0-87.0-0.0","A1JV2S5C8QHD1B","","","","{""Q0"":""weird and slightly uncomfortable looking. makes me uneasy.""}","","","","","","","","","","","","","","","","","","","","","","",""
"4057.600000023842","","image-slider-response","93","561332","0.0-88.0","A1JV2S5C8QHD1B","","","","","-8","","","","","","","","","","","","","","","","","","","","","",""
"2557","","image-button-response","94","566351","0.0-89.0","A1JV2S5C8QHD1B","img_art/10.jpg","1","","","","","","","","","","","","","","","","","","","","","","","","",""
"857","","image-button-response","95","567210","0.0-90.0","A1JV2S5C8QHD1B","img_art/10.jpg","1","","","","","","","","","","","","","","","","","","","","","","","","",""
"5859","","image-button-response","96","573072","0.0-91.0-0.0","A1JV2S5C8QHD1B","img_art/10.jpg","3","","","","","","","","","","","","","","","","","","","","","","","","",""
"1517","","image-button-response","97","574593","0.0-92.0-0.0","A1JV2S5C8QHD1B","img_art/10.jpg","4","","","","","","","","","","","","","","","","","","","","","","","","",""
"null","","html-keyboard-response","98","575101","0.0-93.0","A1JV2S5C8QHD1B","<p style=""font-size: 48px;"">+</p>","","","","","null","allTrialResponses","500","1","7","img_art/10.jpg","-8","weird and slightly uncomfortable looking. makes me uneasy.","Jack,Jared,Mark,Joseph,Christian,Isaac","this piece is okay. I wish it was more colorful, but it is certainly intriguing.,23,320,20","it just doesnt appeal to me.,-10,400,20","Kraken, and I love it.,39,80,20","The loop type thing reminds me of interconnectedness and life and hope.,12,220,20","gives a sense of a roller coaster unit splashed in water. it's not but i love it nevertheless,44,140,20","It looks intricate.,15,280,20","Jared","it just doesnt appeal to me.,-10,400,20","Joseph","The loop type thing reminds me of interconnectedness and life and hope.,12,220,20","Christian","gives a sense of a roller coaster unit splashed in water. it's not but i love it nevertheless,44,140,20","6"
"13589","","survey-text","99","588702","0.0-94.0-0.0","A1JV2S5C8QHD1B","","","","{""Q0"":""i love this! the colors pull me in. so beautiful.""}","","","","","","","","","","","","","","","","","","","","","","",""
"5197.100000023842","","image-slider-response","100","593902","0.0-95.0","A1JV2S5C8QHD1B","","","","","33","","","","","","","","","","","","","","","","","","","","","",""
"1938","","image-button-response","101","598911","0.0-96.0","A1JV2S5C8QHD1B","img_art/1.jpg","4","","","","","","","","","","","","","","","","","","","","","","","","",""
"1329","","image-button-response","102","600243","0.0-97.0","A1JV2S5C8QHD1B","img_art/1.jpg","3","","","","","","","","","","","","","","","","","","","","","","","","",""
"1012","","image-button-response","103","601258","0.0-98.0-0.0","A1JV2S5C8QHD1B","img_art/1.jpg","4","","","","","","","","","","","","","","","","","","","","","","","","",""
"4480","","image-button-response","104","605743","0.0-99.0-0.0","A1JV2S5C8QHD1B","img_art/1.jpg","5","","","","","","","","","","","","","","","","","","","","","","","","",""
"null","","html-keyboard-response","105","606750","0.0-100.0","A1JV2S5C8QHD1B","<p style=""font-size: 48px;"">+</p>","","","","","null","allTrialResponses","1000","1","8","img_art/1.jpg","33","i love this! the colors pull me in. so beautiful.","Trevor,Jared,Alex,Joseph,Christian,Dylan","nice colors but kinds of blah,1,280,20","there isnt anything clear to look at,-2,400,20","Random paint does not make art,-5,100,20","Happy! Reminds me of hiking in tennesee.,18,220,20","bamboo boat in sunset,12,140,20","I love the warm colors of the art,32,40,20","Joseph","Happy! Reminds me of hiking in tennesee.,18,220,20","Christian","bamboo boat in sunset,12,140,20","Dylan","I love the warm colors of the art,32,40,20","6"
"9502","","survey-text","106","616258","0.0-101.0-0.0","A1JV2S5C8QHD1B","","","","{""Q0"":""too bright and chaotic for my taste.""}","","","","","","","","","","","","","","","","","","","","","","",""
"8342.100000023842","","image-slider-response","107","624602","0.0-102.0","A1JV2S5C8QHD1B","","","","","3","","","","","","","","","","","","","","","","","","","","","",""
"3008","","image-button-response","108","629611","0.0-103.0","A1JV2S5C8QHD1B","img_art/23.jpg","1","","","","","","","","","","","","","","","","","","","","","","","","",""
"8280","","image-button-response","109","637893","0.0-104.0","A1JV2S5C8QHD1B","img_art/23.jpg","5","","","","","","","","","","","","","","","","","","","","","","","","",""
"747","","image-button-response","110","638643","0.0-105.0-0.0","A1JV2S5C8QHD1B","img_art/23.jpg","4","","","","","","","","","","","","","","","","","","","","","","","","",""
"6817","","image-button-response","111","645463","0.0-106.0-0.0","A1JV2S5C8QHD1B","img_art/23.jpg","1","","","","","","","","","","","","","","","","","","","","","","","","",""
"null","","html-keyboard-response","112","646981","0.0-107.0","A1JV2S5C8QHD1B","<p style=""font-size: 48px;"">+</p>","","","","","null","allTrialResponses","1500","1","9","img_art/23.jpg","3","too bright and chaotic for my taste.","David,Nathaniel,Mason,Joseph,Christian,Dylan","I like the symmetrical design and how it portrays the liveliness of a musical environment.,30,340,20","Not a fan of these dot pieces. They hurt my eyes.,-25,220,20","No reactions, childish.,-19,100,20","Like a wound that has been sutured. Pain, but also healing.,5,220,20","love the contrast (was this painted by a left-handed artist?),7,140,20","This is my favorite of them all. I love the colors.,41,40,20","Dylan","This is my favorite of them all. I love the colors.,41,40,20","Christian","love the contrast (was this painted by a left-handed artist?),7,140,20","Nathaniel","Not a fan of these dot pieces. They hurt my eyes.,-25,220,20","6"
"9274","","survey-text","113","656262","0.0-108.0-0.0","A1JV2S5C8QHD1B","","","","{""Q0"":""too spooky and i dont like the color at all.""}","","","","","","","","","","","","","","","","","","","","","","",""
"4577.600000023842","","image-slider-response","114","660843","0.0-109.0","A1JV2S5C8QHD1B","","","","","-32","","","","","","","","","","","","","","","","","","","","","",""
"null","","image-button-response","115","665862","0.0-110.0","A1JV2S5C8QHD1B","img_art/25.jpg","null","","","","","","","","","","","","","","","","","","","","","","","","",""
"1339","","image-button-response","116","667203","0.0-111.0","A1JV2S5C8QHD1B","img_art/25.jpg","0","","","","","","","","","","","","","","","","","","","","","","","","",""
"2068","","image-button-response","117","669273","0.0-112.0-0.0","A1JV2S5C8QHD1B","img_art/25.jpg","3","","","","","","","","","","","","","","","","","","","","","","","","",""
"2577","","image-button-response","118","671853","0.0-113.0-0.0","A1JV2S5C8QHD1B","img_art/25.jpg","5","","","","","","","","","","","","","","","","","","","","","","","","",""
"null","","html-keyboard-response","119","673361","0.0-114.0","A1JV2S5C8QHD1B","<p style=""font-size: 48px;"">+</p>","","","","","null","allTrialResponses","1500","1","10","img_art/25.jpg","-32","too spooky and i dont like the color at all.","Joshua,Nathaniel,Justin,Michael,Christian,Dylan","Looks like a voodoo figure in a New Orleans cemetery at night.,-5,240,20","I love the background color and it's creepy...but cool.,30,220,20","It's a rather intriguing design,12,280,20","Low skill not impressed.,-14,140,20","I'm sorry but I don't uderstand this,-20,140,20","This is too dark and creepy. I also hate the color,-30,40,20","Joshua","Looks like a voodoo figure in a New Orleans cemetery at night.,-5,240,20","Michael","Low skill not impressed.,-14,140,20","Dylan","This is too dark and creepy. I also hate the color,-30,40,20","6"
"3700","","survey-text","120","677072","0.0-115.0-0.0","A1JV2S5C8QHD1B","","","","{""Q0"":""our""}","","","","","","","","","","","","","","","","","","","","","","",""
"16318","","survey-text","121","693392","0.0-116.0-0.0","A1JV2S5C8QHD1B","","","","{""Q0"":""this is just too abstract for me and I'm not a fan of the colors.""}","","","","","","","","","","","","","","","","","","","","","","",""
"6437.300000011921","","image-slider-response","122","699833","0.0-117.0","A1JV2S5C8QHD1B","","","","","-45","","","","","","","","","","","","","","","","","","","","","",""
"null","","image-button-response","123","704841","0.0-118.0","A1JV2S5C8QHD1B","img_art/5.jpg","null","","","","","","","","","","","","","","","","","","","","","","","","",""
"5910","","image-button-response","124","710753","0.0-119.0","A1JV2S5C8QHD1B","img_art/5.jpg","5","","","","","","","","","","","","","","","","","","","","","","","","",""
"1047","","image-button-response","125","711803","0.0-120.0-0.0","A1JV2S5C8QHD1B","img_art/5.jpg","4","","","","","","","","","","","","","","","","","","","","","","","","",""
"978","","image-button-response","126","712784","0.0-121.0-0.0","A1JV2S5C8QHD1B","img_art/5.jpg","3","","","","","","","","","","","","","","","","","","","","","","","","",""
"null","","html-keyboard-response","127","713288","0.0-122.0","A1JV2S5C8QHD1B","<p style=""font-size: 48px;"">+</p>","","","","","null","allTrialResponses","500","1","11","img_art/5.jpg","-45","this is just too abstract for me and I'm not a fan of the colors.","Joshua,Charles,Victor,Michael,Steven,Dylan","Very basic, but at least has some color to it.,-9,240,20","It feels positive and kind of uplifting,24,100,20","I like these colors together and the tiny splatters, but what is this?,7,340,20","Complete garbage. Looks like a kid drew it.,-50,140,20","I dont really get anything from this,-25,160,20","This looks like a twelve year old did it,-40,40,20","Dylan","This looks like a twelve year old did it,-40,40,20","Steven","I dont really get anything from this,-25,160,20","Michael","Complete garbage. Looks like a kid drew it.,-50,140,20","6"
"10857","","survey-text","128","724152","0.0-123.0-0.0","A1JV2S5C8QHD1B","","","","{""Q0"":""weird, urban graffiti type of art.""}","","","","","","","","","","","","","","","","","","","","","","",""
"3917.899999976158","","image-slider-response","129","728072","0.0-124.0","A1JV2S5C8QHD1B","","","","","8","","","","","","","","","","","","","","","","","","","","","",""
"2677","","image-button-response","130","733081","0.0-125.0","A1JV2S5C8QHD1B","img_art/29.jpg","3","","","","","","","","","","","","","","","","","","","","","","","","",""
"400","","image-button-response","131","733483","0.0-126.0","A1JV2S5C8QHD1B","img_art/29.jpg","5","","","","","","","","","","","","","","","","","","","","","","","","",""
"1207","","image-button-response","132","734693","0.0-127.0-0.0","A1JV2S5C8QHD1B","img_art/29.jpg","3","","","","","","","","","","","","","","","","","","","","","","","","",""
"3107","","image-button-response","133","737802","0.0-128.0-0.0","A1JV2S5C8QHD1B","img_art/29.jpg","0","","","","","","","","","","","","","","","","","","","","","","","","",""
"null","","html-keyboard-response","134","738321","0.0-129.0","A1JV2S5C8QHD1B","<p style=""font-size: 48px;"">+</p>","","","","","null","allTrialResponses","500","1","12","img_art/29.jpg","8","weird, urban graffiti type of art.","Jesus,Brendan,Sean,Michael,Steven,Dylan","The light source is confusing, but still interesting to look at,11,100,20","it looks like a prison,-33,340,20","my response to the picture is that it looks so nice and cool and the details,34,40,20","Looks literally like garbage.,-45,140,20","Yeah, I don't know. It's clearly a situation where art is the reject of something more,-27,160,20","I don't like this. It is ugly and dark,-29,40,20","Dylan","I don't like this. It is ugly and dark,-29,40,20","Michael","Looks literally like garbage.,-45,140,20","Jesus","The light source is confusing, but still interesting to look at,11,100,20","6"
"23467","","survey-text","135","761793","0.0-130.0-0.0","A1JV2S5C8QHD1B","","","","{""Q0"":""magical, whimsical and beautiful! I love this!""}","","","","","","","","","","","","","","","","","","","","","","",""
"6126.399999976158","","image-slider-response","136","767923","0.0-131.0","A1JV2S5C8QHD1B","","","","","50","","","","","","","","","","","","","","","","","","","","","",""
"null","","image-button-response","137","772941","0.0-132.0","A1JV2S5C8QHD1B","img_art/17.jpg","null","","","","","","","","","","","","","","","","","","","","","","","","",""
"919","","image-button-response","138","773863","0.0-133.0","A1JV2S5C8QHD1B","img_art/17.jpg","1","","","","","","","","","","","","","","","","","","","","","","","","",""
"968","","image-button-response","139","774833","0.0-134.0-0.0","A1JV2S5C8QHD1B","img_art/17.jpg","2","","","","","","","","","","","","","","","","","","","","","","","","",""
"1217","","image-button-response","140","776053","0.0-135.0-0.0","A1JV2S5C8QHD1B","img_art/17.jpg","4","","","","","","","","","","","","","","","","","","","","","","","","",""
"null","","html-keyboard-response","141","777071","0.0-136.0","A1JV2S5C8QHD1B","<p style=""font-size: 48px;"">+</p>","","","","","null","allTrialResponses","1000","1","13","img_art/17.jpg","50","magical, whimsical and beautiful! I love this!","Jesus,Tanner,Corey,Michael,Alexander,Dylan","Very fun textures,32,100,20","calm, tranquil, happy,50,180,20","gentle watercolor vibes,12,260,20","There is better structure and direction in this one.,19,140,20","Tree of knowledge in a quiet school.,17,120,20","This is very beautiful and elegant.,42,40,20","Tanner","calm, tranquil, happy,50,180,20","Corey","gentle watercolor vibes,12,260,20","Alexander","Tree of knowledge in a quiet school.,17,120,20","6"
"10286","","survey-text","142","787363","0.0-137.0-0.0","A1JV2S5C8QHD1B","","","","{""Q0"":""blue flowers in the dark night storm.""}","","","","","","","","","","","","","","","","","","","","","","",""
"4787.599999964237","","image-slider-response","143","792153","0.0-138.0","A1JV2S5C8QHD1B","","","","","23","","","","","","","","","","","","","","","","","","","","","",""
"null","","image-button-response","144","797172","0.0-139.0","A1JV2S5C8QHD1B","img_art/15.jpg","null","","","","","","","","","","","","","","","","","","","","","","","","",""
"757","","image-button-response","145","797933","0.0-140.0","A1JV2S5C8QHD1B","img_art/15.jpg","0","","","","","","","","","","","","","","","","","","","","","","","","",""
"1818","","image-button-response","146","799754","0.0-141.0-0.0","A1JV2S5C8QHD1B","img_art/15.jpg","2","","","","","","","","","","","","","","","","","","","","","","","","",""
"1287","","image-button-response","147","801043","0.0-142.0-0.0","A1JV2S5C8QHD1B","img_art/15.jpg","4","","","","","","","","","","","","","","","","","","","","","","","","",""
"null","","html-keyboard-response","148","802561","0.0-143.0","A1JV2S5C8QHD1B","<p style=""font-size: 48px;"">+</p>","","","","","null","allTrialResponses","1500","1","14","img_art/15.jpg","23","blue flowers in the dark night storm.","Connor,Tanner,Corey,Cody,Alexander,Luis","Neat to explore meaning, blue is interesting,11,240,20","darkness, hatred, fear,-29,180,20","i like the pop of blue within all the black,8,260,20","Don't love it but it's cute,16,180,20","Leafs spread on the ground.,27,120,20","Extreme darkness and sadness,-30,400,20","Connor","Neat to explore meaning, blue is interesting,11,240,20","Corey","i like the pop of blue within all the black,8,260,20","Alexander","Leafs spread on the ground.,27,120,20","6"
"15681","","survey-text","149","818253","0.0-144.0-0.0","A1JV2S5C8QHD1B","","","","{""Q0"":""a pickle looking bird in the Moroccan desert.""}","","","","","","","","","","","","","","","","","","","","","","",""
"5037.199999988079","","image-slider-response","150","823293","0.0-145.0","A1JV2S5C8QHD1B","","","","","9","","","","","","","","","","","","","","","","","","","","","",""
"4838","","image-button-response","151","828302","0.0-146.0","A1JV2S5C8QHD1B","img_art/6.jpg","3","","","","","","","","","","","","","","","","","","","","","","","","",""
"1009","","image-button-response","152","829313","0.0-147.0","A1JV2S5C8QHD1B","img_art/6.jpg","0","","","","","","","","","","","","","","","","","","","","","","","","",""
"1547","","image-button-response","153","830863","0.0-148.0-0.0","A1JV2S5C8QHD1B","img_art/6.jpg","2","","","","","","","","","","","","","","","","","","","","","","","","",""
"2747","","image-button-response","154","833613","0.0-149.0-0.0","A1JV2S5C8QHD1B","img_art/6.jpg","3","","","","","","","","","","","","","","","","","","","","","","","","",""
"null","","html-keyboard-response","155","834621","0.0-150.0","A1JV2S5C8QHD1B","<p style=""font-size: 48px;"">+</p>","","","","","null","allTrialResponses","1000","1","15","img_art/6.jpg","9","a pickle looking bird in the Moroccan desert.","Connor,Chase,Corey,Edward,Alexander,Elijah","Blackbird in the desert,27,240,20","It's a bit bland, but looks like a bird standing.,11,120,20","reminds me of a happy edgar allen poe poem,8,260,20","It looks like a bird looking away,32,60,20","Desert that's too simple.,-15,120,20","Not impressed, just very plain,-10,80,20","Connor","Blackbird in the desert,27,240,20","Corey","reminds me of a happy edgar allen poe poem,8,260,20","Edward","It looks like a bird looking away,32,60,20","6"
"4078","","survey-text","156","838713","0.0-151.0-0.0","A1JV2S5C8QHD1B","","","","{""Q0"":""course""}","","","","","","","","","","","","","","","","","","","","","","",""
"11468","","survey-text","157","850182","0.0-152.0-0.0","A1JV2S5C8QHD1B","","","","{""Q0"":""too childlike and not skillful looking.""}","","","","","","","","","","","","","","","","","","","","","","",""
"11107.099999964237","","image-slider-response","158","861292","0.0-153.0","A1JV2S5C8QHD1B","","","","","-40","","","","","","","","","","","","","","","","","","","","","",""
"null","","image-button-response","159","866301","0.0-154.0","A1JV2S5C8QHD1B","img_art/3.jpg","null","","","","","","","","","","","","","","","","","","","","","","","","",""
"3419","","image-button-response","160","869722","0.0-155.0","A1JV2S5C8QHD1B","img_art/3.jpg","0","","","","","","","","","","","","","","","","","","","","","","","","",""
"1327","","image-button-response","161","871052","0.0-156.0-0.0","A1JV2S5C8QHD1B","img_art/3.jpg","1","","","","","","","","","","","","","","","","","","","","","","","","",""
"7818","","image-button-response","162","878873","0.0-157.0-0.0","A1JV2S5C8QHD1B","img_art/3.jpg","5","","","","","","","","","","","","","","","","","","","","","","","","",""
"null","","html-keyboard-response","163","879381","0.0-158.0","A1JV2S5C8QHD1B","<p style=""font-size: 48px;"">+</p>","","","","","null","allTrialResponses","500","1","16","img_art/3.jpg","-40","too childlike and not skillful looking.","Connor,Dakota,Corey,Edward,Ethan,Logan","Shapes are interesting but color is overwhelming,5,240,20","wild scribbling, freedom, expression,40,280,20","seems distressing. a blood scene,-3,260,20","It looks like someone took a red sharpie and just scribbled angrily,-20,60,20","I usually don't like red. Red in this angry piece is very fitting.,19,120,20","im just getting more agitated and less appreciative of art. I have absolutely no scale to base on,-34,360,20","Connor","Shapes are interesting but color is overwhelming,5,240,20","Dakota","wild scribbling, freedom, expression,40,280,20","Logan","im just getting more agitated and less appreciative of art. I have absolutely no scale to base on,-34,360,20","6"
"17625","","survey-text","164","897012","0.0-159.0-0.0","A1JV2S5C8QHD1B","","","","{""Q0"":""dismal, like a rainy London day in 1890""}","","","","","","","","","","","","","","","","","","","","","","",""
"8937.200000047684","","image-slider-response","165","905952","0.0-160.0","A1JV2S5C8QHD1B","","","","","7","","","","","","","","","","","","","","","","","","","","","",""
"3809","","image-button-response","166","910974","0.0-161.0","A1JV2S5C8QHD1B","img_art/28.jpg","4","","","","","","","","","","","","","","","","","","","","","","","","",""
"5577","","image-button-response","167","916555","0.0-162.0","A1JV2S5C8QHD1B","img_art/28.jpg","2","","","","","","","","","","","","","","","","","","","","","","","","",""
"1146","","image-button-response","168","917704","0.0-163.0-0.0","A1JV2S5C8QHD1B","img_art/28.jpg","5","","","","","","","","","","","","","","","","","","","","","","","","",""
"1112","","image-button-response","169","918820","0.0-164.0-0.0","A1JV2S5C8QHD1B","img_art/28.jpg","4","","","","","","","","","","","","","","","","","","","","","","","","",""
"null","","html-keyboard-response","170","919832","0.0-165.0","A1JV2S5C8QHD1B","<p style=""font-size: 48px;"">+</p>","","","","","null","allTrialResponses","1000","1","17","img_art/28.jpg","7","dismal, like a rainy London day in 1890","Connor,Dakota,Isaiah,Robert,Jesse,Logan","Dislike color palette and amoeba,-9,240,20","musical, animated and happy with somber undertones,7,280,20","It makes me feel happy, and a little anxious.,50,300,20","The colors are neutral but I see a mother helping her child,31,360,20","Just all blurs together for me. No substance.,-23,80,20","I wish I knew why I liked it, maybes its the pinky tones,36,360,20","Isaiah","It makes me feel happy, and a little anxious.,50,300,20","Logan","I wish I knew why I liked it, maybes its the pinky tones,36,360,20","Jesse","Just all blurs together for me. No substance.,-23,80,20","6"
"20254","","survey-text","171","940094","0.0-166.0-0.0","A1JV2S5C8QHD1B","","","","{""Q0"":"" strange but pretty in a calming way.""}","","","","","","","","","","","","","","","","","","","","","","",""
"5367.800000011921","","image-slider-response","172","945464","0.0-167.0","A1JV2S5C8QHD1B","","","","","23","","","","","","","","","","","","","","","","","","","","","",""
"null","","image-button-response","173","950484","0.0-168.0","A1JV2S5C8QHD1B","img_art/19.jpg","null","","","","","","","","","","","","","","","","","","","","","","","","",""
"2987","","image-button-response","174","953474","0.0-169.0","A1JV2S5C8QHD1B","img_art/19.jpg","0","","","","","","","","","","","","","","","","","","","","","","","","",""
"3427","","image-button-response","175","956905","0.0-170.0-0.0","A1JV2S5C8QHD1B","img_art/19.jpg","5","","","","","","","","","","","","","","","","","","","","","","","","",""
"946","","image-button-response","176","957854","0.0-171.0-0.0","A1JV2S5C8QHD1B","img_art/19.jpg","2","","","","","","","","","","","","","","","","","","","","","","","","",""
"null","","html-keyboard-response","177","959372","0.0-172.0","A1JV2S5C8QHD1B","<p style=""font-size: 48px;"">+</p>","","","","","null","allTrialResponses","1500","1","18","img_art/19.jpg","23"," strange but pretty in a calming way.","Jacob,Spencer,Isaiah,Brandon,Jesse,Logan","Vibrant and colorful,13,340,20","Very abstract but I like it, it's busy, lots of colors,43,120,20","I feel a little anxious and happy. I'm about to walk into a market and any number of treasures could be found,14,300,20","Not a fan of the blobbiness,-22,320,20","I dont like the smudge effect,-7,80,20","this flow I just really like how everything blends but also doesn't,45,360,20","Jacob","Vibrant and colorful,13,340,20","Logan","this flow I just really like how everything blends but also doesn't,45,360,20","Isaiah","I feel a little anxious and happy. I'm about to walk into a market and any number of treasures could be found,14,300,20","6"
"13645","","survey-text","178","973024","0.0-173.0-0.0","A1JV2S5C8QHD1B","","","","{""Q0"":""dark, but i love the melancholy colors , especially the blues.""}","","","","","","","","","","","","","","","","","","","","","","",""
"5246.900000035763","","image-slider-response","179","978274","0.0-174.0","A1JV2S5C8QHD1B","","","","","45","","","","","","","","","","","","","","","","","","","","","",""
"4828","","image-button-response","180","983293","0.0-175.0","A1JV2S5C8QHD1B","img_art/20.jpg","3","","","","","","","","","","","","","","","","","","","","","","","","",""
"2508","","image-button-response","181","985804","0.0-176.0","A1JV2S5C8QHD1B","img_art/20.jpg","2","","","","","","","","","","","","","","","","","","","","","","","","",""
"2778","","image-button-response","182","988586","0.0-177.0-0.0","A1JV2S5C8QHD1B","img_art/20.jpg","5","","","","","","","","","","","","","","","","","","","","","","","","",""
"1075","","image-button-response","183","989664","0.0-178.0-0.0","A1JV2S5C8QHD1B","img_art/20.jpg","3","","","","","","","","","","","","","","","","","","","","","","","","",""
"null","","html-keyboard-response","184","990672","0.0-179.0","A1JV2S5C8QHD1B","<p style=""font-size: 48px;"">+</p>","","","","","null","allTrialResponses","1000","1","19","img_art/20.jpg","45","dark, but i love the melancholy colors , especially the blues.","Jacob,Grant,Isaiah,Matthew,Jason,Logan","It looks painted really nicely.,5,340,20","This elicits no reaction in me.,0,200,20","I feel powerful, like I am looking out a window at this machine, that I am in charge.,17,300,20","Painting within a painting, abstract.,32,120,20","The picture looks smudged and dirty,-4,20,20","truck? train? dead cow? plane?,10,360,20","Isaiah","I feel powerful, like I am looking out a window at this machine, that I am in charge.,17,300,20","Logan","truck? train? dead cow? plane?,10,360,20","Matthew","Painting within a painting, abstract.,32,120,20","6"
"17204","","survey-text","185","1007884","0.0-180.0-0.0","A1JV2S5C8QHD1B","","","","{""Q0"":"" not impressed, a kid could paint this.""}","","","","","","","","","","","","","","","","","","","","","","",""
"32066.600000023842","","image-slider-response","186","1039951","0.0-181.0","A1JV2S5C8QHD1B","","","","","-45","","","","","","","","","","","","","","","","","","","","","",""
"null","","image-button-response","187","1044970","0.0-182.0","A1JV2S5C8QHD1B","img_art/4.jpg","null","","","","","","","","","","","","","","","","","","","","","","","","",""
"14019","","image-button-response","188","1058992","0.0-183.0","A1JV2S5C8QHD1B","img_art/4.jpg","1","","","","","","","","","","","","","","","","","","","","","","","","",""
"1277","","image-button-response","189","1060272","0.0-184.0-0.0","A1JV2S5C8QHD1B","img_art/4.jpg","3","","","","","","","","","","","","","","","","","","","","","","","","",""
"937","","image-button-response","190","1061212","0.0-185.0-0.0","A1JV2S5C8QHD1B","img_art/4.jpg","5","","","","","","","","","","","","","","","","","","","","","","","","",""
"null","","html-keyboard-response","191","1061730","0.0-186.0","A1JV2S5C8QHD1B","<p style=""font-size: 48px;"">+</p>","","","","","null","allTrialResponses","500","1","20","img_art/4.jpg","-45"," not impressed, a kid could paint this.","Gregory,Kevin,Isaiah,Matthew,Benjamin,Logan","Mustard yellow doesn't do it for me,-25,220,20","A leaning trophy,-9,320,20","The sickly looking colors make me feel very uncomfortable.,-35,300,20","It looks like a hand.,25,120,20","I like the bold style.,10,260,20","it looks like a preschooler just dragged his fingers around,-36,360,20","Kevin","A leaning trophy,-9,320,20","Matthew","It looks like a hand.,25,120,20","Logan","it looks like a preschooler just dragged his fingers around,-36,360,20","6"
"4700","","survey-text","192","1066441","0.0-187.0-0.0","A1JV2S5C8QHD1B","","","","{""Q0"":""we""}","","","","","","","","","","","","","","","","","","","","","","",""
"10218","","survey-text","193","1076662","0.0-188.0-0.0","A1JV2S5C8QHD1B","","","","{""Q0"":""peaceful trees, but washed out looking.""}","","","","","","","","","","","","","","","","","","","","","","",""
"4518.400000035763","","image-slider-response","194","1081182","0.0-189.0","A1JV2S5C8QHD1B","","","","","8","","","","","","","","","","","","","","","","","","","","","",""
"3727","","image-button-response","195","1086200","0.0-190.0","A1JV2S5C8QHD1B","img_art/26.jpg","1","","","","","","","","","","","","","","","","","","","","","","","","",""
"5190","","image-button-response","196","1091392","0.0-191.0","A1JV2S5C8QHD1B","img_art/26.jpg","5","","","","","","","","","","","","","","","","","","","","","","","","",""
"1297","","image-button-response","197","1092692","0.0-192.0-0.0","A1JV2S5C8QHD1B","img_art/26.jpg","4","","","","","","","","","","","","","","","","","","","","","","","","",""
"1047","","image-button-response","198","1093742","0.0-193.0-0.0","A1JV2S5C8QHD1B","img_art/26.jpg","1","","","","","","","","","","","","","","","","","","","","","","","","",""
"null","","html-keyboard-response","199","1094748","0.0-194.0","A1JV2S5C8QHD1B","<p style=""font-size: 48px;"">+</p>","","","","","null","allTrialResponses","1000","1","21","img_art/26.jpg","8","peaceful trees, but washed out looking.","Alejandro,Kevin,Jose,Matthew,Malik,Logan","Do not like water colors at all,-50,80,20","Some trees in front of a house.,2,320,20","This style of objects that are supposed to be something but then are blurry is interesting.,38,200,20","Telented watercolor artist or second grader.,18,120,20","Feels like still life,-13,40,20","I really love pastels and they're just being dimmed down too much here,-3,360,20","Logan","I really love pastels and they're just being dimmed down too much here,-3,360,20","Malik","Feels like still life,-13,40,20","Kevin","Some trees in front of a house.,2,320,20","6"
"12160","","survey-text","200","1106914","0.0-195.0-0.0","A1JV2S5C8QHD1B","","","","{""Q0"":""bright, vivid, beautiful and vibrant. makes me feel nice.""}","","","","","","","","","","","","","","","","","","","","","","",""
"3506.900000035763","","image-slider-response","201","1110424","0.0-196.0","A1JV2S5C8QHD1B","","","","","50","","","","","","","","","","","","","","","","","","","","","",""
"null","","image-button-response","202","1115434","0.0-197.0","A1JV2S5C8QHD1B","img_art/22.jpg","null","","","","","","","","","","","","","","","","","","","","","","","","",""
"1719","","image-button-response","203","1117155","0.0-198.0","A1JV2S5C8QHD1B","img_art/22.jpg","2","","","","","","","","","","","","","","","","","","","","","","","","",""
"5297","","image-button-response","204","1122455","0.0-199.0-0.0","A1JV2S5C8QHD1B","img_art/22.jpg","4","","","","","","","","","","","","","","","","","","","","","","","","",""
"3647","","image-button-response","205","1126104","0.0-200.0-0.0","A1JV2S5C8QHD1B","img_art/22.jpg","1","","","","","","","","","","","","","","","","","","","","","","","","",""
"null","","html-keyboard-response","206","1127623","0.0-201.0","A1JV2S5C8QHD1B","<p style=""font-size: 48px;"">+</p>","","","","","null","allTrialResponses","1500","1","22","img_art/22.jpg","50","bright, vivid, beautiful and vibrant. makes me feel nice.","Gabriel,Kevin,Samuel,Stephen,Malik,Logan","its messy, like a child painted it,-14,160,20","Looks hot where ever that is.,-8,320,20","ball of light in 90s,8,400,20","Didn't illicit any reaction,1,140,20","Beautiful forms, using color to define shape,14,40,20","so boring. Wow you made some circles some squares very nice,-40,360,20","Samuel","ball of light in 90s,8,400,20","Malik","Beautiful forms, using color to define shape,14,40,20","Kevin","Looks hot where ever that is.,-8,320,20","6"
"10675","","survey-text","207","1138305","0.0-202.0-0.0","A1JV2S5C8QHD1B","","","","{""Q0"":""weird and creepy, makes me uneasy. ""}","","","","","","","","","","","","","","","","","","","","","","",""
"4687.400000035763","","image-slider-response","208","1142995","0.0-203.0","A1JV2S5C8QHD1B","","","","","2","","","","","","","","","","","","","","","","","","","","","",""
"null","","image-button-response","209","1148013","0.0-204.0","A1JV2S5C8QHD1B","img_art/16.jpg","null","","","","","","","","","","","","","","","","","","","","","","","","",""
"1119","","image-button-response","210","1149135","0.0-205.0","A1JV2S5C8QHD1B","img_art/16.jpg","2","","","","","","","","","","","","","","","","","","","","","","","","",""
"2047","","image-button-response","211","1151185","0.0-206.0-0.0","A1JV2S5C8QHD1B","img_art/16.jpg","5","","","","","","","","","","","","","","","","","","","","","","","","",""
"1386","","image-button-response","212","1152575","0.0-207.0-0.0","A1JV2S5C8QHD1B","img_art/16.jpg","4","","","","","","","","","","","","","","","","","","","","","","","","",""
"null","","html-keyboard-response","213","1153083","0.0-208.0","A1JV2S5C8QHD1B","<p style=""font-size: 48px;"">+</p>","","","","","null","allTrialResponses","500","1","23","img_art/16.jpg","2","weird and creepy, makes me uneasy. ","Miguel,Kevin,Samuel,Cole,Malik,Mitchell","Very cool abstraction.,19,160,20","Hmm i don't know what going on here.,1,320,20","childhood horror,3,400,20","Weird mixed media piece,-50,200,20","Very emotional,23,40,20","A teddybear, gun, crying person does not give a happy reaction. Death, still, no life.,-50,180,20","Samuel","childhood horror,3,400,20","Mitchell","A teddybear, gun, crying person does not give a happy reaction. Death, still, no life.,-50,180,20","Malik","Very emotional,23,40,20","6"
"36682","","survey-text","214","1189774","0.0-209.0-0.0","A1JV2S5C8QHD1B","","","","{""Q0"":""this is whimsical, pretty and calming, like a spring day with blue bonnets.""}","","","","","","","","","","","","","","","","","","","","","","",""
"3526.7000000476837","","image-slider-response","215","1193304","0.0-210.0","A1JV2S5C8QHD1B","","","","","32","","","","","","","","","","","","","","","","","","","","","",""
"4947","","image-button-response","216","1198323","0.0-211.0","A1JV2S5C8QHD1B","img_art/14.jpg","5","","","","","","","","","","","","","","","","","","","","","","","","",""
"1779","","image-button-response","217","1200104","0.0-212.0","A1JV2S5C8QHD1B","img_art/14.jpg","5","","","","","","","","","","","","","","","","","","","","","","","","",""
"1718","","image-button-response","218","1201825","0.0-213.0-0.0","A1JV2S5C8QHD1B","img_art/14.jpg","0","","","","","","","","","","","","","","","","","","","","","","","","",""
"1176","","image-button-response","219","1203004","0.0-214.0-0.0","A1JV2S5C8QHD1B","img_art/14.jpg","2","","","","","","","","","","","","","","","","","","","","","","","","",""
"null","","html-keyboard-response","220","1203512","0.0-215.0","A1JV2S5C8QHD1B","<p style=""font-size: 48px;"">+</p>","","","","","null","allTrialResponses","500","1","24","img_art/14.jpg","32","this is whimsical, pretty and calming, like a spring day with blue bonnets.","Richard,Timothy,Samuel,Austin,Malik,Mitchell","the colors are peaceful and nature colors, soft,37,340,20","Something about the cahotic imagery makes me uncomfortable,-15,240,20","tree of life brings hope,7,400,20","Love the abstractness of this painting,39,240,20","It's alright, something I'd see in a guest bedroom,10,40,20","Tornado, nature. trees falling and displaced creatures. Love the colors though.,1,180,20","Mitchell","Tornado, nature. trees falling and displaced creatures. Love the colors though.,1,180,20","Richard","the colors are peaceful and nature colors, soft,37,340,20","Samuel","tree of life brings hope,7,400,20","6"
"13986","","survey-text","221","1217505","0.0-216.0-0.0","A1JV2S5C8QHD1B","","","","{""Q0"":""interesting and mixed colors and styles make it pop out and get your attention.""}","","","","","","","","","","","","","","","","","","","","","","",""
"4046.899999976158","","image-slider-response","222","1221555","0.0-217.0","A1JV2S5C8QHD1B","","","","","12","","","","","","","","","","","","","","","","","","","","","",""
"2998","","image-button-response","223","1226564","0.0-218.0","A1JV2S5C8QHD1B","img_art/24.jpg","3","","","","","","","","","","","","","","","","","","","","","","","","",""
"917","","image-button-response","224","1227486","0.0-219.0","A1JV2S5C8QHD1B","img_art/24.jpg","3","","","","","","","","","","","","","","","","","","","","","","","","",""
"1317","","image-button-response","225","1228806","0.0-220.0-0.0","A1JV2S5C8QHD1B","img_art/24.jpg","1","","","","","","","","","","","","","","","","","","","","","","","","",""
"2535","","image-button-response","226","1231345","0.0-221.0-0.0","A1JV2S5C8QHD1B","img_art/24.jpg","2","","","","","","","","","","","","","","","","","","","","","","","","",""
"null","","html-keyboard-response","227","1232353","0.0-222.0","A1JV2S5C8QHD1B","<p style=""font-size: 48px;"">+</p>","","","","","null","allTrialResponses","1000","1","25","img_art/24.jpg","12","interesting and mixed colors and styles make it pop out and get your attention.","Richard,Christopher,Samuel,Peter,Kenneth,Mitchell","flowing water part is good, some of the rest is ok but dark,14,340,20","it's fine, the colors are pleasing, but not my taste,9,160,20","tranquility in the stream,34,400,20","Looks like a serene waterfall and woods,29,320,20","Cute; I like what the image itself & the colors.,25,300,20","Nature, Peace, connected.,50,180,20","Peter","Looks like a serene waterfall and woods,29,320,20","Christopher","it's fine, the colors are pleasing, but not my taste,9,160,20","Samuel","tranquility in the stream,34,400,20","6"
"3958","","survey-text","228","1236325","0.0-223.0-0.0","A1JV2S5C8QHD1B","","","","{""Q0"":""table""}","","","","","","","","","","","","","","","","","","","","","","",""
"13909","","survey-text","229","1250235","0.0-224.0-0.0","A1JV2S5C8QHD1B","","","","{""Q0"":""so pretty, like a pastel woods party in a dream.""}","","","","","","","","","","","","","","","","","","","","","","",""
"3666.5","","image-slider-response","230","1253905","0.0-225.0","A1JV2S5C8QHD1B","","","","","19","","","","","","","","","","","","","","","","","","","","","",""
"null","","image-button-response","231","1258923","0.0-226.0","A1JV2S5C8QHD1B","img_art/12.jpg","null","","","","","","","","","","","","","","","","","","","","","","","","",""
"589","","image-button-response","232","1259515","0.0-227.0","A1JV2S5C8QHD1B","img_art/12.jpg","3","","","","","","","","","","","","","","","","","","","","","","","","",""
"5197","","image-button-response","233","1264715","0.0-228.0-0.0","A1JV2S5C8QHD1B","img_art/12.jpg","5","","","","","","","","","","","","","","","","","","","","","","","","",""
"878","","image-button-response","234","1265595","0.0-229.0-0.0","A1JV2S5C8QHD1B","img_art/12.jpg","1","","","","","","","","","","","","","","","","","","","","","","","","",""
"null","","html-keyboard-response","235","1266100","0.0-230.0","A1JV2S5C8QHD1B","<p style=""font-size: 48px;"">+</p>","","","","","null","allTrialResponses","500","1","26","img_art/12.jpg","19","so pretty, like a pastel woods party in a dream.","Adrian,Christopher,Samuel,Peter,Kyle,Shane","Ugly colors and I'm just not too much a fan of cubist abstract art.,-50,60,20","i think it's a good piece but it doesn't appeal to me,-18,160,20","feels cluttered,-11,400,20","Reminds me Early 2000's decor, don't favor it,-10,320,20","It's just not my style,-18,340,20","Something you would see in a government building hallway,3,80,20","Peter","Reminds me Early 2000's decor, don't favor it,-10,320,20","Shane","Something you would see in a government building hallway,3,80,20","Christopher","i think it's a good piece but it doesn't appeal to me,-18,160,20","6"
"11927","","survey-text","236","1278034","0.0-231.0-0.0","A1JV2S5C8QHD1B","","","","{""Q0"":""wow, this is intriguing and peaceful yet also strange.""}","","","","","","","","","","","","","","","","","","","","","","",""
"3406.899999976158","","image-slider-response","237","1281444","0.0-232.0","A1JV2S5C8QHD1B","","","","","17","","","","","","","","","","","","","","","","","","","","","",""
"null","","image-button-response","238","1286453","0.0-233.0","A1JV2S5C8QHD1B","img_art/9.jpg","null","","","","","","","","","","","","","","","","","","","","","","","","",""
"1530","","image-button-response","239","1287985","0.0-234.0","A1JV2S5C8QHD1B","img_art/9.jpg","0","","","","","","","","","","","","","","","","","","","","","","","","",""
"1847","","image-button-response","240","1289835","0.0-235.0-0.0","A1JV2S5C8QHD1B","img_art/9.jpg","2","","","","","","","","","","","","","","","","","","","","","","","","",""
"1007","","image-button-response","241","1290845","0.0-236.0-0.0","A1JV2S5C8QHD1B","img_art/9.jpg","1","","","","","","","","","","","","","","","","","","","","","","","","",""
"null","","html-keyboard-response","242","1291863","0.0-237.0","A1JV2S5C8QHD1B","<p style=""font-size: 48px;"">+</p>","","","","","null","allTrialResponses","1000","1","27","img_art/9.jpg","17","wow, this is intriguing and peaceful yet also strange.","Zachary,Christopher,Brett,Peter,Jordan,Shane","It looks like a lady taking a peaceful nap on a blanket in the grass.,41,400,20","I really like the color balance but the image is odd,-5,160,20","Peaceful dreaming,40,360,20","Looks like a monster's teeth , unsettling,-18,320,20","Reminds me of a cave in a scary movie,-21,160,20","Angry beast mouth,-37,80,20","Zachary","It looks like a lady taking a peaceful nap on a blanket in the grass.,41,400,20","Brett","Peaceful dreaming,40,360,20","Christopher","I really like the color balance but the image is odd,-5,160,20","6"
"9624","","survey-text","243","1301494","0.0-238.0-0.0","A1JV2S5C8QHD1B","","","","{""Q0"":""i love the autumn smoky colors in this one.""}","","","","","","","","","","","","","","","","","","","","","","",""
"3917.300000011921","","image-slider-response","244","1305414","0.0-239.0","A1JV2S5C8QHD1B","","","","","37","","","","","","","","","","","","","","","","","","","","","",""
"null","","image-button-response","245","1310423","0.0-240.0","A1JV2S5C8QHD1B","img_art/27.jpg","null","","","","","","","","","","","","","","","","","","","","","","","","",""
"1671","","image-button-response","246","1312096","0.0-241.0","A1JV2S5C8QHD1B","img_art/27.jpg","3","","","","","","","","","","","","","","","","","","","","","","","","",""
"1327","","image-button-response","247","1313425","0.0-242.0-0.0","A1JV2S5C8QHD1B","img_art/27.jpg","4","","","","","","","","","","","","","","","","","","","","","","","","",""
"1387","","image-button-response","248","1314815","0.0-243.0-0.0","A1JV2S5C8QHD1B","img_art/27.jpg","5","","","","","","","","","","","","","","","","","","","","","","","","",""
"null","","html-keyboard-response","249","1315834","0.0-244.0","A1JV2S5C8QHD1B","<p style=""font-size: 48px;"">+</p>","","","","","null","allTrialResponses","1000","1","28","img_art/27.jpg","37","i love the autumn smoky colors in this one.","Zachary,Christopher,Brett,William,Shawn,Eric","Color story is boring in nature, and I feel nothing but boredom from this piece.,-20,400,20","i don't think i should like this one because it's a little chaotic and simple but I do,6,160,20","Soothing in the middle of some confusion,40,360,20","reminds me of fall,33,380,20","Like the movement of the lines and dripping paint.,30,100,20","This piece reminds me of a summer day.,30,100,20","William","reminds me of fall,33,380,20","Shawn","Like the movement of the lines and dripping paint.,30,100,20","Eric","This piece reminds me of a summer day.,30,100,20","6"
"8288","","survey-text","250","1324135","0.0-245.0-0.0","A1JV2S5C8QHD1B","","","","{""Q0"":""this one is so boring and plain""}","","","","","","","","","","","","","","","","","","","","","","",""
"6257.399999976158","","image-slider-response","251","1330395","0.0-246.0","A1JV2S5C8QHD1B","","","","","-48","","","","","","","","","","","","","","","","","","","","","",""
"null","","image-button-response","252","1335399","0.0-247.0","A1JV2S5C8QHD1B","img_art/7.jpg","null","","","","","","","","","","","","","","","","","","","","","","","","",""
"2645","","image-button-response","253","1338046","0.0-248.0","A1JV2S5C8QHD1B","img_art/7.jpg","1","","","","","","","","","","","","","","","","","","","","","","","","",""
"1027","","image-button-response","254","1339076","0.0-249.0-0.0","A1JV2S5C8QHD1B","img_art/7.jpg","2","","","","","","","","","","","","","","","","","","","","","","","","",""
"888","","image-button-response","255","1339967","0.0-250.0-0.0","A1JV2S5C8QHD1B","img_art/7.jpg","0","","","","","","","","","","","","","","","","","","","","","","","","",""
"null","","html-keyboard-response","256","1340969","0.0-251.0","A1JV2S5C8QHD1B","<p style=""font-size: 48px;"">+</p>","","","","","null","allTrialResponses","1000","1","29","img_art/7.jpg","-48","this one is so boring and plain","Aaron,Lucas,Noah,William,Shawn,Eric","It's kind of ugly but I like the texture.,10,20,20","Don't understand the meaning of this picture.,-30,380,20","elicits no real response,0,260,20","looks like a photograph,-4,380,20","Like the tactile quality,30,100,20","This piece is really simple but the colors and texture work well together.,20,100,20","Lucas","Don't understand the meaning of this picture.,-30,380,20","Noah","elicits no real response,0,260,20","Aaron","It's kind of ugly but I like the texture.,10,20,20","6"
"16319","","survey-text","257","1357296","0.0-252.0-0.0","A1JV2S5C8QHD1B","","","","{""Q0"":""the colors just seem so strange, yet it makes me happy, oddly.""}","","","","","","","","","","","","","","","","","","","","","","",""
"4317","","image-slider-response","258","1361616","0.0-253.0","A1JV2S5C8QHD1B","","","","","23","","","","","","","","","","","","","","","","","","","","","",""
"3257","","image-button-response","259","1366631","0.0-254.0","A1JV2S5C8QHD1B","img_art/2.jpg","1","","","","","","","","","","","","","","","","","","","","","","","","",""
"1181","","image-button-response","260","1367816","0.0-255.0","A1JV2S5C8QHD1B","img_art/2.jpg","4","","","","","","","","","","","","","","","","","","","","","","","","",""
"1657","","image-button-response","261","1369476","0.0-256.0-0.0","A1JV2S5C8QHD1B","img_art/2.jpg","5","","","","","","","","","","","","","","","","","","","","","","","","",""
"5986","","image-button-response","262","1375465","0.0-257.0-0.0","A1JV2S5C8QHD1B","img_art/2.jpg","5","","","","","","","","","","","","","","","","","","","","","","","","",""
"1037","","image-button-response","263","1379836","0.0-257.1-0.1","A1JV2S5C8QHD1B","img_art/2.jpg","1","","","","","","","","","","","","","","","","","","","","","","","","",""
"null","","html-keyboard-response","264","1380344","0.0-258.0","A1JV2S5C8QHD1B","<p style=""font-size: 48px;"">+</p>","","","","","null","allTrialResponses","500","1","30","img_art/2.jpg","23","the colors just seem so strange, yet it makes me happy, oddly.","Aaron,Lucas,Noah,Jorge,Carlos,Jonathan","The colors are pretty but I don't really like the shapes in it.,-20,20,20","Colorful, curious.,20,380,20","again, I struggle to see the art and I dislike the green in particular.,-31,260,20","Confused and disoriented,-33,180,20","The colors are soothing, but the composition feels thoughtless.,-11,80,20","It's a cool piece but honestly these color choices are the worst thing in the world,-31,140,20","Carlos","The colors are soothing, but the composition feels thoughtless.,-11,80,20","Jonathan","It's a cool piece but honestly these color choices are the worst thing in the world,-31,140,20","Lucas","Colorful, curious.,20,380,20","8"
"3234","","image-button-response_instructions","265","1383597","0.0-259.0","A1JV2S5C8QHD1B","","0","instructions","","","","","","","","","","","","","","","","","","","","","","","",""
"1599","","image-button-response","266","1385206","0.0-260.0","A1JV2S5C8QHD1B","","0","","","","","","","","","","","","","","","","","","","","","","","","",""
