"rt","url","trial_type","trial_index","time_elapsed","internal_node_id","participant_id","stimulus","button_pressed","Name","responses","response","key_press","variableName","fixationTime","condition","trial","photo","subjectRating","subjectResponse","agentsNames","agent_1_Response","agent_2_Response","agent_3_Response","agent_4_Response","agent_5_Response","agent_6_Response","kept_1_name","kept_1_response","kept_2_name","kept_2_response","kept_3_name","kept_3_response","errorCounter"
"81580","external_page_harvard.html","external-html","0","81845","0.0-0.0","A1K2R6FBPUA5TQ","","","","","","","","","","","","","","","","","","","","","","","","","","",""
"1871","","image-button-response","1","83717","0.0-1.0","A1K2R6FBPUA5TQ","","1","","","","","","","","","","","","","","","","","","","","","","","","",""
"1587","","image-button-response","2","85315","0.0-2.0-0.0","A1K2R6FBPUA5TQ","","1","phone","","","","","","","","","","","","","","","","","","","","","","","",""
"7259","","survey-text","3","92575","0.0-3.0-0.0","A1K2R6FBPUA5TQ","","","","{""Q0"":""A1K2R6FBPUA5TQ""}","","","","","","","","","","","","","","","","","","","","","","",""
"7690","","image-button-response_instructions","4","100267","0.0-4.0","A1K2R6FBPUA5TQ","","0","instructions","","","","","","","","","","","","","","","","","","","","","","","",""
"11650","","image-button-response_instructions","5","111922","0.0-5.0","A1K2R6FBPUA5TQ","img_art/ins/popularity/ins1.png","0","instructions","","","","","","","","","","","","","","","","","","","","","","","",""
"4029","","image-button-response_instructions","6","115956","0.0-6.0","A1K2R6FBPUA5TQ","img_art/ins/popularity/ins2.png","0","instructions","","","","","","","","","","","","","","","","","","","","","","","",""
"4941","","image-button-response_instructions","7","120900","0.0-7.0","A1K2R6FBPUA5TQ","img_art/ins/popularity/ins2Extreme.png","0","instructions","","","","","","","","","","","","","","","","","","","","","","","",""
"9233","","image-button-response_instructions","8","130137","0.0-8.0","A1K2R6FBPUA5TQ","img_art/ins/popularity/ins3KEEPpop.PNG","0","instructions","","","","","","","","","","","","","","","","","","","","","","","",""
"3630","","image-button-response_instructions","9","133771","0.0-9.0","A1K2R6FBPUA5TQ","img_art/ins/popularity/ins3ANamepop.PNG","0","instructions","","","","","","","","","","","","","","","","","","","","","","","",""
"3518","","image-button-response_instructions","10","137292","0.0-10.0","A1K2R6FBPUA5TQ","img_art/ins/popularity/ins3ARatingpop.png","0","instructions","","","","","","","","","","","","","","","","","","","","","","","",""
"3000","","image-button-response_instructions","11","140296","0.0-11.0","A1K2R6FBPUA5TQ","img_art/ins/popularity/ins3ATextpop.png","0","instructions","","","","","","","","","","","","","","","","","","","","","","","",""
"6196","","image-button-response_instructions","12","146495","0.0-12.0","A1K2R6FBPUA5TQ","img_art/ins/popularity/ins3ALikespop.png","0","instructions","","","","","","","","","","","","","","","","","","","","","","","",""
"9121","","image-button-response_instructions","13","155619","0.0-13.0","A1K2R6FBPUA5TQ","img_art/ins/popularity/ins3KEEPpop.PNG","0","instructions","","","","","","","","","","","","","","","","","","","","","","","",""
"6871","","image-button-response_instructions","14","162493","0.0-14.0","A1K2R6FBPUA5TQ","img_art/ins/popularity/ins3_5RED.png","0","instructions","","","","","","","","","","","","","","","","","","","","","","","",""
"4085","","image-button-response_instructions","15","166582","0.0-15.0","A1K2R6FBPUA5TQ","img_art/ins/popularity/ins3KEEPpop.PNG","0","instructions","","","","","","","","","","","","","","","","","","","","","","","",""
"6810","","image-button-response_instructions","16","173395","0.0-16.0","A1K2R6FBPUA5TQ","img_art/ins/popularity/ins4KEEPpop.PNG","0","instructions","","","","","","","","","","","","","","","","","","","","","","","",""
"4107","","image-button-response_instructions","17","177506","0.0-17.0","A1K2R6FBPUA5TQ","img_art/ins/popularity/ins5KEEPpop.PNG","0","instructions","","","","","","","","","","","","","","","","","","","","","","","",""
"2132","","image-button-response_instructions","18","179639","0.0-18.0","A1K2R6FBPUA5TQ","","0","instructions","","","","","","","","","","","","","","","","","","","","","","","",""
"6298","","survey-text","19","185962","0.0-19.0-0.0","A1K2R6FBPUA5TQ","","","","{""Q0"":""but""}","","","","","","","","","","","","","","","","","","","","","","",""
"8310","","survey-text","20","194276","0.0-20.0-0.0","A1K2R6FBPUA5TQ","","","","{""Q0"":""messy colors""}","","","","","","","","","","","","","","","","","","","","","","",""
"5035.000000000029","","image-slider-response","21","199317","0.0-21.0","A1K2R6FBPUA5TQ","","","","","-13","","","","","","","","","","","","","","","","","","","","","",""
"null","","image-button-response","22","204322","0.0-22.0","A1K2R6FBPUA5TQ","img_art/ins/1.jpg","null","","","","","","","","","","","","","","","","","","","","","","","","",""
"6658","","image-button-response","23","210983","0.0-23.0","A1K2R6FBPUA5TQ","img_art/ins/1.jpg","3","","","","","","","","","","","","","","","","","","","","","","","","",""
"8106","","image-button-response","24","219095","0.0-24.0-0.0","A1K2R6FBPUA5TQ","img_art/ins/1.jpg","2","","","","","","","","","","","","","","","","","","","","","","","","",""
"3939","","image-button-response","25","223044","0.0-25.0-0.0","A1K2R6FBPUA5TQ","img_art/ins/1.jpg","1","","","","","","","","","","","","","","","","","","","","","","","","",""
"null","","html-keyboard-response","26","224546","0.0-26.0","A1K2R6FBPUA5TQ","<p style=""font-size: 48px;"">+</p>","","","","","null","allTrialResponses","1500","1","-2","img_art/ins/1.jpg","-13","messy colors","Allison,Ashley,Beth,Dora,Erika,Jen","looks like a lot of things going on in the mist,20,20,20","I just don't get why these type of art would be popular,-32,40,20","This color reminds me of poo,-46,60,20","looks like what my niece in 3rd grade did this afternoon,-50,80,20","I like the sophisticated brushwork,40,100,20","It reminds me of a candy land dream I had,36,120,20","Dora","looks like what my niece in 3rd grade did this afternoon,-50,80,20","Beth","This color reminds me of poo,-46,60,20","Ashley","I just don't get why these type of art would be popular,-32,40,20","0"
"28978","","survey-text","27","253533","0.0-27.0-0.0","A1K2R6FBPUA5TQ","","","","{""Q0"":""Looks like random blobs of paint from a 5 year old.""}","","","","","","","","","","","","","","","","","","","","","","",""
"3956.000000000058","","image-slider-response","28","257493","0.0-28.0","A1K2R6FBPUA5TQ","","","","","-22","","","","","","","","","","","","","","","","","","","","","",""
"3394","","image-button-response","29","262498","0.0-29.0","A1K2R6FBPUA5TQ","img_art/ins/2.jpg","1","","","","","","","","","","","","","","","","","","","","","","","","",""
"1168","","image-button-response","30","263669","0.0-30.0","A1K2R6FBPUA5TQ","img_art/ins/2.jpg","1","","","","","","","","","","","","","","","","","","","","","","","","",""
"6733","","image-button-response","31","270409","0.0-31.0-0.0","A1K2R6FBPUA5TQ","img_art/ins/2.jpg","3","","","","","","","","","","","","","","","","","","","","","","","","",""
"3287","","image-button-response","32","273706","0.0-32.0-0.0","A1K2R6FBPUA5TQ","img_art/ins/2.jpg","5","","","","","","","","","","","","","","","","","","","","","","","","",""
"null","","html-keyboard-response","33","274707","0.0-33.0","A1K2R6FBPUA5TQ","<p style=""font-size: 48px;"">+</p>","","","","","null","allTrialResponses","1000","1","-1","img_art/ins/2.jpg","-22","Looks like random blobs of paint from a 5 year old.","Jenna,Ashley,Beth,Dora,Kara,Katie","One of my pet peevs,-48,140,20","Idk, it is just annoying,-32,40,20","meaningless painting,-45,60,20","looks too angry,-50,80,20","I like the blocks of color arrangements,30,160,20","too much color!,-28,180,20","Ashley","Idk, it is just annoying,-32,40,20","Dora","looks too angry,-50,80,20","Katie","too much color!,-28,180,20","0"
"10385","","survey-text","34","285102","0.0-34.0-0.0","A1K2R6FBPUA5TQ","","","","{""Q0"":""Reminds me of Winter.""}","","","","","","","","","","","","","","","","","","","","","","",""
"9817","","image-slider-response","35","294923","0.0-35.0","A1K2R6FBPUA5TQ","","","","","-11","","","","","","","","","","","","","","","","","","","","","",""
"null","","image-button-response","36","299928","0.0-36.0","A1K2R6FBPUA5TQ","img_art/ins/3.jpg","null","","","","","","","","","","","","","","","","","","","","","","","","",""
"3835","","image-button-response","37","303766","0.0-37.0","A1K2R6FBPUA5TQ","img_art/ins/3.jpg","1","","","","","","","","","","","","","","","","","","","","","","","","",""
"4404","","image-button-response","38","308177","0.0-38.0-0.0","A1K2R6FBPUA5TQ","img_art/ins/3.jpg","2","","","","","","","","","","","","","","","","","","","","","","","","",""
"3827","","image-button-response","39","312013","0.0-39.0-0.0","A1K2R6FBPUA5TQ","img_art/ins/3.jpg","0","","","","","","","","","","","","","","","","","","","","","","","","",""
"null","","html-keyboard-response","40","312515","0.0-40.0","A1K2R6FBPUA5TQ","<p style=""font-size: 48px;"">+</p>","","","","","null","allTrialResponses","500","1","0","img_art/ins/3.jpg","-11","Reminds me of Winter.","Leslie,Ashley,Rose,Dora,Mary,Katie","It's an alright work,15,200,20","It looks like a playground for bats,-36,40,20","My daily routine, it's depressing,-20,240,20","My worst nightmare,-42,80,20","I like the overlapping of brushes,41,220,20","It looks depressing,-26,180,20","Ashley","It looks like a playground for bats,-36,40,20","Rose","My daily routine, it's depressing,-20,240,20","Leslie","It's an alright work,15,200,20","0"
"3935","","image-button-response_instructions","41","316457","0.0-41.0","A1K2R6FBPUA5TQ","","0","instructions","","","","","","","","","","","","","","","","","","","","","","","",""
"8956","","survey-likert","42","325414","0.0-42.0-0.0","A1K2R6FBPUA5TQ","","","","{""Q0"":"""",""Q1"":0,""Q2"":1}","","","","","","","","","","","","","","","","","","","","","","",""
"4762","","survey-text","43","330187","0.0-43.0-0.0","A1K2R6FBPUA5TQ","","","","{""Q0"":""rock""}","","","","","","","","","","","","","","","","","","","","","","",""
"26374","","survey-text","44","356565","0.0-44.0-0.0","A1K2R6FBPUA5TQ","","","","{""Q0"":""Looks like a messy painting by a child.""}","","","","","","","","","","","","","","","","","","","","","","",""
"5310.999999999942","","image-slider-response","45","361880","0.0-45.0","A1K2R6FBPUA5TQ","","","","","-19","","","","","","","","","","","","","","","","","","","","","",""
"null","","image-button-response","46","366908","0.0-46.0","A1K2R6FBPUA5TQ","img_art/1.jpg","null","","","","","","","","","","","","","","","","","","","","","","","","",""
"41259","","image-button-response","47","408171","0.0-47.0","A1K2R6FBPUA5TQ","img_art/1.jpg","3","","","","","","","","","","","","","","","","","","","","","","","","",""
"3909","","image-button-response","48","412087","0.0-48.0-0.0","A1K2R6FBPUA5TQ","img_art/1.jpg","0","","","","","","","","","","","","","","","","","","","","","","","","",""
"3379","","image-button-response","49","415473","0.0-49.0-0.0","A1K2R6FBPUA5TQ","img_art/1.jpg","1","","","","","","","","","","","","","","","","","","","","","","","","",""
"null","","html-keyboard-response","50","416474","0.0-50.0","A1K2R6FBPUA5TQ","<p style=""font-size: 48px;"">+</p>","","","","","null","allTrialResponses","1000","1","1","img_art/1.jpg","-19","Looks like a messy painting by a child.","Breanna,Nicole,Mariah,Courtney,Grace,Emma","Makes me feel confused,-6,380,20","I love the colors but it's too intense sometimes,22,20,20","Colors are pleasant, but feels incredibly generic.,9,140,20","I cant make anything of this one.,-7,280,20","Again, like the colors & abstractness.,29,180,20","Pretty, nice use of color,40,60,20","Courtney","I cant make anything of this one.,-7,280,20","Breanna","Makes me feel confused,-6,380,20","Nicole","I love the colors but it's too intense sometimes,22,20,20","0"
"18971","","survey-text","51","435454","0.0-51.0-0.0","A1K2R6FBPUA5TQ","","","","{""Q0"":""People in a crazy party.""}","","","","","","","","","","","","","","","","","","","","","","",""
"3213","","image-slider-response","52","438671","0.0-52.0","A1K2R6FBPUA5TQ","","","","","13","","","","","","","","","","","","","","","","","","","","","",""
"null","","image-button-response","53","443676","0.0-53.0","A1K2R6FBPUA5TQ","img_art/23.jpg","null","","","","","","","","","","","","","","","","","","","","","","","","",""
"139003","","image-button-response","54","582683","0.0-54.0","A1K2R6FBPUA5TQ","img_art/23.jpg","4","","","","","","","","","","","","","","","","","","","","","","","","",""
"4388","","image-button-response","55","587077","0.0-55.0-0.0","A1K2R6FBPUA5TQ","img_art/23.jpg","2","","","","","","","","","","","","","","","","","","","","","","","","",""
"2432","","image-button-response","56","589519","0.0-56.0-0.0","A1K2R6FBPUA5TQ","img_art/23.jpg","1","","","","","","","","","","","","","","","","","","","","","","","","",""
"null","","html-keyboard-response","57","591021","0.0-57.0","A1K2R6FBPUA5TQ","<p style=""font-size: 48px;"">+</p>","","","","","null","allTrialResponses","1500","1","2","img_art/23.jpg","13","People in a crazy party.","Breanna,Nicole,Crystal,Courtney,Stephanie,Bailey","Makes me worried,10,380,20","Those colors are awesome! And I love the strip of negative space that almost looks like a line of people,50,20,20","I love the funky colors accompanied by perhaps dancing silhouettes. I love the white against the chaotic surroundings.,50,300,20","Looks like fish fossils,12,280,20","This makes me think of an orchestra playing a forth of july song,12,300,20","Not a fan of these dot pieces. They hurt my eyes.,-25,360,20","Stephanie","This makes me think of an orchestra playing a forth of july song,12,300,20","Crystal","I love the funky colors accompanied by perhaps dancing silhouettes. I love the white against the chaotic surroundings.,50,300,20","Nicole","Those colors are awesome! And I love the strip of negative space that almost looks like a line of people,50,20,20","0"
"21700","","survey-text","58","612729","0.0-58.0-0.0","A1K2R6FBPUA5TQ","","","","{""Q0"":""Looks like a finger painting a three year old did.""}","","","","","","","","","","","","","","","","","","","","","","",""
"3877","","image-slider-response","59","616610","0.0-59.0","A1K2R6FBPUA5TQ","","","","","-18","","","","","","","","","","","","","","","","","","","","","",""
"3202","","image-button-response","60","621615","0.0-60.0","A1K2R6FBPUA5TQ","img_art/30.jpg","4","","","","","","","","","","","","","","","","","","","","","","","","",""
"583","","image-button-response","61","622202","0.0-61.0","A1K2R6FBPUA5TQ","img_art/30.jpg","4","","","","","","","","","","","","","","","","","","","","","","","","",""
"19109","","image-button-response","62","641316","0.0-62.0-0.0","A1K2R6FBPUA5TQ","img_art/30.jpg","5","","","","","","","","","","","","","","","","","","","","","","","","",""
"5177","","image-button-response","63","646503","0.0-63.0-0.0","A1K2R6FBPUA5TQ","img_art/30.jpg","2","","","","","","","","","","","","","","","","","","","","","","","","",""
"null","","html-keyboard-response","64","647505","0.0-64.0","A1K2R6FBPUA5TQ","<p style=""font-size: 48px;"">+</p>","","","","","null","allTrialResponses","1000","1","3","img_art/30.jpg","-18","Looks like a finger painting a three year old did.","Brianna,Nicole,Crystal,Alexandra,Stephanie,Jessica","I like the fact that it's a painting.,21,20,20","I like the softness of this but it doesn't make me feel that nice,5,20,20","An interesting design but don't like the colors. I value the time and effort put into it, but not a huge fan.,10,300,20","I really love the pastel colors and the 3D design in this,43,60,20","My kindergarten class could do this,-50,300,20","Looks cool , but no meaning,1,400,20","Stephanie","My kindergarten class could do this,-50,300,20","Jessica","Looks cool , but no meaning,1,400,20","Crystal","An interesting design but don't like the colors. I value the time and effort put into it, but not a huge fan.,10,300,20","0"
"31044","","survey-text","65","678556","0.0-65.0-0.0","A1K2R6FBPUA5TQ","","","","{""Q0"":""It looks like something is happening underneath the blobs of colors but I don't know what.""}","","","","","","","","","","","","","","","","","","","","","","",""
"4530","","image-slider-response","66","683090","0.0-66.0","A1K2R6FBPUA5TQ","","","","","8","","","","","","","","","","","","","","","","","","","","","",""
"null","","image-button-response","67","688094","0.0-67.0","A1K2R6FBPUA5TQ","img_art/2.jpg","null","","","","","","","","","","","","","","","","","","","","","","","","",""
"1393","","image-button-response","68","689491","0.0-68.0","A1K2R6FBPUA5TQ","img_art/2.jpg","5","","","","","","","","","","","","","","","","","","","","","","","","",""
"3538","","image-button-response","69","693035","0.0-69.0-0.0","A1K2R6FBPUA5TQ","img_art/2.jpg","1","","","","","","","","","","","","","","","","","","","","","","","","",""
"2456","","image-button-response","70","695499","0.0-70.0-0.0","A1K2R6FBPUA5TQ","img_art/2.jpg","0","","","","","","","","","","","","","","","","","","","","","","","","",""
"null","","html-keyboard-response","71","697001","0.0-71.0","A1K2R6FBPUA5TQ","<p style=""font-size: 48px;"">+</p>","","","","","null","allTrialResponses","1500","1","4","img_art/2.jpg","8","It looks like something is happening underneath the blobs of colors but I don't know what.","Taylor,Jacqueline,Crystal,Rachel,Stephanie,Jessica","Doesn't give me a reaction,10,340,20","A bit ugly with the greens.,-20,300,20","Looks contrived and like someone tried to hard to make it abstract,-31,300,20","I am not a fan of the color story. I am confused by the piece and therefore do not like it.,-21,80,20","The colors are what I like. It looks like a smiling face too.,32,300,20","I don't get the meaning of this piece either.,-13,400,20","Jessica","I don't get the meaning of this piece either.,-13,400,20","Jacqueline","A bit ugly with the greens.,-20,300,20","Taylor","Doesn't give me a reaction,10,340,20","0"
"17784","","survey-text","72","714794","0.0-72.0-0.0","A1K2R6FBPUA5TQ","","","","{""Q0"":""Reminds me of a bustling city street.""}","","","","","","","","","","","","","","","","","","","","","","",""
"5721.999999999884","","image-slider-response","73","720520","0.0-73.0","A1K2R6FBPUA5TQ","","","","","20","","","","","","","","","","","","","","","","","","","","","",""
"4440","","image-button-response","74","725525","0.0-74.0","A1K2R6FBPUA5TQ","img_art/11.jpg","3","","","","","","","","","","","","","","","","","","","","","","","","",""
"1730","","image-button-response","75","727259","0.0-75.0","A1K2R6FBPUA5TQ","img_art/11.jpg","4","","","","","","","","","","","","","","","","","","","","","","","","",""
"804","","image-button-response","76","728069","0.0-76.0-0.0","A1K2R6FBPUA5TQ","img_art/11.jpg","5","","","","","","","","","","","","","","","","","","","","","","","","",""
"644","","image-button-response","77","728722","0.0-77.0-0.0","A1K2R6FBPUA5TQ","img_art/11.jpg","3","","","","","","","","","","","","","","","","","","","","","","","","",""
"null","","html-keyboard-response","78","729223","0.0-78.0","A1K2R6FBPUA5TQ","<p style=""font-size: 48px;"">+</p>","","","","","null","allTrialResponses","500","1","5","img_art/11.jpg","20","Reminds me of a bustling city street.","Taylor,Jacqueline,Mikayla,Julia,Heather,Jessica","It's a really cool painting, but it reminds me of bad traffic,-20,340,20","It's too dark and dingy.,-30,300,20","Scary again. Not a fan.,-23,300,20","this looks like a beautiful rainy day in a hellish urban mountain city,14,40,20","looks like highways and homes and lives intertwining.,27,260,20","This looks cool, and definitely comes to life in a way,36,400,20","Heather","looks like highways and homes and lives intertwining.,27,260,20","Jessica","This looks cool, and definitely comes to life in a way,36,400,20","Julia","this looks like a beautiful rainy day in a hellish urban mountain city,14,40,20","0"
"4114","","survey-text","79","733348","0.0-79.0-0.0","A1K2R6FBPUA5TQ","","","","{""Q0"":""sky""}","","","","","","","","","","","","","","","","","","","","","","",""
"34849","","survey-text","80","768200","0.0-80.0-0.0","A1K2R6FBPUA5TQ","","","","{""Q0"":""Either God or nature is watching over a city. Very cool.""}","","","","","","","","","","","","","","","","","","","","","","",""
"8040","","image-slider-response","81","776244","0.0-81.0","A1K2R6FBPUA5TQ","","","","","30","","","","","","","","","","","","","","","","","","","","","",""
"null","","image-button-response","82","781249","0.0-82.0","A1K2R6FBPUA5TQ","img_art/8.jpg","null","","","","","","","","","","","","","","","","","","","","","","","","",""
"10146","","image-button-response","83","791399","0.0-83.0","A1K2R6FBPUA5TQ","img_art/8.jpg","1","","","","","","","","","","","","","","","","","","","","","","","","",""
"1625","","image-button-response","84","793030","0.0-84.0-0.0","A1K2R6FBPUA5TQ","img_art/8.jpg","0","","","","","","","","","","","","","","","","","","","","","","","","",""
"2671","","image-button-response","85","795707","0.0-85.0-0.0","A1K2R6FBPUA5TQ","img_art/8.jpg","0","","","","","","","","","","","","","","","","","","","","","","","","",""
"10683","","image-button-response","86","810763","0.0-85.1-0.1","A1K2R6FBPUA5TQ","img_art/8.jpg","4","","","","","","","","","","","","","","","","","","","","","","","","",""
"null","","html-keyboard-response","87","812264","0.0-86.0","A1K2R6FBPUA5TQ","<p style=""font-size: 48px;"">+</p>","","","","","null","allTrialResponses","1500","1","6","img_art/8.jpg","30","Either God or nature is watching over a city. Very cool.","Alexandria,Jordan,Autumn,Julia,Heather,Jessica","It is very colorful with a deeper meaning,25,80,20","very nice, i love what's going on here,21,20,20","Well painted. Not my style.,27,340,20","it's a little too classical for my tastes,-25,40,20","woman looking over a the community,1,260,20","Very cool! I like this piece,9,400,20","Jordan","very nice, i love what's going on here,21,20,20","Alexandria","It is very colorful with a deeper meaning,25,80,20","Heather","woman looking over a the community,1,260,20","2"
"20146","","survey-text","88","832420","0.0-87.0-0.0","A1K2R6FBPUA5TQ","","","","{""Q0"":""Looks gross, like blood is dripping everywhere.""}","","","","","","","","","","","","","","","","","","","","","","",""
"7993","","image-slider-response","89","840417","0.0-88.0","A1K2R6FBPUA5TQ","","","","","-35","","","","","","","","","","","","","","","","","","","","","",""
"4373","","image-button-response","90","845863","0.0-89.0","A1K2R6FBPUA5TQ","img_art/3.jpg","2","","","","","","","","","","","","","","","","","","","","","","","","",""
"1495","","image-button-response","91","847362","0.0-90.0","A1K2R6FBPUA5TQ","img_art/3.jpg","2","","","","","","","","","","","","","","","","","","","","","","","","",""
"6801","","image-button-response","92","854168","0.0-91.0-0.0","A1K2R6FBPUA5TQ","img_art/3.jpg","5","","","","","","","","","","","","","","","","","","","","","","","","",""
"5055","","image-button-response","93","859232","0.0-92.0-0.0","A1K2R6FBPUA5TQ","img_art/3.jpg","3","","","","","","","","","","","","","","","","","","","","","","","","",""
"null","","html-keyboard-response","94","860235","0.0-93.0","A1K2R6FBPUA5TQ","<p style=""font-size: 48px;"">+</p>","","","","","null","allTrialResponses","1000","1","7","img_art/3.jpg","-35","Looks gross, like blood is dripping everywhere.","Alexandria,Jordan,Shannon,Claire,Heather,Anna","it makes me feel really angry,-20,80,20","i don't like this, just looks like scribbles,-50,20,20","I can't tell what this image is supposed to be it looks extremely ugly and color variety is boring.,-50,220,20","looks like a kid scribbled with crayon,-35,260,20","Blood splatter and one black spot.,1,260,20","Definition of mediocre abstract art,-12,300,20","Shannon","I can't tell what this image is supposed to be it looks extremely ugly and color variety is boring.,-50,220,20","Anna","Definition of mediocre abstract art,-12,300,20","Claire","looks like a kid scribbled with crayon,-35,260,20","2"
"36599","","survey-text","95","896842","0.0-94.0-0.0","A1K2R6FBPUA5TQ","","","","{""Q0"":""Flowers trying to grow, but too much black makes it look depressing.""}","","","","","","","","","","","","","","","","","","","","","","",""
"5339.999999999884","","image-slider-response","96","902186","0.0-95.0","A1K2R6FBPUA5TQ","","","","","-6","","","","","","","","","","","","","","","","","","","","","",""
"2888","","image-button-response","97","907190","0.0-96.0","A1K2R6FBPUA5TQ","img_art/15.jpg","2","","","","","","","","","","","","","","","","","","","","","","","","",""
"1641","","image-button-response","98","908835","0.0-97.0","A1K2R6FBPUA5TQ","img_art/15.jpg","2","","","","","","","","","","","","","","","","","","","","","","","","",""
"3416","","image-button-response","99","912257","0.0-98.0-0.0","A1K2R6FBPUA5TQ","img_art/15.jpg","0","","","","","","","","","","","","","","","","","","","","","","","","",""
"8801","","image-button-response","100","921064","0.0-99.0-0.0","A1K2R6FBPUA5TQ","img_art/15.jpg","4","","","","","","","","","","","","","","","","","","","","","","","","",""
"null","","html-keyboard-response","101","922566","0.0-100.0","A1K2R6FBPUA5TQ","<p style=""font-size: 48px;"">+</p>","","","","","null","allTrialResponses","1500","1","8","img_art/15.jpg","-6","Flowers trying to grow, but too much black makes it look depressing.","Cassandra,Marissa,Shannon,Claire,Madison,Anna","Hate it...black dots.,-47,120,20","I am reminded of spring flowers swaying in the dark night's breeze,9,160,20","Not enough colors to make it interesting and doesn't look like anything is happening.,-20,220,20","it's alright but a little cluttered,14,260,20","I am starting to feel description fatigue. This would be pleasant enough in a doctor's office waiting room.,15,60,20","I like how it's simple but beautiful.,40,300,20","Shannon","Not enough colors to make it interesting and doesn't look like anything is happening.,-20,220,20","Cassandra","Hate it...black dots.,-47,120,20","Madison","I am starting to feel description fatigue. This would be pleasant enough in a doctor's office waiting room.,15,60,20","2"
"41330","","survey-text","102","963907","0.0-101.0-0.0","A1K2R6FBPUA5TQ","","","","{""Q0"":""Looks like a pretty city at sunset with a bubble for some reason.""}","","","","","","","","","","","","","","","","","","","","","","",""
"7500","","image-slider-response","103","971411","0.0-102.0","A1K2R6FBPUA5TQ","","","","","15","","","","","","","","","","","","","","","","","","","","","",""
"null","","image-button-response","104","976417","0.0-103.0","A1K2R6FBPUA5TQ","img_art/22.jpg","null","","","","","","","","","","","","","","","","","","","","","","","","",""
"98","","image-button-response","105","976518","0.0-104.0","A1K2R6FBPUA5TQ","img_art/22.jpg","4","","","","","","","","","","","","","","","","","","","","","","","","",""
"10873","","image-button-response","106","987398","0.0-105.0-0.0","A1K2R6FBPUA5TQ","img_art/22.jpg","2","","","","","","","","","","","","","","","","","","","","","","","","",""
"3040","","image-button-response","107","990446","0.0-106.0-0.0","A1K2R6FBPUA5TQ","img_art/22.jpg","3","","","","","","","","","","","","","","","","","","","","","","","","",""
"null","","html-keyboard-response","108","991948","0.0-107.0","A1K2R6FBPUA5TQ","<p style=""font-size: 48px;"">+</p>","","","","","null","allTrialResponses","1500","1","9","img_art/22.jpg","15","Looks like a pretty city at sunset with a bubble for some reason.","Cassandra,Amy,Shannon,Hannah,Madison,Erin","Don't like it...too much red,-17,120,20","I appreciate the shapes but the abundance of primary colors make it seem garrish.,-10,220,20","I think this picture looks interesting because of the way the colors work together.,20,220,20","This one would work in the right frame. It's nice.,20,240,20","Like the colors, and the even blur. The more I look, the more a story forms. A very narrative image.,18,60,20","Seems dated with geometic forms,-20,120,20","Madison","Like the colors, and the even blur. The more I look, the more a story forms. A very narrative image.,18,60,20","Shannon","I think this picture looks interesting because of the way the colors work together.,20,220,20","Hannah","This one would work in the right frame. It's nice.,20,240,20","2"
"25785","","survey-text","109","1017742","0.0-108.0-0.0","A1K2R6FBPUA5TQ","","","","{""Q0"":""Reminds me of a strange Adult Swim show.""}","","","","","","","","","","","","","","","","","","","","","","",""
"6347.999999999884","","image-slider-response","110","1024097","0.0-109.0","A1K2R6FBPUA5TQ","","","","","-15","","","","","","","","","","","","","","","","","","","","","",""
"null","","image-button-response","111","1029102","0.0-110.0","A1K2R6FBPUA5TQ","img_art/28.jpg","null","","","","","","","","","","","","","","","","","","","","","","","","",""
"16954","","image-button-response","112","1046059","0.0-111.0","A1K2R6FBPUA5TQ","img_art/28.jpg","5","","","","","","","","","","","","","","","","","","","","","","","","",""
"2422","","image-button-response","113","1048488","0.0-112.0-0.0","A1K2R6FBPUA5TQ","img_art/28.jpg","2","","","","","","","","","","","","","","","","","","","","","","","","",""
"1117","","image-button-response","114","1049613","0.0-113.0-0.0","A1K2R6FBPUA5TQ","img_art/28.jpg","3","","","","","","","","","","","","","","","","","","","","","","","","",""
"null","","html-keyboard-response","115","1050615","0.0-114.0","A1K2R6FBPUA5TQ","<p style=""font-size: 48px;"">+</p>","","","","","null","allTrialResponses","1000","1","10","img_art/28.jpg","-15","Reminds me of a strange Adult Swim show.","Gabriela,Cheyenne,Shannon,Hannah,Madison,Amber","The brown and green colors used look dull and unappealing,-30,140,20","Good use of shapes.,7,200,20","I don't like the way the colors look; I think very disgusting colors were used.,-20,220,20","The colors are drab and a little depressing.,-20,240,20","It's okay. There is harmony and balance.,11,60,20","Colors are too dull.,-30,200,20","Amber","Colors are too dull.,-30,200,20","Shannon","I don't like the way the colors look; I think very disgusting colors were used.,-20,220,20","Hannah","The colors are drab and a little depressing.,-20,240,20","2"
"4829","","survey-text","116","1055457","0.0-115.0-0.0","A1K2R6FBPUA5TQ","","","","{""Q0"":""our""}","","","","","","","","","","","","","","","","","","","","","","",""
"34003","","survey-text","117","1089463","0.0-116.0-0.0","A1K2R6FBPUA5TQ","","","","{""Q0"":""Someone digging gold? Not sure what this is supposed to be.""}","","","","","","","","","","","","","","","","","","","","","","",""
"13878","","image-slider-response","118","1103346","0.0-117.0","A1K2R6FBPUA5TQ","","","","","-10","","","","","","","","","","","","","","","","","","","","","",""
"2089","","image-button-response","119","1108351","0.0-118.0","A1K2R6FBPUA5TQ","img_art/5.jpg","5","","","","","","","","","","","","","","","","","","","","","","","","",""
"403","","image-button-response","120","1108757","0.0-119.0","A1K2R6FBPUA5TQ","img_art/5.jpg","5","","","","","","","","","","","","","","","","","","","","","","","","",""
"1141","","image-button-response","121","1109905","0.0-120.0-0.0","A1K2R6FBPUA5TQ","img_art/5.jpg","3","","","","","","","","","","","","","","","","","","","","","","","","",""
"3031","","image-button-response","122","1112944","0.0-121.0-0.0","A1K2R6FBPUA5TQ","img_art/5.jpg","2","","","","","","","","","","","","","","","","","","","","","","","","",""
"null","","html-keyboard-response","123","1113447","0.0-122.0","A1K2R6FBPUA5TQ","<p style=""font-size: 48px;"">+</p>","","","","","null","allTrialResponses","500","1","11","img_art/5.jpg","-10","Someone digging gold? Not sure what this is supposed to be.","Meghan,Shelby,Shannon,Hannah,Vanessa,Amber","I like it but I don't know why,15,220,20","This feels joyful,39,240,20","I don't know what it's supposed to be and it looks ugly the way the colors are on the yellow cube.,-50,220,20","Very basic, but at least has some color to it.,-9,240,20","The yellow is garish and the picture doesn't look liked anything.,-49,380,20","Missing something,-5,200,20","Amber","Missing something,-5,200,20","Hannah","Very basic, but at least has some color to it.,-9,240,20","Shannon","I don't know what it's supposed to be and it looks ugly the way the colors are on the yellow cube.,-50,220,20","2"
"44547","","survey-text","124","1158002","0.0-123.0-0.0","A1K2R6FBPUA5TQ","","","","{""Q0"":""Looks like a basic tree and flowers. Very dull.""}","","","","","","","","","","","","","","","","","","","","","","",""
"3223","","image-slider-response","125","1161230","0.0-124.0","A1K2R6FBPUA5TQ","","","","","-9","","","","","","","","","","","","","","","","","","","","","",""
"2448","","image-button-response","126","1166235","0.0-125.0","A1K2R6FBPUA5TQ","img_art/14.jpg","3","","","","","","","","","","","","","","","","","","","","","","","","",""
"3091","","image-button-response","127","1169330","0.0-126.0","A1K2R6FBPUA5TQ","img_art/14.jpg","3","","","","","","","","","","","","","","","","","","","","","","","","",""
"3729","","image-button-response","128","1173066","0.0-127.0-0.0","A1K2R6FBPUA5TQ","img_art/14.jpg","5","","","","","","","","","","","","","","","","","","","","","","","","",""
"970","","image-button-response","129","1174044","0.0-128.0-0.0","A1K2R6FBPUA5TQ","img_art/14.jpg","1","","","","","","","","","","","","","","","","","","","","","","","","",""
"null","","html-keyboard-response","130","1174546","0.0-129.0","A1K2R6FBPUA5TQ","<p style=""font-size: 48px;"">+</p>","","","","","null","allTrialResponses","500","1","12","img_art/14.jpg","-9","Looks like a basic tree and flowers. Very dull.","Danielle,Alicia,Shannon,Hannah,Kaitlin,Amber","Too much yellow in this image, i'm not a fan of art that is overly-saturated with yellow,-30,340,20","ok, gloomy though.,12,120,20","I like this picture because it looks like a tree and the colors used look cool.,20,220,20","This doesn't speak to me on an emotional level,-6,240,20","this would make a very beautiful art project,22,60,20","Reminds me of the outdoors.,12,200,20","Hannah","This doesn't speak to me on an emotional level,-6,240,20","Amber","Reminds me of the outdoors.,12,200,20","Alicia","ok, gloomy though.,12,120,20","2"
"63178","","survey-text","131","1237734","0.0-130.0-0.0","A1K2R6FBPUA5TQ","","","","{""Q0"":""Very strange collage.""}","","","","","","","","","","","","","","","","","","","","","","",""
"2988","","image-slider-response","132","1240726","0.0-131.0","A1K2R6FBPUA5TQ","","","","","-15","","","","","","","","","","","","","","","","","","","","","",""
"4329","","image-button-response","133","1245732","0.0-132.0","A1K2R6FBPUA5TQ","img_art/16.jpg","2","","","","","","","","","","","","","","","","","","","","","","","","",""
"1256","","image-button-response","134","1246993","0.0-133.0","A1K2R6FBPUA5TQ","img_art/16.jpg","2","","","","","","","","","","","","","","","","","","","","","","","","",""
"1827","","image-button-response","135","1248827","0.0-134.0-0.0","A1K2R6FBPUA5TQ","img_art/16.jpg","0","","","","","","","","","","","","","","","","","","","","","","","","",""
"10410","","image-button-response","136","1259245","0.0-135.0-0.0","A1K2R6FBPUA5TQ","img_art/16.jpg","3","","","","","","","","","","","","","","","","","","","","","","","","",""
"null","","html-keyboard-response","137","1260247","0.0-136.0","A1K2R6FBPUA5TQ","<p style=""font-size: 48px;"">+</p>","","","","","null","allTrialResponses","1000","1","13","img_art/16.jpg","-15","Very strange collage.","Sierra,Alicia,Destiny,Hannah,Rebecca,Amber","it looks psychotic,-31,260,20","Don't get it. Hate it. ugly.,-44,120,20","what is this doing for anyone. If you connect with this you're literally lying to yourself. pretentious,-50,360,20","This is weird and a little creepy.,6,240,20","don't know how to feel, I mean I respect it but I honestly don't know about this,-12,100,20","Don't like the teddy bear. It takes away from the painting.,-39,200,20","Destiny","what is this doing for anyone. If you connect with this you're literally lying to yourself. pretentious,-50,360,20","Sierra","it looks psychotic,-31,260,20","Hannah","This is weird and a little creepy.,6,240,20","2"
"42799","","survey-text","138","1303055","0.0-137.0-0.0","A1K2R6FBPUA5TQ","","","","{""Q0"":""Looks cool and demonic.""}","","","","","","","","","","","","","","","","","","","","","","",""
"2460","","image-slider-response","139","1305519","0.0-138.0","A1K2R6FBPUA5TQ","","","","","12","","","","","","","","","","","","","","","","","","","","","",""
"4406","","image-button-response","140","1310523","0.0-139.0","A1K2R6FBPUA5TQ","img_art/18.jpg","3","","","","","","","","","","","","","","","","","","","","","","","","",""
"562","","image-button-response","141","1311088","0.0-140.0","A1K2R6FBPUA5TQ","img_art/18.jpg","3","","","","","","","","","","","","","","","","","","","","","","","","",""
"3897","","image-button-response","142","1314991","0.0-141.0-0.0","A1K2R6FBPUA5TQ","img_art/18.jpg","1","","","","","","","","","","","","","","","","","","","","","","","","",""
"2466","","image-button-response","143","1317467","0.0-142.0-0.0","A1K2R6FBPUA5TQ","img_art/18.jpg","0","","","","","","","","","","","","","","","","","","","","","","","","",""
"null","","html-keyboard-response","144","1318469","0.0-143.0","A1K2R6FBPUA5TQ","<p style=""font-size: 48px;"">+</p>","","","","","null","allTrialResponses","1000","1","14","img_art/18.jpg","12","Looks cool and demonic.","Sierra,Abigail,Destiny,Hannah,Lauren,Amanda","it looks like people,9,260,20","Interesting and capitvating to look at,19,20,20","Can't tell if I love it or hate it. That response warranted more than neutral so I gave it 20 but not sure,21,360,20","Looks like ghost figures on a boat. It's okay.,7,240,20","I like how the image gives off an impression of bravery.,25,340,20","Too political, not my cup of tea,-50,180,20","Hannah","Looks like ghost figures on a boat. It's okay.,7,240,20","Abigail","Interesting and capitvating to look at,19,20,20","Sierra","it looks like people,9,260,20","2"
"26969","","survey-text","145","1345447","0.0-144.0-0.0","A1K2R6FBPUA5TQ","","","","{""Q0"":""Looks like an abstract guitar.""}","","","","","","","","","","","","","","","","","","","","","","",""
"2087","","image-slider-response","146","1347539","0.0-145.0","A1K2R6FBPUA5TQ","","","","","15","","","","","","","","","","","","","","","","","","","","","",""
"null","","image-button-response","147","1352544","0.0-146.0","A1K2R6FBPUA5TQ","img_art/10.jpg","null","","","","","","","","","","","","","","","","","","","","","","","","",""
"16423","","image-button-response","148","1368972","0.0-147.0","A1K2R6FBPUA5TQ","img_art/10.jpg","2","","","","","","","","","","","","","","","","","","","","","","","","",""
"5034","","image-button-response","149","1374012","0.0-148.0-0.0","A1K2R6FBPUA5TQ","img_art/10.jpg","4","","","","","","","","","","","","","","","","","","","","","","","","",""
"833","","image-button-response","150","1374856","0.0-149.0-0.0","A1K2R6FBPUA5TQ","img_art/10.jpg","5","","","","","","","","","","","","","","","","","","","","","","","","",""
"null","","html-keyboard-response","151","1376357","0.0-150.0","A1K2R6FBPUA5TQ","<p style=""font-size: 48px;"">+</p>","","","","","null","allTrialResponses","1500","1","15","img_art/10.jpg","15","Looks like an abstract guitar.","Sierra,Abigail,Katelyn,Hannah,Leslie,Hailey","it just doesnt appeal to me.,-10,260,20","Looks gross and messy,-39,20,20","It makes me think of music and i love the reflective aspect,29,100,20","This one is interesting. I like it.,11,240,20","I love the chaotic feel of the brush strokes.,35,380,20","a fast racetrack. go, go, go,5,200,20","Katelyn","It makes me think of music and i love the reflective aspect,29,100,20","Leslie","I love the chaotic feel of the brush strokes.,35,380,20","Hailey","a fast racetrack. go, go, go,5,200,20","2"
"6542","","survey-text","152","1382911","0.0-151.0-0.0","A1K2R6FBPUA5TQ","","","","{""Q0"":""course""}","","","","","","","","","","","","","","","","","","","","","","",""
"70954","","survey-text","153","1453869","0.0-152.0-0.0","A1K2R6FBPUA5TQ","","","","{""Q0"":""Looks like an old wall that's pealing.""}","","","","","","","","","","","","","","","","","","","","","","",""
"3865","","image-slider-response","154","1457739","0.0-153.0","A1K2R6FBPUA5TQ","","","","","-18","","","","","","","","","","","","","","","","","","","","","",""
"null","","image-button-response","155","1462743","0.0-154.0","A1K2R6FBPUA5TQ","img_art/7.jpg","null","","","","","","","","","","","","","","","","","","","","","","","","",""
"4263","","image-button-response","156","1467009","0.0-155.0","A1K2R6FBPUA5TQ","img_art/7.jpg","1","","","","","","","","","","","","","","","","","","","","","","","","",""
"1222","","image-button-response","157","1468237","0.0-156.0-0.0","A1K2R6FBPUA5TQ","img_art/7.jpg","0","","","","","","","","","","","","","","","","","","","","","","","","",""
"2985","","image-button-response","158","1471228","0.0-157.0-0.0","A1K2R6FBPUA5TQ","img_art/7.jpg","5","","","","","","","","","","","","","","","","","","","","","","","","",""
"null","","html-keyboard-response","159","1472230","0.0-158.0","A1K2R6FBPUA5TQ","<p style=""font-size: 48px;"">+</p>","","","","","null","allTrialResponses","1000","1","16","img_art/7.jpg","-18","Looks like an old wall that's pealing.","Gabrielle,Kimberly,Katelyn,Michelle,Leslie,Hailey","looks like wallpaper,-6,160,20","Looks like a bad picture of a beach,-21,260,20","Makes me think of the beach which makes me happy,14,100,20","Hmm interesting, looks like mars or something terrestrial. Too abstract for me and too much brown,4,280,20","This elicits no reaction in me.,0,380,20","hot desert with big rocks.,-19,200,20","Kimberly","Looks like a bad picture of a beach,-21,260,20","Gabrielle","looks like wallpaper,-6,160,20","Hailey","hot desert with big rocks.,-19,200,20","2"
"34236","","survey-text","160","1506476","0.0-159.0-0.0","A1K2R6FBPUA5TQ","","","","{""Q0"":""Messy paint someone hates? Don't really get it.""}","","","","","","","","","","","","","","","","","","","","","","",""
"5080.000000000233","","image-slider-response","161","1511561","0.0-160.0","A1K2R6FBPUA5TQ","","","","","-20","","","","","","","","","","","","","","","","","","","","","",""
"null","","image-button-response","162","1516566","0.0-161.0","A1K2R6FBPUA5TQ","img_art/29.jpg","null","","","","","","","","","","","","","","","","","","","","","","","","",""
"5196","","image-button-response","163","1521766","0.0-162.0","A1K2R6FBPUA5TQ","img_art/29.jpg","3","","","","","","","","","","","","","","","","","","","","","","","","",""
"3831","","image-button-response","164","1525602","0.0-163.0-0.0","A1K2R6FBPUA5TQ","img_art/29.jpg","2","","","","","","","","","","","","","","","","","","","","","","","","",""
"3300","","image-button-response","165","1528910","0.0-164.0-0.0","A1K2R6FBPUA5TQ","img_art/29.jpg","0","","","","","","","","","","","","","","","","","","","","","","","","",""
"null","","html-keyboard-response","166","1529412","0.0-165.0","A1K2R6FBPUA5TQ","<p style=""font-size: 48px;"">+</p>","","","","","null","allTrialResponses","500","1","17","img_art/29.jpg","-20","Messy paint someone hates? Don't really get it.","Gabrielle,Kimberly,Chelsea,Caitlin,Jasmine,Hailey","it's OK, no clue to what's going on but good use of light and dark,4,160,20","I like the usage of a physical object,33,260,20","It is intriguing but I don't like the red X.,6,180,20","I would give up and give it a red X too.,-5,80,20","I like the usage of blacks and greys in this,8,340,20","a hot fireplace with things to burn. warm,12,200,20","Caitlin","I would give up and give it a red X too.,-5,80,20","Chelsea","It is intriguing but I don't like the red X.,6,180,20","Gabrielle","it's OK, no clue to what's going on but good use of light and dark,4,160,20","2"
"26118","","survey-text","167","1555540","0.0-166.0-0.0","A1K2R6FBPUA5TQ","","","","{""Q0"":""A crash in the desert, yet it looks pretty.""}","","","","","","","","","","","","","","","","","","","","","","",""
"2594.000000000233","","image-slider-response","168","1558139","0.0-167.0","A1K2R6FBPUA5TQ","","","","","11","","","","","","","","","","","","","","","","","","","","","",""
"null","","image-button-response","169","1563147","0.0-168.0","A1K2R6FBPUA5TQ","img_art/20.jpg","null","","","","","","","","","","","","","","","","","","","","","","","","",""
"4562","","image-button-response","170","1567713","0.0-169.0","A1K2R6FBPUA5TQ","img_art/20.jpg","3","","","","","","","","","","","","","","","","","","","","","","","","",""
"5113","","image-button-response","171","1572832","0.0-170.0-0.0","A1K2R6FBPUA5TQ","img_art/20.jpg","2","","","","","","","","","","","","","","","","","","","","","","","","",""
"1470","","image-button-response","172","1574311","0.0-171.0-0.0","A1K2R6FBPUA5TQ","img_art/20.jpg","5","","","","","","","","","","","","","","","","","","","","","","","","",""
"null","","html-keyboard-response","173","1575313","0.0-172.0","A1K2R6FBPUA5TQ","<p style=""font-size: 48px;"">+</p>","","","","","null","allTrialResponses","1000","1","18","img_art/20.jpg","11","A crash in the desert, yet it looks pretty.","Gabrielle,Brooke,Chelsea,Caitlin,Mary,Savannah","The white blob on the left seems out of place,-34,160,20","Dinosaur skill and some dark shadow above,-30,60,20","It is abstract but it looks neat.,15,180,20","Not bad for all the southwestern people.,15,80,20","I can tell this artist has experience. I just don't care for the color combo.,7,180,20","Lovely composition, colors, and message.,35,200,20","Caitlin","Not bad for all the southwestern people.,15,80,20","Chelsea","It is abstract but it looks neat.,15,180,20","Savannah","Lovely composition, colors, and message.,35,200,20","2"
"27042","","survey-text","174","1602365","0.0-173.0-0.0","A1K2R6FBPUA5TQ","","","","{""Q0"":""A storm maybe? Feels depressing.""}","","","","","","","","","","","","","","","","","","","","","","",""
"6316","","image-slider-response","175","1608688","0.0-174.0","A1K2R6FBPUA5TQ","","","","","-6","","","","","","","","","","","","","","","","","","","","","",""
"null","","image-button-response","176","1613693","0.0-175.0","A1K2R6FBPUA5TQ","img_art/21.jpg","null","","","","","","","","","","","","","","","","","","","","","","","","",""
"1089","","image-button-response","177","1614785","0.0-176.0","A1K2R6FBPUA5TQ","img_art/21.jpg","4","","","","","","","","","","","","","","","","","","","","","","","","",""
"6429","","image-button-response","178","1621221","0.0-177.0-0.0","A1K2R6FBPUA5TQ","img_art/21.jpg","3","","","","","","","","","","","","","","","","","","","","","","","","",""
"2197","","image-button-response","179","1623426","0.0-178.0-0.0","A1K2R6FBPUA5TQ","img_art/21.jpg","2","","","","","","","","","","","","","","","","","","","","","","","","",""
"null","","html-keyboard-response","180","1624929","0.0-179.0","A1K2R6FBPUA5TQ","<p style=""font-size: 48px;"">+</p>","","","","","null","allTrialResponses","1500","1","19","img_art/21.jpg","-6","A storm maybe? Feels depressing.","Elizabeth,Margaret,Chelsea,Caitlin,Paige,Savannah","Touches the heart,50,20,20","i like the colors and the blending,17,100,20","I like the colors. It looks dramatic.,5,180,20","Remove the rocks(?) on the lower right.,5,80,20","the picture is boring,1,60,20","Almost appears like the background of an old renaissance painting.,40,200,20","Paige","the picture is boring,1,60,20","Caitlin","Remove the rocks(?) on the lower right.,5,80,20","Chelsea","I like the colors. It looks dramatic.,5,180,20","2"
"17332","","survey-text","181","1642271","0.0-180.0-0.0","A1K2R6FBPUA5TQ","","","","{""Q0"":""Looks like a messy city.""}","","","","","","","","","","","","","","","","","","","","","","",""
"2729","","image-slider-response","182","1645004","0.0-181.0","A1K2R6FBPUA5TQ","","","","","-11","","","","","","","","","","","","","","","","","","","","","",""
"null","","image-button-response","183","1650009","0.0-182.0","A1K2R6FBPUA5TQ","img_art/19.jpg","null","","","","","","","","","","","","","","","","","","","","","","","","",""
"7582","","image-button-response","184","1657594","0.0-183.0","A1K2R6FBPUA5TQ","img_art/19.jpg","4","","","","","","","","","","","","","","","","","","","","","","","","",""
"3729","","image-button-response","185","1661329","0.0-184.0-0.0","A1K2R6FBPUA5TQ","img_art/19.jpg","2","","","","","","","","","","","","","","","","","","","","","","","","",""
"2691","","image-button-response","186","1664029","0.0-185.0-0.0","A1K2R6FBPUA5TQ","img_art/19.jpg","3","","","","","","","","","","","","","","","","","","","","","","","","",""
"null","","html-keyboard-response","187","1665532","0.0-186.0","A1K2R6FBPUA5TQ","<p style=""font-size: 48px;"">+</p>","","","","","null","allTrialResponses","1500","1","20","img_art/19.jpg","-11","Looks like a messy city.","Diana,Erika,Chelsea,Caitlin,Paige,Chloe","I wasn't sure if I liked it or hated it. It oddly reminds me of a clothing store.,11,380,20","Very dreamlike,26,100,20","It is too busy.,-34,180,20","Looks like a homeless man and this painting should be too.,-5,80,20","it's too busy for me. Makes me feel stressed.,1,60,20","The use of space isn't my favorite.,-20,220,20","Paige","it's too busy for me. Makes me feel stressed.,1,60,20","Chelsea","It is too busy.,-34,180,20","Caitlin","Looks like a homeless man and this painting should be too.,-5,80,20","2"
"4584","","survey-text","188","1670127","0.0-187.0-0.0","A1K2R6FBPUA5TQ","","","","{""Q0"":""we""}","","","","","","","","","","","","","","","","","","","","","","",""
"21114","","survey-text","189","1691244","0.0-188.0-0.0","A1K2R6FBPUA5TQ","","","","{""Q0"":""Looks like a creepy Halloween painting.""}","","","","","","","","","","","","","","","","","","","","","","",""
"3562.000000000233","","image-slider-response","190","1694811","0.0-189.0","A1K2R6FBPUA5TQ","","","","","17","","","","","","","","","","","","","","","","","","","","","",""
"4800","","image-button-response","191","1699815","0.0-190.0","A1K2R6FBPUA5TQ","img_art/25.jpg","5","","","","","","","","","","","","","","","","","","","","","","","","",""
"1979","","image-button-response","192","1701797","0.0-191.0","A1K2R6FBPUA5TQ","img_art/25.jpg","1","","","","","","","","","","","","","","","","","","","","","","","","",""
"1198","","image-button-response","193","1703001","0.0-192.0-0.0","A1K2R6FBPUA5TQ","img_art/25.jpg","4","","","","","","","","","","","","","","","","","","","","","","","","",""
"858","","image-button-response","194","1703867","0.0-193.0-0.0","A1K2R6FBPUA5TQ","img_art/25.jpg","5","","","","","","","","","","","","","","","","","","","","","","","","",""
"null","","html-keyboard-response","195","1705369","0.0-194.0","A1K2R6FBPUA5TQ","<p style=""font-size: 48px;"">+</p>","","","","","null","allTrialResponses","1500","1","21","img_art/25.jpg","17","Looks like a creepy Halloween painting.","Melissa,Jenna,Chelsea,Caitlin,Paige,Alexa","do not like that color of green,-11,240,20","beautiful in a primitive way,10,360,20","The color and image are unsettling.,-29,180,20","Wish I was that thin.,-5,80,20","reminds me of ancient history which makes me happy,40,60,20","It's really neat and cool looking,20,40,20","Jenna","beautiful in a primitive way,10,360,20","Paige","reminds me of ancient history which makes me happy,40,60,20","Alexa","It's really neat and cool looking,20,40,20","2"
"17043","","survey-text","196","1722421","0.0-195.0-0.0","A1K2R6FBPUA5TQ","","","","{""Q0"":""Would be prettier without the green.""}","","","","","","","","","","","","","","","","","","","","","","",""
"5811","","image-slider-response","197","1728236","0.0-196.0","A1K2R6FBPUA5TQ","","","","","5","","","","","","","","","","","","","","","","","","","","","",""
"null","","image-button-response","198","1733240","0.0-197.0","A1K2R6FBPUA5TQ","img_art/27.jpg","null","","","","","","","","","","","","","","","","","","","","","","","","",""
"8482","","image-button-response","199","1741726","0.0-198.0","A1K2R6FBPUA5TQ","img_art/27.jpg","4","","","","","","","","","","","","","","","","","","","","","","","","",""
"2218","","image-button-response","200","1743953","0.0-199.0-0.0","A1K2R6FBPUA5TQ","img_art/27.jpg","0","","","","","","","","","","","","","","","","","","","","","","","","",""
"2400","","image-button-response","201","1746361","0.0-200.0-0.0","A1K2R6FBPUA5TQ","img_art/27.jpg","2","","","","","","","","","","","","","","","","","","","","","","","","",""
"null","","html-keyboard-response","202","1747362","0.0-201.0","A1K2R6FBPUA5TQ","<p style=""font-size: 48px;"">+</p>","","","","","null","allTrialResponses","1000","1","22","img_art/27.jpg","5","Would be prettier without the green.","Angela,Jenna,Kelly,Morgan,Paige,Alexa","It's okay. Not really interesting to me.,-10,260,20","the green & white scribbles feel childlike. perhaps the quality of the photo, but the colors are gloomy.,-13,360,20","The green stick drawings or whatever they are ruin it for me.,-23,220,20","Messy field of various plants.,-5,380,20","Pleased. Reminds me of a child drawing,46,60,20","I love the mood of this painting,30,40,20","Paige","Pleased. Reminds me of a child drawing,46,60,20","Angela","It's okay. Not really interesting to me.,-10,260,20","Kelly","The green stick drawings or whatever they are ruin it for me.,-23,220,20","2"
"20704","","survey-text","203","1768077","0.0-202.0-0.0","A1K2R6FBPUA5TQ","","","","{""Q0"":""Too bland and boring for me.""}","","","","","","","","","","","","","","","","","","","","","","",""
"3007.999999999767","","image-slider-response","204","1771089","0.0-203.0","A1K2R6FBPUA5TQ","","","","","-14","","","","","","","","","","","","","","","","","","","","","",""
"null","","image-button-response","205","1776094","0.0-204.0","A1K2R6FBPUA5TQ","img_art/6.jpg","null","","","","","","","","","","","","","","","","","","","","","","","","",""
"899","","image-button-response","206","1776996","0.0-205.0","A1K2R6FBPUA5TQ","img_art/6.jpg","4","","","","","","","","","","","","","","","","","","","","","","","","",""
"10907","","image-button-response","207","1787909","0.0-206.0-0.0","A1K2R6FBPUA5TQ","img_art/6.jpg","3","","","","","","","","","","","","","","","","","","","","","","","","",""
"812","","image-button-response","208","1788730","0.0-207.0-0.0","A1K2R6FBPUA5TQ","img_art/6.jpg","5","","","","","","","","","","","","","","","","","","","","","","","","",""
"null","","html-keyboard-response","209","1789732","0.0-208.0","A1K2R6FBPUA5TQ","<p style=""font-size: 48px;"">+</p>","","","","","null","allTrialResponses","1000","1","23","img_art/6.jpg","-14","Too bland and boring for me.","Angela,Kaitlyn,Kelly,Megan,Paige,Allison","I like the orange color, and I don't know why but I like this piece.,22,260,20","I like the simplicity of the picture,30,80,20","Simple and pretty.,18,220,20","Odd desert, nice sand color with headless bird,11,200,20","Kind of boring. I don't care for many abstracts,1,60,20","Simple desert scene.,5,140,20","Paige","Kind of boring. I don't care for many abstracts,1,60,20","Megan","Odd desert, nice sand color with headless bird,11,200,20","Allison","Simple desert scene.,5,140,20","2"
"22593","","survey-text","210","1812334","0.0-209.0-0.0","A1K2R6FBPUA5TQ","","","","{""Q0"":""Reminds me of water and ice.""}","","","","","","","","","","","","","","","","","","","","","","",""
"2460","","image-slider-response","211","1814798","0.0-210.0","A1K2R6FBPUA5TQ","","","","","9","","","","","","","","","","","","","","","","","","","","","",""
"null","","image-button-response","212","1819803","0.0-211.0","A1K2R6FBPUA5TQ","img_art/13.jpg","null","","","","","","","","","","","","","","","","","","","","","","","","",""
"2576","","image-button-response","213","1822382","0.0-212.0","A1K2R6FBPUA5TQ","img_art/13.jpg","1","","","","","","","","","","","","","","","","","","","","","","","","",""
"2701","","image-button-response","214","1825092","0.0-213.0-0.0","A1K2R6FBPUA5TQ","img_art/13.jpg","5","","","","","","","","","","","","","","","","","","","","","","","","",""
"745","","image-button-response","215","1825846","0.0-214.0-0.0","A1K2R6FBPUA5TQ","img_art/13.jpg","4","","","","","","","","","","","","","","","","","","","","","","","","",""
"null","","html-keyboard-response","216","1826348","0.0-215.0","A1K2R6FBPUA5TQ","<p style=""font-size: 48px;"">+</p>","","","","","null","allTrialResponses","500","1","24","img_art/13.jpg","9","Reminds me of water and ice.","Sarah,Natalie,Kathryn,Megan,Paige,Allison","this is an appealing mix of textures to me and the color scheme is harmonious,36,180,20","I like the colors,7,400,20","Reminds me of depression anxiety, but negativity is dampened by motion. It's trying to release itself through expression.,-10,140,20","Average overly symmetrical safe,-26,200,20","Pleased. I like to combination of colors,17,60,20","Generic mix of colors. Cool and messy.,10,140,20","Natalie","I like the colors,7,400,20","Allison","Generic mix of colors. Cool and messy.,10,140,20","Paige","Pleased. I like to combination of colors,17,60,20","2"
"22810","","survey-text","217","1849169","0.0-216.0-0.0","A1K2R6FBPUA5TQ","","","","{""Q0"":""I think the woman is having a bad dream.""}","","","","","","","","","","","","","","","","","","","","","","",""
"6239","","image-slider-response","218","1855412","0.0-217.0","A1K2R6FBPUA5TQ","","","","","7","","","","","","","","","","","","","","","","","","","","","",""
"null","","image-button-response","219","1860417","0.0-218.0","A1K2R6FBPUA5TQ","img_art/9.jpg","null","","","","","","","","","","","","","","","","","","","","","","","","",""
"3239","","image-button-response","220","1863659","0.0-219.0","A1K2R6FBPUA5TQ","img_art/9.jpg","4","","","","","","","","","","","","","","","","","","","","","","","","",""
"6429","","image-button-response","221","1870095","0.0-220.0-0.0","A1K2R6FBPUA5TQ","img_art/9.jpg","2","","","","","","","","","","","","","","","","","","","","","","","","",""
"2061","","image-button-response","222","1872165","0.0-221.0-0.0","A1K2R6FBPUA5TQ","img_art/9.jpg","1","","","","","","","","","","","","","","","","","","","","","","","","",""
"null","","html-keyboard-response","223","1872667","0.0-222.0","A1K2R6FBPUA5TQ","<p style=""font-size: 48px;"">+</p>","","","","","null","allTrialResponses","500","1","25","img_art/9.jpg","7","I think the woman is having a bad dream.","Kylie,Natalie,Michaela,Kayla,Paige,Allison","Peaceful dreaming,40,300,20","Gives me anxiety,-23,400,20","The colors remind me of peacocks,24,260,20","It's nice. Peaceful. Calming.,11,180,20","I feel this incites anger,-16,60,20","Very eclectic and messy. Not my preference, but may work for some.,-20,140,20","Paige","I feel this incites anger,-16,60,20","Michaela","The colors remind me of peacocks,24,260,20","Natalie","Gives me anxiety,-23,400,20","2"
"6089","","survey-text","224","1878769","0.0-223.0-0.0","A1K2R6FBPUA5TQ","","","","{""Q0"":""table""}","","","","","","","","","","","","","","","","","","","","","","",""
"32889","","survey-text","225","1911662","0.0-224.0-0.0","A1K2R6FBPUA5TQ","","","","{""Q0"":""Not sure what it is, but it's really beautiful.""}","","","","","","","","","","","","","","","","","","","","","","",""
"2133","","image-slider-response","226","1913797","0.0-225.0","A1K2R6FBPUA5TQ","","","","","17","","","","","","","","","","","","","","","","","","","","","",""
"1851","","image-button-response","227","1918797","0.0-226.0","A1K2R6FBPUA5TQ","img_art/17.jpg","4","","","","","","","","","","","","","","","","","","","","","","","","",""
"2517","","image-button-response","228","1921318","0.0-227.0","A1K2R6FBPUA5TQ","img_art/17.jpg","1","","","","","","","","","","","","","","","","","","","","","","","","",""
"2759","","image-button-response","229","1924084","0.0-228.0-0.0","A1K2R6FBPUA5TQ","img_art/17.jpg","0","","","","","","","","","","","","","","","","","","","","","","","","",""
"2737","","image-button-response","230","1926828","0.0-229.0-0.0","A1K2R6FBPUA5TQ","img_art/17.jpg","4","","","","","","","","","","","","","","","","","","","","","","","","",""
"null","","html-keyboard-response","231","1927829","0.0-230.0","A1K2R6FBPUA5TQ","<p style=""font-size: 48px;"">+</p>","","","","","null","allTrialResponses","1000","1","26","img_art/17.jpg","17","Not sure what it is, but it's really beautiful.","Catherine,Natalie,Michaela,Kaylee,Paige,Sophia","Nature coming to the inside of your space that you are locked into.,50,160,20","my response to the picture is that it looks beautiful,27,400,20","I love how soft it is,35,260,20","colorful tree really cool,27,200,20","very pretty. Makes me happy,45,60,20","It kind of pulls you in to float away with it.,9,280,20","Natalie","my response to the picture is that it looks beautiful,27,400,20","Catherine","Nature coming to the inside of your space that you are locked into.,50,160,20","Paige","very pretty. Makes me happy,45,60,20","2"
"23013","","survey-text","232","1950854","0.0-231.0-0.0","A1K2R6FBPUA5TQ","","","","{""Q0"":""A strange hand reaching out? Looks kinda scary.""}","","","","","","","","","","","","","","","","","","","","","","",""
"4082","","image-slider-response","233","1954940","0.0-232.0","A1K2R6FBPUA5TQ","","","","","-8","","","","","","","","","","","","","","","","","","","","","",""
"null","","image-button-response","234","1959945","0.0-233.0","A1K2R6FBPUA5TQ","img_art/4.jpg","null","","","","","","","","","","","","","","","","","","","","","","","","",""
"1637","","image-button-response","235","1961585","0.0-234.0","A1K2R6FBPUA5TQ","img_art/4.jpg","1","","","","","","","","","","","","","","","","","","","","","","","","",""
"3222","","image-button-response","236","1964814","0.0-235.0-0.0","A1K2R6FBPUA5TQ","img_art/4.jpg","2","","","","","","","","","","","","","","","","","","","","","","","","",""
"2050","","image-button-response","237","1966873","0.0-236.0-0.0","A1K2R6FBPUA5TQ","img_art/4.jpg","5","","","","","","","","","","","","","","","","","","","","","","","","",""
"null","","html-keyboard-response","238","1967375","0.0-237.0","A1K2R6FBPUA5TQ","<p style=""font-size: 48px;"">+</p>","","","","","null","allTrialResponses","500","1","27","img_art/4.jpg","-8","A strange hand reaching out? Looks kinda scary.","Catherine,Natalie,Andrea,Erica,Paige,Haley","Hearts, family connected. They are standing on a narrow base and could fall to pieces at anytime.,40,160,20","dont know what im looking at,1,400,20","I think it speaks to familial closeness but the tonality is offputting to me.,-10,240,20","Easy and relaxing,23,80,20","the colors are calming,31,60,20","This image doesn't invoke anything in me,-9,220,20","Natalie","dont know what im looking at,1,400,20","Andrea","I think it speaks to familial closeness but the tonality is offputting to me.,-10,240,20","Haley","This image doesn't invoke anything in me,-9,220,20","2"
"21257","","survey-text","239","1988642","0.0-238.0-0.0","A1K2R6FBPUA5TQ","","","","{""Q0"":""Looks like a boring cityscape.""}","","","","","","","","","","","","","","","","","","","","","","",""
"6588","","image-slider-response","240","1995235","0.0-239.0","A1K2R6FBPUA5TQ","","","","","-14","","","","","","","","","","","","","","","","","","","","","",""
"4870","","image-button-response","241","2000240","0.0-240.0","A1K2R6FBPUA5TQ","img_art/26.jpg","1","","","","","","","","","","","","","","","","","","","","","","","","",""
"795","","image-button-response","242","2001039","0.0-241.0","A1K2R6FBPUA5TQ","img_art/26.jpg","0","","","","","","","","","","","","","","","","","","","","","","","","",""
"863","","image-button-response","243","2001905","0.0-242.0-0.0","A1K2R6FBPUA5TQ","img_art/26.jpg","1","","","","","","","","","","","","","","","","","","","","","","","","",""
"1839","","image-button-response","244","2003750","0.0-243.0-0.0","A1K2R6FBPUA5TQ","img_art/26.jpg","4","","","","","","","","","","","","","","","","","","","","","","","","",""
"null","","html-keyboard-response","245","2005252","0.0-244.0","A1K2R6FBPUA5TQ","<p style=""font-size: 48px;"">+</p>","","","","","null","allTrialResponses","1500","1","28","img_art/26.jpg","-14","Looks like a boring cityscape.","Lindsey,Natalie,Andrea,Sydney,Brittany,Haley","I see a suburban neighborhood with townhouses and trees. Not a fan of the colors or style.,-16,400,20","picture looks alright,1,400,20","I get the feeling of a small old world street.,24,240,20","I wish there was more detail, but I really like this simple piece.,35,320,20","It looks boring and too rough.,-9,40,20","It feels almost unfinished, but I like the color palette,9,220,20","Lindsey","I see a suburban neighborhood with townhouses and trees. Not a fan of the colors or style.,-16,400,20","Natalie","picture looks alright,1,400,20","Brittany","It looks boring and too rough.,-9,40,20","2"
"19901","","survey-text","246","2025163","0.0-245.0-0.0","A1K2R6FBPUA5TQ","","","","{""Q0"":""Feels like a puzzle that needs to be put together.""}","","","","","","","","","","","","","","","","","","","","","","",""
"10950.000000000233","","image-slider-response","247","2036117","0.0-246.0","A1K2R6FBPUA5TQ","","","","","5","","","","","","","","","","","","","","","","","","","","","",""
"null","","image-button-response","248","2041121","0.0-247.0","A1K2R6FBPUA5TQ","img_art/12.jpg","null","","","","","","","","","","","","","","","","","","","","","","","","",""
"18775","","image-button-response","249","2059900","0.0-248.0","A1K2R6FBPUA5TQ","img_art/12.jpg","5","","","","","","","","","","","","","","","","","","","","","","","","",""
"2446","","image-button-response","250","2062353","0.0-249.0-0.0","A1K2R6FBPUA5TQ","img_art/12.jpg","3","","","","","","","","","","","","","","","","","","","","","","","","",""
"4571","","image-button-response","251","2066933","0.0-250.0-0.0","A1K2R6FBPUA5TQ","img_art/12.jpg","1","","","","","","","","","","","","","","","","","","","","","","","","",""
"null","","html-keyboard-response","252","2067935","0.0-251.0","A1K2R6FBPUA5TQ","<p style=""font-size: 48px;"">+</p>","","","","","null","allTrialResponses","1000","1","29","img_art/12.jpg","5","Feels like a puzzle that needs to be put together.","Lindsey,Natalie,Makayla,Leah,Brittany,Molly","Ugly colors and I'm just not too much a fan of cubist abstract art.,-50,400,20","my reaction is that the picture is wierd,-11,400,20","Reminds me Early 2000's decor, don't favor it,-10,80,20","Looks like a puzzle I want to put together, but not hang in my den,2,360,20","Too blocky and not interesting enough.,-15,40,20","Seems to be puzzles.,25,340,20","Molly","Seems to be puzzles.,25,340,20","Leah","Looks like a puzzle I want to put together, but not hang in my den,2,360,20","Natalie","my reaction is that the picture is wierd,-11,400,20","2"
"26929","","survey-text","253","2094876","0.0-252.0-0.0","A1K2R6FBPUA5TQ","","","","{""Q0"":""It's almost a pretty waterfall but the colors are too strong.""}","","","","","","","","","","","","","","","","","","","","","","",""
"12406","","image-slider-response","254","2107285","0.0-253.0","A1K2R6FBPUA5TQ","","","","","-13","","","","","","","","","","","","","","","","","","","","","",""
"4743","","image-button-response","255","2112289","0.0-254.0","A1K2R6FBPUA5TQ","img_art/24.jpg","4","","","","","","","","","","","","","","","","","","","","","","","","",""
"1203","","image-button-response","256","2113497","0.0-255.0","A1K2R6FBPUA5TQ","img_art/24.jpg","4","","","","","","","","","","","","","","","","","","","","","","","","",""
"6213","","image-button-response","257","2119717","0.0-256.0-0.0","A1K2R6FBPUA5TQ","img_art/24.jpg","5","","","","","","","","","","","","","","","","","","","","","","","","",""
"1415","","image-button-response","258","2121140","0.0-257.0-0.0","A1K2R6FBPUA5TQ","img_art/24.jpg","1","","","","","","","","","","","","","","","","","","","","","","","","",""
"null","","html-keyboard-response","259","2122642","0.0-258.0","A1K2R6FBPUA5TQ","<p style=""font-size: 48px;"">+</p>","","","","","null","allTrialResponses","1500","1","30","img_art/24.jpg","-13","It's almost a pretty waterfall but the colors are too strong.","Olivia,Natalie,Kristen,Leah,Emily,Molly","tranquility in the stream,34,40,20","I like the waterfall,22,400,20","calm, nature, safe, happy place,,50,280,20","Happy, the forest as I would love to see it,50,360,20","It's not super high uality  but there is some skill and talent in it I see.,15,40,20","Extraordinary and unusual.,30,340,20","Emily","It's not super high uality  but there is some skill and talent in it I see.,15,40,20","Molly","Extraordinary and unusual.,30,340,20","Natalie","I like the waterfall,22,400,20","2"
"8623","","image-button-response_instructions","260","2131273","0.0-259.0","A1K2R6FBPUA5TQ","","0","instructions","","","","","","","","","","","","","","","","","","","","","","","",""
"1049","","image-button-response","261","2132330","0.0-260.0","A1K2R6FBPUA5TQ","","0","","","","","","","","","","","","","","","","","","","","","","","","",""
