"rt","url","trial_type","trial_index","time_elapsed","internal_node_id","participant_id","stimulus","button_pressed","Name","responses","response","key_press","variableName","fixationTime","condition","trial","photo","subjectRating","subjectResponse","agentsNames","agent_1_Response","agent_2_Response","agent_3_Response","agent_4_Response","agent_5_Response","agent_6_Response","kept_1_name","kept_1_response","kept_2_name","kept_2_response","kept_3_name","kept_3_response","errorCounter"
"13702","external_page_harvard.html","external-html","0","13872","0.0-0.0","A1KZ0KE93WNN5O","","","","","","","","","","","","","","","","","","","","","","","","","","",""
"1924","","image-button-response","1","15798","0.0-1.0","A1KZ0KE93WNN5O","","1","","","","","","","","","","","","","","","","","","","","","","","","",""
"4152","","image-button-response","2","19958","0.0-2.0-0.0","A1KZ0KE93WNN5O","","1","phone","","","","","","","","","","","","","","","","","","","","","","","",""
"9318","","survey-text","3","29278","0.0-3.0-0.0","A1KZ0KE93WNN5O","","","","{""Q0"":""A1KZ0KE93WNN5O""}","","","","","","","","","","","","","","","","","","","","","","",""
"5941","","image-button-response_instructions","4","35222","0.0-4.0","A1KZ0KE93WNN5O","","0","instructions","","","","","","","","","","","","","","","","","","","","","","","",""
"12614","","image-button-response_instructions","5","47838","0.0-5.0","A1KZ0KE93WNN5O","img_art/ins/popularity/ins1.png","0","instructions","","","","","","","","","","","","","","","","","","","","","","","",""
"6118","","image-button-response_instructions","6","53958","0.0-6.0","A1KZ0KE93WNN5O","img_art/ins/popularity/ins2.png","0","instructions","","","","","","","","","","","","","","","","","","","","","","","",""
"6141","","image-button-response_instructions","7","60101","0.0-7.0","A1KZ0KE93WNN5O","img_art/ins/popularity/ins2Extreme.png","0","instructions","","","","","","","","","","","","","","","","","","","","","","","",""
"16918","","image-button-response_instructions","8","77021","0.0-8.0","A1KZ0KE93WNN5O","img_art/ins/popularity/ins3KEEPpop.PNG","0","instructions","","","","","","","","","","","","","","","","","","","","","","","",""
"3662","","image-button-response_instructions","9","80685","0.0-9.0","A1KZ0KE93WNN5O","img_art/ins/popularity/ins3ANamepop.PNG","0","instructions","","","","","","","","","","","","","","","","","","","","","","","",""
"3478","","image-button-response_instructions","10","84165","0.0-10.0","A1KZ0KE93WNN5O","img_art/ins/popularity/ins3ARatingpop.png","0","instructions","","","","","","","","","","","","","","","","","","","","","","","",""
"2662","","image-button-response_instructions","11","86829","0.0-11.0","A1KZ0KE93WNN5O","img_art/ins/popularity/ins3ATextpop.png","0","instructions","","","","","","","","","","","","","","","","","","","","","","","",""
"4478","","image-button-response_instructions","12","91309","0.0-12.0","A1KZ0KE93WNN5O","img_art/ins/popularity/ins3ALikespop.png","0","instructions","","","","","","","","","","","","","","","","","","","","","","","",""
"10534","","image-button-response_instructions","13","101845","0.0-13.0","A1KZ0KE93WNN5O","img_art/ins/popularity/ins3KEEPpop.PNG","0","instructions","","","","","","","","","","","","","","","","","","","","","","","",""
"9246","","image-button-response_instructions","14","111093","0.0-14.0","A1KZ0KE93WNN5O","img_art/ins/popularity/ins3_5RED.png","0","instructions","","","","","","","","","","","","","","","","","","","","","","","",""
"4286","","image-button-response_instructions","15","115381","0.0-15.0","A1KZ0KE93WNN5O","img_art/ins/popularity/ins3KEEPpop.PNG","0","instructions","","","","","","","","","","","","","","","","","","","","","","","",""
"7726","","image-button-response_instructions","16","123109","0.0-16.0","A1KZ0KE93WNN5O","img_art/ins/popularity/ins4KEEPpop.PNG","0","instructions","","","","","","","","","","","","","","","","","","","","","","","",""
"4158","","image-button-response_instructions","17","127269","0.0-17.0","A1KZ0KE93WNN5O","img_art/ins/popularity/ins5KEEPpop.PNG","0","instructions","","","","","","","","","","","","","","","","","","","","","","","",""
"1574","","image-button-response_instructions","18","128845","0.0-18.0","A1KZ0KE93WNN5O","","0","instructions","","","","","","","","","","","","","","","","","","","","","","","",""
"8882","","survey-text","19","137757","0.0-19.0-0.0","A1KZ0KE93WNN5O","","","","{""Q0"":""but""}","","","","","","","","","","","","","","","","","","","","","","",""
"41286","","survey-text","20","179045","0.0-20.0-0.0","A1KZ0KE93WNN5O","","","","{""Q0"":""warm movement""}","","","","","","","","","","","","","","","","","","","","","","",""
"4484.699999928474","","image-slider-response","21","183533","0.0-21.0","A1KZ0KE93WNN5O","","","","","2","","","","","","","","","","","","","","","","","","","","","",""
"null","","image-button-response","22","188538","0.0-22.0","A1KZ0KE93WNN5O","img_art/ins/1.jpg","null","","","","","","","","","","","","","","","","","","","","","","","","",""
"2422","","image-button-response","23","190965","0.0-23.0","A1KZ0KE93WNN5O","img_art/ins/1.jpg","4","","","","","","","","","","","","","","","","","","","","","","","","",""
"2173","","image-button-response","24","193141","0.0-24.0-0.0","A1KZ0KE93WNN5O","img_art/ins/1.jpg","5","","","","","","","","","","","","","","","","","","","","","","","","",""
"6780","","image-button-response","25","199925","0.0-25.0-0.0","A1KZ0KE93WNN5O","img_art/ins/1.jpg","0","","","","","","","","","","","","","","","","","","","","","","","","",""
"null","","html-keyboard-response","26","200429","0.0-26.0","A1KZ0KE93WNN5O","<p style=""font-size: 48px;"">+</p>","","","","","null","allTrialResponses","500","1","-2","img_art/ins/1.jpg","2","warm movement","Allison,Ashley,Beth,Dora,Erika,Jen","looks like a lot of things going on in the mist,20,20,20","I just don't get why these type of art would be popular,-32,40,20","This color reminds me of poo,-46,60,20","looks like what my niece in 3rd grade did this afternoon,-50,80,20","I like the sophisticated brushwork,40,100,20","It reminds me of a candy land dream I had,36,120,20","Erika","I like the sophisticated brushwork,40,100,20","Jen","It reminds me of a candy land dream I had,36,120,20","Allison","looks like a lot of things going on in the mist,20,20,20","0"
"26507","","survey-text","27","226949","0.0-27.0-0.0","A1KZ0KE93WNN5O","","","","{""Q0"":""dark night of the soul""}","","","","","","","","","","","","","","","","","","","","","","",""
"6509.399999976158","","image-slider-response","28","233461","0.0-28.0","A1KZ0KE93WNN5O","","","","","35","","","","","","","","","","","","","","","","","","","","","",""
"null","","image-button-response","29","238464","0.0-29.0","A1KZ0KE93WNN5O","img_art/ins/2.jpg","null","","","","","","","","","","","","","","","","","","","","","","","","",""
"1593","","image-button-response","30","240061","0.0-30.0","A1KZ0KE93WNN5O","img_art/ins/2.jpg","4","","","","","","","","","","","","","","","","","","","","","","","","",""
"2366","","image-button-response","31","242429","0.0-31.0-0.0","A1KZ0KE93WNN5O","img_art/ins/2.jpg","5","","","","","","","","","","","","","","","","","","","","","","","","",""
"1398","","image-button-response","32","243830","0.0-32.0-0.0","A1KZ0KE93WNN5O","img_art/ins/2.jpg","1","","","","","","","","","","","","","","","","","","","","","","","","",""
"null","","html-keyboard-response","33","245333","0.0-33.0","A1KZ0KE93WNN5O","<p style=""font-size: 48px;"">+</p>","","","","","null","allTrialResponses","1500","1","-1","img_art/ins/2.jpg","35","dark night of the soul","Allison,Kara,Katie,Jenna,Erika,Jen","I don't have strong feelings about this,10,20,20","I like the blocks of color arrangements,30,160,20","too much color!,-28,180,20","One of my pet peevs,-48,140,20","I would never be able to compose a sophisticated pallete like this,48,100,20","It reminds me of a fireplace,36,120,20","Erika","I would never be able to compose a sophisticated pallete like this,48,100,20","Jen","It reminds me of a fireplace,36,120,20","Kara","I like the blocks of color arrangements,30,160,20","0"
"15814","","survey-text","34","261157","0.0-34.0-0.0","A1KZ0KE93WNN5O","","","","{""Q0"":""beautiful color choices""}","","","","","","","","","","","","","","","","","","","","","","",""
"3709.7000000476837","","image-slider-response","35","264869","0.0-35.0","A1KZ0KE93WNN5O","","","","","50","","","","","","","","","","","","","","","","","","","","","",""
"4534","","image-button-response","36","269872","0.0-36.0","A1KZ0KE93WNN5O","img_art/ins/3.jpg","1","","","","","","","","","","","","","","","","","","","","","","","","",""
"769","","image-button-response","37","270646","0.0-37.0","A1KZ0KE93WNN5O","img_art/ins/3.jpg","0","","","","","","","","","","","","","","","","","","","","","","","","",""
"17542","","image-button-response","38","288190","0.0-38.0-0.0","A1KZ0KE93WNN5O","img_art/ins/3.jpg","1","","","","","","","","","","","","","","","","","","","","","","","","",""
"3341","","image-button-response","39","291534","0.0-39.0-0.0","A1KZ0KE93WNN5O","img_art/ins/3.jpg","4","","","","","","","","","","","","","","","","","","","","","","","","",""
"null","","html-keyboard-response","40","292536","0.0-40.0","A1KZ0KE93WNN5O","<p style=""font-size: 48px;"">+</p>","","","","","null","allTrialResponses","1000","1","0","img_art/ins/3.jpg","50","beautiful color choices","Mary,Kara,Rose,Leslie,Erika,Jen","I like the overlapping of brushes,41,220,20","calming blue is very nice,36,160,20","My daily routine, it's depressing,-20,240,20","It's an alright work,15,200,20","I feel connected to the artist,40,100,20","I can feel a rainy day from this painting,18,120,20","Mary","I like the overlapping of brushes,41,220,20","Kara","calming blue is very nice,36,160,20","Erika","I feel connected to the artist,40,100,20","0"
"7560","","image-button-response_instructions","41","300109","0.0-41.0","A1KZ0KE93WNN5O","","0","instructions","","","","","","","","","","","","","","","","","","","","","","","",""
"14757","","survey-likert","42","314869","0.0-42.0-0.0","A1KZ0KE93WNN5O","","","","{""Q0"":"""",""Q1"":0,""Q2"":1}","","","","","","","","","","","","","","","","","","","","","","",""
"6815","","survey-text","43","321692","0.0-43.0-0.0","A1KZ0KE93WNN5O","","","","{""Q0"":""rock""}","","","","","","","","","","","","","","","","","","","","","","",""
"11974","","survey-text","44","333668","0.0-44.0-0.0","A1KZ0KE93WNN5O","","","","{""Q0"":""busy city""}","","","","","","","","","","","","","","","","","","","","","","",""
"5805.799999952316","","image-slider-response","45","339476","0.0-45.0","A1KZ0KE93WNN5O","","","","","43","","","","","","","","","","","","","","","","","","","","","",""
"4854","","image-button-response","46","344513","0.0-46.0","A1KZ0KE93WNN5O","img_art/11.jpg","2","","","","","","","","","","","","","","","","","","","","","","","","",""
"4088","","image-button-response","47","348605","0.0-47.0","A1KZ0KE93WNN5O","img_art/11.jpg","4","","","","","","","","","","","","","","","","","","","","","","","","",""
"2261","","image-button-response","48","350869","0.0-48.0-0.0","A1KZ0KE93WNN5O","img_art/11.jpg","5","","","","","","","","","","","","","","","","","","","","","","","","",""
"8109","","image-button-response","49","358981","0.0-49.0-0.0","A1KZ0KE93WNN5O","img_art/11.jpg","0","","","","","","","","","","","","","","","","","","","","","","","","",""
"null","","html-keyboard-response","50","359484","0.0-50.0","A1KZ0KE93WNN5O","<p style=""font-size: 48px;"">+</p>","","","","","null","allTrialResponses","500","1","1","img_art/11.jpg","43","busy city","Jasmine,Alicia,Caitlin,Diana,Vanessa,Emily","Reminds me of a city on a grey/rainy winter's day,25,340,20","dna, odd but nice.,25,120,20","Busy, busy oceanside city.,-10,80,20","It makes my head feel dizzy. So I rated it lower.,-25,380,20","It makes me think of a rainy day and I like the colors. Also like the wavy lines.,22,380,20","It's kind of cool and I see it looks clean.,22,40,20","Vanessa","It makes me think of a rainy day and I like the colors. Also like the wavy lines.,22,380,20","Emily","It's kind of cool and I see it looks clean.,22,40,20","Jasmine","Reminds me of a city on a grey/rainy winter's day,25,340,20","0"
"40584","","survey-text","51","400076","0.0-51.0-0.0","A1KZ0KE93WNN5O","","","","{""Q0"":""It reminds me of a playground equipment base. ""}","","","","","","","","","","","","","","","","","","","","","","",""
"6837.899999976158","","image-slider-response","52","406916","0.0-52.0","A1KZ0KE93WNN5O","","","","","-18","","","","","","","","","","","","","","","","","","","","","",""
"null","","image-button-response","53","411921","0.0-53.0","A1KZ0KE93WNN5O","img_art/5.jpg","null","","","","","","","","","","","","","","","","","","","","","","","","",""
"1553","","image-button-response","54","413477","0.0-54.0","A1KZ0KE93WNN5O","img_art/5.jpg","0","","","","","","","","","","","","","","","","","","","","","","","","",""
"3678","","image-button-response","55","417157","0.0-55.0-0.0","A1KZ0KE93WNN5O","img_art/5.jpg","1","","","","","","","","","","","","","","","","","","","","","","","","",""
"5901","","image-button-response","56","423061","0.0-56.0-0.0","A1KZ0KE93WNN5O","img_art/5.jpg","2","","","","","","","","","","","","","","","","","","","","","","","","",""
"null","","html-keyboard-response","57","424563","0.0-57.0","A1KZ0KE93WNN5O","<p style=""font-size: 48px;"">+</p>","","","","","null","allTrialResponses","1500","1","2","img_art/5.jpg","-18","It reminds me of a playground equipment base. ","Jasmine,Hannah,Kathryn,Meghan,Vanessa,Emily","Not sure what to say about this piece honestly. It's okay I guess.,0,340,20","Very basic, but at least has some color to it.,-9,240,20","I see a sign advising me to be cautious.,-20,140,20","I like it but I don't know why,15,220,20","The yellow is garish and the picture doesn't look liked anything.,-49,380,20","Complete garbage. Looks like a kid drew it.,-50,40,20","Jasmine","Not sure what to say about this piece honestly. It's okay I guess.,0,340,20","Hannah","Very basic, but at least has some color to it.,-9,240,20","Kathryn","I see a sign advising me to be cautious.,-20,140,20","0"
"32246","","survey-text","58","456820","0.0-58.0-0.0","A1KZ0KE93WNN5O","","","","{""Q0"":""a dark woods. very pleasing ""}","","","","","","","","","","","","","","","","","","","","","","",""
"2629.6999999284744","","image-slider-response","59","459452","0.0-59.0","A1KZ0KE93WNN5O","","","","","11","","","","","","","","","","","","","","","","","","","","","",""
"2606","","image-button-response","60","464456","0.0-60.0","A1KZ0KE93WNN5O","img_art/15.jpg","4","","","","","","","","","","","","","","","","","","","","","","","","",""
"3521","","image-button-response","61","467981","0.0-61.0","A1KZ0KE93WNN5O","img_art/15.jpg","3","","","","","","","","","","","","","","","","","","","","","","","","",""
"4653","","image-button-response","62","472637","0.0-62.0-0.0","A1KZ0KE93WNN5O","img_art/15.jpg","2","","","","","","","","","","","","","","","","","","","","","","","","",""
"6805","","image-button-response","63","479445","0.0-63.0-0.0","A1KZ0KE93WNN5O","img_art/15.jpg","4","","","","","","","","","","","","","","","","","","","","","","","","",""
"null","","html-keyboard-response","64","479947","0.0-64.0","A1KZ0KE93WNN5O","<p style=""font-size: 48px;"">+</p>","","","","","null","allTrialResponses","500","1","3","img_art/15.jpg","11","a dark woods. very pleasing ","Jasmine,Hannah,Kathryn,Heather,Savannah,Megan","I like it as the colors complement each other well,21,340,20","Like this for the colors and arrangement.,11,240,20","This is looking at a forest from above. I can see water and some pathways throughout. Nature.,20,140,20","black leaves makes the blue birds stand out.,1,260,20","Love the accent colors in this piece!,20,200,20","Dark, drab asymmetrical floral piece,-26,200,20","Heather","black leaves makes the blue birds stand out.,1,260,20","Kathryn","This is looking at a forest from above. I can see water and some pathways throughout. Nature.,20,140,20","Savannah","Love the accent colors in this piece!,20,200,20","0"
"21102","","survey-text","65","501060","0.0-65.0-0.0","A1KZ0KE93WNN5O","","","","{""Q0"":""I am confused by this. ""}","","","","","","","","","","","","","","","","","","","","","","",""
"4717.600000023842","","image-slider-response","66","505780","0.0-66.0","A1KZ0KE93WNN5O","","","","","-16","","","","","","","","","","","","","","","","","","","","","",""
"null","","image-button-response","67","510784","0.0-67.0","A1KZ0KE93WNN5O","img_art/28.jpg","null","","","","","","","","","","","","","","","","","","","","","","","","",""
"778","","image-button-response","68","511565","0.0-68.0","A1KZ0KE93WNN5O","img_art/28.jpg","4","","","","","","","","","","","","","","","","","","","","","","","","",""
"1453","","image-button-response","69","513021","0.0-69.0-0.0","A1KZ0KE93WNN5O","img_art/28.jpg","3","","","","","","","","","","","","","","","","","","","","","","","","",""
"1709","","image-button-response","70","514733","0.0-70.0-0.0","A1KZ0KE93WNN5O","img_art/28.jpg","0","","","","","","","","","","","","","","","","","","","","","","","","",""
"null","","html-keyboard-response","71","515235","0.0-71.0","A1KZ0KE93WNN5O","<p style=""font-size: 48px;"">+</p>","","","","","null","allTrialResponses","500","1","4","img_art/28.jpg","-16","I am confused by this. ","Marissa,Margaret,Kathryn,Heather,Savannah,Sara","It feels very blah,-10,160,20","i like the neutral color pallette but i dont know what i am looking at,26,100,20","My immediate reaction was to think of smog. It recalls choking on dirty air.,-20,140,20","not sure what i feel but it makes me feel uncomfortable,1,260,20","White and dark balance is way off- Seems dull.,-33,200,20","This swirly drawing i snot my type I get confused and dizzy,-20,160,20","Savannah","White and dark balance is way off- Seems dull.,-33,200,20","Heather","not sure what i feel but it makes me feel uncomfortable,1,260,20","Marissa","It feels very blah,-10,160,20","0"
"13711","","survey-text","72","528956","0.0-72.0-0.0","A1KZ0KE93WNN5O","","","","{""Q0"":""beautiful city scene""}","","","","","","","","","","","","","","","","","","","","","","",""
"2933.899999976158","","image-slider-response","73","531892","0.0-73.0","A1KZ0KE93WNN5O","","","","","50","","","","","","","","","","","","","","","","","","","","","",""
"2022","","image-button-response","74","536896","0.0-74.0","A1KZ0KE93WNN5O","img_art/19.jpg","1","","","","","","","","","","","","","","","","","","","","","","","","",""
"2089","","image-button-response","75","538989","0.0-75.0","A1KZ0KE93WNN5O","img_art/19.jpg","3","","","","","","","","","","","","","","","","","","","","","","","","",""
"7549","","image-button-response","76","546541","0.0-76.0-0.0","A1KZ0KE93WNN5O","img_art/19.jpg","1","","","","","","","","","","","","","","","","","","","","","","","","",""
"4189","","image-button-response","77","550733","0.0-77.0-0.0","A1KZ0KE93WNN5O","img_art/19.jpg","0","","","","","","","","","","","","","","","","","","","","","","","","",""
"null","","html-keyboard-response","78","551735","0.0-78.0","A1KZ0KE93WNN5O","<p style=""font-size: 48px;"">+</p>","","","","","null","allTrialResponses","1000","1","5","img_art/19.jpg","50","beautiful city scene","Marissa,Olivia,Gabriela,Heather,Savannah,Paige","It makes me feel like it is of a street of bakeries,15,160,20","city life energy,8,40,20","it looks messy and non-unique.,-9,140,20","love the images I can pick out of this art,1,260,20","Watercolor abstract? Strange.,1,200,20","it's too busy for me. Makes me feel stressed.,1,60,20","Heather","love the images I can pick out of this art,1,260,20","Olivia","city life energy,8,40,20","Marissa","It makes me feel like it is of a street of bakeries,15,160,20","0"
"5805","","survey-text","79","557564","0.0-79.0-0.0","A1KZ0KE93WNN5O","","","","{""Q0"":""sky""}","","","","","","","","","","","","","","","","","","","","","","",""
"19318","","survey-text","80","576884","0.0-80.0-0.0","A1KZ0KE93WNN5O","","","","{""Q0"":""beautiful color choices""}","","","","","","","","","","","","","","","","","","","","","","",""
"3157.6999999284744","","image-slider-response","81","580044","0.0-81.0","A1KZ0KE93WNN5O","","","","","22","","","","","","","","","","","","","","","","","","","","","",""
"null","","image-button-response","82","585048","0.0-82.0","A1KZ0KE93WNN5O","img_art/1.jpg","null","","","","","","","","","","","","","","","","","","","","","","","","",""
"930","","image-button-response","83","585980","0.0-83.0","A1KZ0KE93WNN5O","img_art/1.jpg","0","","","","","","","","","","","","","","","","","","","","","","","","",""
"3270","","image-button-response","84","589253","0.0-84.0-0.0","A1KZ0KE93WNN5O","img_art/1.jpg","3","","","","","","","","","","","","","","","","","","","","","","","","",""
"3349","","image-button-response","85","592605","0.0-85.0-0.0","A1KZ0KE93WNN5O","img_art/1.jpg","4","","","","","","","","","","","","","","","","","","","","","","","","",""
"null","","html-keyboard-response","86","593108","0.0-86.0","A1KZ0KE93WNN5O","<p style=""font-size: 48px;"">+</p>","","","","","null","allTrialResponses","500","1","6","img_art/1.jpg","22","beautiful color choices","Marissa,Olivia,Maria,Heather,Amber,Kaitlin","It is beautiful, I really enjoy the colors,32,160,20","feels like there is meaning,9,40,20","the bright colours evoke the 90s, and not their best part,-10,120,20","the colors are vibrant and beautiful,1,260,20","Really like all of the colors and how they mesh well.,27,200,20","I see happiness from different aspects of life,31,60,20","Marissa","It is beautiful, I really enjoy the colors,32,160,20","Heather","the colors are vibrant and beautiful,1,260,20","Amber","Really like all of the colors and how they mesh well.,27,200,20","0"
"35806","","survey-text","87","628924","0.0-87.0-0.0","A1KZ0KE93WNN5O","","","","{""Q0"":""Wonderful abstract, very musical ""}","","","","","","","","","","","","","","","","","","","","","","",""
"2597.6999999284744","","image-slider-response","88","631524","0.0-88.0","A1KZ0KE93WNN5O","","","","","34","","","","","","","","","","","","","","","","","","","","","",""
"null","","image-button-response","89","636527","0.0-89.0","A1KZ0KE93WNN5O","img_art/10.jpg","null","","","","","","","","","","","","","","","","","","","","","","","","",""
"418","","image-button-response","90","636948","0.0-90.0","A1KZ0KE93WNN5O","img_art/10.jpg","1","","","","","","","","","","","","","","","","","","","","","","","","",""
"5438","","image-button-response","91","642388","0.0-91.0-0.0","A1KZ0KE93WNN5O","img_art/10.jpg","3","","","","","","","","","","","","","","","","","","","","","","","","",""
"14037","","image-button-response","92","656428","0.0-92.0-0.0","A1KZ0KE93WNN5O","img_art/10.jpg","5","","","","","","","","","","","","","","","","","","","","","","","","",""
"null","","html-keyboard-response","93","656932","0.0-93.0","A1KZ0KE93WNN5O","<p style=""font-size: 48px;"">+</p>","","","","","null","allTrialResponses","500","1","7","img_art/10.jpg","34","Wonderful abstract, very musical ","Marissa,Julia,Michaela,Heather,Amber,Briana","My immediate thought is WTF is this,-20,160,20","this is a good painting, but feels musical in a way that I don't connect with.,-14,40,20","It looks like it's sinking but it could also be a view from above,40,260,20","for some reason reminds me of music,2,260,20","This picture just seems depressing.,-26,200,20","It confuses me. I dont know whats going on,14,400,20","Julia","this is a good painting, but feels musical in a way that I don't connect with.,-14,40,20","Heather","for some reason reminds me of music,2,260,20","Briana","It confuses me. I dont know whats going on,14,400,20","0"
"29387","","survey-text","94","686331","0.0-94.0-0.0","A1KZ0KE93WNN5O","","","","{""Q0"":""I am not sure what is represented. It gives me a sad feeling. ""}","","","","","","","","","","","","","","","","","","","","","","",""
"3797.8000000715256","","image-slider-response","95","690132","0.0-95.0","A1KZ0KE93WNN5O","","","","","-21","","","","","","","","","","","","","","","","","","","","","",""
"4670","","image-button-response","96","695135","0.0-96.0","A1KZ0KE93WNN5O","img_art/2.jpg","0","","","","","","","","","","","","","","","","","","","","","","","","",""
"1074","","image-button-response","97","696212","0.0-97.0","A1KZ0KE93WNN5O","img_art/2.jpg","0","","","","","","","","","","","","","","","","","","","","","","","","",""
"2918","","image-button-response","98","699132","0.0-98.0-0.0","A1KZ0KE93WNN5O","img_art/2.jpg","2","","","","","","","","","","","","","","","","","","","","","","","","",""
"24181","","image-button-response","99","723316","0.0-99.0-0.0","A1KZ0KE93WNN5O","img_art/2.jpg","1","","","","","","","","","","","","","","","","","","","","","","","","",""
"null","","html-keyboard-response","100","724318","0.0-100.0","A1KZ0KE93WNN5O","<p style=""font-size: 48px;"">+</p>","","","","","null","allTrialResponses","1000","1","8","img_art/2.jpg","-21","I am not sure what is represented. It gives me a sad feeling. ","Sabrina,Julia,Sophia,Heather,Kristen,Briana","I dont like the expression of this,-19,120,20","I like how it looks like a cute smiling face,43,40,20","I'm not fond of the colors in this one.,-33,280,20","i like the colors and again can make out my own picture,38,260,20","smilely face, soulful,11,280,20","Childish smiley face,-19,400,20","Sabrina","I dont like the expression of this,-19,120,20","Sophia","I'm not fond of the colors in this one.,-33,280,20","Julia","I like how it looks like a cute smiling face,43,40,20","0"
"13819","","survey-text","101","738148","0.0-101.0-0.0","A1KZ0KE93WNN5O","","","","{""Q0"":""beautiful transition ""}","","","","","","","","","","","","","","","","","","","","","","",""
"4661.699999928474","","image-slider-response","102","742812","0.0-102.0","A1KZ0KE93WNN5O","","","","","37","","","","","","","","","","","","","","","","","","","","","",""
"3286","","image-button-response","103","747815","0.0-103.0","A1KZ0KE93WNN5O","img_art/12.jpg","0","","","","","","","","","","","","","","","","","","","","","","","","",""
"6529","","image-button-response","104","754348","0.0-104.0","A1KZ0KE93WNN5O","img_art/12.jpg","4","","","","","","","","","","","","","","","","","","","","","","","","",""
"1517","","image-button-response","105","755868","0.0-105.0-0.0","A1KZ0KE93WNN5O","img_art/12.jpg","2","","","","","","","","","","","","","","","","","","","","","","","","",""
"3973","","image-button-response","106","759843","0.0-106.0-0.0","A1KZ0KE93WNN5O","img_art/12.jpg","0","","","","","","","","","","","","","","","","","","","","","","","","",""
"null","","html-keyboard-response","107","760347","0.0-107.0","A1KZ0KE93WNN5O","<p style=""font-size: 48px;"">+</p>","","","","","null","allTrialResponses","500","1","9","img_art/12.jpg","37","beautiful transition ","Sabrina,Julia,Sophia,Mikayla,Isabella,Shelby","I like the fact it shares both light and edgy,32,120,20","this is pretty, but I wouldn't hang it on my wall.,15,40,20","Good technique. It's just not my thing.,2,280,20","A little bit boring.,-24,300,20","Something you would see in a government building hallway,3,280,20","The shapes make me feel a bit uncomfortable,-10,240,20","Isabella","Something you would see in a government building hallway,3,280,20","Sophia","Good technique. It's just not my thing.,2,280,20","Sabrina","I like the fact it shares both light and edgy,32,120,20","0"
"22650","","survey-text","108","783019","0.0-108.0-0.0","A1KZ0KE93WNN5O","","","","{""Q0"":""I dont understand it ""}","","","","","","","","","","","","","","","","","","","","","","",""
"3277.5","","image-slider-response","109","786299","0.0-109.0","A1KZ0KE93WNN5O","","","","","-26","","","","","","","","","","","","","","","","","","","","","",""
"4319","","image-button-response","110","791303","0.0-110.0","A1KZ0KE93WNN5O","img_art/27.jpg","1","","","","","","","","","","","","","","","","","","","","","","","","",""
"1282","","image-button-response","111","792588","0.0-111.0","A1KZ0KE93WNN5O","img_art/27.jpg","1","","","","","","","","","","","","","","","","","","","","","","","","",""
"9078","","image-button-response","112","801668","0.0-112.0-0.0","A1KZ0KE93WNN5O","img_art/27.jpg","5","","","","","","","","","","","","","","","","","","","","","","","","",""
"3637","","image-button-response","113","805308","0.0-113.0-0.0","A1KZ0KE93WNN5O","img_art/27.jpg","2","","","","","","","","","","","","","","","","","","","","","","","","",""
"null","","html-keyboard-response","114","806811","0.0-114.0","A1KZ0KE93WNN5O","<p style=""font-size: 48px;"">+</p>","","","","","null","allTrialResponses","1500","1","10","img_art/27.jpg","-26","I dont understand it ","Sabrina,Haley,Sophia,Jamie,Isabella,Allison","Love the representation of home,22,120,20","First thought is again, that this looks like a child's art assignment,-20,220,20","Yikes. I think I made this in kindergarten.,-20,280,20","Don't like the mix of green with the warmer colors,-15,320,20","Makes me feel warm inside,21,280,20","Warn colors are pretty, but too blotchy for me.,3,140,20","Haley","First thought is again, that this looks like a child's art assignment,-20,220,20","Allison","Warn colors are pretty, but too blotchy for me.,3,140,20","Sophia","Yikes. I think I made this in kindergarten.,-20,280,20","0"
"4979","","survey-text","115","811812","0.0-115.0-0.0","A1KZ0KE93WNN5O","","","","{""Q0"":""our""}","","","","","","","","","","","","","","","","","","","","","","",""
"17405","","survey-text","116","829220","0.0-116.0-0.0","A1KZ0KE93WNN5O","","","","{""Q0"":""amazing use of color""}","","","","","","","","","","","","","","","","","","","","","","",""
"2862.100000023842","","image-slider-response","117","832084","0.0-117.0","A1KZ0KE93WNN5O","","","","","50","","","","","","","","","","","","","","","","","","","","","",""
"null","","image-button-response","118","837088","0.0-118.0","A1KZ0KE93WNN5O","img_art/14.jpg","null","","","","","","","","","","","","","","","","","","","","","","","","",""
"4034","","image-button-response","119","841124","0.0-119.0","A1KZ0KE93WNN5O","img_art/14.jpg","0","","","","","","","","","","","","","","","","","","","","","","","","",""
"4373","","image-button-response","120","845500","0.0-120.0-0.0","A1KZ0KE93WNN5O","img_art/14.jpg","2","","","","","","","","","","","","","","","","","","","","","","","","",""
"2110","","image-button-response","121","847613","0.0-121.0-0.0","A1KZ0KE93WNN5O","img_art/14.jpg","3","","","","","","","","","","","","","","","","","","","","","","","","",""
"null","","html-keyboard-response","122","848615","0.0-122.0","A1KZ0KE93WNN5O","<p style=""font-size: 48px;"">+</p>","","","","","null","allTrialResponses","1000","1","11","img_art/14.jpg","50","amazing use of color","Elizabeth,Haley,Sophia,Ashley,Laura,Allison","Love the abstractness of this painting,39,20,20","I like the colors in the background, but not the bottom/center. It almost looks sloppy.,-20,220,20","I don't know why, but this piece makes me happy.,20,280,20","I like the color tone, it's kind of disturbing.,35,320,20","feels incomplete, poorly planned/executed,-34,320,20","Very abstract. Unsure of what I'm looking at. No emotions towards it.,-6,140,20","Elizabeth","Love the abstractness of this painting,39,20,20","Sophia","I don't know why, but this piece makes me happy.,20,280,20","Ashley","I like the color tone, it's kind of disturbing.,35,320,20","0"
"12746","","survey-text","123","861372","0.0-123.0-0.0","A1KZ0KE93WNN5O","","","","{""Q0"":""This is awful""}","","","","","","","","","","","","","","","","","","","","","","",""
"3205.600000023842","","image-slider-response","124","864580","0.0-124.0","A1KZ0KE93WNN5O","","","","","-23","","","","","","","","","","","","","","","","","","","","","",""
"null","","image-button-response","125","869584","0.0-125.0","A1KZ0KE93WNN5O","img_art/4.jpg","null","","","","","","","","","","","","","","","","","","","","","","","","",""
"1258","","image-button-response","126","870844","0.0-126.0","A1KZ0KE93WNN5O","img_art/4.jpg","2","","","","","","","","","","","","","","","","","","","","","","","","",""
"11158","","image-button-response","127","882004","0.0-127.0-0.0","A1KZ0KE93WNN5O","img_art/4.jpg","1","","","","","","","","","","","","","","","","","","","","","","","","",""
"11325","","image-button-response","128","893332","0.0-128.0-0.0","A1KZ0KE93WNN5O","img_art/4.jpg","3","","","","","","","","","","","","","","","","","","","","","","","","",""
"null","","html-keyboard-response","129","894835","0.0-129.0","A1KZ0KE93WNN5O","<p style=""font-size: 48px;"">+</p>","","","","","null","allTrialResponses","1500","1","12","img_art/4.jpg","-23","This is awful","Elizabeth,Crystal,Sophia,Ashley,Katelyn,Catherine","Like the color vibrancy,29,20,20","Looks like finger nails from the Guinness world record book.,-30,300,20","This looks like what happens when someone steps on a mustard packet.,-7,280,20","It looks like a hand.,25,320,20","I like the warmth in the colors. Its reassuring.,9,100,20","Hearts, family connected. They are standing on a narrow base and could fall to pieces at anytime.,40,160,20","Sophia","This looks like what happens when someone steps on a mustard packet.,-7,280,20","Crystal","Looks like finger nails from the Guinness world record book.,-30,300,20","Ashley","It looks like a hand.,25,320,20","0"
"20708","","survey-text","130","915556","0.0-130.0-0.0","A1KZ0KE93WNN5O","","","","{""Q0"":""musical, wonderful, mysterious""}","","","","","","","","","","","","","","","","","","","","","","",""
"5309.699999928474","","image-slider-response","131","920868","0.0-131.0","A1KZ0KE93WNN5O","","","","","30","","","","","","","","","","","","","","","","","","","","","",""
"4325","","image-button-response","132","925871","0.0-132.0","A1KZ0KE93WNN5O","img_art/23.jpg","1","","","","","","","","","","","","","","","","","","","","","","","","",""
"770","","image-button-response","133","926644","0.0-133.0","A1KZ0KE93WNN5O","img_art/23.jpg","1","","","","","","","","","","","","","","","","","","","","","","","","",""
"2181","","image-button-response","134","928828","0.0-134.0-0.0","A1KZ0KE93WNN5O","img_art/23.jpg","0","","","","","","","","","","","","","","","","","","","","","","","","",""
"8036","","image-button-response","135","936868","0.0-135.0-0.0","A1KZ0KE93WNN5O","img_art/23.jpg","2","","","","","","","","","","","","","","","","","","","","","","","","",""
"null","","html-keyboard-response","136","937871","0.0-136.0","A1KZ0KE93WNN5O","<p style=""font-size: 48px;"">+</p>","","","","","null","allTrialResponses","1000","1","13","img_art/23.jpg","30","musical, wonderful, mysterious","Jessica,Crystal,Sophia,Ashley,Bailey,Rebecca","This is very cool!,24,400,20","I love the funky colors accompanied by perhaps dancing silhouettes. I love the white against the chaotic surroundings.,50,300,20","I like the contrast and the bright colors in this one.,6,280,20","A line dance, it's really strinkingly beautiful.,50,320,20","Not a fan of these dot pieces. They hurt my eyes.,-25,360,20","love the contrast (was this painted by a left-handed artist?),7,100,20","Crystal","I love the funky colors accompanied by perhaps dancing silhouettes. I love the white against the chaotic surroundings.,50,300,20","Jessica","This is very cool!,24,400,20","Sophia","I like the contrast and the bright colors in this one.,6,280,20","0"
"17022","","survey-text","137","954908","0.0-137.0-0.0","A1KZ0KE93WNN5O","","","","{""Q0"":""Oh this is amazing""}","","","","","","","","","","","","","","","","","","","","","","",""
"4277.899999976158","","image-slider-response","138","959188","0.0-138.0","A1KZ0KE93WNN5O","","","","","50","","","","","","","","","","","","","","","","","","","","","",""
"4389","","image-button-response","139","964191","0.0-139.0","A1KZ0KE93WNN5O","img_art/18.jpg","0","","","","","","","","","","","","","","","","","","","","","","","","",""
"1994","","image-button-response","140","966188","0.0-140.0","A1KZ0KE93WNN5O","img_art/18.jpg","1","","","","","","","","","","","","","","","","","","","","","","","","",""
"1981","","image-button-response","141","968172","0.0-141.0-0.0","A1KZ0KE93WNN5O","img_art/18.jpg","0","","","","","","","","","","","","","","","","","","","","","","","","",""
"2517","","image-button-response","142","970692","0.0-142.0-0.0","A1KZ0KE93WNN5O","img_art/18.jpg","2","","","","","","","","","","","","","","","","","","","","","","","","",""
"null","","html-keyboard-response","143","971694","0.0-143.0","A1KZ0KE93WNN5O","<p style=""font-size: 48px;"">+</p>","","","","","null","allTrialResponses","1000","1","14","img_art/18.jpg","50","Oh this is amazing","Jessica,Crystal,Sophia,Christina,Alexa,Brooke","I think this looks pretty cool, I can see what's kind of going on here.,22,400,20","I love this because abstractly depicts the apocalypse. The white horse and its rider as Death, described in religious texts and pop culture. ""He rode a pale horse and his name was death."",50,300,20","This one is very dark and apocalyptic indeed!,-30,280,20","it looks dreary and not uplifting,-10,240,20","Very wild and abstract. I love it and would definitely hang this up in my home,50,40,20","Don't like the color scheme. Or the theme.,-5,60,20","Crystal","I love this because abstractly depicts the apocalypse. The white horse and its rider as Death, described in religious texts and pop culture. ""He rode a pale horse and his name was death."",50,300,20","Jessica","I think this looks pretty cool, I can see what's kind of going on here.,22,400,20","Sophia","This one is very dark and apocalyptic indeed!,-30,280,20","0"
"11695","","survey-text","144","983403","0.0-144.0-0.0","A1KZ0KE93WNN5O","","","","{""Q0"":""calm city scene""}","","","","","","","","","","","","","","","","","","","","","","",""
"2901.9000000953674","","image-slider-response","145","986307","0.0-145.0","A1KZ0KE93WNN5O","","","","","18","","","","","","","","","","","","","","","","","","","","","",""
"4678","","image-button-response","146","991311","0.0-146.0","A1KZ0KE93WNN5O","img_art/26.jpg","2","","","","","","","","","","","","","","","","","","","","","","","","",""
"921","","image-button-response","147","992236","0.0-147.0","A1KZ0KE93WNN5O","img_art/26.jpg","2","","","","","","","","","","","","","","","","","","","","","","","","",""
"3693","","image-button-response","148","995932","0.0-148.0-0.0","A1KZ0KE93WNN5O","img_art/26.jpg","4","","","","","","","","","","","","","","","","","","","","","","","","",""
"1741","","image-button-response","149","997676","0.0-149.0-0.0","A1KZ0KE93WNN5O","img_art/26.jpg","5","","","","","","","","","","","","","","","","","","","","","","","","",""
"null","","html-keyboard-response","150","998177","0.0-150.0","A1KZ0KE93WNN5O","<p style=""font-size: 48px;"">+</p>","","","","","null","allTrialResponses","500","1","15","img_art/26.jpg","18","calm city scene","Jessica,Crystal,Sophia,Brittany,Kaylee,Kayla","It doesn't look so vibrant, I'm not sure what feelings they were trying to capture,-41,400,20","Do not like water colors at all,-50,300,20","I like this. Looks like a city street and I can use my imagination to make it come alive.,15,280,20","It looks boring and too rough.,-9,40,20","cool cozy town vibes,50,200,20","Looks like the suburbs. I live in those.,13,180,20","Sophia","I like this. Looks like a city street and I can use my imagination to make it come alive.,15,280,20","Kaylee","cool cozy town vibes,50,200,20","Kayla","Looks like the suburbs. I live in those.,13,180,20","0"
"11776","","survey-text","151","1009979","0.0-151.0-0.0","A1KZ0KE93WNN5O","","","","{""Q0"":""course""}","","","","","","","","","","","","","","","","","","","","","","",""
"22845","","survey-text","152","1032827","0.0-152.0-0.0","A1KZ0KE93WNN5O","","","","{""Q0"":""fabulous waterfall, beautiful colors""}","","","","","","","","","","","","","","","","","","","","","","",""
"2957.7000000476837","","image-slider-response","153","1035787","0.0-153.0","A1KZ0KE93WNN5O","","","","","38","","","","","","","","","","","","","","","","","","","","","",""
"4285","","image-button-response","154","1040790","0.0-154.0","A1KZ0KE93WNN5O","img_art/24.jpg","0","","","","","","","","","","","","","","","","","","","","","","","","",""
"1578","","image-button-response","155","1042371","0.0-155.0","A1KZ0KE93WNN5O","img_art/24.jpg","0","","","","","","","","","","","","","","","","","","","","","","","","",""
"3845","","image-button-response","156","1046219","0.0-156.0-0.0","A1KZ0KE93WNN5O","img_art/24.jpg","5","","","","","","","","","","","","","","","","","","","","","","","","",""
"732","","image-button-response","157","1046955","0.0-157.0-0.0","A1KZ0KE93WNN5O","img_art/24.jpg","5","","","","","","","","","","","","","","","","","","","","","","","","",""
"1886","","image-button-response","158","1052643","0.0-157.1-0.1","A1KZ0KE93WNN5O","img_art/24.jpg","4","","","","","","","","","","","","","","","","","","","","","","","","",""
"null","","html-keyboard-response","159","1053646","0.0-158.0","A1KZ0KE93WNN5O","<p style=""font-size: 48px;"">+</p>","","","","","null","allTrialResponses","1000","1","16","img_art/24.jpg","38","fabulous waterfall, beautiful colors","Natalie,Makayla,Sophia,Jennifer,Kaylee,Kayla","I like the waterfall,22,400,20","Looks like a serene waterfall and woods,29,80,20","Hmm. Don't know what to make of this one.,1,280,20","This piece resembles a waterfall surrounded by trees.,21,380,20","lovely forest vibes,36,200,20","It looks like a poor dead bunny in a field of flowers. I don't want the bunny to be dead.,-37,180,20","Natalie","I like the waterfall,22,400,20","Kayla","It looks like a poor dead bunny in a field of flowers. I don't want the bunny to be dead.,-37,180,20","Kaylee","lovely forest vibes,36,200,20","2"
"10048","","survey-text","160","1063707","0.0-159.0-0.0","A1KZ0KE93WNN5O","","","","{""Q0"":""a lonely crow""}","","","","","","","","","","","","","","","","","","","","","","",""
"3213.7000000476837","","image-slider-response","161","1066923","0.0-160.0","A1KZ0KE93WNN5O","","","","","20","","","","","","","","","","","","","","","","","","","","","",""
"4749","","image-button-response","162","1071927","0.0-161.0","A1KZ0KE93WNN5O","img_art/6.jpg","5","","","","","","","","","","","","","","","","","","","","","","","","",""
"5064","","image-button-response","163","1076995","0.0-162.0","A1KZ0KE93WNN5O","img_art/6.jpg","3","","","","","","","","","","","","","","","","","","","","","","","","",""
"1333","","image-button-response","164","1078331","0.0-163.0-0.0","A1KZ0KE93WNN5O","img_art/6.jpg","5","","","","","","","","","","","","","","","","","","","","","","","","",""
"1829","","image-button-response","165","1080163","0.0-164.0-0.0","A1KZ0KE93WNN5O","img_art/6.jpg","2","","","","","","","","","","","","","","","","","","","","","","","","",""
"null","","html-keyboard-response","166","1080665","0.0-165.0","A1KZ0KE93WNN5O","<p style=""font-size: 48px;"">+</p>","","","","","null","allTrialResponses","500","1","17","img_art/6.jpg","20","a lonely crow","Natalie,Sarah,Chloe,Anna,Kaylee,Kayla","reminds me a giant peach,19,400,20","it's interesting but I don't love it,10,180,20","Cute and evocative,11,220,20","It reminds me of a simplistic bird. I like the colors used.,40,300,20","just an another tree on a desert?,9,200,20","Little birdie in a desert. Seeking better frontiers.,13,180,20","Anna","It reminds me of a simplistic bird. I like the colors used.,40,300,20","Kayla","Little birdie in a desert. Seeking better frontiers.,13,180,20","Chloe","Cute and evocative,11,220,20","2"
"68787","","survey-text","167","1149468","0.0-166.0-0.0","A1KZ0KE93WNN5O","","","","{""Q0"":""amazing choice of color makes me feel disconnected""}","","","","","","","","","","","","","","","","","","","","","","",""
"2653.6999999284744","","image-slider-response","168","1152123","0.0-167.0","A1KZ0KE93WNN5O","","","","","9","","","","","","","","","","","","","","","","","","","","","",""
"4270","","image-button-response","169","1157127","0.0-168.0","A1KZ0KE93WNN5O","img_art/13.jpg","1","","","","","","","","","","","","","","","","","","","","","","","","",""
"4513","","image-button-response","170","1161644","0.0-169.0","A1KZ0KE93WNN5O","img_art/13.jpg","4","","","","","","","","","","","","","","","","","","","","","","","","",""
"4181","","image-button-response","171","1165828","0.0-170.0-0.0","A1KZ0KE93WNN5O","img_art/13.jpg","5","","","","","","","","","","","","","","","","","","","","","","","","",""
"3133","","image-button-response","172","1168964","0.0-171.0-0.0","A1KZ0KE93WNN5O","img_art/13.jpg","1","","","","","","","","","","","","","","","","","","","","","","","","",""
"null","","html-keyboard-response","173","1169466","0.0-172.0","A1KZ0KE93WNN5O","<p style=""font-size: 48px;"">+</p>","","","","","null","allTrialResponses","500","1","18","img_art/13.jpg","9","amazing choice of color makes me feel disconnected","Cynthia,Alexis,Chloe,Anna,Lindsey,Kayla","It reminds me of rain,11,320,20","Simple, but pleasing. The blue gradient is a favorite of mine,32,100,20","Industrial Jackson Pollock knock-off,-20,220,20","It reminds me of a window on a rainy day.,40,300,20","I find this oddly pleasant, but I object to this style. It's just a background with splatters. How is that art?,-5,400,20","Pleasing, happy, rainy.,12,180,20","Lindsey","I find this oddly pleasant, but I object to this style. It's just a background with splatters. How is that art?,-5,400,20","Kayla","Pleasing, happy, rainy.,12,180,20","Alexis","Simple, but pleasing. The blue gradient is a favorite of mine,32,100,20","2"
"36659","","survey-text","174","1206139","0.0-173.0-0.0","A1KZ0KE93WNN5O","","","","{""Q0"":""leaves me looking for more, the subject is interesting""}","","","","","","","","","","","","","","","","","","","","","","",""
"3133.899999976158","","image-slider-response","175","1209275","0.0-174.0","A1KZ0KE93WNN5O","","","","","50","","","","","","","","","","","","","","","","","","","","","",""
"null","","image-button-response","176","1214278","0.0-175.0","A1KZ0KE93WNN5O","img_art/9.jpg","null","","","","","","","","","","","","","","","","","","","","","","","","",""
"594","","image-button-response","177","1214876","0.0-176.0","A1KZ0KE93WNN5O","img_art/9.jpg","2","","","","","","","","","","","","","","","","","","","","","","","","",""
"5054","","image-button-response","178","1219932","0.0-177.0-0.0","A1KZ0KE93WNN5O","img_art/9.jpg","5","","","","","","","","","","","","","","","","","","","","","","","","",""
"1733","","image-button-response","179","1221667","0.0-178.0-0.0","A1KZ0KE93WNN5O","img_art/9.jpg","0","","","","","","","","","","","","","","","","","","","","","","","","",""
"null","","html-keyboard-response","180","1223171","0.0-179.0","A1KZ0KE93WNN5O","<p style=""font-size: 48px;"">+</p>","","","","","null","allTrialResponses","1500","1","19","img_art/9.jpg","50","leaves me looking for more, the subject is interesting","Alexandria,Alexis,Caroline,Leah,Lindsey,Kayla","it makes me feel excited and draws my eye around,24,80,20","I like the sense of forboding, the green creates a claustrophobic feeling,10,100,20","Stirs up emotions of watching someone sleep which is relaxing,11,100,20","Depressing to me, like a dark dream,-11,360,20","Looks like my niece's doodles.,-50,400,20","It's nice. Peaceful. Calming.,11,180,20","Caroline","Stirs up emotions of watching someone sleep which is relaxing,11,100,20","Kayla","It's nice. Peaceful. Calming.,11,180,20","Alexandria","it makes me feel excited and draws my eye around,24,80,20","2"
"27689","","survey-text","181","1250875","0.0-180.0-0.0","A1KZ0KE93WNN5O","","","","{""Q0"":""warm calm feeling, a lady in her garden""}","","","","","","","","","","","","","","","","","","","","","","",""
"3077.7000000476837","","image-slider-response","182","1253955","0.0-181.0","A1KZ0KE93WNN5O","","","","","30","","","","","","","","","","","","","","","","","","","","","",""
"null","","image-button-response","183","1258958","0.0-182.0","A1KZ0KE93WNN5O","img_art/25.jpg","null","","","","","","","","","","","","","","","","","","","","","","","","",""
"8705","","image-button-response","184","1267667","0.0-183.0","A1KZ0KE93WNN5O","img_art/25.jpg","0","","","","","","","","","","","","","","","","","","","","","","","","",""
"1278","","image-button-response","185","1268947","0.0-184.0-0.0","A1KZ0KE93WNN5O","img_art/25.jpg","0","","","","","","","","","","","","","","","","","","","","","","","","",""
"3302","","image-button-response","186","1276307","0.0-184.1-0.1","A1KZ0KE93WNN5O","img_art/25.jpg","2","","","","","","","","","","","","","","","","","","","","","","","","",""
"5477","","image-button-response","187","1281787","0.0-185.0-0.0","A1KZ0KE93WNN5O","img_art/25.jpg","5","","","","","","","","","","","","","","","","","","","","","","","","",""
"null","","html-keyboard-response","188","1282790","0.0-186.0","A1KZ0KE93WNN5O","<p style=""font-size: 48px;"">+</p>","","","","","null","allTrialResponses","1000","1","20","img_art/25.jpg","30","warm calm feeling, a lady in her garden","Alexandria,Amanda,Caroline,Dominique,Erica,Kayla","the contrasting colors are very interesting,24,80,20","Reminds me of Mr. Burns on drugs in the Simpsons,-50,180,20","Makes me think of Baphomet, As above so below and is scary,-50,100,20","Iike this picture; it speaks to me on a personal level. But seems to scare the ones around me.,7,400,20","reminds me of a demon,-25,80,20","Ghosts are NOT my thing.,-13,180,20","Alexandria","the contrasting colors are very interesting,24,80,20","Caroline","Makes me think of Baphomet, As above so below and is scary,-50,100,20","Kayla","Ghosts are NOT my thing.,-13,180,20","4"
"4371","","survey-text","189","1287186","0.0-187.0-0.0","A1KZ0KE93WNN5O","","","","{""Q0"":""we""}","","","","","","","","","","","","","","","","","","","","","","",""
"20855","","survey-text","190","1308043","0.0-188.0-0.0","A1KZ0KE93WNN5O","","","","{""Q0"":""love the earth tones, very pleasing ""}","","","","","","","","","","","","","","","","","","","","","","",""
"2461.8000000715256","","image-slider-response","191","1310507","0.0-189.0","A1KZ0KE93WNN5O","","","","","50","","","","","","","","","","","","","","","","","","","","","",""
"2822","","image-button-response","192","1315511","0.0-190.0","A1KZ0KE93WNN5O","img_art/17.jpg","5","","","","","","","","","","","","","","","","","","","","","","","","",""
"8408","","image-button-response","193","1323923","0.0-191.0","A1KZ0KE93WNN5O","img_art/17.jpg","0","","","","","","","","","","","","","","","","","","","","","","","","",""
"1750","","image-button-response","194","1325675","0.0-192.0-0.0","A1KZ0KE93WNN5O","img_art/17.jpg","1","","","","","","","","","","","","","","","","","","","","","","","","",""
"1837","","image-button-response","195","1327516","0.0-193.0-0.0","A1KZ0KE93WNN5O","img_art/17.jpg","5","","","","","","","","","","","","","","","","","","","","","","","","",""
"null","","html-keyboard-response","196","1328519","0.0-194.0","A1KZ0KE93WNN5O","<p style=""font-size: 48px;"">+</p>","","","","","null","allTrialResponses","1000","1","21","img_art/17.jpg","50","love the earth tones, very pleasing ","Alexandria,Victoria,Caroline,Mary,Danielle,Kayla","it looks very intricate and colorful,50,80,20","love the wispyness of it,34,400,20","Beautiful colors. Made me feel soft and feminine,50,100,20","The colors are nice and soft but not very complimentary.,7,180,20","It's alright, nothing I particularly like but it's just fine,-10,340,20","I like the way the forest is taking over the buildings.,21,180,20","Alexandria","it looks very intricate and colorful,50,80,20","Victoria","love the wispyness of it,34,400,20","Kayla","I like the way the forest is taking over the buildings.,21,180,20","4"
"19366","","survey-text","197","1347899","0.0-195.0-0.0","A1KZ0KE93WNN5O","","","","{""Q0"":""I am confused, I do not like it at all. ""}","","","","","","","","","","","","","","","","","","","","","","",""
"2861.7999999523163","","image-slider-response","198","1350763","0.0-196.0","A1KZ0KE93WNN5O","","","","","-50","","","","","","","","","","","","","","","","","","","","","",""
"2078","","image-button-response","199","1355767","0.0-197.0","A1KZ0KE93WNN5O","img_art/30.jpg","1","","","","","","","","","","","","","","","","","","","","","","","","",""
"2441","","image-button-response","200","1358211","0.0-198.0","A1KZ0KE93WNN5O","img_art/30.jpg","3","","","","","","","","","","","","","","","","","","","","","","","","",""
"2694","","image-button-response","201","1360907","0.0-199.0-0.0","A1KZ0KE93WNN5O","img_art/30.jpg","1","","","","","","","","","","","","","","","","","","","","","","","","",""
"4525","","image-button-response","202","1365435","0.0-200.0-0.0","A1KZ0KE93WNN5O","img_art/30.jpg","2","","","","","","","","","","","","","","","","","","","","","","","","",""
"null","","html-keyboard-response","203","1366938","0.0-201.0","A1KZ0KE93WNN5O","<p style=""font-size: 48px;"">+</p>","","","","","null","allTrialResponses","1500","1","22","img_art/30.jpg","-50","I am confused, I do not like it at all. ","Alexandria,Victoria,Rachel,Shannon,Molly,Kayla","the lines and colors look purposeful,18,80,20","to dark and dreary,-28,400,20","I like this one because I am a mom and it reminds me of a child finger-painting.,20,80,20","I feel like the colors are too repetitive and not very eyecatching.,-20,220,20","I like the way the artist has painted his work.,40,340,20","It's soothing- the page is full, but there aren't too many things happening.,23,180,20","Shannon","I feel like the colors are too repetitive and not very eyecatching.,-20,220,20","Victoria","to dark and dreary,-28,400,20","Rachel","I like this one because I am a mom and it reminds me of a child finger-painting.,20,80,20","4"
"13769","","survey-text","204","1380723","0.0-202.0-0.0","A1KZ0KE93WNN5O","","","","{""Q0"":""awesome detail""}","","","","","","","","","","","","","","","","","","","","","","",""
"2701.7999999523163","","image-slider-response","205","1383427","0.0-203.0","A1KZ0KE93WNN5O","","","","","28","","","","","","","","","","","","","","","","","","","","","",""
"null","","image-button-response","206","1388431","0.0-204.0","A1KZ0KE93WNN5O","img_art/7.jpg","null","","","","","","","","","","","","","","","","","","","","","","","","",""
"1305","","image-button-response","207","1389739","0.0-205.0","A1KZ0KE93WNN5O","img_art/7.jpg","4","","","","","","","","","","","","","","","","","","","","","","","","",""
"9374","","image-button-response","208","1399115","0.0-206.0-0.0","A1KZ0KE93WNN5O","img_art/7.jpg","2","","","","","","","","","","","","","","","","","","","","","","","","",""
"2909","","image-button-response","209","1402027","0.0-207.0-0.0","A1KZ0KE93WNN5O","img_art/7.jpg","1","","","","","","","","","","","","","","","","","","","","","","","","",""
"null","","html-keyboard-response","210","1402529","0.0-208.0","A1KZ0KE93WNN5O","<p style=""font-size: 48px;"">+</p>","","","","","null","allTrialResponses","500","1","23","img_art/7.jpg","28","awesome detail","Leslie,Victoria,Rachel,Shannon,Katie,Grace","This elicits no reaction in me.,0,380,20","looks like a photograph,-4,400,20","Looks like a desert or another planet. While the color choices are narrow, it's still interesting because it is very natural.,12,80,20","I don't like the repetitiveness of the colors, and I think there should be more colors.,-50,220,20","I see dryness, which is sad. Dirt, sand, the dessert. Barren dry lifeless,-30,160,20","Makes me itch - looks like a closeup of an ant colony or something.,-1,180,20","Katie","I see dryness, which is sad. Dirt, sand, the dessert. Barren dry lifeless,-30,160,20","Rachel","Looks like a desert or another planet. While the color choices are narrow, it's still interesting because it is very natural.,12,80,20","Victoria","looks like a photograph,-4,400,20","4"
"26287","","survey-text","211","1428832","0.0-209.0-0.0","A1KZ0KE93WNN5O","","","","{""Q0"":""interesting concept""}","","","","","","","","","","","","","","","","","","","","","","",""
"3168.2999999523163","","image-slider-response","212","1432003","0.0-210.0","A1KZ0KE93WNN5O","","","","","9","","","","","","","","","","","","","","","","","","","","","",""
"3437","","image-button-response","213","1437006","0.0-211.0","A1KZ0KE93WNN5O","img_art/8.jpg","2","","","","","","","","","","","","","","","","","","","","","","","","",""
"2488","","image-button-response","214","1439499","0.0-212.0","A1KZ0KE93WNN5O","img_art/8.jpg","0","","","","","","","","","","","","","","","","","","","","","","","","",""
"8725","","image-button-response","215","1448227","0.0-213.0-0.0","A1KZ0KE93WNN5O","img_art/8.jpg","4","","","","","","","","","","","","","","","","","","","","","","","","",""
"2485","","image-button-response","216","1450715","0.0-214.0-0.0","A1KZ0KE93WNN5O","img_art/8.jpg","5","","","","","","","","","","","","","","","","","","","","","","","","",""
"null","","html-keyboard-response","217","1452217","0.0-215.0","A1KZ0KE93WNN5O","<p style=""font-size: 48px;"">+</p>","","","","","null","allTrialResponses","1500","1","24","img_art/8.jpg","9","interesting concept","Alyssa,Victoria,Rachel,Sierra,Katie,Jacqueline","I like how the more you like at it there are more things to discover.Very creative.,33,160,20","makes me think of a busy city,-18,400,20","I like all of the faces that can be found in this piece. Interesting.,35,80,20","i love the colors, the church and the face,42,260,20","I like the colors. But I don't like the faces, they look distraught. Faces and sharp shapes make me anxious,1,160,20","This is kind of neat. I really like how things are oriented and the shapes used.,18,300,20","Alyssa","I like how the more you like at it there are more things to discover.Very creative.,33,160,20","Katie","I like the colors. But I don't like the faces, they look distraught. Faces and sharp shapes make me anxious,1,160,20","Jacqueline","This is kind of neat. I really like how things are oriented and the shapes used.,18,300,20","4"
"15610","","survey-text","218","1467843","0.0-216.0-0.0","A1KZ0KE93WNN5O","","","","{""Q0"":""very colorful and pleasing ""}","","","","","","","","","","","","","","","","","","","","","","",""
"6237.700000047684","","image-slider-response","219","1474082","0.0-217.0","A1KZ0KE93WNN5O","","","","","25","","","","","","","","","","","","","","","","","","","","","",""
"4566","","image-button-response","220","1479087","0.0-218.0","A1KZ0KE93WNN5O","img_art/22.jpg","2","","","","","","","","","","","","","","","","","","","","","","","","",""
"1321","","image-button-response","221","1480411","0.0-219.0","A1KZ0KE93WNN5O","img_art/22.jpg","2","","","","","","","","","","","","","","","","","","","","","","","","",""
"918","","image-button-response","222","1481331","0.0-220.0-0.0","A1KZ0KE93WNN5O","img_art/22.jpg","1","","","","","","","","","","","","","","","","","","","","","","","","",""
"8221","","image-button-response","223","1489554","0.0-221.0-0.0","A1KZ0KE93WNN5O","img_art/22.jpg","4","","","","","","","","","","","","","","","","","","","","","","","","",""
"null","","html-keyboard-response","224","1491058","0.0-222.0","A1KZ0KE93WNN5O","<p style=""font-size: 48px;"">+</p>","","","","","null","allTrialResponses","1500","1","25","img_art/22.jpg","25","very colorful and pleasing ","Alyssa,Sydney,Gabrielle,Kaitlyn,Katie,Jacqueline","Its okay,it doesnt make me feel any sort of strong emotion,1,160,20","I don't normally like bright colors, but I like them in this. Don't like the random black paint.,30,320,20","another OK work, mostly because of the blend of colors,12,160,20","Would be better if random black object was not present,11,80,20","Too much red. The red/yellow/orange make me think of heat/fire, which makes me anxious.,-10,160,20","I feel like I've seen this one already.,-9,300,20","Gabrielle","another OK work, mostly because of the blend of colors,12,160,20","Sydney","I don't normally like bright colors, but I like them in this. Don't like the random black paint.,30,320,20","Katie","Too much red. The red/yellow/orange make me think of heat/fire, which makes me anxious.,-10,160,20","4"
"6749","","survey-text","225","1497842","0.0-223.0-0.0","A1KZ0KE93WNN5O","","","","{""Q0"":""table""}","","","","","","","","","","","","","","","","","","","","","","",""
"13334","","survey-text","226","1511178","0.0-224.0-0.0","A1KZ0KE93WNN5O","","","","{""Q0"":""This makes no sense""}","","","","","","","","","","","","","","","","","","","","","","",""
"4350","","image-slider-response","227","1515530","0.0-225.0","A1KZ0KE93WNN5O","","","","","-15","","","","","","","","","","","","","","","","","","","","","",""
"2885","","image-button-response","228","1520534","0.0-226.0","A1KZ0KE93WNN5O","img_art/16.jpg","2","","","","","","","","","","","","","","","","","","","","","","","","",""
"904","","image-button-response","229","1521442","0.0-227.0","A1KZ0KE93WNN5O","img_art/16.jpg","2","","","","","","","","","","","","","","","","","","","","","","","","",""
"2453","","image-button-response","230","1523898","0.0-228.0-0.0","A1KZ0KE93WNN5O","img_art/16.jpg","0","","","","","","","","","","","","","","","","","","","","","","","","",""
"5029","","image-button-response","231","1528930","0.0-229.0-0.0","A1KZ0KE93WNN5O","img_art/16.jpg","3","","","","","","","","","","","","","","","","","","","","","","","","",""
"null","","html-keyboard-response","232","1530434","0.0-230.0","A1KZ0KE93WNN5O","<p style=""font-size: 48px;"">+</p>","","","","","null","allTrialResponses","1500","1","26","img_art/16.jpg","-15","This makes no sense","Cassidy,Sydney,Gabrielle,Monica,Katie,Cheyenne","I don't know why, I just don't like it,-28,140,20","This piece is unusual but unique.,5,320,20","nonsense art, not really art,-44,160,20","Don't know if there's a meaning but I like how seemingly random objects were stuck together and called art,20,360,20","Upsetting and disturbing. Random bear and indistinguishable objects. None of it goes together. Too chaotic and random,-50,160,20","Cute but there's a lot going on.,7,200,20","Gabrielle","nonsense art, not really art,-44,160,20","Cassidy","I don't know why, I just don't like it,-28,140,20","Monica","Don't know if there's a meaning but I like how seemingly random objects were stuck together and called art,20,360,20","4"
"9078","","survey-text","233","1539522","0.0-231.0-0.0","A1KZ0KE93WNN5O","","","","{""Q0"":""horrible""}","","","","","","","","","","","","","","","","","","","","","","",""
"2453.7000000476837","","image-slider-response","234","1541978","0.0-232.0","A1KZ0KE93WNN5O","","","","","-50","","","","","","","","","","","","","","","","","","","","","",""
"3654","","image-button-response","235","1546982","0.0-233.0","A1KZ0KE93WNN5O","img_art/3.jpg","1","","","","","","","","","","","","","","","","","","","","","","","","",""
"1914","","image-button-response","236","1548898","0.0-234.0","A1KZ0KE93WNN5O","img_art/3.jpg","1","","","","","","","","","","","","","","","","","","","","","","","","",""
"2062","","image-button-response","237","1550962","0.0-235.0-0.0","A1KZ0KE93WNN5O","img_art/3.jpg","0","","","","","","","","","","","","","","","","","","","","","","","","",""
"2886","","image-button-response","238","1553850","0.0-236.0-0.0","A1KZ0KE93WNN5O","img_art/3.jpg","3","","","","","","","","","","","","","","","","","","","","","","","","",""
"null","","html-keyboard-response","239","1554354","0.0-237.0","A1KZ0KE93WNN5O","<p style=""font-size: 48px;"">+</p>","","","","","null","allTrialResponses","500","1","27","img_art/3.jpg","-50","horrible","Cassidy,Kelsey,Gabrielle,Monica,Nicole,Madeline","Again, looks like a child's work. I don't get these types of pieces. Too simple,-47,140,20","just scribbles, not pleasing,-30,240,20","7th grade art, not much effort to do this.,-39,160,20","It looks like random scribbles by a child and not appealing,-38,360,20","Something I'd paint when I'm mad. I feel that,20,20,20","Scribbly a bit too much,-30,40,20","Kelsey","just scribbles, not pleasing,-30,240,20","Cassidy","Again, looks like a child's work. I don't get these types of pieces. Too simple,-47,140,20","Monica","It looks like random scribbles by a child and not appealing,-38,360,20","4"
"15700","","survey-text","240","1570074","0.0-238.0-0.0","A1KZ0KE93WNN5O","","","","{""Q0"":""great mountain view""}","","","","","","","","","","","","","","","","","","","","","","",""
"1974","","image-slider-response","241","1572050","0.0-239.0","A1KZ0KE93WNN5O","","","","","10","","","","","","","","","","","","","","","","","","","","","",""
"4318","","image-button-response","242","1577054","0.0-240.0","A1KZ0KE93WNN5O","img_art/21.jpg","1","","","","","","","","","","","","","","","","","","","","","","","","",""
"1162","","image-button-response","243","1578218","0.0-241.0","A1KZ0KE93WNN5O","img_art/21.jpg","1","","","","","","","","","","","","","","","","","","","","","","","","",""
"694","","image-button-response","244","1578914","0.0-242.0-0.0","A1KZ0KE93WNN5O","img_art/21.jpg","2","","","","","","","","","","","","","","","","","","","","","","","","",""
"1846","","image-button-response","245","1580762","0.0-243.0-0.0","A1KZ0KE93WNN5O","img_art/21.jpg","4","","","","","","","","","","","","","","","","","","","","","","","","",""
"null","","html-keyboard-response","246","1582265","0.0-244.0","A1KZ0KE93WNN5O","<p style=""font-size: 48px;"">+</p>","","","","","null","allTrialResponses","1500","1","28","img_art/21.jpg","10","great mountain view","Cassidy,Kelsey,Chelsea,Monica,Michelle,Angela","I really like these colors together and their placement. The dabs of white are a nice contrast to the soft blending,10,140,20","i like watercolor,22,240,20","I like the colors. It looks dramatic.,5,180,20","I like the dark blue in the lower right which reminds me of a storm but the orange is ugly,12,360,20","The colors are very nice. I like the dots because they remind me of pearls,5,280,20","I feel like I'm looking at two different paintings mashed together in the middle.,20,260,20","Kelsey","i like watercolor,22,240,20","Chelsea","I like the colors. It looks dramatic.,5,180,20","Michelle","The colors are very nice. I like the dots because they remind me of pearls,5,280,20","4"
"11255","","survey-text","247","1593538","0.0-245.0-0.0","A1KZ0KE93WNN5O","","","","{""Q0"":""I feel lost""}","","","","","","","","","","","","","","","","","","","","","","",""
"11501.799999952316","","image-slider-response","248","1605042","0.0-246.0","A1KZ0KE93WNN5O","","","","","-26","","","","","","","","","","","","","","","","","","","","","",""
"2294","","image-button-response","249","1610046","0.0-247.0","A1KZ0KE93WNN5O","img_art/29.jpg","1","","","","","","","","","","","","","","","","","","","","","","","","",""
"3912","","image-button-response","250","1613962","0.0-248.0","A1KZ0KE93WNN5O","img_art/29.jpg","3","","","","","","","","","","","","","","","","","","","","","","","","",""
"3102","","image-button-response","251","1617066","0.0-249.0-0.0","A1KZ0KE93WNN5O","img_art/29.jpg","0","","","","","","","","","","","","","","","","","","","","","","","","",""
"2134","","image-button-response","252","1619202","0.0-250.0-0.0","A1KZ0KE93WNN5O","img_art/29.jpg","1","","","","","","","","","","","","","","","","","","","","","","","","",""
"null","","html-keyboard-response","253","1620205","0.0-251.0","A1KZ0KE93WNN5O","<p style=""font-size: 48px;"">+</p>","","","","","null","allTrialResponses","1000","1","29","img_art/29.jpg","-26","I feel lost","Andrea,Kelsey,Chelsea,Katherine,Michelle,Kimberly","Bottomless pit and prison. Feels like its saying time is precious.,11,240,20","dont like this one,-20,240,20","It is intriguing but I don't like the red X.,6,180,20","I think the grey and red inspire negative feelings but it's not the worst thing.,13,120,20","The texture really stands out, this is an interesting composition,6,280,20","I like the usage of a physical object,33,260,20","Katherine","I think the grey and red inspire negative feelings but it's not the worst thing.,13,120,20","Andrea","Bottomless pit and prison. Feels like its saying time is precious.,11,240,20","Kelsey","dont like this one,-20,240,20","4"
"21924","","survey-text","254","1642146","0.0-252.0-0.0","A1KZ0KE93WNN5O","","","","{""Q0"":""deep sadness, no thanks ""}","","","","","","","","","","","","","","","","","","","","","","",""
"3685.7999999523163","","image-slider-response","255","1645834","0.0-253.0","A1KZ0KE93WNN5O","","","","","-46","","","","","","","","","","","","","","","","","","","","","",""
"null","","image-button-response","256","1650837","0.0-254.0","A1KZ0KE93WNN5O","img_art/20.jpg","null","","","","","","","","","","","","","","","","","","","","","","","","",""
"2409","","image-button-response","257","1653250","0.0-255.0","A1KZ0KE93WNN5O","img_art/20.jpg","3","","","","","","","","","","","","","","","","","","","","","","","","",""
"5117","","image-button-response","258","1658370","0.0-256.0-0.0","A1KZ0KE93WNN5O","img_art/20.jpg","2","","","","","","","","","","","","","","","","","","","","","","","","",""
"11972","","image-button-response","259","1670346","0.0-257.0-0.0","A1KZ0KE93WNN5O","img_art/20.jpg","1","","","","","","","","","","","","","","","","","","","","","","","","",""
"null","","html-keyboard-response","260","1671849","0.0-258.0","A1KZ0KE93WNN5O","<p style=""font-size: 48px;"">+</p>","","","","","null","allTrialResponses","1500","1","30","img_art/20.jpg","-46","deep sadness, no thanks ","Andrea,Kelsey,Autumn,Katherine,Tiffany,Cassandra","Reminds me of persistance of time (a favorite of mine).,30,240,20","i almost feel like i can recognize what this is,-6,240,20","It's ok. Very abstract.,18,340,20","More dark colors and blurry objects.,13,120,20","I feel powerful, like I am looking out a window at this machine, that I am in charge.,17,360,20","I liked this...I liked the blue and the black and I liked the smoothness to it.,31,120,20","Katherine","More dark colors and blurry objects.,13,120,20","Autumn","It's ok. Very abstract.,18,340,20","Kelsey","i almost feel like i can recognize what this is,-6,240,20","4"
"3741","","image-button-response_instructions","261","1675610","0.0-259.0","A1KZ0KE93WNN5O","","0","instructions","","","","","","","","","","","","","","","","","","","","","","","",""
"1591","","image-button-response","262","1677210","0.0-260.0","A1KZ0KE93WNN5O","","0","","","","","","","","","","","","","","","","","","","","","","","","",""
