"rt","url","trial_type","trial_index","time_elapsed","internal_node_id","participant_id","stimulus","button_pressed","Name","responses","response","key_press","variableName","fixationTime","condition","trial","photo","subjectRating","subjectResponse","agentsNames","agent_1_Response","agent_2_Response","agent_3_Response","agent_4_Response","agent_5_Response","agent_6_Response","kept_1_name","kept_1_response","kept_2_name","kept_2_response","kept_3_name","kept_3_response","errorCounter"
"29005","external_page_harvard.html","external-html","0","29073","0.0-0.0","A1N81DHJ97L8OL","","","","","","","","","","","","","","","","","","","","","","","","","","",""
"1385","","image-button-response","1","30460","0.0-1.0","A1N81DHJ97L8OL","","0","","","","","","","","","","","","","","","","","","","","","","","","",""
"1470","","image-button-response","2","31932","0.0-2.0-0.0","A1N81DHJ97L8OL","","1","phone","","","","","","","","","","","","","","","","","","","","","","","",""
"5685","","survey-text","3","37618","0.0-3.0-0.0","A1N81DHJ97L8OL","","","","{""Q0"":""A1N81DHJ97L8OL""}","","","","","","","","","","","","","","","","","","","","","","",""
"15161","","image-button-response_instructions","4","52780","0.0-4.0","A1N81DHJ97L8OL","","0","instructions","","","","","","","","","","","","","","","","","","","","","","","",""
"10029","","image-button-response_instructions","5","62810","0.0-5.0","A1N81DHJ97L8OL","img_art/ins/popularity/ins1.png","0","instructions","","","","","","","","","","","","","","","","","","","","","","","",""
"5102","","image-button-response_instructions","6","67913","0.0-6.0","A1N81DHJ97L8OL","img_art/ins/popularity/ins2.png","0","instructions","","","","","","","","","","","","","","","","","","","","","","","",""
"1959","","image-button-response_instructions","7","69872","0.0-7.0","A1N81DHJ97L8OL","img_art/ins/popularity/ins2Extreme.png","0","instructions","","","","","","","","","","","","","","","","","","","","","","","",""
"13145","","image-button-response_instructions","8","83018","0.0-8.0","A1N81DHJ97L8OL","img_art/ins/popularity/ins3KEEPpop.PNG","0","instructions","","","","","","","","","","","","","","","","","","","","","","","",""
"2285","","image-button-response_instructions","9","85304","0.0-9.0","A1N81DHJ97L8OL","img_art/ins/popularity/ins3ANamepop.PNG","0","instructions","","","","","","","","","","","","","","","","","","","","","","","",""
"1830","","image-button-response_instructions","10","87134","0.0-10.0","A1N81DHJ97L8OL","img_art/ins/popularity/ins3ARatingpop.png","0","instructions","","","","","","","","","","","","","","","","","","","","","","","",""
"1778","","image-button-response_instructions","11","88912","0.0-11.0","A1N81DHJ97L8OL","img_art/ins/popularity/ins3ATextpop.png","0","instructions","","","","","","","","","","","","","","","","","","","","","","","",""
"6267","","image-button-response_instructions","12","95180","0.0-12.0","A1N81DHJ97L8OL","img_art/ins/popularity/ins3ALikespop.png","0","instructions","","","","","","","","","","","","","","","","","","","","","","","",""
"20481","","image-button-response_instructions","13","115662","0.0-13.0","A1N81DHJ97L8OL","img_art/ins/popularity/ins3KEEPpop.PNG","0","instructions","","","","","","","","","","","","","","","","","","","","","","","",""
"13497","","image-button-response_instructions","14","129160","0.0-14.0","A1N81DHJ97L8OL","img_art/ins/popularity/ins3_5RED.png","0","instructions","","","","","","","","","","","","","","","","","","","","","","","",""
"49981","","image-button-response_instructions","15","179142","0.0-15.0","A1N81DHJ97L8OL","img_art/ins/popularity/ins3KEEPpop.PNG","0","instructions","","","","","","","","","","","","","","","","","","","","","","","",""
"15242","","image-button-response_instructions","16","194384","0.0-16.0","A1N81DHJ97L8OL","img_art/ins/popularity/ins4KEEPpop.PNG","0","instructions","","","","","","","","","","","","","","","","","","","","","","","",""
"4500","","image-button-response_instructions","17","198884","0.0-17.0","A1N81DHJ97L8OL","img_art/ins/popularity/ins5KEEPpop.PNG","0","instructions","","","","","","","","","","","","","","","","","","","","","","","",""
"1666","","image-button-response_instructions","18","200550","0.0-18.0","A1N81DHJ97L8OL","","0","instructions","","","","","","","","","","","","","","","","","","","","","","","",""
"7067","","survey-text","19","207633","0.0-19.0-0.0","A1N81DHJ97L8OL","","","","{""Q0"":""but""}","","","","","","","","","","","","","","","","","","","","","","",""
"30555","","survey-text","20","238188","0.0-20.0-0.0","A1N81DHJ97L8OL","","","","{""Q0"":""I may not know art, but I know what I like, and this isn't it.""}","","","","","","","","","","","","","","","","","","","","","","",""
"12256.899999976158","","image-slider-response","21","250446","0.0-21.0","A1N81DHJ97L8OL","","","","","0","","","","","","","","","","","","","","","","","","","","","",""
"null","","image-button-response","22","255449","0.0-22.0","A1N81DHJ97L8OL","img_art/ins/1.jpg","null","","","","","","","","","","","","","","","","","","","","","","","","",""
"10787","","image-button-response","23","266238","0.0-23.0","A1N81DHJ97L8OL","img_art/ins/1.jpg","5","","","","","","","","","","","","","","","","","","","","","","","","",""
"2341","","image-button-response","24","268580","0.0-24.0-0.0","A1N81DHJ97L8OL","img_art/ins/1.jpg","3","","","","","","","","","","","","","","","","","","","","","","","","",""
"1808","","image-button-response","25","270390","0.0-25.0-0.0","A1N81DHJ97L8OL","img_art/ins/1.jpg","1","","","","","","","","","","","","","","","","","","","","","","","","",""
"null","","html-keyboard-response","26","270891","0.0-26.0","A1N81DHJ97L8OL","<p style=""font-size: 48px;"">+</p>","","","","","null","allTrialResponses","500","1","-2","img_art/ins/1.jpg","0","I may not know art, but I know what I like, and this isn't it.","Adam,Alex,Ben,Carl,Daniel,Jack","Seems like doodles,-20,20,20","very creative work.,36,40,20","This color reminds me of poo,-46,60,20","very calming artwork,42,80,20","It looks like a murder scene.,-48,100,20","I like the sophisticated brushwork,40,120,20","Jack","I like the sophisticated brushwork,40,120,20","Carl","very calming artwork,42,80,20","Alex","very creative work.,36,40,20","0"
"38488","","survey-text","27","309381","0.0-27.0-0.0","A1N81DHJ97L8OL","","","","{""Q0"":""I really like the reddish-orange, ochre color""}","","","","","","","","","","","","","","","","","","","","","","",""
"6127.200000047684","","image-slider-response","28","315510","0.0-28.0","A1N81DHJ97L8OL","","","","","20","","","","","","","","","","","","","","","","","","","","","",""
"null","","image-button-response","29","320512","0.0-29.0","A1N81DHJ97L8OL","img_art/ins/2.jpg","null","","","","","","","","","","","","","","","","","","","","","","","","",""
"1133","","image-button-response","30","321646","0.0-30.0","A1N81DHJ97L8OL","img_art/ins/2.jpg","4","","","","","","","","","","","","","","","","","","","","","","","","",""
"9195","","image-button-response","31","330842","0.0-31.0-0.0","A1N81DHJ97L8OL","img_art/ins/2.jpg","3","","","","","","","","","","","","","","","","","","","","","","","","",""
"837","","image-button-response","32","331680","0.0-32.0-0.0","A1N81DHJ97L8OL","img_art/ins/2.jpg","5","","","","","","","","","","","","","","","","","","","","","","","","",""
"null","","html-keyboard-response","33","333183","0.0-33.0","A1N81DHJ97L8OL","<p style=""font-size: 48px;"">+</p>","","","","","null","allTrialResponses","1500","1","-1","img_art/ins/2.jpg","20","I really like the reddish-orange, ochre color","James,Alex,Kyle,Carl,John,Jack","looks too angry,-50,140,20","I like the blocks of color arrangements,30,40,20","Idk, it is just annoying,-32,180,20","I can feel the artist's passion in it,45,80,20","love the texture of paint,48,160,20","I would never be able to compose a sophisticated pallete like this,48,120,20","John","love the texture of paint,48,160,20","Carl","I can feel the artist's passion in it,45,80,20","Jack","I would never be able to compose a sophisticated pallete like this,48,120,20","0"
"53419","","survey-text","34","386604","0.0-34.0-0.0","A1N81DHJ97L8OL","","","","{""Q0"":""Rather varied techniques with the brush strokes""}","","","","","","","","","","","","","","","","","","","","","","",""
"3714.800000011921","","image-slider-response","35","390320","0.0-35.0","A1N81DHJ97L8OL","","","","","0","","","","","","","","","","","","","","","","","","","","","",""
"null","","image-button-response","36","395322","0.0-36.0","A1N81DHJ97L8OL","img_art/ins/3.jpg","null","","","","","","","","","","","","","","","","","","","","","","","","",""
"6658","","image-button-response","37","401980","0.0-37.0","A1N81DHJ97L8OL","img_art/ins/3.jpg","0","","","","","","","","","","","","","","","","","","","","","","","","",""
"4404","","image-button-response","38","406386","0.0-38.0-0.0","A1N81DHJ97L8OL","img_art/ins/3.jpg","1","","","","","","","","","","","","","","","","","","","","","","","","",""
"2106","","image-button-response","39","408494","0.0-39.0-0.0","A1N81DHJ97L8OL","img_art/ins/3.jpg","1","","","","","","","","","","","","","","","","","","","","","","","","",""
"637","","image-button-response","40","412352","0.0-39.1-0.1","A1N81DHJ97L8OL","img_art/ins/3.jpg","4","","","","","","","","","","","","","","","","","","","","","","","","",""
"null","","html-keyboard-response","41","413354","0.0-40.0","A1N81DHJ97L8OL","<p style=""font-size: 48px;"">+</p>","","","","","null","allTrialResponses","1000","1","0","img_art/ins/3.jpg","0","Rather varied techniques with the brush strokes","Mike,Sam,Ron,Carl,John,Jack","enjoy the different shades of blue,22,200,20","I can feel a rainy day from this painting,18,240,20","It looks depressing,-26,220,20","It's an alright work,15,80,20","I like the overlapping of brushes,41,160,20","I feel connected to the artist,40,120,20","Mike","enjoy the different shades of blue,22,200,20","Sam","I can feel a rainy day from this painting,18,240,20","John","I like the overlapping of brushes,41,160,20","2"
"5839","","image-button-response_instructions","42","419196","0.0-41.0","A1N81DHJ97L8OL","","0","instructions","","","","","","","","","","","","","","","","","","","","","","","",""
"10230","","survey-likert","43","429426","0.0-42.0-0.0","A1N81DHJ97L8OL","","","","{""Q0"":"""",""Q1"":0,""Q2"":1}","","","","","","","","","","","","","","","","","","","","","","",""
"3951","","survey-text","44","433380","0.0-43.0-0.0","A1N81DHJ97L8OL","","","","{""Q0"":""rock""}","","","","","","","","","","","","","","","","","","","","","","",""
"27623","","survey-text","45","461004","0.0-44.0-0.0","A1N81DHJ97L8OL","","","","{""Q0"":""the picture resembles some strange, abstract sculpture""}","","","","","","","","","","","","","","","","","","","","","","",""
"4574.900000035763","","image-slider-response","46","465580","0.0-45.0","A1N81DHJ97L8OL","","","","","0","","","","","","","","","","","","","","","","","","","","","",""
"3305","","image-button-response","47","470596","0.0-46.0","A1N81DHJ97L8OL","img_art/4.jpg","1","","","","","","","","","","","","","","","","","","","","","","","","",""
"2766","","image-button-response","48","473362","0.0-47.0","A1N81DHJ97L8OL","img_art/4.jpg","1","","","","","","","","","","","","","","","","","","","","","","","","",""
"9581","","image-button-response","49","482944","0.0-48.0-0.0","A1N81DHJ97L8OL","img_art/4.jpg","0","","","","","","","","","","","","","","","","","","","","","","","","",""
"8958","","image-button-response","50","491903","0.0-49.0-0.0","A1N81DHJ97L8OL","img_art/4.jpg","4","","","","","","","","","","","","","","","","","","","","","","","","",""
"null","","html-keyboard-response","51","493406","0.0-50.0","A1N81DHJ97L8OL","<p style=""font-size: 48px;"">+</p>","","","","","null","allTrialResponses","1500","1","1","img_art/4.jpg","0","the picture resembles some strange, abstract sculpture","Joshua,Grant,Jonathan,Bradley,Robert,Isaiah","looks very rudimentary and too simple.,-14,240,20","This elicits no reaction in me.,0,200,20","Mcdonald's french fries :(,-40,140,20","This looks like what happens when someone steps on a mustard packet.,-7,300,20","It looks like a hand someone scribbled over,-30,360,20","The sickly looking colors make me feel very uncomfortable.,-35,300,20","Grant","This elicits no reaction in me.,0,200,20","Joshua","looks very rudimentary and too simple.,-14,240,20","Robert","It looks like a hand someone scribbled over,-30,360,20","2"
"28106","","survey-text","52","521513","0.0-51.0-0.0","A1N81DHJ97L8OL","","","","{""Q0"":""looks like someone painted something, then smeared it all over""}","","","","","","","","","","","","","","","","","","","","","","",""
"5563","","image-slider-response","53","527077","0.0-52.0","A1N81DHJ97L8OL","","","","","-20","","","","","","","","","","","","","","","","","","","","","",""
"null","","image-button-response","54","532080","0.0-53.0","A1N81DHJ97L8OL","img_art/30.jpg","null","","","","","","","","","","","","","","","","","","","","","","","","",""
"11221","","image-button-response","55","543301","0.0-54.0","A1N81DHJ97L8OL","img_art/30.jpg","3","","","","","","","","","","","","","","","","","","","","","","","","",""
"1833","","image-button-response","56","545135","0.0-55.0-0.0","A1N81DHJ97L8OL","img_art/30.jpg","3","","","","","","","","","","","","","","","","","","","","","","","","",""
"601","","image-button-response","57","548805","0.0-55.1-0.1","A1N81DHJ97L8OL","img_art/30.jpg","3","","","","","","","","","","","","","","","","","","","","","","","","",""
"5196","","image-button-response","58","556016","0.0-55.2-0.2","A1N81DHJ97L8OL","img_art/30.jpg","2","","","","","","","","","","","","","","","","","","","","","","","","",""
"2587","","image-button-response","59","558604","0.0-56.0-0.0","A1N81DHJ97L8OL","img_art/30.jpg","5","","","","","","","","","","","","","","","","","","","","","","","","",""
"null","","html-keyboard-response","60","560105","0.0-57.0","A1N81DHJ97L8OL","<p style=""font-size: 48px;"">+</p>","","","","","null","allTrialResponses","1500","1","2","img_art/30.jpg","-20","looks like someone painted something, then smeared it all over","Joshua,Grant,Marcus,Dustin,Robert,Edward","It's just all right.,5,240,20","The brush strokes are appealing, and make me want to look at this longer.,11,200,20","Really don't like this piece. It feels very lazy to me.,-31,60,20","Soothing color palette, but doesn't look like anything. All I see are random brush strokes.,1,20,20","My kindergarten class could do this,-50,360,20","My son made me a painting that looked like this,26,60,20","Dustin","Soothing color palette, but doesn't look like anything. All I see are random brush strokes.,1,20,20","Marcus","Really don't like this piece. It feels very lazy to me.,-31,60,20","Edward","My son made me a painting that looked like this,26,60,20","6"
"32001","","survey-text","61","592108","0.0-58.0-0.0","A1N81DHJ97L8OL","","","","{""Q0"":""rather abstract painting of a car wreck""}","","","","","","","","","","","","","","","","","","","","","","",""
"8363.300000011921","","image-slider-response","62","600472","0.0-59.0","A1N81DHJ97L8OL","","","","","10","","","","","","","","","","","","","","","","","","","","","",""
"null","","image-button-response","63","605475","0.0-60.0","A1N81DHJ97L8OL","img_art/20.jpg","null","","","","","","","","","","","","","","","","","","","","","","","","",""
"18438","","image-button-response","64","623914","0.0-61.0","A1N81DHJ97L8OL","img_art/20.jpg","2","","","","","","","","","","","","","","","","","","","","","","","","",""
"2596","","image-button-response","65","626512","0.0-62.0-0.0","A1N81DHJ97L8OL","img_art/20.jpg","1","","","","","","","","","","","","","","","","","","","","","","","","",""
"2566","","image-button-response","66","629080","0.0-63.0-0.0","A1N81DHJ97L8OL","img_art/20.jpg","0","","","","","","","","","","","","","","","","","","","","","","","","",""
"null","","html-keyboard-response","67","630582","0.0-64.0","A1N81DHJ97L8OL","<p style=""font-size: 48px;"">+</p>","","","","","null","allTrialResponses","1500","1","3","img_art/20.jpg","10","rather abstract painting of a car wreck","Nathaniel,Samuel,Marcus,Dustin,Gabriel,Edward","A bit hectic, but it does have a bit of coolness to it,6,220,20","crash after traffic causing grief,-11,400,20","I like the blues, and the sense of foreboding it makes me feel.,20,60,20","I don't like it. Dark sky and black figures. White objects remind me of bones.,-30,20,20","i almost feel like i can recognize what this is,-6,160,20","I can't tell what's going on but I like the colors,12,60,20","Marcus","I like the blues, and the sense of foreboding it makes me feel.,20,60,20","Samuel","crash after traffic causing grief,-11,400,20","Nathaniel","A bit hectic, but it does have a bit of coolness to it,6,220,20","6"
"46165","","survey-text","68","676749","0.0-65.0-0.0","A1N81DHJ97L8OL","","","","{""Q0"":""it's like someone started to draw a forest, then decided to do something else""}","","","","","","","","","","","","","","","","","","","","","","",""
"6141","","image-slider-response","69","682891","0.0-66.0","A1N81DHJ97L8OL","","","","","0","","","","","","","","","","","","","","","","","","","","","",""
"3169","","image-button-response","70","687893","0.0-67.0","A1N81DHJ97L8OL","img_art/17.jpg","4","","","","","","","","","","","","","","","","","","","","","","","","",""
"764","","image-button-response","71","688658","0.0-68.0","A1N81DHJ97L8OL","img_art/17.jpg","4","","","","","","","","","","","","","","","","","","","","","","","","",""
"11089","","image-button-response","72","699748","0.0-69.0-0.0","A1N81DHJ97L8OL","img_art/17.jpg","3","","","","","","","","","","","","","","","","","","","","","","","","",""
"4017","","image-button-response","73","703766","0.0-70.0-0.0","A1N81DHJ97L8OL","img_art/17.jpg","2","","","","","","","","","","","","","","","","","","","","","","","","",""
"null","","html-keyboard-response","74","705267","0.0-71.0","A1N81DHJ97L8OL","<p style=""font-size: 48px;"">+</p>","","","","","null","allTrialResponses","1500","1","4","img_art/17.jpg","0","it's like someone started to draw a forest, then decided to do something else","Nathaniel,Samuel,Marcus,Austin,Cole,Tanner","I like the artistic sketching pattern.,24,220,20","muted tones brings me down,-13,400,20","I like this, but it's a bit bland.,10,60,20","Has a unique vibe to it,50,240,20","It looks unfinished,-7,200,20","calm, tranquil, happy,50,180,20","Cole","It looks unfinished,-7,200,20","Austin","Has a unique vibe to it,50,240,20","Marcus","I like this, but it's a bit bland.,10,60,20","6"
"56295","","survey-text","75","761564","0.0-72.0-0.0","A1N81DHJ97L8OL","","","","{""Q0"":""I don't like any of this. No idea what the artist is trying to convey""}","","","","","","","","","","","","","","","","","","","","","","",""
"8023.900000035763","","image-slider-response","76","769589","0.0-73.0","A1N81DHJ97L8OL","","","","","-20","","","","","","","","","","","","","","","","","","","","","",""
"4155","","image-button-response","77","774591","0.0-74.0","A1N81DHJ97L8OL","img_art/2.jpg","1","","","","","","","","","","","","","","","","","","","","","","","","",""
"1005","","image-button-response","78","775597","0.0-75.0","A1N81DHJ97L8OL","img_art/2.jpg","0","","","","","","","","","","","","","","","","","","","","","","","","",""
"723","","image-button-response","79","776321","0.0-76.0-0.0","A1N81DHJ97L8OL","img_art/2.jpg","1","","","","","","","","","","","","","","","","","","","","","","","","",""
"10773","","image-button-response","80","787095","0.0-77.0-0.0","A1N81DHJ97L8OL","img_art/2.jpg","5","","","","","","","","","","","","","","","","","","","","","","","","",""
"null","","html-keyboard-response","81","787598","0.0-78.0","A1N81DHJ97L8OL","<p style=""font-size: 48px;"">+</p>","","","","","null","allTrialResponses","500","1","5","img_art/2.jpg","-20","I don't like any of this. No idea what the artist is trying to convey","David,Juan,Marcus,Austin,Cole,Tristan","I feel that its too abstract for me to understand what I'm looking at.,-15,340,20","I don't like the abstract nature of this painting or the colors used.,-50,260,20","Only like the blues and teals in this. The rest is unappealing.,-15,60,20","Good color pallette,12,240,20","Childish smiley face,-19,200,20","The color palette of this painting is for me displeasing and immature.,-30,300,20","David","I feel that its too abstract for me to understand what I'm looking at.,-15,340,20","Juan","I don't like the abstract nature of this painting or the colors used.,-50,260,20","Tristan","The color palette of this painting is for me displeasing and immature.,-30,300,20","6"
"4588","","survey-text","82","792189","0.0-79.0-0.0","A1N81DHJ97L8OL","","","","{""Q0"":""sky""}","","","","","","","","","","","","","","","","","","","","","","",""
"23065","","survey-text","83","815255","0.0-80.0-0.0","A1N81DHJ97L8OL","","","","{""Q0"":""resembles kindergarten artwork""}","","","","","","","","","","","","","","","","","","","","","","",""
"4051.199999988079","","image-slider-response","84","819307","0.0-81.0","A1N81DHJ97L8OL","","","","","-30","","","","","","","","","","","","","","","","","","","","","",""
"null","","image-button-response","85","824309","0.0-82.0","A1N81DHJ97L8OL","img_art/14.jpg","null","","","","","","","","","","","","","","","","","","","","","","","","",""
"2057","","image-button-response","86","826368","0.0-83.0","A1N81DHJ97L8OL","img_art/14.jpg","1","","","","","","","","","","","","","","","","","","","","","","","","",""
"1053","","image-button-response","87","827422","0.0-84.0-0.0","A1N81DHJ97L8OL","img_art/14.jpg","2","","","","","","","","","","","","","","","","","","","","","","","","",""
"8210","","image-button-response","88","835634","0.0-85.0-0.0","A1N81DHJ97L8OL","img_art/14.jpg","3","","","","","","","","","","","","","","","","","","","","","","","","",""
"null","","html-keyboard-response","89","836636","0.0-86.0","A1N81DHJ97L8OL","<p style=""font-size: 48px;"">+</p>","","","","","null","allTrialResponses","1000","1","6","img_art/14.jpg","-30","resembles kindergarten artwork","David,Juan,Jake,Mason,Nicholas,Tristan","I like how balanced the piece is with its symmetrical design.,20,340,20","I don't like the colors, but I espeically don't like all the negative space.,-20,260,20","This is poorly done and not aesthetically appealing.,-2,360,20","ok, gloomy though.,12,100,20","I love the feeling of the tree and people. Makes me happy,50,240,20","In others I might say the colors are garish. Here it works perfectly. The balance is wondrous and unlimiting.,25,300,20","Juan","I don't like the colors, but I espeically don't like all the negative space.,-20,260,20","Jake","This is poorly done and not aesthetically appealing.,-2,360,20","Mason","ok, gloomy though.,12,100,20","6"
"59939","","survey-text","90","896577","0.0-87.0-0.0","A1N81DHJ97L8OL","","","","{""Q0"":""seems like a desert""}","","","","","","","","","","","","","","","","","","","","","","",""
"3540.600000023842","","image-slider-response","91","900119","0.0-88.0","A1N81DHJ97L8OL","","","","","-20","","","","","","","","","","","","","","","","","","","","","",""
"3871","","image-button-response","92","905121","0.0-89.0","A1N81DHJ97L8OL","img_art/6.jpg","1","","","","","","","","","","","","","","","","","","","","","","","","",""
"208","","image-button-response","93","905330","0.0-90.0","A1N81DHJ97L8OL","img_art/6.jpg","1","","","","","","","","","","","","","","","","","","","","","","","","",""
"9278","","image-button-response","94","914610","0.0-91.0-0.0","A1N81DHJ97L8OL","img_art/6.jpg","3","","","","","","","","","","","","","","","","","","","","","","","","",""
"2672","","image-button-response","95","917283","0.0-92.0-0.0","A1N81DHJ97L8OL","img_art/6.jpg","0","","","","","","","","","","","","","","","","","","","","","","","","",""
"null","","html-keyboard-response","96","917785","0.0-93.0","A1N81DHJ97L8OL","<p style=""font-size: 48px;"">+</p>","","","","","null","allTrialResponses","500","1","7","img_art/6.jpg","-20","seems like a desert","Taylor,Juan,Jake,Mason,Kevin,Matthew","A crow on one leg?,-10,200,20","I don't like the colors and the dark shape at the top makes me think of a buzzard.,-28,260,20","It feels sad but it's nice to look at.,4,360,20","kids book cover, uninteresting.,-10,100,20","Its the headless bird. But why?,21,320,20","A lot of people will lvoe this, I do not.,1,120,20","Juan","I don't like the colors and the dark shape at the top makes me think of a buzzard.,-28,260,20","Mason","kids book cover, uninteresting.,-10,100,20","Taylor","A crow on one leg?,-10,200,20","6"
"60576","","survey-text","97","978363","0.0-94.0-0.0","A1N81DHJ97L8OL","","","","{""Q0"":""strange volcano with black lava and smoke billowing out""}","","","","","","","","","","","","","","","","","","","","","","",""
"2548.100000023842","","image-slider-response","98","980912","0.0-95.0","A1N81DHJ97L8OL","","","","","-50","","","","","","","","","","","","","","","","","","","","","",""
"3840","","image-button-response","99","985915","0.0-96.0","A1N81DHJ97L8OL","img_art/5.jpg","0","","","","","","","","","","","","","","","","","","","","","","","","",""
"2853","","image-button-response","100","988768","0.0-97.0","A1N81DHJ97L8OL","img_art/5.jpg","3","","","","","","","","","","","","","","","","","","","","","","","","",""
"4548","","image-button-response","101","993317","0.0-98.0-0.0","A1N81DHJ97L8OL","img_art/5.jpg","1","","","","","","","","","","","","","","","","","","","","","","","","",""
"1371","","image-button-response","102","994690","0.0-99.0-0.0","A1N81DHJ97L8OL","img_art/5.jpg","0","","","","","","","","","","","","","","","","","","","","","","","","",""
"null","","html-keyboard-response","103","996191","0.0-100.0","A1N81DHJ97L8OL","<p style=""font-size: 48px;"">+</p>","","","","","null","allTrialResponses","1500","1","8","img_art/5.jpg","-50","strange volcano with black lava and smoke billowing out","Taylor,Juan,Dakota,Mason,Miguel,Jeremy","More kindergarten art class. Who buys this stuff?,-45,200,20","The yellow is garish and the picture doesn't look liked anything.,-49,260,20","fresh and fun - bright and active,16,280,20","pointless, ugly, not creative.,-50,100,20","Appealing but shapeless,24,160,20","I don't hate it but I can't relate to it,1,60,20","Mason","pointless, ugly, not creative.,-50,100,20","Juan","The yellow is garish and the picture doesn't look liked anything.,-49,260,20","Taylor","More kindergarten art class. Who buys this stuff?,-45,200,20","6"
"26740","","survey-text","104","1022933","0.0-101.0-0.0","A1N81DHJ97L8OL","","","","{""Q0"":""seems like the early stages of a painting, before the details are put in""}","","","","","","","","","","","","","","","","","","","","","","",""
"6416.599999964237","","image-slider-response","105","1029351","0.0-102.0","A1N81DHJ97L8OL","","","","","0","","","","","","","","","","","","","","","","","","","","","",""
"null","","image-button-response","106","1034353","0.0-103.0","A1N81DHJ97L8OL","img_art/21.jpg","null","","","","","","","","","","","","","","","","","","","","","","","","",""
"3685","","image-button-response","107","1038040","0.0-104.0","A1N81DHJ97L8OL","img_art/21.jpg","5","","","","","","","","","","","","","","","","","","","","","","","","",""
"7817","","image-button-response","108","1045857","0.0-105.0-0.0","A1N81DHJ97L8OL","img_art/21.jpg","1","","","","","","","","","","","","","","","","","","","","","","","","",""
"387","","image-button-response","109","1046245","0.0-106.0-0.0","A1N81DHJ97L8OL","img_art/21.jpg","0","","","","","","","","","","","","","","","","","","","","","","","","",""
"null","","html-keyboard-response","110","1047247","0.0-107.0","A1N81DHJ97L8OL","<p style=""font-size: 48px;"">+</p>","","","","","null","allTrialResponses","1000","1","9","img_art/21.jpg","0","seems like the early stages of a painting, before the details are put in","Taylor,Juan,Spencer,Mason,Nathan,Antonio","Remove the rocks(?) on the lower right.,5,200,20","The colors and softness work together to make something that's lovely.,42,260,20","Love the colors, uplifting and stormy at the same time,32,120,20","Don't know why I like it, cant describe, maybe many landscapes?,47,100,20","I like it. It's some of war-scene, bloodshed and battle on the left, field of dispair on the right, dark and rich,40,200,20","the colors are pretty but I did not feel any thing looking at it,33,220,20","Antonio","the colors are pretty but I did not feel any thing looking at it,33,220,20","Juan","The colors and softness work together to make something that's lovely.,42,260,20","Taylor","Remove the rocks(?) on the lower right.,5,200,20","6"
"29752","","survey-text","111","1077001","0.0-108.0-0.0","A1N81DHJ97L8OL","","","","{""Q0"":""the way the colors blend and melt into each other is aesthetically pleasing""}","","","","","","","","","","","","","","","","","","","","","","",""
"4483.300000011921","","image-slider-response","112","1081485","0.0-109.0","A1N81DHJ97L8OL","","","","","20","","","","","","","","","","","","","","","","","","","","","",""
"4013","","image-button-response","113","1086487","0.0-110.0","A1N81DHJ97L8OL","img_art/22.jpg","3","","","","","","","","","","","","","","","","","","","","","","","","",""
"209","","image-button-response","114","1086697","0.0-111.0","A1N81DHJ97L8OL","img_art/22.jpg","3","","","","","","","","","","","","","","","","","","","","","","","","",""
"5951","","image-button-response","115","1092649","0.0-112.0-0.0","A1N81DHJ97L8OL","img_art/22.jpg","2","","","","","","","","","","","","","","","","","","","","","","","","",""
"2015","","image-button-response","116","1094665","0.0-113.0-0.0","A1N81DHJ97L8OL","img_art/22.jpg","0","","","","","","","","","","","","","","","","","","","","","","","","",""
"null","","html-keyboard-response","117","1095166","0.0-114.0","A1N81DHJ97L8OL","<p style=""font-size: 48px;"">+</p>","","","","","null","allTrialResponses","500","1","10","img_art/22.jpg","20","the way the colors blend and melt into each other is aesthetically pleasing","Taylor,Juan,Dalton,Thomas,Devon,Antonio","Looks like the kind of art I would see at the doctor's office.,-5,200,20","I don't like the colors or the way they've been arranged.,-20,260,20","i think its pretty but im not sure what i see,1,300,20","Beautiful. I love the color contrast and gradients.,50,220,20","This represents the hopes in my life.,21,400,20","Felt blah. Bunch of nothingness,-42,220,20","Thomas","Beautiful. I love the color contrast and gradients.,50,220,20","Dalton","i think its pretty but im not sure what i see,1,300,20","Taylor","Looks like the kind of art I would see at the doctor's office.,-5,200,20","6"
"4373","","survey-text","118","1099543","0.0-115.0-0.0","A1N81DHJ97L8OL","","","","{""Q0"":""our""}","","","","","","","","","","","","","","","","","","","","","","",""
"25897","","survey-text","119","1125441","0.0-116.0-0.0","A1N81DHJ97L8OL","","","","{""Q0"":""the dots must have taken quite some time to do""}","","","","","","","","","","","","","","","","","","","","","","",""
"6591.400000035763","","image-slider-response","120","1132034","0.0-117.0","A1N81DHJ97L8OL","","","","","10","","","","","","","","","","","","","","","","","","","","","",""
"3836","","image-button-response","121","1137035","0.0-118.0","A1N81DHJ97L8OL","img_art/23.jpg","1","","","","","","","","","","","","","","","","","","","","","","","","",""
"561","","image-button-response","122","1137597","0.0-119.0","A1N81DHJ97L8OL","img_art/23.jpg","1","","","","","","","","","","","","","","","","","","","","","","","","",""
"7331","","image-button-response","123","1144929","0.0-120.0-0.0","A1N81DHJ97L8OL","img_art/23.jpg","5","","","","","","","","","","","","","","","","","","","","","","","","",""
"521","","image-button-response","124","1145451","0.0-121.0-0.0","A1N81DHJ97L8OL","img_art/23.jpg","3","","","","","","","","","","","","","","","","","","","","","","","","",""
"null","","html-keyboard-response","125","1146453","0.0-122.0","A1N81DHJ97L8OL","<p style=""font-size: 48px;"">+</p>","","","","","null","allTrialResponses","1000","1","11","img_art/23.jpg","10","the dots must have taken quite some time to do","Taylor,Christopher,Dalton,Thomas,Anthony,Victor","SOME thought was put into this one.,5,200,20","it's not uninteresting, but i'm not responding to it,-7,160,20","illegible wording with a graffiti background,1,300,20","Beautiful. Very detailed and colorful. I enjoy looking at it.,50,220,20","The cluster of white silhouettes against the colorful background makes me feel uneasy for some reason,-36,200,20","I like the colors, the tiny dots, and the contrast between the white and background,28,340,20","Christopher","it's not uninteresting, but i'm not responding to it,-7,160,20","Victor","I like the colors, the tiny dots, and the contrast between the white and background,28,340,20","Thomas","Beautiful. Very detailed and colorful. I enjoy looking at it.,50,220,20","6"
"104280","","survey-text","126","1250736","0.0-123.0-0.0","A1N81DHJ97L8OL","","","","{""Q0"":""there's a lot of cacophony here, very busy""}","","","","","","","","","","","","","","","","","","","","","","",""
"6249","","image-slider-response","127","1256986","0.0-124.0","A1N81DHJ97L8OL","","","","","0","","","","","","","","","","","","","","","","","","","","","",""
"null","","image-button-response","128","1261988","0.0-125.0","A1N81DHJ97L8OL","img_art/11.jpg","null","","","","","","","","","","","","","","","","","","","","","","","","",""
"1949","","image-button-response","129","1263937","0.0-126.0","A1N81DHJ97L8OL","img_art/11.jpg","4","","","","","","","","","","","","","","","","","","","","","","","","",""
"3885","","image-button-response","130","1267823","0.0-127.0-0.0","A1N81DHJ97L8OL","img_art/11.jpg","1","","","","","","","","","","","","","","","","","","","","","","","","",""
"1869","","image-button-response","131","1269693","0.0-128.0-0.0","A1N81DHJ97L8OL","img_art/11.jpg","2","","","","","","","","","","","","","","","","","","","","","","","","",""
"null","","html-keyboard-response","132","1270694","0.0-129.0","A1N81DHJ97L8OL","<p style=""font-size: 48px;"">+</p>","","","","","null","allTrialResponses","1000","1","12","img_art/11.jpg","0","there's a lot of cacophony here, very busy","Timothy,Christopher,Vincent,Thomas,Alejandro,Victor","The movement in this one is extremely pleasent,40,240,20","i like the gray tones with black lines and bits of color,23,160,20","Looks like a familiar area,31,360,20","Lovely. I could look at this for a really long time. I love the details and the composition.,40,220,20","Enjoyed the lines representing different paths that encompass different entities,20,80,20","Love the colors against the black and gray. The lines are calming.,22,340,20","Alejandro","Enjoyed the lines representing different paths that encompass different entities,20,80,20","Christopher","i like the gray tones with black lines and bits of color,23,160,20","Vincent","Looks like a familiar area,31,360,20","6"
"19813","","survey-text","133","1290509","0.0-130.0-0.0","A1N81DHJ97L8OL","","","","{""Q0"":""a child's drawing of a seaside town""}","","","","","","","","","","","","","","","","","","","","","","",""
"5727.099999964237","","image-slider-response","134","1296237","0.0-131.0","A1N81DHJ97L8OL","","","","","-20","","","","","","","","","","","","","","","","","","","","","",""
"null","","image-button-response","135","1301239","0.0-132.0","A1N81DHJ97L8OL","img_art/19.jpg","null","","","","","","","","","","","","","","","","","","","","","","","","",""
"4335","","image-button-response","136","1305575","0.0-133.0","A1N81DHJ97L8OL","img_art/19.jpg","4","","","","","","","","","","","","","","","","","","","","","","","","",""
"527","","image-button-response","137","1306103","0.0-134.0-0.0","A1N81DHJ97L8OL","img_art/19.jpg","1","","","","","","","","","","","","","","","","","","","","","","","","",""
"323","","image-button-response","138","1306427","0.0-135.0-0.0","A1N81DHJ97L8OL","img_art/19.jpg","0","","","","","","","","","","","","","","","","","","","","","","","","",""
"null","","html-keyboard-response","139","1307929","0.0-136.0","A1N81DHJ97L8OL","<p style=""font-size: 48px;"">+</p>","","","","","null","allTrialResponses","1500","1","13","img_art/19.jpg","-20","a child's drawing of a seaside town","Daniel,Christopher,Vincent,Luke,Alejandro,Lucas","Simple, scratchy lack of negative space.,-10,320,20","too much of a mix of lines and shading,-22,160,20","I really like the colors and feel of this one and alot of life,41,360,20","it draws my eye and my mind fills in the spaces,14,20,20","It is an interesting piece but there are too many muted tones,22,80,20","I can see kind of beach and sea full of people and buildings.,25,380,20","Alejandro","It is an interesting piece but there are too many muted tones,22,80,20","Christopher","too much of a mix of lines and shading,-22,160,20","Daniel","Simple, scratchy lack of negative space.,-10,320,20","6"
"17980","","survey-text","140","1325912","0.0-137.0-0.0","A1N81DHJ97L8OL","","","","{""Q0"":""someone took a picture and threw pain all over""}","","","","","","","","","","","","","","","","","","","","","","",""
"4510.200000047684","","image-slider-response","141","1330423","0.0-138.0","A1N81DHJ97L8OL","","","","","0","","","","","","","","","","","","","","","","","","","","","",""
"null","","image-button-response","142","1335425","0.0-139.0","A1N81DHJ97L8OL","img_art/13.jpg","null","","","","","","","","","","","","","","","","","","","","","","","","",""
"9820","","image-button-response","143","1345245","0.0-140.0","A1N81DHJ97L8OL","img_art/13.jpg","5","","","","","","","","","","","","","","","","","","","","","","","","",""
"3719","","image-button-response","144","1348965","0.0-141.0-0.0","A1N81DHJ97L8OL","img_art/13.jpg","2","","","","","","","","","","","","","","","","","","","","","","","","",""
"4929","","image-button-response","145","1353895","0.0-142.0-0.0","A1N81DHJ97L8OL","img_art/13.jpg","3","","","","","","","","","","","","","","","","","","","","","","","","",""
"null","","html-keyboard-response","146","1354897","0.0-143.0","A1N81DHJ97L8OL","<p style=""font-size: 48px;"">+</p>","","","","","null","allTrialResponses","1000","1","14","img_art/13.jpg","0","someone took a picture and threw pain all over","Daniel,Christopher,Isaac,Trevor,Alejandro,Logan","Average overly symmetrical safe,-26,320,20","this is an appealing mix of textures to me and the color scheme is harmonious,36,160,20","The colors are okay but I don't like the shapes here.,-18,280,20","i like the colors but it looks like something that would hang in a hotel,18,280,20","Reminiscent of Jackson Pollock and gives me a feeling of chaotic satisfaction,50,80,20","so simple and stupid this looks like what I did to my cousins wall when we repainted it for her 13th bday,0,360,20","Logan","so simple and stupid this looks like what I did to my cousins wall when we repainted it for her 13th bday,0,360,20","Isaac","The colors are okay but I don't like the shapes here.,-18,280,20","Trevor","i like the colors but it looks like something that would hang in a hotel,18,280,20","6"
"15771","","survey-text","147","1370671","0.0-144.0-0.0","A1N81DHJ97L8OL","","","","{""Q0"":""resembles a lady laying down""}","","","","","","","","","","","","","","","","","","","","","","",""
"4437.199999988079","","image-slider-response","148","1375109","0.0-145.0","A1N81DHJ97L8OL","","","","","0","","","","","","","","","","","","","","","","","","","","","",""
"null","","image-button-response","149","1380111","0.0-146.0","A1N81DHJ97L8OL","img_art/9.jpg","null","","","","","","","","","","","","","","","","","","","","","","","","",""
"11296","","image-button-response","150","1391407","0.0-147.0","A1N81DHJ97L8OL","img_art/9.jpg","4","","","","","","","","","","","","","","","","","","","","","","","","",""
"1999","","image-button-response","151","1393407","0.0-148.0-0.0","A1N81DHJ97L8OL","img_art/9.jpg","2","","","","","","","","","","","","","","","","","","","","","","","","",""
"1057","","image-button-response","152","1394465","0.0-149.0-0.0","A1N81DHJ97L8OL","img_art/9.jpg","0","","","","","","","","","","","","","","","","","","","","","","","","",""
"null","","html-keyboard-response","153","1394967","0.0-150.0","A1N81DHJ97L8OL","<p style=""font-size: 48px;"">+</p>","","","","","null","allTrialResponses","500","1","15","img_art/9.jpg","0","resembles a lady laying down","Jacob,Sean,Isaac,Trevor,Tyler,Logan","So I don't really like this style but it looks somewhat okay,3,340,20","Gives me anxiety,-23,40,20","I don't like the obvious lines of colored pencil on the border.,-24,280,20","nice colors but it looks like it's from the 80s,10,280,20","No cohesive form whatsoever. Hard pass.,-31,320,20","is that sleeping beauty,33,360,20","Tyler","No cohesive form whatsoever. Hard pass.,-31,320,20","Isaac","I don't like the obvious lines of colored pencil on the border.,-24,280,20","Jacob","So I don't really like this style but it looks somewhat okay,3,340,20","6"
"3734","","survey-text","154","1398705","0.0-151.0-0.0","A1N81DHJ97L8OL","","","","{""Q0"":""course""}","","","","","","","","","","","","","","","","","","","","","","",""
"28513","","survey-text","155","1427219","0.0-152.0-0.0","A1N81DHJ97L8OL","","","","{""Q0"":""an idyllic scene in a city""}","","","","","","","","","","","","","","","","","","","","","","",""
"4545.099999964237","","image-slider-response","156","1431765","0.0-153.0","A1N81DHJ97L8OL","","","","","10","","","","","","","","","","","","","","","","","","","","","",""
"null","","image-button-response","157","1436767","0.0-154.0","A1N81DHJ97L8OL","img_art/26.jpg","null","","","","","","","","","","","","","","","","","","","","","","","","",""
"9913","","image-button-response","158","1446681","0.0-155.0","A1N81DHJ97L8OL","img_art/26.jpg","0","","","","","","","","","","","","","","","","","","","","","","","","",""
"2889","","image-button-response","159","1449571","0.0-156.0-0.0","A1N81DHJ97L8OL","img_art/26.jpg","3","","","","","","","","","","","","","","","","","","","","","","","","",""
"8803","","image-button-response","160","1458375","0.0-157.0-0.0","A1N81DHJ97L8OL","img_art/26.jpg","4","","","","","","","","","","","","","","","","","","","","","","","","",""
"null","","html-keyboard-response","161","1459377","0.0-158.0","A1N81DHJ97L8OL","<p style=""font-size: 48px;"">+</p>","","","","","null","allTrialResponses","1000","1","16","img_art/26.jpg","10","an idyllic scene in a city","Jacob,Blake,Isaac,Luis,Tyler,Seth","It doesn't look so vibrant, I'm not sure what feelings they were trying to capture,-41,340,20","bedroom in the outdoors. warm,9,280,20","I wish it were more pastel but I think it is relaxing to look at.,30,280,20","I dont see any expression,-29,400,20","Colors look glum; photograph is not properly contrasted and does not reflect the appropriate amount of natural light.,-10,320,20","I'm not sure if this is the image of a furniture store or not.,-20,60,20","Jacob","It doesn't look so vibrant, I'm not sure what feelings they were trying to capture,-41,340,20","Luis","I dont see any expression,-29,400,20","Tyler","Colors look glum; photograph is not properly contrasted and does not reflect the appropriate amount of natural light.,-10,320,20","6"
"48223","","survey-text","162","1507603","0.0-159.0-0.0","A1N81DHJ97L8OL","","","","{""Q0"":""If I didn't know any better, would think I was looking at a topography map""}","","","","","","","","","","","","","","","","","","","","","","",""
"5973.100000023842","","image-slider-response","163","1513577","0.0-160.0","A1N81DHJ97L8OL","","","","","-25","","","","","","","","","","","","","","","","","","","","","",""
"4721","","image-button-response","164","1518578","0.0-161.0","A1N81DHJ97L8OL","img_art/7.jpg","0","","","","","","","","","","","","","","","","","","","","","","","","",""
"729","","image-button-response","165","1519309","0.0-162.0","A1N81DHJ97L8OL","img_art/7.jpg","0","","","","","","","","","","","","","","","","","","","","","","","","",""
"12825","","image-button-response","166","1532135","0.0-163.0-0.0","A1N81DHJ97L8OL","img_art/7.jpg","4","","","","","","","","","","","","","","","","","","","","","","","","",""
"492","","image-button-response","167","1532629","0.0-164.0-0.0","A1N81DHJ97L8OL","img_art/7.jpg","5","","","","","","","","","","","","","","","","","","","","","","","","",""
"null","","html-keyboard-response","168","1533630","0.0-165.0","A1N81DHJ97L8OL","<p style=""font-size: 48px;"">+</p>","","","","","null","allTrialResponses","1000","1","17","img_art/7.jpg","-25","If I didn't know any better, would think I was looking at a topography map","Jacob,Connor,Andrew,Luis,Tyler,Hunter","Looks like a natural texture, reminds me of rocks.,0,340,20","Color is bland and looks damaged,-37,240,20","It makes me think of new archaeology discoveries,15,160,20","Not getting the vibe i would like from this,-30,400,20","Is this a painting, really? Very compelling if so, the texture work is incredible.,15,320,20","textures are engaging,8,240,20","Jacob","Looks like a natural texture, reminds me of rocks.,0,340,20","Tyler","Is this a painting, really? Very compelling if so, the texture work is incredible.,15,320,20","Hunter","textures are engaging,8,240,20","6"
"76223","","survey-text","169","1609857","0.0-166.0-0.0","A1N81DHJ97L8OL","","","","{""Q0"":""I can't tell what anything is, just know that I do not like it""}","","","","","","","","","","","","","","","","","","","","","","",""
"3848.899999976158","","image-slider-response","170","1613706","0.0-167.0","A1N81DHJ97L8OL","","","","","-50","","","","","","","","","","","","","","","","","","","","","",""
"3791","","image-button-response","171","1618709","0.0-168.0","A1N81DHJ97L8OL","img_art/28.jpg","1","","","","","","","","","","","","","","","","","","","","","","","","",""
"750","","image-button-response","172","1619461","0.0-169.0","A1N81DHJ97L8OL","img_art/28.jpg","1","","","","","","","","","","","","","","","","","","","","","","","","",""
"5315","","image-button-response","173","1624777","0.0-170.0-0.0","A1N81DHJ97L8OL","img_art/28.jpg","0","","","","","","","","","","","","","","","","","","","","","","","","",""
"4290","","image-button-response","174","1629069","0.0-171.0-0.0","A1N81DHJ97L8OL","img_art/28.jpg","2","","","","","","","","","","","","","","","","","","","","","","","","",""
"null","","html-keyboard-response","175","1629569","0.0-172.0","A1N81DHJ97L8OL","<p style=""font-size: 48px;"">+</p>","","","","","null","allTrialResponses","500","1","18","img_art/28.jpg","-50","I can't tell what anything is, just know that I do not like it","Jacob,Justin,Derek,Stephen,Tyler,Hunter","I can't tell what's going on but it looks a little bit more lively at least,7,340,20","I don't like the colors or the design.,-20,280,20","The colors are dull but there's some kind of nostalgic essence of this painting,15,360,20","Good use of shapes.,7,140,20","It's okay. There is harmony and balance.,11,320,20","reminds me of kandinsky,14,240,20","Justin","I don't like the colors or the design.,-20,280,20","Jacob","I can't tell what's going on but it looks a little bit more lively at least,7,340,20","Derek","The colors are dull but there's some kind of nostalgic essence of this painting,15,360,20","6"
"15337","","survey-text","176","1644909","0.0-173.0-0.0","A1N81DHJ97L8OL","","","","{""Q0"":""rather autumnal feel to it""}","","","","","","","","","","","","","","","","","","","","","","",""
"4997","","image-slider-response","177","1649907","0.0-174.0","A1N81DHJ97L8OL","","","","","15","","","","","","","","","","","","","","","","","","","","","",""
"4957","","image-button-response","178","1654909","0.0-175.0","A1N81DHJ97L8OL","img_art/27.jpg","2","","","","","","","","","","","","","","","","","","","","","","","","",""
"535","","image-button-response","179","1655445","0.0-176.0","A1N81DHJ97L8OL","img_art/27.jpg","2","","","","","","","","","","","","","","","","","","","","","","","","",""
"5583","","image-button-response","180","1661029","0.0-177.0-0.0","A1N81DHJ97L8OL","img_art/27.jpg","3","","","","","","","","","","","","","","","","","","","","","","","","",""
"2783","","image-button-response","181","1663813","0.0-178.0-0.0","A1N81DHJ97L8OL","img_art/27.jpg","0","","","","","","","","","","","","","","","","","","","","","","","","",""
"null","","html-keyboard-response","182","1665315","0.0-179.0","A1N81DHJ97L8OL","<p style=""font-size: 48px;"">+</p>","","","","","null","allTrialResponses","1500","1","19","img_art/27.jpg","15","rather autumnal feel to it","Jacob,Justin,Derek,James,Devin,Dylan","Don't get the point of this piece that much, but it doesn't bug me,1,340,20","The colors are put together in an interesting way.,-9,280,20","I love the mood of this painting,30,360,20","This painting is very unique,21,380,20","Looks like the green bits were added on later,-1,380,20","This is ugly and looks like a child did this,-36,40,20","Derek","I love the mood of this painting,30,360,20","James","This painting is very unique,21,380,20","Jacob","Don't get the point of this piece that much, but it doesn't bug me,1,340,20","6"
"24711","","survey-text","183","1690029","0.0-180.0-0.0","A1N81DHJ97L8OL","","","","{""Q0"":""looks like a conqueror standing over their victims""}","","","","","","","","","","","","","","","","","","","","","","",""
"10693.5","","image-slider-response","184","1700723","0.0-181.0","A1N81DHJ97L8OL","","","","","20","","","","","","","","","","","","","","","","","","","","","",""
"3078","","image-button-response","185","1705725","0.0-182.0","A1N81DHJ97L8OL","img_art/25.jpg","1","","","","","","","","","","","","","","","","","","","","","","","","",""
"201","","image-button-response","186","1705927","0.0-183.0","A1N81DHJ97L8OL","img_art/25.jpg","1","","","","","","","","","","","","","","","","","","","","","","","","",""
"4209","","image-button-response","187","1710137","0.0-184.0-0.0","A1N81DHJ97L8OL","img_art/25.jpg","5","","","","","","","","","","","","","","","","","","","","","","","","",""
"4237","","image-button-response","188","1714375","0.0-185.0-0.0","A1N81DHJ97L8OL","img_art/25.jpg","0","","","","","","","","","","","","","","","","","","","","","","","","",""
"null","","html-keyboard-response","189","1715876","0.0-186.0","A1N81DHJ97L8OL","<p style=""font-size: 48px;"">+</p>","","","","","null","allTrialResponses","1500","1","20","img_art/25.jpg","20","looks like a conqueror standing over their victims","Jacob,Alexander,Derek,James,Michael,Charles","I really like how the lines form this piece.,8,340,20","Ancient gods above you.,20,120,20","It's really neat and cool looking,20,360,20","This would definitely be hanging in my bedroom in my house,50,380,20","Low skill not impressed.,-14,140,20","Cult-like, which to me makes it kind of creepy,-21,100,20","Alexander","Ancient gods above you.,20,120,20","Charles","Cult-like, which to me makes it kind of creepy,-21,100,20","Jacob","I really like how the lines form this piece.,8,340,20","6"
"2342","","survey-text","190","1718223","0.0-187.0-0.0","A1N81DHJ97L8OL","","","","{""Q0"":""we""}","","","","","","","","","","","","","","","","","","","","","","",""
"29052","","survey-text","191","1747275","0.0-188.0-0.0","A1N81DHJ97L8OL","","","","{""Q0"":""someone lost a paintbrush""}","","","","","","","","","","","","","","","","","","","","","","",""
"4573.199999988079","","image-slider-response","192","1751849","0.0-189.0","A1N81DHJ97L8OL","","","","","20","","","","","","","","","","","","","","","","","","","","","",""
"null","","image-button-response","193","1756851","0.0-190.0","A1N81DHJ97L8OL","img_art/29.jpg","null","","","","","","","","","","","","","","","","","","","","","","","","",""
"2921","","image-button-response","194","1759773","0.0-191.0","A1N81DHJ97L8OL","img_art/29.jpg","4","","","","","","","","","","","","","","","","","","","","","","","","",""
"1403","","image-button-response","195","1761177","0.0-192.0-0.0","A1N81DHJ97L8OL","img_art/29.jpg","3","","","","","","","","","","","","","","","","","","","","","","","","",""
"3035","","image-button-response","196","1764213","0.0-193.0-0.0","A1N81DHJ97L8OL","img_art/29.jpg","0","","","","","","","","","","","","","","","","","","","","","","","","",""
"null","","html-keyboard-response","197","1765715","0.0-194.0","A1N81DHJ97L8OL","<p style=""font-size: 48px;"">+</p>","","","","","null","allTrialResponses","1500","1","21","img_art/29.jpg","20","someone lost a paintbrush","Jacob,Alexander,Jason,Colton,Richard,Charles","It looks cool but I don't really get what's going on, it looks too busy,0,340,20","Tested and failed a lot of ideas.,-20,120,20","I do not like the red x present in the picture,-6,20,20","interesting, but I wouldn't put it on my wall,8,220,20","it's OK, no clue to what's going on but good use of light and dark,4,340,20","I like the usage of a physical object,33,100,20","Richard","it's OK, no clue to what's going on but good use of light and dark,4,340,20","Colton","interesting, but I wouldn't put it on my wall,8,220,20","Jacob","It looks cool but I don't really get what's going on, it looks too busy,0,340,20","6"
"33236","","survey-text","198","1798953","0.0-195.0-0.0","A1N81DHJ97L8OL","","","","{""Q0"":""strong red lines make you think something was done wrong and scribbled out""}","","","","","","","","","","","","","","","","","","","","","","",""
"2834.7999999523163","","image-slider-response","199","1801789","0.0-196.0","A1N81DHJ97L8OL","","","","","-50","","","","","","","","","","","","","","","","","","","","","",""
"2871","","image-button-response","200","1806791","0.0-197.0","A1N81DHJ97L8OL","img_art/3.jpg","1","","","","","","","","","","","","","","","","","","","","","","","","",""
"676","","image-button-response","201","1807467","0.0-198.0","A1N81DHJ97L8OL","img_art/3.jpg","1","","","","","","","","","","","","","","","","","","","","","","","","",""
"1055","","image-button-response","202","1808523","0.0-199.0-0.0","A1N81DHJ97L8OL","img_art/3.jpg","3","","","","","","","","","","","","","","","","","","","","","","","","",""
"4509","","image-button-response","203","1813033","0.0-200.0-0.0","A1N81DHJ97L8OL","img_art/3.jpg","0","","","","","","","","","","","","","","","","","","","","","","","","",""
"null","","html-keyboard-response","204","1813535","0.0-201.0","A1N81DHJ97L8OL","<p style=""font-size: 48px;"">+</p>","","","","","null","allTrialResponses","500","1","22","img_art/3.jpg","-50","strong red lines make you think something was done wrong and scribbled out","Jacob,Jesse,Brett,Colton,Richard,Jeffrey","Don't get the scribbles.,-13,340,20","No substance or feeling to it,-20,80,20","Confusion and mayhem,-10,360,20","looks like a kid scribbled with crayon,-35,220,20","7th grade art, not much effort to do this.,-39,340,20","Associates with blood and crime scene,-12,40,20","Jesse","No substance or feeling to it,-20,80,20","Colton","looks like a kid scribbled with crayon,-35,220,20","Jacob","Don't get the scribbles.,-13,340,20","6"
"19256","","survey-text","205","1832794","0.0-202.0-0.0","A1N81DHJ97L8OL","","","","{""Q0"":""do not eat the blueberries""}","","","","","","","","","","","","","","","","","","","","","","",""
"5697.300000011921","","image-slider-response","206","1838493","0.0-203.0","A1N81DHJ97L8OL","","","","","-10","","","","","","","","","","","","","","","","","","","","","",""
"4957","","image-button-response","207","1843495","0.0-204.0","A1N81DHJ97L8OL","img_art/15.jpg","1","","","","","","","","","","","","","","","","","","","","","","","","",""
"590","","image-button-response","208","1844087","0.0-205.0","A1N81DHJ97L8OL","img_art/15.jpg","1","","","","","","","","","","","","","","","","","","","","","","","","",""
"621","","image-button-response","209","1844709","0.0-206.0-0.0","A1N81DHJ97L8OL","img_art/15.jpg","0","","","","","","","","","","","","","","","","","","","","","","","","",""
"6231","","image-button-response","210","1850941","0.0-207.0-0.0","A1N81DHJ97L8OL","img_art/15.jpg","4","","","","","","","","","","","","","","","","","","","","","","","","",""
"null","","html-keyboard-response","211","1852443","0.0-208.0","A1N81DHJ97L8OL","<p style=""font-size: 48px;"">+</p>","","","","","null","allTrialResponses","1500","1","23","img_art/15.jpg","-10","do not eat the blueberries","Jacob,Jesse,Jesus,Colton,Adrian,Peter","I think it's trying to execute a cool idea, but unfortunately it doesn't appeal,5,340,20","Doesnt trigger much of a reaction overall,-2,80,20","I like the colors and textures.,32,100,20","it's alright but a little cluttered,14,220,20","Not a fan. This piece would only go with very specific decor in a modern home.,-35,60,20","It's just dots. Doesn't bring any positive or negative feelings,2,320,20","Jesse","Doesnt trigger much of a reaction overall,-2,80,20","Jacob","I think it's trying to execute a cool idea, but unfortunately it doesn't appeal,5,340,20","Adrian","Not a fan. This piece would only go with very specific decor in a modern home.,-35,60,20","6"
"38583","","survey-text","212","1891028","0.0-209.0-0.0","A1N81DHJ97L8OL","","","","{""Q0"":""seems like an ethereal knight riding into a battle""}","","","","","","","","","","","","","","","","","","","","","","",""
"4031.099999964237","","image-slider-response","213","1895060","0.0-210.0","A1N81DHJ97L8OL","","","","","30","","","","","","","","","","","","","","","","","","","","","",""
"null","","image-button-response","214","1900062","0.0-211.0","A1N81DHJ97L8OL","img_art/18.jpg","null","","","","","","","","","","","","","","","","","","","","","","","","",""
"19931","","image-button-response","215","1919994","0.0-212.0","A1N81DHJ97L8OL","img_art/18.jpg","4","","","","","","","","","","","","","","","","","","","","","","","","",""
"4625","","image-button-response","216","1924620","0.0-213.0-0.0","A1N81DHJ97L8OL","img_art/18.jpg","1","","","","","","","","","","","","","","","","","","","","","","","","",""
"2673","","image-button-response","217","1927294","0.0-214.0-0.0","A1N81DHJ97L8OL","img_art/18.jpg","0","","","","","","","","","","","","","","","","","","","","","","","","",""
"null","","html-keyboard-response","218","1928796","0.0-215.0","A1N81DHJ97L8OL","<p style=""font-size: 48px;"">+</p>","","","","","null","allTrialResponses","1500","1","24","img_art/18.jpg","30","seems like an ethereal knight riding into a battle","Jacob,Jesse,Ryan,Alexis,Adrian,Cody","I think this looks pretty cool, I can see what's kind of going on here.,22,340,20","It reminds me of ghosts on a boat. Makes me nervous.,-27,80,20","Too political, not my cup of tea,-50,380,20","It's possibly of a mermaid luring in a ship,15,140,20","Interesting piece - gives you more the more you look at it. I like it but wouldn't buy it.,11,60,20","Vaguely creepy ........,-20,180,20","Adrian","Interesting piece - gives you more the more you look at it. I like it but wouldn't buy it.,11,60,20","Jesse","It reminds me of ghosts on a boat. Makes me nervous.,-27,80,20","Jacob","I think this looks pretty cool, I can see what's kind of going on here.,22,340,20","6"
"37744","","survey-text","219","1966542","0.0-216.0-0.0","A1N81DHJ97L8OL","","","","{""Q0"":""doesn't make me react at all, the colors aren't bad though""}","","","","","","","","","","","","","","","","","","","","","","",""
"2974.699999988079","","image-slider-response","220","1969518","0.0-217.0","A1N81DHJ97L8OL","","","","","0","","","","","","","","","","","","","","","","","","","","","",""
"null","","image-button-response","221","1974520","0.0-218.0","A1N81DHJ97L8OL","img_art/1.jpg","null","","","","","","","","","","","","","","","","","","","","","","","","",""
"3499","","image-button-response","222","1978020","0.0-219.0","A1N81DHJ97L8OL","img_art/1.jpg","2","","","","","","","","","","","","","","","","","","","","","","","","",""
"3837","","image-button-response","223","1981859","0.0-220.0-0.0","A1N81DHJ97L8OL","img_art/1.jpg","5","","","","","","","","","","","","","","","","","","","","","","","","",""
"1762","","image-button-response","224","1983623","0.0-221.0-0.0","A1N81DHJ97L8OL","img_art/1.jpg","3","","","","","","","","","","","","","","","","","","","","","","","","",""
"null","","html-keyboard-response","225","1985124","0.0-222.0","A1N81DHJ97L8OL","<p style=""font-size: 48px;"">+</p>","","","","","null","allTrialResponses","1500","1","25","img_art/1.jpg","0","doesn't make me react at all, the colors aren't bad though","Jacob,Jesse,William,Carlos,Adrian,Brendan","Looks like the same thing as the last piece shown to me,10,340,20","Im not a fan of the bluriness,-18,80,20","love how the colors blend,42,380,20","Colors are pleasant, but feels incredibly generic.,9,80,20","Not a fan of the colors. Makes me think of the Australian bush fires.,-5,60,20","a colorful piece of art,25,340,20","William","love how the colors blend,42,380,20","Brendan","a colorful piece of art,25,340,20","Carlos","Colors are pleasant, but feels incredibly generic.,9,80,20","6"
"5965","","survey-text","226","1991095","0.0-223.0-0.0","A1N81DHJ97L8OL","","","","{""Q0"":""table""}","","","","","","","","","","","","","","","","","","","","","","",""
"35479","","survey-text","227","2026574","0.0-224.0-0.0","A1N81DHJ97L8OL","","","","{""Q0"":""a strange, twisted fairytale landscape""}","","","","","","","","","","","","","","","","","","","","","","",""
"4717","","image-slider-response","228","2031292","0.0-225.0","A1N81DHJ97L8OL","","","","","30","","","","","","","","","","","","","","","","","","","","","",""
"4113","","image-button-response","229","2036294","0.0-226.0","A1N81DHJ97L8OL","img_art/24.jpg","1","","","","","","","","","","","","","","","","","","","","","","","","",""
"685","","image-button-response","230","2036980","0.0-227.0","A1N81DHJ97L8OL","img_art/24.jpg","1","","","","","","","","","","","","","","","","","","","","","","","","",""
"9447","","image-button-response","231","2046428","0.0-228.0-0.0","A1N81DHJ97L8OL","img_art/24.jpg","5","","","","","","","","","","","","","","","","","","","","","","","","",""
"1945","","image-button-response","232","2048374","0.0-229.0-0.0","A1N81DHJ97L8OL","img_art/24.jpg","2","","","","","","","","","","","","","","","","","","","","","","","","",""
"null","","html-keyboard-response","233","2049376","0.0-230.0","A1N81DHJ97L8OL","<p style=""font-size: 48px;"">+</p>","","","","","null","allTrialResponses","1000","1","26","img_art/24.jpg","30","a strange, twisted fairytale landscape","Noah,Zachary,William,Carlos,Jose,Brendan","this evokes a gutural reaction - it displeases me how similar it is to art I saw growing up,-30,260,20","Looks like a beautiful stream rolling through terrain of rocks and flowers.,43,400,20","very peaceful and serene,47,380,20","It is like a really bad impressionist painting.,-40,80,20","The combination of nature / realism with abstract colors is unique.,39,200,20","lovely forest vibes,36,340,20","Zachary","Looks like a beautiful stream rolling through terrain of rocks and flowers.,43,400,20","Brendan","lovely forest vibes,36,340,20","William","very peaceful and serene,47,380,20","6"
"25041","","survey-text","234","2074420","0.0-231.0-0.0","A1N81DHJ97L8OL","","","","{""Q0"":""looks like someone took a puzzle and mixed up the pieces""}","","","","","","","","","","","","","","","","","","","","","","",""
"4666.899999976158","","image-slider-response","235","2079088","0.0-232.0","A1N81DHJ97L8OL","","","","","0","","","","","","","","","","","","","","","","","","","","","",""
"null","","image-button-response","236","2084091","0.0-233.0","A1N81DHJ97L8OL","img_art/12.jpg","null","","","","","","","","","","","","","","","","","","","","","","","","",""
"10025","","image-button-response","237","2094116","0.0-234.0","A1N81DHJ97L8OL","img_art/12.jpg","4","","","","","","","","","","","","","","","","","","","","","","","","",""
"1131","","image-button-response","238","2095249","0.0-235.0-0.0","A1N81DHJ97L8OL","img_art/12.jpg","1","","","","","","","","","","","","","","","","","","","","","","","","",""
"3762","","image-button-response","239","2099012","0.0-236.0-0.0","A1N81DHJ97L8OL","img_art/12.jpg","2","","","","","","","","","","","","","","","","","","","","","","","","",""
"null","","html-keyboard-response","240","2100513","0.0-237.0","A1N81DHJ97L8OL","<p style=""font-size: 48px;"">+</p>","","","","","null","allTrialResponses","1500","1","27","img_art/12.jpg","0","looks like someone took a puzzle and mixed up the pieces","Alex,Zachary,William,Kenneth,Ian,Brendan","eww hate everything about this, looks like it belongs in a dentist's office,-14,100,20","I like how it's split into tiny squares, but otherwise, not very intriguing.,-18,400,20","to contemporary for me,3,380,20","It's pretty, I find it interesting to look at.,10,300,20","This is like going to a really old mcdoanlds in a tiny town and it's never been renovated so it's breaking down,-31,260,20","wtf is that i dont get it,-50,340,20","Ian","This is like going to a really old mcdoanlds in a tiny town and it's never been renovated so it's breaking down,-31,260,20","Zachary","I like how it's split into tiny squares, but otherwise, not very intriguing.,-18,400,20","William","to contemporary for me,3,380,20","6"
"49086","","survey-text","241","2149603","0.0-238.0-0.0","A1N81DHJ97L8OL","","","","{""Q0"":""seemed like the artist was venting in some way""}","","","","","","","","","","","","","","","","","","","","","","",""
"5300.800000011921","","image-slider-response","242","2154904","0.0-239.0","A1N81DHJ97L8OL","","","","","-35","","","","","","","","","","","","","","","","","","","","","",""
"null","","image-button-response","243","2159906","0.0-240.0","A1N81DHJ97L8OL","img_art/10.jpg","null","","","","","","","","","","","","","","","","","","","","","","","","",""
"2098","","image-button-response","244","2162005","0.0-241.0","A1N81DHJ97L8OL","img_art/10.jpg","5","","","","","","","","","","","","","","","","","","","","","","","","",""
"1277","","image-button-response","245","2163282","0.0-242.0-0.0","A1N81DHJ97L8OL","img_art/10.jpg","4","","","","","","","","","","","","","","","","","","","","","","","","",""
"1913","","image-button-response","246","2165197","0.0-243.0-0.0","A1N81DHJ97L8OL","img_art/10.jpg","3","","","","","","","","","","","","","","","","","","","","","","","","",""
"null","","html-keyboard-response","247","2165699","0.0-244.0","A1N81DHJ97L8OL","<p style=""font-size: 48px;"">+</p>","","","","","null","allTrialResponses","500","1","28","img_art/10.jpg","-35","seemed like the artist was venting in some way","Elijah,Zachary,William,Garrett,Ian,Benjamin","Makes me feel amazed,23,80,20","Reminds me of a terrarium with cacti inside. It reminds me of home.,27,400,20","absolutely beautiful piece of art,49,380,20","I can't tell what this picture is supposed to mean and I think the colors are lacking variety.,-42,180,20","It reminds me of how my dog has to run all over the place just to poop in one specific location.,-20,260,20","This picture just seems depressing.,-26,260,20","Benjamin","This picture just seems depressing.,-26,260,20","Ian","It reminds me of how my dog has to run all over the place just to poop in one specific location.,-20,260,20","Garrett","I can't tell what this picture is supposed to mean and I think the colors are lacking variety.,-42,180,20","6"
"58260","","survey-text","248","2223962","0.0-245.0-0.0","A1N81DHJ97L8OL","","","","{""Q0"":""looks like a child was drawing on the wall of his playroom""}","","","","","","","","","","","","","","","","","","","","","","",""
"4393.199999988079","","image-slider-response","249","2228357","0.0-246.0","A1N81DHJ97L8OL","","","","","0","","","","","","","","","","","","","","","","","","","","","",""
"null","","image-button-response","250","2233358","0.0-247.0","A1N81DHJ97L8OL","img_art/16.jpg","null","","","","","","","","","","","","","","","","","","","","","","","","",""
"681","","image-button-response","251","2234040","0.0-248.0","A1N81DHJ97L8OL","img_art/16.jpg","2","","","","","","","","","","","","","","","","","","","","","","","","",""
"3509","","image-button-response","252","2237550","0.0-249.0-0.0","A1N81DHJ97L8OL","img_art/16.jpg","5","","","","","","","","","","","","","","","","","","","","","","","","",""
"877","","image-button-response","253","2238429","0.0-250.0-0.0","A1N81DHJ97L8OL","img_art/16.jpg","3","","","","","","","","","","","","","","","","","","","","","","","","",""
"null","","html-keyboard-response","254","2239430","0.0-251.0","A1N81DHJ97L8OL","<p style=""font-size: 48px;"">+</p>","","","","","null","allTrialResponses","1000","1","29","img_art/16.jpg","0","looks like a child was drawing on the wall of his playroom","John,Aaron,Mitchell,Garrett,Ian,Benjamin","It creeps me out.,-50,120,20","It's edgy but cool,10,20,20","A teddybear, gun, crying person does not give a happy reaction. Death, still, no life.,-50,180,20","I think this picture is weird and the colors are very boring.,-50,180,20","This looks like it was made by an art student filled with angst,-30,260,20","Don't like the teddy bear. It takes away from the painting.,-39,260,20","Mitchell","A teddybear, gun, crying person does not give a happy reaction. Death, still, no life.,-50,180,20","Benjamin","Don't like the teddy bear. It takes away from the painting.,-39,260,20","Garrett","I think this picture is weird and the colors are very boring.,-50,180,20","6"
"44466","","survey-text","255","2283900","0.0-252.0-0.0","A1N81DHJ97L8OL","","","","{""Q0"":""the hidden faces throughout the image are rather intriguing""}","","","","","","","","","","","","","","","","","","","","","","",""
"4955.200000047684","","image-slider-response","256","2288856","0.0-253.0","A1N81DHJ97L8OL","","","","","30","","","","","","","","","","","","","","","","","","","","","",""
"null","","image-button-response","257","2293859","0.0-254.0","A1N81DHJ97L8OL","img_art/8.jpg","null","","","","","","","","","","","","","","","","","","","","","","","","",""
"5561","","image-button-response","258","2299420","0.0-255.0","A1N81DHJ97L8OL","img_art/8.jpg","5","","","","","","","","","","","","","","","","","","","","","","","","",""
"1151","","image-button-response","259","2300573","0.0-256.0-0.0","A1N81DHJ97L8OL","img_art/8.jpg","3","","","","","","","","","","","","","","","","","","","","","","","","",""
"2065","","image-button-response","260","2302638","0.0-257.0-0.0","A1N81DHJ97L8OL","img_art/8.jpg","4","","","","","","","","","","","","","","","","","","","","","","","","",""
"null","","html-keyboard-response","261","2303640","0.0-258.0","A1N81DHJ97L8OL","<p style=""font-size: 48px;"">+</p>","","","","","null","allTrialResponses","1000","1","30","img_art/8.jpg","30","the hidden faces throughout the image are rather intriguing","Shawn,Malik,Mitchell,Garrett,Patrick,Benjamin","Cheesy. A little too knock you over the dead with its message without making it emotional,-31,100,20","Striking, but not my taste,20,40,20","Lost in a big city confuse as to where to go to next. No matter if you live in a mansion or homeless. Being bigger than what is going on around you,30,180,20","I like that it looks like a city and the way the shapes and colors are put together,40,180,20","Very interesting use of blocks,21,280,20","Very colorful. Looks like the hustle and bustle of a city.,11,260,20","Benjamin","Very colorful. Looks like the hustle and bustle of a city.,11,260,20","Garrett","I like that it looks like a city and the way the shapes and colors are put together,40,180,20","Patrick","Very interesting use of blocks,21,280,20","6"
"4173","","image-button-response_instructions","262","2307816","0.0-259.0","A1N81DHJ97L8OL","","0","instructions","","","","","","","","","","","","","","","","","","","","","","","",""
"979","","image-button-response","263","2308798","0.0-260.0","A1N81DHJ97L8OL","","0","","","","","","","","","","","","","","","","","","","","","","","","",""
