"rt","url","trial_type","trial_index","time_elapsed","internal_node_id","participant_id","stimulus","button_pressed","Name","responses","response","key_press","variableName","fixationTime","condition","trial","photo","subjectRating","subjectResponse","agentsNames","agent_1_Response","agent_2_Response","agent_3_Response","agent_4_Response","agent_5_Response","agent_6_Response","kept_1_name","kept_1_response","kept_2_name","kept_2_response","kept_3_name","kept_3_response","errorCounter"
"5071","external_page_harvard.html","external-html","0","5168","0.0-0.0","A1NM9PXZDCCQ1E","","","","","","","","","","","","","","","","","","","","","","","","","","",""
"2882","","image-button-response","1","8058","0.0-1.0","A1NM9PXZDCCQ1E","","1","","","","","","","","","","","","","","","","","","","","","","","","",""
"3216","","image-button-response","2","11294","0.0-2.0-0.0","A1NM9PXZDCCQ1E","","1","phone","","","","","","","","","","","","","","","","","","","","","","","",""
"9308","","survey-text","3","20609","0.0-3.0-0.0","A1NM9PXZDCCQ1E","","","","{""Q0"":""A1NM9PXZDCCQ1E""}","","","","","","","","","","","","","","","","","","","","","","",""
"9350","","image-button-response_instructions","4","29968","0.0-4.0","A1NM9PXZDCCQ1E","","0","instructions","","","","","","","","","","","","","","","","","","","","","","","",""
"11473","","image-button-response_instructions","5","41446","0.0-5.0","A1NM9PXZDCCQ1E","img_art/ins/popularity/ins1.png","0","instructions","","","","","","","","","","","","","","","","","","","","","","","",""
"4029","","image-button-response_instructions","6","45480","0.0-6.0","A1NM9PXZDCCQ1E","img_art/ins/popularity/ins2.png","0","instructions","","","","","","","","","","","","","","","","","","","","","","","",""
"4293","","image-button-response_instructions","7","49778","0.0-7.0","A1NM9PXZDCCQ1E","img_art/ins/popularity/ins2Extreme.png","0","instructions","","","","","","","","","","","","","","","","","","","","","","","",""
"11926","","image-button-response_instructions","8","61707","0.0-8.0","A1NM9PXZDCCQ1E","img_art/ins/popularity/ins3KEEPpop.PNG","0","instructions","","","","","","","","","","","","","","","","","","","","","","","",""
"2765","","image-button-response_instructions","9","64477","0.0-9.0","A1NM9PXZDCCQ1E","img_art/ins/popularity/ins3ANamepop.PNG","0","instructions","","","","","","","","","","","","","","","","","","","","","","","",""
"3182","","image-button-response_instructions","10","67665","0.0-10.0","A1NM9PXZDCCQ1E","img_art/ins/popularity/ins3ARatingpop.png","0","instructions","","","","","","","","","","","","","","","","","","","","","","","",""
"2522","","image-button-response_instructions","11","70190","0.0-11.0","A1NM9PXZDCCQ1E","img_art/ins/popularity/ins3ATextpop.png","0","instructions","","","","","","","","","","","","","","","","","","","","","","","",""
"4970","","image-button-response_instructions","12","75165","0.0-12.0","A1NM9PXZDCCQ1E","img_art/ins/popularity/ins3ALikespop.png","0","instructions","","","","","","","","","","","","","","","","","","","","","","","",""
"9051","","image-button-response_instructions","13","84221","0.0-13.0","A1NM9PXZDCCQ1E","img_art/ins/popularity/ins3KEEPpop.PNG","0","instructions","","","","","","","","","","","","","","","","","","","","","","","",""
"7306","","image-button-response_instructions","14","91531","0.0-14.0","A1NM9PXZDCCQ1E","img_art/ins/popularity/ins3_5RED.png","0","instructions","","","","","","","","","","","","","","","","","","","","","","","",""
"3529","","image-button-response_instructions","15","95066","0.0-15.0","A1NM9PXZDCCQ1E","img_art/ins/popularity/ins3KEEPpop.PNG","0","instructions","","","","","","","","","","","","","","","","","","","","","","","",""
"12413","","image-button-response_instructions","16","107483","0.0-16.0","A1NM9PXZDCCQ1E","img_art/ins/popularity/ins4KEEPpop.PNG","0","instructions","","","","","","","","","","","","","","","","","","","","","","","",""
"3399","","image-button-response_instructions","17","110886","0.0-17.0","A1NM9PXZDCCQ1E","img_art/ins/popularity/ins5KEEPpop.PNG","0","instructions","","","","","","","","","","","","","","","","","","","","","","","",""
"45838","","image-button-response_instructions","18","156728","0.0-18.0","A1NM9PXZDCCQ1E","","0","instructions","","","","","","","","","","","","","","","","","","","","","","","",""
"5101","","survey-text","19","161880","0.0-19.0-0.0","A1NM9PXZDCCQ1E","","","","{""Q0"":""but""}","","","","","","","","","","","","","","","","","","","","","","",""
"17753","","survey-text","20","179639","0.0-20.0-0.0","A1NM9PXZDCCQ1E","","","","{""Q0"":""I feel the scratchiness of this conveys a strong, chaotic emotion""}","","","","","","","","","","","","","","","","","","","","","","",""
"4057.300000000745","","image-slider-response","21","183705","0.0-21.0","A1NM9PXZDCCQ1E","","","","","25","","","","","","","","","","","","","","","","","","","","","",""
"null","","image-button-response","22","188718","0.0-22.0","A1NM9PXZDCCQ1E","img_art/ins/1.jpg","null","","","","","","","","","","","","","","","","","","","","","","","","",""
"3498","","image-button-response","23","192223","0.0-23.0","A1NM9PXZDCCQ1E","img_art/ins/1.jpg","5","","","","","","","","","","","","","","","","","","","","","","","","",""
"2682","","image-button-response","24","194915","0.0-24.0-0.0","A1NM9PXZDCCQ1E","img_art/ins/1.jpg","1","","","","","","","","","","","","","","","","","","","","","","","","",""
"5050","","image-button-response","25","199977","0.0-25.0-0.0","A1NM9PXZDCCQ1E","img_art/ins/1.jpg","0","","","","","","","","","","","","","","","","","","","","","","","","",""
"null","","html-keyboard-response","26","201486","0.0-26.0","A1NM9PXZDCCQ1E","<p style=""font-size: 48px;"">+</p>","","","","","null","allTrialResponses","1500","1","-2","img_art/ins/1.jpg","25","I feel the scratchiness of this conveys a strong, chaotic emotion","Allison,Ashley,Beth,Dora,Erika,Jen","looks like a lot of things going on in the mist,20,20,20","I just don't get why these type of art would be popular,-32,40,20","This color reminds me of poo,-46,60,20","looks like what my niece in 3rd grade did this afternoon,-50,80,20","I like the sophisticated brushwork,40,100,20","It reminds me of a candy land dream I had,36,120,20","Jen","It reminds me of a candy land dream I had,36,120,20","Ashley","I just don't get why these type of art would be popular,-32,40,20","Allison","looks like a lot of things going on in the mist,20,20,20","0"
"11609","","survey-text","27","213112","0.0-27.0-0.0","A1NM9PXZDCCQ1E","","","","{""Q0"":""the deep colors of this are very moving, gives a heavy feeling""}","","","","","","","","","","","","","","","","","","","","","","",""
"4472","","image-slider-response","28","217592","0.0-28.0","A1NM9PXZDCCQ1E","","","","","33","","","","","","","","","","","","","","","","","","","","","",""
"null","","image-button-response","29","222603","0.0-29.0","A1NM9PXZDCCQ1E","img_art/ins/2.jpg","null","","","","","","","","","","","","","","","","","","","","","","","","",""
"3911","","image-button-response","30","226521","0.0-30.0","A1NM9PXZDCCQ1E","img_art/ins/2.jpg","5","","","","","","","","","","","","","","","","","","","","","","","","",""
"1355","","image-button-response","31","227884","0.0-31.0-0.0","A1NM9PXZDCCQ1E","img_art/ins/2.jpg","4","","","","","","","","","","","","","","","","","","","","","","","","",""
"1827","","image-button-response","32","229716","0.0-32.0-0.0","A1NM9PXZDCCQ1E","img_art/ins/2.jpg","0","","","","","","","","","","","","","","","","","","","","","","","","",""
"null","","html-keyboard-response","33","230220","0.0-33.0","A1NM9PXZDCCQ1E","<p style=""font-size: 48px;"">+</p>","","","","","null","allTrialResponses","500","1","-1","img_art/ins/2.jpg","33","the deep colors of this are very moving, gives a heavy feeling","Allison,Ashley,Katie,Jenna,Kara,Jen","I don't have strong feelings about this,10,20,20","Idk, it is just annoying,-32,40,20","too much color!,-28,180,20","One of my pet peevs,-48,140,20","I like the blocks of color arrangements,30,160,20","It reminds me of a fireplace,36,120,20","Jen","It reminds me of a fireplace,36,120,20","Kara","I like the blocks of color arrangements,30,160,20","Allison","I don't have strong feelings about this,10,20,20","0"
"27369","","survey-text","34","257601","0.0-34.0-0.0","A1NM9PXZDCCQ1E","","","","{""Q0"":""i love the lightness of this, the strokes are almost dancing""}","","","","","","","","","","","","","","","","","","","","","","",""
"4266","","image-slider-response","35","261875","0.0-35.0","A1NM9PXZDCCQ1E","","","","","32","","","","","","","","","","","","","","","","","","","","","",""
"null","","image-button-response","36","266883","0.0-36.0","A1NM9PXZDCCQ1E","img_art/ins/3.jpg","null","","","","","","","","","","","","","","","","","","","","","","","","",""
"2994","","image-button-response","37","269885","0.0-37.0","A1NM9PXZDCCQ1E","img_art/ins/3.jpg","4","","","","","","","","","","","","","","","","","","","","","","","","",""
"4994","","image-button-response","38","274887","0.0-38.0-0.0","A1NM9PXZDCCQ1E","img_art/ins/3.jpg","1","","","","","","","","","","","","","","","","","","","","","","","","",""
"737","","image-button-response","39","275635","0.0-39.0-0.0","A1NM9PXZDCCQ1E","img_art/ins/3.jpg","0","","","","","","","","","","","","","","","","","","","","","","","","",""
"null","","html-keyboard-response","40","276640","0.0-40.0","A1NM9PXZDCCQ1E","<p style=""font-size: 48px;"">+</p>","","","","","null","allTrialResponses","1000","1","0","img_art/ins/3.jpg","32","i love the lightness of this, the strokes are almost dancing","Allison,Rose,Mary,Leslie,Kara,Jen","enjoy the different shades of blue,22,20,20","My daily routine, it's depressing,-20,240,20","I like the overlapping of brushes,41,220,20","It's an alright work,15,200,20","calming blue is very nice,36,160,20","I can feel a rainy day from this painting,18,120,20","Kara","calming blue is very nice,36,160,20","Rose","My daily routine, it's depressing,-20,240,20","Allison","enjoy the different shades of blue,22,20,20","0"
"3959","","image-button-response_instructions","41","280618","0.0-41.0","A1NM9PXZDCCQ1E","","0","instructions","","","","","","","","","","","","","","","","","","","","","","","",""
"11036","","survey-likert","42","291660","0.0-42.0-0.0","A1NM9PXZDCCQ1E","","","","{""Q0"":"""",""Q1"":0,""Q2"":1}","","","","","","","","","","","","","","","","","","","","","","",""
"3470","","survey-text","43","295150","0.0-43.0-0.0","A1NM9PXZDCCQ1E","","","","{""Q0"":""rock""}","","","","","","","","","","","","","","","","","","","","","","",""
"13485","","survey-text","44","308640","0.0-44.0-0.0","A1NM9PXZDCCQ1E","","","","{""Q0"":""This reminds me of vomit and ketchup""}","","","","","","","","","","","","","","","","","","","","","","",""
"3998.699999999255","","image-slider-response","45","312646","0.0-45.0","A1NM9PXZDCCQ1E","","","","","-39","","","","","","","","","","","","","","","","","","","","","",""
"null","","image-button-response","46","317698","0.0-46.0","A1NM9PXZDCCQ1E","img_art/30.jpg","null","","","","","","","","","","","","","","","","","","","","","","","","",""
"1536","","image-button-response","47","319242","0.0-47.0","A1NM9PXZDCCQ1E","img_art/30.jpg","5","","","","","","","","","","","","","","","","","","","","","","","","",""
"4047","","image-button-response","48","323295","0.0-48.0-0.0","A1NM9PXZDCCQ1E","img_art/30.jpg","2","","","","","","","","","","","","","","","","","","","","","","","","",""
"3941","","image-button-response","49","327242","0.0-49.0-0.0","A1NM9PXZDCCQ1E","img_art/30.jpg","3","","","","","","","","","","","","","","","","","","","","","","","","",""
"null","","html-keyboard-response","50","328749","0.0-50.0","A1NM9PXZDCCQ1E","<p style=""font-size: 48px;"">+</p>","","","","","null","allTrialResponses","1500","1","1","img_art/30.jpg","-39","This reminds me of vomit and ketchup","Michaela,Breanna,Amanda,Caitlin,Lauren,Christina","My son made me a painting that looked like this,26,260,20","Paint scribbled on canvas,-25,380,20","Love how the red stands out,20,180,20","My kid drew this same picture at daycare!!!,5,80,20","I like how the strokes invokes a sense of fluidity.,20,340,20","it looks like some thing I could make it my garage,-18,240,20","Christina","it looks like some thing I could make it my garage,-18,240,20","Amanda","Love how the red stands out,20,180,20","Caitlin","My kid drew this same picture at daycare!!!,5,80,20","0"
"8553","","survey-text","51","337317","0.0-51.0-0.0","A1NM9PXZDCCQ1E","","","","{""Q0"":""I don't feel much at all from this""}","","","","","","","","","","","","","","","","","","","","","","",""
"9670.5","","image-slider-response","52","346994","0.0-52.0","A1NM9PXZDCCQ1E","","","","","-4","","","","","","","","","","","","","","","","","","","","","",""
"2789","","image-button-response","53","352003","0.0-53.0","A1NM9PXZDCCQ1E","img_art/5.jpg","0","","","","","","","","","","","","","","","","","","","","","","","","",""
"3812","","image-button-response","54","355823","0.0-54.0","A1NM9PXZDCCQ1E","img_art/5.jpg","0","","","","","","","","","","","","","","","","","","","","","","","","",""
"896","","image-button-response","55","356730","0.0-55.0-0.0","A1NM9PXZDCCQ1E","img_art/5.jpg","4","","","","","","","","","","","","","","","","","","","","","","","","",""
"3794","","image-button-response","56","360533","0.0-56.0-0.0","A1NM9PXZDCCQ1E","img_art/5.jpg","3","","","","","","","","","","","","","","","","","","","","","","","","",""
"null","","html-keyboard-response","57","361039","0.0-57.0","A1NM9PXZDCCQ1E","<p style=""font-size: 48px;"">+</p>","","","","","null","allTrialResponses","500","1","2","img_art/5.jpg","-4","I don't feel much at all from this","Paige,Meghan,Amanda,Caitlin,Julia,Christina","I don't hate it but I can't relate to it,1,60,20","I like it but I don't know why,15,220,20","Very good color coordination,41,180,20","More kindergarten art class. Who buys this stuff?,-45,80,20","I like this one but wish it had more context around it,18,40,20","looks like a little kids painting,-50,240,20","Paige","I don't hate it but I can't relate to it,1,60,20","Julia","I like this one but wish it had more context around it,18,40,20","Caitlin","More kindergarten art class. Who buys this stuff?,-45,80,20","0"
"31101","","survey-text","58","392158","0.0-58.0-0.0","A1NM9PXZDCCQ1E","","","","{""Q0"":""this has a liminal feeling to it, like a dream""}","","","","","","","","","","","","","","","","","","","","","","",""
"4190.199999999255","","image-slider-response","59","396359","0.0-59.0","A1NM9PXZDCCQ1E","","","","","15","","","","","","","","","","","","","","","","","","","","","",""
"3225","","image-button-response","60","401370","0.0-60.0","A1NM9PXZDCCQ1E","img_art/17.jpg","1","","","","","","","","","","","","","","","","","","","","","","","","",""
"4056","","image-button-response","61","405436","0.0-61.0","A1NM9PXZDCCQ1E","img_art/17.jpg","3","","","","","","","","","","","","","","","","","","","","","","","","",""
"1163","","image-button-response","62","406608","0.0-62.0-0.0","A1NM9PXZDCCQ1E","img_art/17.jpg","1","","","","","","","","","","","","","","","","","","","","","","","","",""
"4274","","image-button-response","63","410892","0.0-63.0-0.0","A1NM9PXZDCCQ1E","img_art/17.jpg","2","","","","","","","","","","","","","","","","","","","","","","","","",""
"null","","html-keyboard-response","64","412397","0.0-64.0","A1NM9PXZDCCQ1E","<p style=""font-size: 48px;"">+</p>","","","","","null","allTrialResponses","1500","1","3","img_art/17.jpg","15","this has a liminal feeling to it, like a dream","Paige,Courtney,Sydney,Caitlin,Julia,Mary","very pretty. Makes me happy,45,60,20","Some new perm we got there.,12,280,20","This picture is calming to me, and I love the colors.,45,320,20","Somewhat should trim the tree branches at the shopping mall.,10,80,20","I'm not into paintings of trees,-18,40,20","The colors are nice and soft but not very complimentary.,7,180,20","Caitlin","Somewhat should trim the tree branches at the shopping mall.,10,80,20","Courtney","Some new perm we got there.,12,280,20","Sydney","This picture is calming to me, and I love the colors.,45,320,20","0"
"19674","","survey-text","65","432086","0.0-65.0-0.0","A1NM9PXZDCCQ1E","","","","{""Q0"":""this is like an ink blot, the more you look at it the more you see""}","","","","","","","","","","","","","","","","","","","","","","",""
"3953.2999999970198","","image-slider-response","66","436047","0.0-66.0","A1NM9PXZDCCQ1E","","","","","35","","","","","","","","","","","","","","","","","","","","","",""
"null","","image-button-response","67","441056","0.0-67.0","A1NM9PXZDCCQ1E","img_art/23.jpg","null","","","","","","","","","","","","","","","","","","","","","","","","",""
"2795","","image-button-response","68","443856","0.0-68.0","A1NM9PXZDCCQ1E","img_art/23.jpg","2","","","","","","","","","","","","","","","","","","","","","","","","",""
"2542","","image-button-response","69","446405","0.0-69.0-0.0","A1NM9PXZDCCQ1E","img_art/23.jpg","5","","","","","","","","","","","","","","","","","","","","","","","","",""
"1492","","image-button-response","70","447906","0.0-70.0-0.0","A1NM9PXZDCCQ1E","img_art/23.jpg","0","","","","","","","","","","","","","","","","","","","","","","","","",""
"null","","html-keyboard-response","71","449411","0.0-71.0","A1NM9PXZDCCQ1E","<p style=""font-size: 48px;"">+</p>","","","","","null","allTrialResponses","1500","1","4","img_art/23.jpg","35","this is like an ink blot, the more you look at it the more you see","Jasmine,Courtney,Sydney,Caitlin,Cassandra,Savannah","Mostly neutral but a bit too guady with the brash colors,-6,340,20","Looks like fish fossils,12,280,20","The piece seems chaotic, and I dislike the random pop of white within so many colors.,-10,320,20","SOME thought was put into this one.,5,80,20","I had a very neutral feeling to this,no feelings at all.,1,120,20","Very colorful. Nice contrasts.,26,200,20","Sydney","The piece seems chaotic, and I dislike the random pop of white within so many colors.,-10,320,20","Savannah","Very colorful. Nice contrasts.,26,200,20","Jasmine","Mostly neutral but a bit too guady with the brash colors,-6,340,20","0"
"18324","","survey-text","72","467752","0.0-72.0-0.0","A1NM9PXZDCCQ1E","","","","{""Q0"":""I strongly dislike all the orange/peach tones of this""}","","","","","","","","","","","","","","","","","","","","","","",""
"3173.89999999851","","image-slider-response","73","470933","0.0-73.0","A1NM9PXZDCCQ1E","","","","","-18","","","","","","","","","","","","","","","","","","","","","",""
"null","","image-button-response","74","475941","0.0-74.0","A1NM9PXZDCCQ1E","img_art/14.jpg","null","","","","","","","","","","","","","","","","","","","","","","","","",""
"2087","","image-button-response","75","478034","0.0-75.0","A1NM9PXZDCCQ1E","img_art/14.jpg","1","","","","","","","","","","","","","","","","","","","","","","","","",""
"3807","","image-button-response","76","481848","0.0-76.0-0.0","A1NM9PXZDCCQ1E","img_art/14.jpg","2","","","","","","","","","","","","","","","","","","","","","","","","",""
"2336","","image-button-response","77","484195","0.0-77.0-0.0","A1NM9PXZDCCQ1E","img_art/14.jpg","4","","","","","","","","","","","","","","","","","","","","","","","","",""
"null","","html-keyboard-response","78","485701","0.0-78.0","A1NM9PXZDCCQ1E","<p style=""font-size: 48px;"">+</p>","","","","","null","allTrialResponses","1500","1","5","img_art/14.jpg","-18","I strongly dislike all the orange/peach tones of this","Jasmine,Erika,Sydney,Gabriela,Rebecca,Savannah","The colors are nice and it reminds me of a shrub or tree,10,340,20","It's alright, something I'd see in a guest bedroom,10,100,20","I'm imagining a flower bouquet with pretty colors which I like.,35,320,20","It looks like a table centerpiece,-22,140,20","medium recalls back to an oriental style,16,100,20","Again. This is pretty neutral, leaning dislike.,-18,200,20","Erika","It's alright, something I'd see in a guest bedroom,10,100,20","Sydney","I'm imagining a flower bouquet with pretty colors which I like.,35,320,20","Rebecca","medium recalls back to an oriental style,16,100,20","0"
"3182","","survey-text","79","488911","0.0-79.0-0.0","A1NM9PXZDCCQ1E","","","","{""Q0"":""sky""}","","","","","","","","","","","","","","","","","","","","","","",""
"23218","","survey-text","80","512134","0.0-80.0-0.0","A1NM9PXZDCCQ1E","","","","{""Q0"":""Ooh I like the hidden faces. The artist seems conflicted.""}","","","","","","","","","","","","","","","","","","","","","","",""
"3018.099999997765","","image-slider-response","81","515159","0.0-81.0","A1NM9PXZDCCQ1E","","","","","30","","","","","","","","","","","","","","","","","","","","","",""
"null","","image-button-response","82","520171","0.0-82.0","A1NM9PXZDCCQ1E","img_art/8.jpg","null","","","","","","","","","","","","","","","","","","","","","","","","",""
"2550","","image-button-response","83","522730","0.0-83.0","A1NM9PXZDCCQ1E","img_art/8.jpg","1","","","","","","","","","","","","","","","","","","","","","","","","",""
"2067","","image-button-response","84","524808","0.0-84.0-0.0","A1NM9PXZDCCQ1E","img_art/8.jpg","3","","","","","","","","","","","","","","","","","","","","","","","","",""
"2497","","image-button-response","85","527317","0.0-85.0-0.0","A1NM9PXZDCCQ1E","img_art/8.jpg","0","","","","","","","","","","","","","","","","","","","","","","","","",""
"null","","html-keyboard-response","86","528822","0.0-86.0","A1NM9PXZDCCQ1E","<p style=""font-size: 48px;"">+</p>","","","","","null","allTrialResponses","1500","1","6","img_art/8.jpg","30","Ooh I like the hidden faces. The artist seems conflicted.","Danielle,Erika,Sydney,Jacqueline,Rebecca,Andrea","Enjoy this, it looks like a rushing water pool, surrounded by mountains and buildings, hiding details such as faces.,30,340,20","Striking, but not my taste,20,100,20","I love the colors in this piece.,25,320,20","This is kind of neat. I really like how things are oriented and the shapes used.,18,300,20","gives off inception vibes <3,50,100,20","The face makes me think its a statement of the almighty of big brother watching us. onfuCsion limits my enjoyment.,6,240,20","Erika","Striking, but not my taste,20,100,20","Jacqueline","This is kind of neat. I really like how things are oriented and the shapes used.,18,300,20","Danielle","Enjoy this, it looks like a rushing water pool, surrounded by mountains and buildings, hiding details such as faces.,30,340,20","0"
"26397","","survey-text","87","555235","0.0-87.0-0.0","A1NM9PXZDCCQ1E","","","","{""Q0"":""My initial thought is dislike, I get prison vibes from this. Don't hate it""}","","","","","","","","","","","","","","","","","","","","","","",""
"3089.10000000149","","image-slider-response","88","558332","0.0-88.0","A1NM9PXZDCCQ1E","","","","","6","","","","","","","","","","","","","","","","","","","","","",""
"null","","image-button-response","89","563339","0.0-89.0","A1NM9PXZDCCQ1E","img_art/29.jpg","null","","","","","","","","","","","","","","","","","","","","","","","","",""
"2417","","image-button-response","90","565765","0.0-90.0","A1NM9PXZDCCQ1E","img_art/29.jpg","5","","","","","","","","","","","","","","","","","","","","","","","","",""
"1669","","image-button-response","91","567442","0.0-91.0-0.0","A1NM9PXZDCCQ1E","img_art/29.jpg","1","","","","","","","","","","","","","","","","","","","","","","","","",""
"2581","","image-button-response","92","570031","0.0-92.0-0.0","A1NM9PXZDCCQ1E","img_art/29.jpg","3","","","","","","","","","","","","","","","","","","","","","","","","",""
"null","","html-keyboard-response","93","570536","0.0-93.0","A1NM9PXZDCCQ1E","<p style=""font-size: 48px;"">+</p>","","","","","null","allTrialResponses","500","1","7","img_art/29.jpg","6","My initial thought is dislike, I get prison vibes from this. Don't hate it","Danielle,Erika,Gabrielle,Jacqueline,Madison,Jenna","Quite ugly in my opinion,-30,340,20","Feels like an abandoned dream,13,100,20","it's OK, no clue to what's going on but good use of light and dark,4,160,20","This is ugly as fuck,-50,300,20","Well if the artist themself is crossing it out, why should I pay any mind?,-30,60,20","risks well taken. the brush is hilarious. feels like an artist's frustration, which is relatable.,50,360,20","Jenna","risks well taken. the brush is hilarious. feels like an artist's frustration, which is relatable.,50,360,20","Erika","Feels like an abandoned dream,13,100,20","Jacqueline","This is ugly as fuck,-50,300,20","0"
"20040","","survey-text","94","590596","0.0-94.0-0.0","A1NM9PXZDCCQ1E","","","","{""Q0"":""very chilling, the figure feels like it is from a nightmare""}","","","","","","","","","","","","","","","","","","","","","","",""
"3961.10000000149","","image-slider-response","95","594561","0.0-95.0","A1NM9PXZDCCQ1E","","","","","6","","","","","","","","","","","","","","","","","","","","","",""
"null","","image-button-response","96","599570","0.0-96.0","A1NM9PXZDCCQ1E","img_art/25.jpg","null","","","","","","","","","","","","","","","","","","","","","","","","",""
"1482","","image-button-response","97","601059","0.0-97.0","A1NM9PXZDCCQ1E","img_art/25.jpg","4","","","","","","","","","","","","","","","","","","","","","","","","",""
"1050","","image-button-response","98","602118","0.0-98.0-0.0","A1NM9PXZDCCQ1E","img_art/25.jpg","0","","","","","","","","","","","","","","","","","","","","","","","","",""
"2796","","image-button-response","99","604925","0.0-99.0-0.0","A1NM9PXZDCCQ1E","img_art/25.jpg","1","","","","","","","","","","","","","","","","","","","","","","","","",""
"null","","html-keyboard-response","100","605930","0.0-100.0","A1NM9PXZDCCQ1E","<p style=""font-size: 48px;"">+</p>","","","","","null","allTrialResponses","1000","1","8","img_art/25.jpg","6","very chilling, the figure feels like it is from a nightmare","Kelsey,Erika,Vanessa,Jacqueline,Leslie,Jenna","quite unnerving,-15,240,20","Very cryptic and ancient,36,100,20","I don't like the color. I don't like the abstract-ness of it.,-22,380,20","Not particularly interesting for me. The green color is strange mixed with this.,-11,300,20","I feel like I'm looking at something larger than myself.,30,380,20","beautiful in a primitive way,10,360,20","Leslie","I feel like I'm looking at something larger than myself.,30,380,20","Kelsey","quite unnerving,-15,240,20","Erika","Very cryptic and ancient,36,100,20","0"
"15554","","survey-text","101","621507","0.0-101.0-0.0","A1NM9PXZDCCQ1E","","","","{""Q0"":""boring and trying too hard to be deep""}","","","","","","","","","","","","","","","","","","","","","","",""
"3268.800000000745","","image-slider-response","102","624783","0.0-102.0","A1NM9PXZDCCQ1E","","","","","-29","","","","","","","","","","","","","","","","","","","","","",""
"null","","image-button-response","103","629791","0.0-103.0","A1NM9PXZDCCQ1E","img_art/15.jpg","null","","","","","","","","","","","","","","","","","","","","","","","","",""
"1948","","image-button-response","104","631746","0.0-104.0","A1NM9PXZDCCQ1E","img_art/15.jpg","4","","","","","","","","","","","","","","","","","","","","","","","","",""
"1451","","image-button-response","105","633205","0.0-105.0-0.0","A1NM9PXZDCCQ1E","img_art/15.jpg","3","","","","","","","","","","","","","","","","","","","","","","","","",""
"4798","","image-button-response","106","638010","0.0-106.0-0.0","A1NM9PXZDCCQ1E","img_art/15.jpg","0","","","","","","","","","","","","","","","","","","","","","","","","",""
"null","","html-keyboard-response","107","638515","0.0-107.0","A1NM9PXZDCCQ1E","<p style=""font-size: 48px;"">+</p>","","","","","null","allTrialResponses","500","1","9","img_art/15.jpg","-29","boring and trying too hard to be deep","Kelsey,Erika,Allison,Jessica,Leslie,Alexandria","i kinda like this one but wouldnt buy it for myself,17,240,20","I like the dense patterns and the splashes  of blue,38,100,20","Eyes hunt for the blue in the black.,5,140,20","I think it's trying to execute a cool idea, but unfortunately it doesn't appeal,5,400,20","This elicits no reaction in me.,0,380,20","it looks like trees but they are up to interpretation,16,80,20","Leslie","This elicits no reaction in me.,0,380,20","Jessica","I think it's trying to execute a cool idea, but unfortunately it doesn't appeal,5,400,20","Kelsey","i kinda like this one but wouldnt buy it for myself,17,240,20","0"
"18949","","survey-text","108","657480","0.0-108.0-0.0","A1NM9PXZDCCQ1E","","","","{""Q0"":""too smudgy, a try-hard abstract""}","","","","","","","","","","","","","","","","","","","","","","",""
"5666.199999999255","","image-slider-response","109","663153","0.0-109.0","A1NM9PXZDCCQ1E","","","","","-8","","","","","","","","","","","","","","","","","","","","","",""
"null","","image-button-response","110","668162","0.0-110.0","A1NM9PXZDCCQ1E","img_art/2.jpg","null","","","","","","","","","","","","","","","","","","","","","","","","",""
"1899","","image-button-response","111","670069","0.0-111.0","A1NM9PXZDCCQ1E","img_art/2.jpg","4","","","","","","","","","","","","","","","","","","","","","","","","",""
"2788","","image-button-response","112","672868","0.0-112.0-0.0","A1NM9PXZDCCQ1E","img_art/2.jpg","2","","","","","","","","","","","","","","","","","","","","","","","","",""
"3233","","image-button-response","113","676111","0.0-113.0-0.0","A1NM9PXZDCCQ1E","img_art/2.jpg","1","","","","","","","","","","","","","","","","","","","","","","","","",""
"null","","html-keyboard-response","114","677616","0.0-114.0","A1NM9PXZDCCQ1E","<p style=""font-size: 48px;"">+</p>","","","","","null","allTrialResponses","1500","1","10","img_art/2.jpg","-8","too smudgy, a try-hard abstract","Kelsey,Amber,Briana,Jessica,Leslie,Erin","i dont like it, no thank you,-28,240,20","bright and happy,20,200,20","Childish smiley face,-19,400,20","I don't get the meaning of this piece either.,-13,400,20","The colors are entirely unappealing and very unpleasant to look at.,-20,380,20","There is an odd face here that is creepy,-4,120,20","Leslie","The colors are entirely unappealing and very unpleasant to look at.,-20,380,20","Briana","Childish smiley face,-19,400,20","Amber","bright and happy,20,200,20","0"
"5018","","survey-text","115","682665","0.0-115.0-0.0","A1NM9PXZDCCQ1E","","","","{""Q0"":""our""}","","","","","","","","","","","","","","","","","","","","","","",""
"16190","","survey-text","116","698861","0.0-116.0-0.0","A1NM9PXZDCCQ1E","","","","{""Q0"":""i like the composition but the colors remind me of a couch from the 90s""}","","","","","","","","","","","","","","","","","","","","","","",""
"3335.800000000745","","image-slider-response","117","702205","0.0-117.0","A1NM9PXZDCCQ1E","","","","","-8","","","","","","","","","","","","","","","","","","","","","",""
"null","","image-button-response","118","707214","0.0-118.0","A1NM9PXZDCCQ1E","img_art/12.jpg","null","","","","","","","","","","","","","","","","","","","","","","","","",""
"1922","","image-button-response","119","709142","0.0-119.0","A1NM9PXZDCCQ1E","img_art/12.jpg","5","","","","","","","","","","","","","","","","","","","","","","","","",""
"1776","","image-button-response","120","710924","0.0-120.0-0.0","A1NM9PXZDCCQ1E","img_art/12.jpg","1","","","","","","","","","","","","","","","","","","","","","","","","",""
"1834","","image-button-response","121","712766","0.0-121.0-0.0","A1NM9PXZDCCQ1E","img_art/12.jpg","0","","","","","","","","","","","","","","","","","","","","","","","","",""
"null","","html-keyboard-response","122","714271","0.0-122.0","A1NM9PXZDCCQ1E","<p style=""font-size: 48px;"">+</p>","","","","","null","allTrialResponses","1500","1","11","img_art/12.jpg","-8","i like the composition but the colors remind me of a couch from the 90s","Brooke,Amber,Briana,Mackenzie,Leslie,Tiffany","Dislike the style, the sharp rectangular pattern very jarring.,-20,60,20","Like how all the colors seem to blend together.,15,200,20","Interesting colors. I really dont like modern art though,24,400,20","I like the color scheme.,10,20,20","This elicits no reaction in me.,0,380,20","The painting makes me uncomfortable. The smears in the boxes feel like a giant mess.,-16,360,20","Tiffany","The painting makes me uncomfortable. The smears in the boxes feel like a giant mess.,-16,360,20","Amber","Like how all the colors seem to blend together.,15,200,20","Brooke","Dislike the style, the sharp rectangular pattern very jarring.,-20,60,20","0"
"20909","","survey-text","123","735200","0.0-123.0-0.0","A1NM9PXZDCCQ1E","","","","{""Q0"":""I like the defined figures and lines but the background is sloppy""}","","","","","","","","","","","","","","","","","","","","","","",""
"3161.099999997765","","image-slider-response","124","738368","0.0-124.0","A1NM9PXZDCCQ1E","","","","","-4","","","","","","","","","","","","","","","","","","","","","",""
"null","","image-button-response","125","743376","0.0-125.0","A1NM9PXZDCCQ1E","img_art/27.jpg","null","","","","","","","","","","","","","","","","","","","","","","","","",""
"1372","","image-button-response","126","744755","0.0-126.0","A1NM9PXZDCCQ1E","img_art/27.jpg","3","","","","","","","","","","","","","","","","","","","","","","","","",""
"2364","","image-button-response","127","747129","0.0-127.0-0.0","A1NM9PXZDCCQ1E","img_art/27.jpg","2","","","","","","","","","","","","","","","","","","","","","","","","",""
"2363","","image-button-response","128","749501","0.0-128.0-0.0","A1NM9PXZDCCQ1E","img_art/27.jpg","0","","","","","","","","","","","","","","","","","","","","","","","","",""
"null","","html-keyboard-response","129","750006","0.0-129.0","A1NM9PXZDCCQ1E","<p style=""font-size: 48px;"">+</p>","","","","","null","allTrialResponses","500","1","12","img_art/27.jpg","-4","I like the defined figures and lines but the background is sloppy","Brooke,Amber,Morgan,Emma,Angelica,Tiffany","Like it, autumn colors, trees and foliage scene.,25,60,20","I like the colors.,6,200,20","Messy field of various plants.,-5,380,20","Not sure how I feel about this. Messy, even for art. But good colors.,0,60,20","This looks like a poor copy of Cy Twombly's style.,-3,280,20","I feel peaceful and a little nervous at the same time.,11,360,20","Emma","Not sure how I feel about this. Messy, even for art. But good colors.,0,60,20","Morgan","Messy field of various plants.,-5,380,20","Brooke","Like it, autumn colors, trees and foliage scene.,25,60,20","0"
"25543","","survey-text","130","775566","0.0-130.0-0.0","A1NM9PXZDCCQ1E","","","","{""Q0"":""this feels like a portrayal of a manic episode, I really like the chaos although it is unsettling""}","","","","","","","","","","","","","","","","","","","","","","",""
"3899.099999997765","","image-slider-response","131","779475","0.0-131.0","A1NM9PXZDCCQ1E","","","","","38","","","","","","","","","","","","","","","","","","","","","",""
"null","","image-button-response","132","784483","0.0-132.0","A1NM9PXZDCCQ1E","img_art/18.jpg","null","","","","","","","","","","","","","","","","","","","","","","","","",""
"1342","","image-button-response","133","785833","0.0-133.0","A1NM9PXZDCCQ1E","img_art/18.jpg","4","","","","","","","","","","","","","","","","","","","","","","","","",""
"2346","","image-button-response","134","788189","0.0-134.0-0.0","A1NM9PXZDCCQ1E","img_art/18.jpg","1","","","","","","","","","","","","","","","","","","","","","","","","",""
"1947","","image-button-response","135","790144","0.0-135.0-0.0","A1NM9PXZDCCQ1E","img_art/18.jpg","3","","","","","","","","","","","","","","","","","","","","","","","","",""
"null","","html-keyboard-response","136","791152","0.0-136.0","A1NM9PXZDCCQ1E","<p style=""font-size: 48px;"">+</p>","","","","","null","allTrialResponses","1000","1","13","img_art/18.jpg","38","this feels like a portrayal of a manic episode, I really like the chaos although it is unsettling","Brooke,Kelly,Morgan,Emma,Miranda,Alyssa","Don't like the color scheme. Or the theme.,-5,60,20","It's interesting. I'm not sure how I feel about it, but i enjoy the ghostly apparitions.,10,220,20","Ghostly sea adventure.,20,380,20","Vaguely creepy ........,-20,60,20","This one raises some questions, there could be some sort of fight or battle going on.,11,320,20","There are alot of elements to this painting and a good mix of colors,32,160,20","Miranda","This one raises some questions, there could be some sort of fight or battle going on.,11,320,20","Kelly","It's interesting. I'm not sure how I feel about it, but i enjoy the ghostly apparitions.,10,220,20","Emma","Vaguely creepy ........,-20,60,20","0"
"25314","","survey-text","137","816484","0.0-137.0-0.0","A1NM9PXZDCCQ1E","","","","{""Q0"":""the technique is great but it looks like paving stones""}","","","","","","","","","","","","","","","","","","","","","","",""
"3112.60000000149","","image-slider-response","138","819604","0.0-138.0","A1NM9PXZDCCQ1E","","","","","-14","","","","","","","","","","","","","","","","","","","","","",""
"null","","image-button-response","139","824611","0.0-139.0","A1NM9PXZDCCQ1E","img_art/7.jpg","null","","","","","","","","","","","","","","","","","","","","","","","","",""
"2117","","image-button-response","140","826735","0.0-140.0","A1NM9PXZDCCQ1E","img_art/7.jpg","4","","","","","","","","","","","","","","","","","","","","","","","","",""
"1635","","image-button-response","141","828378","0.0-141.0-0.0","A1NM9PXZDCCQ1E","img_art/7.jpg","1","","","","","","","","","","","","","","","","","","","","","","","","",""
"992","","image-button-response","142","829379","0.0-142.0-0.0","A1NM9PXZDCCQ1E","img_art/7.jpg","3","","","","","","","","","","","","","","","","","","","","","","","","",""
"null","","html-keyboard-response","143","830884","0.0-143.0","A1NM9PXZDCCQ1E","<p style=""font-size: 48px;"">+</p>","","","","","null","allTrialResponses","1500","1","14","img_art/7.jpg","-14","the technique is great but it looks like paving stones","Jennifer,Kelly,Hannah,Emma,Miranda,Shelby","Very, very dull compared to the other paintings,-36,380,20","My firs thought was ""gross""...not sure what this is and I dont think i want to know.,-19,220,20","Looks almost like a photograph of nature.,11,240,20","Cool, makes me think of archeology,15,60,20","This looks like a literal picture of the ground so I'm really not too sure about this one.,-42,320,20","This feels very earthy and grounded,20,240,20","Miranda","This looks like a literal picture of the ground so I'm really not too sure about this one.,-42,320,20","Kelly","My firs thought was ""gross""...not sure what this is and I dont think i want to know.,-19,220,20","Emma","Cool, makes me think of archeology,15,60,20","0"
"10531","","survey-text","144","841436","0.0-144.0-0.0","A1NM9PXZDCCQ1E","","","","{""Q0"":""it looks like the artist gave up halfway through""}","","","","","","","","","","","","","","","","","","","","","","",""
"3877.89999999851","","image-slider-response","145","845321","0.0-145.0","A1NM9PXZDCCQ1E","","","","","-40","","","","","","","","","","","","","","","","","","","","","",""
"null","","image-button-response","146","850330","0.0-146.0","A1NM9PXZDCCQ1E","img_art/10.jpg","null","","","","","","","","","","","","","","","","","","","","","","","","",""
"1740","","image-button-response","147","852077","0.0-147.0","A1NM9PXZDCCQ1E","img_art/10.jpg","4","","","","","","","","","","","","","","","","","","","","","","","","",""
"1870","","image-button-response","148","853955","0.0-148.0-0.0","A1NM9PXZDCCQ1E","img_art/10.jpg","2","","","","","","","","","","","","","","","","","","","","","","","","",""
"886","","image-button-response","149","854850","0.0-149.0-0.0","A1NM9PXZDCCQ1E","img_art/10.jpg","1","","","","","","","","","","","","","","","","","","","","","","","","",""
"null","","html-keyboard-response","150","856355","0.0-150.0","A1NM9PXZDCCQ1E","<p style=""font-size: 48px;"">+</p>","","","","","null","allTrialResponses","1500","1","15","img_art/10.jpg","-40","it looks like the artist gave up halfway through","Hailey,Kelly,Erica,Emma,Miranda,Victoria","a fast racetrack. go, go, go,5,200,20","I cant tell what this is supposed to be, but I enjoy the simplicity of it.,28,220,20","Relaxing; a lot of going on but colours make it easy to look at,20,80,20","Feels musical .....,40,60,20","It reminds me of how my dog has to run all over the place just to poop in one specific location.,-20,320,20","absolutely beautiful piece of art,49,400,20","Miranda","It reminds me of how my dog has to run all over the place just to poop in one specific location.,-20,320,20","Erica","Relaxing; a lot of going on but colours make it easy to look at,20,80,20","Kelly","I cant tell what this is supposed to be, but I enjoy the simplicity of it.,28,220,20","0"
"3504","","survey-text","151","859873","0.0-151.0-0.0","A1NM9PXZDCCQ1E","","","","{""Q0"":""course""}","","","","","","","","","","","","","","","","","","","","","","",""
"8627","","survey-text","152","868505","0.0-152.0-0.0","A1NM9PXZDCCQ1E","","","","{""Q0"":""a deformed hand""}","","","","","","","","","","","","","","","","","","","","","","",""
"3111","","image-slider-response","153","871622","0.0-153.0","A1NM9PXZDCCQ1E","","","","","-20","","","","","","","","","","","","","","","","","","","","","",""
"null","","image-button-response","154","876630","0.0-154.0","A1NM9PXZDCCQ1E","img_art/4.jpg","null","","","","","","","","","","","","","","","","","","","","","","","","",""
"1103","","image-button-response","155","877740","0.0-155.0","A1NM9PXZDCCQ1E","img_art/4.jpg","3","","","","","","","","","","","","","","","","","","","","","","","","",""
"1099","","image-button-response","156","878845","0.0-156.0-0.0","A1NM9PXZDCCQ1E","img_art/4.jpg","1","","","","","","","","","","","","","","","","","","","","","","","","",""
"2303","","image-button-response","157","881156","0.0-157.0-0.0","A1NM9PXZDCCQ1E","img_art/4.jpg","2","","","","","","","","","","","","","","","","","","","","","","","","",""
"null","","html-keyboard-response","158","882660","0.0-158.0","A1NM9PXZDCCQ1E","<p style=""font-size: 48px;"">+</p>","","","","","null","allTrialResponses","1500","1","16","img_art/4.jpg","-20","a deformed hand","Taylor,Kelly,Erica,Angela,Miranda,Samantha","Reminds me of a first place trophy,30,340,20","The longer I stare at this the less I like it.,-19,220,20","Easy and relaxing,23,80,20","Really like the colors, but don't like the object/squiggle in darker gold and black,4,260,20","I just don't understand this one at all, I do not like it,-43,320,20","I domt like the yellow black blended smear,-50,140,20","Angela","Really like the colors, but don't like the object/squiggle in darker gold and black,4,260,20","Kelly","The longer I stare at this the less I like it.,-19,220,20","Erica","Easy and relaxing,23,80,20","0"
"32466","","survey-text","159","915143","0.0-159.0-0.0","A1NM9PXZDCCQ1E","","","","{""Q0"":""I feel like the artist just scribbled a bunch of crap on canvas thinking it would be \""deep\""""}","","","","","","","","","","","","","","","","","","","","","","",""
"2396.10000000149","","image-slider-response","160","917546","0.0-160.0","A1NM9PXZDCCQ1E","","","","","-35","","","","","","","","","","","","","","","","","","","","","",""
"null","","image-button-response","161","922554","0.0-161.0","A1NM9PXZDCCQ1E","img_art/3.jpg","null","","","","","","","","","","","","","","","","","","","","","","","","",""
"1598","","image-button-response","162","924161","0.0-162.0","A1NM9PXZDCCQ1E","img_art/3.jpg","5","","","","","","","","","","","","","","","","","","","","","","","","",""
"1068","","image-button-response","163","925239","0.0-163.0-0.0","A1NM9PXZDCCQ1E","img_art/3.jpg","3","","","","","","","","","","","","","","","","","","","","","","","","",""
"2222","","image-button-response","164","927472","0.0-164.0-0.0","A1NM9PXZDCCQ1E","img_art/3.jpg","1","","","","","","","","","","","","","","","","","","","","","","","","",""
"null","","html-keyboard-response","165","928975","0.0-165.0","A1NM9PXZDCCQ1E","<p style=""font-size: 48px;"">+</p>","","","","","null","allTrialResponses","1500","1","17","img_art/3.jpg","-35","I feel like the artist just scribbled a bunch of crap on canvas thinking it would be ""deep""","Rachel,Kelly,Erica,Angela,Kaylee,Emily","Too red and chaotic. Not calming.,-41,80,20","Reminds me of blood.,-28,220,20","Associates with blood and crime scene,-12,80,20","Like the colors and energy of this work.,10,260,20","i really cant get it,-44,200,20","Looks like someone mentalyl unstable drew and is ready to go a a killing spree.,-50,40,20","Emily","Looks like someone mentalyl unstable drew and is ready to go a a killing spree.,-50,40,20","Angela","Like the colors and energy of this work.,10,260,20","Kelly","Reminds me of blood.,-28,220,20","0"
"12626","","survey-text","166","941616","0.0-166.0-0.0","A1NM9PXZDCCQ1E","","","","{""Q0"":""A lone crow? It's interesting I guess""}","","","","","","","","","","","","","","","","","","","","","","",""
"6239.60000000149","","image-slider-response","167","947863","0.0-167.0","A1NM9PXZDCCQ1E","","","","","10","","","","","","","","","","","","","","","","","","","","","",""
"null","","image-button-response","168","953344","0.0-168.0","A1NM9PXZDCCQ1E","img_art/6.jpg","null","","","","","","","","","","","","","","","","","","","","","","","","",""
"4085","","image-button-response","169","957440","0.0-169.0","A1NM9PXZDCCQ1E","img_art/6.jpg","3","","","","","","","","","","","","","","","","","","","","","","","","",""
"3043","","image-button-response","170","960492","0.0-170.0-0.0","A1NM9PXZDCCQ1E","img_art/6.jpg","4","","","","","","","","","","","","","","","","","","","","","","","","",""
"1831","","image-button-response","171","962335","0.0-171.0-0.0","A1NM9PXZDCCQ1E","img_art/6.jpg","2","","","","","","","","","","","","","","","","","","","","","","","","",""
"null","","html-keyboard-response","172","963840","0.0-172.0","A1NM9PXZDCCQ1E","<p style=""font-size: 48px;"">+</p>","","","","","null","allTrialResponses","1500","1","18","img_art/6.jpg","10","A lone crow? It's interesting I guess","Autumn,Kelly,Marissa,Angela,Kylie,Emily","Bird? It's a bird.,23,340,20","Simple and pretty.,18,220,20","I am intrigued but unsure whether I enjoy this or not,6,160,20","I like the orange color, and I don't know why but I like this piece.,22,260,20","Reminds me of feeling incomplete,1,300,20","Looks like a kid created it.,-50,40,20","Angela","I like the orange color, and I don't know why but I like this piece.,22,260,20","Kylie","Reminds me of feeling incomplete,1,300,20","Marissa","I am intrigued but unsure whether I enjoy this or not,6,160,20","0"
"23850","","survey-text","173","987710","0.0-173.0-0.0","A1NM9PXZDCCQ1E","","","","{""Q0"":""Looks like the original painting was on paper and the artist spilled a glass of water on it""}","","","","","","","","","","","","","","","","","","","","","","",""
"3629.89999999851","","image-slider-response","174","991349","0.0-174.0","A1NM9PXZDCCQ1E","","","","","-14","","","","","","","","","","","","","","","","","","","","","",""
"null","","image-button-response","175","996357","0.0-175.0","A1NM9PXZDCCQ1E","img_art/1.jpg","null","","","","","","","","","","","","","","","","","","","","","","","","",""
"2395","","image-button-response","176","998760","0.0-176.0","A1NM9PXZDCCQ1E","img_art/1.jpg","5","","","","","","","","","","","","","","","","","","","","","","","","",""
"1941","","image-button-response","177","1000708","0.0-177.0-0.0","A1NM9PXZDCCQ1E","img_art/1.jpg","0","","","","","","","","","","","","","","","","","","","","","","","","",""
"3565","","image-button-response","178","1004281","0.0-178.0-0.0","A1NM9PXZDCCQ1E","img_art/1.jpg","3","","","","","","","","","","","","","","","","","","","","","","","","",""
"null","","html-keyboard-response","179","1004786","0.0-179.0","A1NM9PXZDCCQ1E","<p style=""font-size: 48px;"">+</p>","","","","","null","allTrialResponses","500","1","19","img_art/1.jpg","-14","Looks like the original painting was on paper and the artist spilled a glass of water on it","Sarah,Sierra,Marissa,Angela,Kylie,Natalie","it's boring despite all the colors,-2,180,20","there isnt anything clear to look at,-2,260,20","It is beautiful, I really enjoy the colors,32,160,20","Like the colors very much, and this piece makes me feel peaceful.,29,260,20","I don't know how I feel about this,1,300,20","my reaction is that the picture is that Ive seen it before,-14,400,20","Natalie","my reaction is that the picture is that Ive seen it before,-14,400,20","Sarah","it's boring despite all the colors,-2,180,20","Angela","Like the colors very much, and this piece makes me feel peaceful.,29,260,20","0"
"18733","","survey-text","180","1023543","0.0-180.0-0.0","A1NM9PXZDCCQ1E","","","","{""Q0"":""boring. Is it supposed to be a street in a small city?""}","","","","","","","","","","","","","","","","","","","","","","",""
"6791.800000000745","","image-slider-response","181","1030342","0.0-181.0","A1NM9PXZDCCQ1E","","","","","-9","","","","","","","","","","","","","","","","","","","","","",""
"null","","image-button-response","182","1035345","0.0-182.0","A1NM9PXZDCCQ1E","img_art/26.jpg","null","","","","","","","","","","","","","","","","","","","","","","","","",""
"1574","","image-button-response","183","1036927","0.0-183.0","A1NM9PXZDCCQ1E","img_art/26.jpg","1","","","","","","","","","","","","","","","","","","","","","","","","",""
"1036","","image-button-response","184","1037972","0.0-184.0-0.0","A1NM9PXZDCCQ1E","img_art/26.jpg","4","","","","","","","","","","","","","","","","","","","","","","","","",""
"1347","","image-button-response","185","1039329","0.0-185.0-0.0","A1NM9PXZDCCQ1E","img_art/26.jpg","3","","","","","","","","","","","","","","","","","","","","","","","","",""
"null","","html-keyboard-response","186","1039833","0.0-186.0","A1NM9PXZDCCQ1E","<p style=""font-size: 48px;"">+</p>","","","","","null","allTrialResponses","500","1","20","img_art/26.jpg","-9","boring. Is it supposed to be a street in a small city?","Sarah,Brianna,Alexa,Angela,Grace,Natalie","too hard to figure out if it's meant to be actual objects or impressions,-36,180,20","This picture is ok; just a normal city,11,20,20","Looks messy and like it was painted by a small child,-48,40,20","Nice, but not very interesting. I do like the blue tree though.,6,260,20","Like the muted colors & the scene which seems to be serene.,14,180,20","picture looks alright,1,400,20","Brianna","This picture is ok; just a normal city,11,20,20","Grace","Like the muted colors & the scene which seems to be serene.,14,180,20","Angela","Nice, but not very interesting. I do like the blue tree though.,6,260,20","0"
"2479","","survey-text","187","1042345","0.0-187.0-0.0","A1NM9PXZDCCQ1E","","","","{""Q0"":""we""}","","","","","","","","","","","","","","","","","","","","","","",""
"24562","","survey-text","188","1066913","0.0-188.0-0.0","A1NM9PXZDCCQ1E","","","","{""Q0"":""somewhat dislike the colors but I like that it has multiple interpretations, like a woman sleeping or a monster's face""}","","","","","","","","","","","","","","","","","","","","","","",""
"3671.599999997765","","image-slider-response","189","1070592","0.0-189.0","A1NM9PXZDCCQ1E","","","","","6","","","","","","","","","","","","","","","","","","","","","",""
"null","","image-button-response","190","1075605","0.0-190.0","A1NM9PXZDCCQ1E","img_art/9.jpg","null","","","","","","","","","","","","","","","","","","","","","","","","",""
"1096","","image-button-response","191","1076709","0.0-191.0","A1NM9PXZDCCQ1E","img_art/9.jpg","3","","","","","","","","","","","","","","","","","","","","","","","","",""
"1235","","image-button-response","192","1077951","0.0-192.0-0.0","A1NM9PXZDCCQ1E","img_art/9.jpg","0","","","","","","","","","","","","","","","","","","","","","","","","",""
"1697","","image-button-response","193","1079657","0.0-193.0-0.0","A1NM9PXZDCCQ1E","img_art/9.jpg","1","","","","","","","","","","","","","","","","","","","","","","","","",""
"null","","html-keyboard-response","194","1080162","0.0-194.0","A1NM9PXZDCCQ1E","<p style=""font-size: 48px;"">+</p>","","","","","null","allTrialResponses","500","1","21","img_art/9.jpg","6","somewhat dislike the colors but I like that it has multiple interpretations, like a woman sleeping or a monster's face","Mariah,Brianna,Cheyenne,Angela,Grace,Kayla","Pleasant in all ways.,27,140,20","This has some of my favorite colors, and I like it,21,20,20","Too much going on, don't know what the focus is,-11,200,20","This painting feels too jumbled for me to like it.,-12,260,20","Huh?  Doesn't invoke much.,-37,180,20","It's nice. Peaceful. Calming.,11,180,20","Angela","This painting feels too jumbled for me to like it.,-12,260,20","Mariah","Pleasant in all ways.,27,140,20","Brianna","This has some of my favorite colors, and I like it,21,20,20","0"
"24608","","survey-text","195","1104790","0.0-195.0-0.0","A1NM9PXZDCCQ1E","","","","{""Q0"":""it looks like they used the canvas as a paint palette on the right, but overall like the stormy effect""}","","","","","","","","","","","","","","","","","","","","","","",""
"2759","","image-slider-response","196","1107556","0.0-196.0","A1NM9PXZDCCQ1E","","","","","3","","","","","","","","","","","","","","","","","","","","","",""
"null","","image-button-response","197","1112564","0.0-197.0","A1NM9PXZDCCQ1E","img_art/21.jpg","null","","","","","","","","","","","","","","","","","","","","","","","","",""
"1030","","image-button-response","198","1113601","0.0-198.0","A1NM9PXZDCCQ1E","img_art/21.jpg","0","","","","","","","","","","","","","","","","","","","","","","","","",""
"799","","image-button-response","199","1114406","0.0-199.0-0.0","A1NM9PXZDCCQ1E","img_art/21.jpg","2","","","","","","","","","","","","","","","","","","","","","","","","",""
"3695","","image-button-response","200","1118106","0.0-200.0-0.0","A1NM9PXZDCCQ1E","img_art/21.jpg","3","","","","","","","","","","","","","","","","","","","","","","","","",""
"null","","html-keyboard-response","201","1118611","0.0-201.0","A1NM9PXZDCCQ1E","<p style=""font-size: 48px;"">+</p>","","","","","null","allTrialResponses","500","1","22","img_art/21.jpg","3","it looks like they used the canvas as a paint palette on the right, but overall like the stormy effect","Mariah,Brianna,Stephanie,Angela,Ashley,Cynthia","Motion, the light marks in the lower right corner are very appealing.,15,140,20","Don't really lean either way.,1,20,20","A battle at sea, the red is a bomb exploding.,-31,300,20","I feel like I'm looking at two different paintings mashed together in the middle.,20,260,20","Disturbing, land meets ocean, lvoely really.,43,320,20","mythical between good and evil,16,320,20","Mariah","Motion, the light marks in the lower right corner are very appealing.,15,140,20","Stephanie","A battle at sea, the red is a bomb exploding.,-31,300,20","Angela","I feel like I'm looking at two different paintings mashed together in the middle.,20,260,20","0"
"22699","","survey-text","202","1141333","0.0-202.0-0.0","A1NM9PXZDCCQ1E","","","","{""Q0"":""I see animal figures in this. Hate the colors""}","","","","","","","","","","","","","","","","","","","","","","",""
"4662.39999999851","","image-slider-response","203","1146003","0.0-203.0","A1NM9PXZDCCQ1E","","","","","3","","","","","","","","","","","","","","","","","","","","","",""
"null","","image-button-response","204","1151011","0.0-204.0","A1NM9PXZDCCQ1E","img_art/28.jpg","null","","","","","","","","","","","","","","","","","","","","","","","","",""
"1501","","image-button-response","205","1152520","0.0-205.0","A1NM9PXZDCCQ1E","img_art/28.jpg","5","","","","","","","","","","","","","","","","","","","","","","","","",""
"1105","","image-button-response","206","1153633","0.0-206.0-0.0","A1NM9PXZDCCQ1E","img_art/28.jpg","3","","","","","","","","","","","","","","","","","","","","","","","","",""
"2686","","image-button-response","207","1156328","0.0-207.0-0.0","A1NM9PXZDCCQ1E","img_art/28.jpg","0","","","","","","","","","","","","","","","","","","","","","","","","",""
"null","","html-keyboard-response","208","1157833","0.0-208.0","A1NM9PXZDCCQ1E","<p style=""font-size: 48px;"">+</p>","","","","","null","allTrialResponses","1500","1","23","img_art/28.jpg","3","I see animal figures in this. Hate the colors","Mariah,Brittany,Stephanie,Angela,Alicia,Amy","Colors are pleasing, shapes are vaguely unpleasant. Kidneys at a smoky bar.,5,140,20","I don't like the colors or the design.,-20,40,20","The colors are neutral but I see a mother helping her child,31,300,20","This reminds me of internal organs.,-10,260,20","bland busy ugly,-31,120,20","Contemplative and a little dark. The muted colors and subject create a sense of mystery.,15,220,20","Amy","Contemplative and a little dark. The muted colors and subject create a sense of mystery.,15,220,20","Angela","This reminds me of internal organs.,-10,260,20","Mariah","Colors are pleasing, shapes are vaguely unpleasant. Kidneys at a smoky bar.,5,140,20","0"
"17473","","survey-text","209","1175327","0.0-209.0-0.0","A1NM9PXZDCCQ1E","","","","{""Q0"":""First year art school project, the house at the bottom is ridiculous""}","","","","","","","","","","","","","","","","","","","","","","",""
"2779.699999999255","","image-slider-response","210","1178115","0.0-210.0","A1NM9PXZDCCQ1E","","","","","-20","","","","","","","","","","","","","","","","","","","","","",""
"null","","image-button-response","211","1183123","0.0-211.0","A1NM9PXZDCCQ1E","img_art/16.jpg","null","","","","","","","","","","","","","","","","","","","","","","","","",""
"757","","image-button-response","212","1183888","0.0-212.0","A1NM9PXZDCCQ1E","img_art/16.jpg","3","","","","","","","","","","","","","","","","","","","","","","","","",""
"1493","","image-button-response","213","1185391","0.0-213.0-0.0","A1NM9PXZDCCQ1E","img_art/16.jpg","5","","","","","","","","","","","","","","","","","","","","","","","","",""
"1416","","image-button-response","214","1186817","0.0-214.0-0.0","A1NM9PXZDCCQ1E","img_art/16.jpg","1","","","","","","","","","","","","","","","","","","","","","","","","",""
"null","","html-keyboard-response","215","1187821","0.0-215.0","A1NM9PXZDCCQ1E","<p style=""font-size: 48px;"">+</p>","","","","","null","allTrialResponses","1000","1","24","img_art/16.jpg","-20","First year art school project, the house at the bottom is ridiculous","Mariah,Katelyn,Bailey,Angela,Claire,Amy","Why is that bear there? It looks like it would be gross to touch. The texture bothers me.,-20,140,20","I dont feel any real response,5,100,20","Creeps me out. Like..really creeps me out.,-48,360,20","Hate this, especially the jarring contrast of the super realistic teddybear face.,-50,260,20","the materials used are interesting,30,260,20","visceral and a little disturbing.,10,220,20","Angela","Hate this, especially the jarring contrast of the super realistic teddybear face.,-50,260,20","Amy","visceral and a little disturbing.,10,220,20","Katelyn","I dont feel any real response,5,100,20","0"
"13932","","survey-text","216","1201772","0.0-216.0-0.0","A1NM9PXZDCCQ1E","","","","{""Q0"":""I don't like this style, it's trying too hard""}","","","","","","","","","","","","","","","","","","","","","","",""
"2872","","image-slider-response","217","1204652","0.0-217.0","A1NM9PXZDCCQ1E","","","","","-16","","","","","","","","","","","","","","","","","","","","","",""
"null","","image-button-response","218","1209661","0.0-218.0","A1NM9PXZDCCQ1E","img_art/19.jpg","null","","","","","","","","","","","","","","","","","","","","","","","","",""
"570","","image-button-response","219","1210237","0.0-219.0","A1NM9PXZDCCQ1E","img_art/19.jpg","3","","","","","","","","","","","","","","","","","","","","","","","","",""
"1645","","image-button-response","220","1211889","0.0-220.0-0.0","A1NM9PXZDCCQ1E","img_art/19.jpg","1","","","","","","","","","","","","","","","","","","","","","","","","",""
"1208","","image-button-response","221","1213108","0.0-221.0-0.0","A1NM9PXZDCCQ1E","img_art/19.jpg","2","","","","","","","","","","","","","","","","","","","","","","","","",""
"null","","html-keyboard-response","222","1214111","0.0-222.0","A1NM9PXZDCCQ1E","<p style=""font-size: 48px;"">+</p>","","","","","null","allTrialResponses","1000","1","25","img_art/19.jpg","-16","I don't like this style, it's trying too hard","Laura,Katelyn,Chloe,Angela,Madeline,Amy","confusion, scattered and diffuse,-4,320,20","I dont like the smudge effect,-7,100,20","The use of space isn't my favorite.,-20,220,20","I like the colors but the scene itself feels too jumbled and cluttered,9,260,20","Looks a bit too loose,-2,40,20","Though provoking. Adventurous.,10,220,20","Angela","I like the colors but the scene itself feels too jumbled and cluttered,9,260,20","Katelyn","I dont like the smudge effect,-7,100,20","Chloe","The use of space isn't my favorite.,-20,220,20","0"
"3544","","survey-text","223","1217692","0.0-223.0-0.0","A1NM9PXZDCCQ1E","","","","{""Q0"":""table""}","","","","","","","","","","","","","","","","","","","","","","",""
"14428","","survey-text","224","1232126","0.0-224.0-0.0","A1NM9PXZDCCQ1E","","","","{""Q0"":""I really like the lines in this, thought-provoking""}","","","","","","","","","","","","","","","","","","","","","","",""
"2939.099999997765","","image-slider-response","225","1235072","0.0-225.0","A1NM9PXZDCCQ1E","","","","","34","","","","","","","","","","","","","","","","","","","","","",""
"null","","image-button-response","226","1240079","0.0-226.0","A1NM9PXZDCCQ1E","img_art/11.jpg","null","","","","","","","","","","","","","","","","","","","","","","","","",""
"984","","image-button-response","227","1241070","0.0-227.0","A1NM9PXZDCCQ1E","img_art/11.jpg","1","","","","","","","","","","","","","","","","","","","","","","","","",""
"757","","image-button-response","228","1241834","0.0-228.0-0.0","A1NM9PXZDCCQ1E","img_art/11.jpg","2","","","","","","","","","","","","","","","","","","","","","","","","",""
"2210","","image-button-response","229","1244053","0.0-229.0-0.0","A1NM9PXZDCCQ1E","img_art/11.jpg","3","","","","","","","","","","","","","","","","","","","","","","","","",""
"null","","html-keyboard-response","230","1245560","0.0-230.0","A1NM9PXZDCCQ1E","<p style=""font-size: 48px;"">+</p>","","","","","null","allTrialResponses","1500","1","26","img_art/11.jpg","34","I really like the lines in this, thought-provoking","Lindsey,Katelyn,Chloe,Angela,Kaitlyn,Melissa","Not a fan of the colors but it looks interesting.,-31,400,20","I like the dark lines and it interests me,13,100,20","Like the movement but not the background colors.,21,220,20","I like this one very much, especially the shades of gray.,30,260,20","Interesting use of color,9,80,20","reminds me of home,5,240,20","Katelyn","I like the dark lines and it interests me,13,100,20","Chloe","Like the movement but not the background colors.,21,220,20","Angela","I like this one very much, especially the shades of gray.,30,260,20","0"
"16668","","survey-text","231","1262265","0.0-231.0-0.0","A1NM9PXZDCCQ1E","","","","{""Q0"":""this looks like a print you can find at the thrift store in an ugly frame""}","","","","","","","","","","","","","","","","","","","","","","",""
"3041.300000000745","","image-slider-response","232","1265312","0.0-232.0","A1NM9PXZDCCQ1E","","","","","-22","","","","","","","","","","","","","","","","","","","","","",""
"null","","image-button-response","233","1270319","0.0-233.0","A1NM9PXZDCCQ1E","img_art/24.jpg","null","","","","","","","","","","","","","","","","","","","","","","","","",""
"1817","","image-button-response","234","1272143","0.0-234.0","A1NM9PXZDCCQ1E","img_art/24.jpg","0","","","","","","","","","","","","","","","","","","","","","","","","",""
"1220","","image-button-response","235","1273370","0.0-235.0-0.0","A1NM9PXZDCCQ1E","img_art/24.jpg","2","","","","","","","","","","","","","","","","","","","","","","","","",""
"1836","","image-button-response","236","1275216","0.0-236.0-0.0","A1NM9PXZDCCQ1E","img_art/24.jpg","5","","","","","","","","","","","","","","","","","","","","","","","","",""
"null","","html-keyboard-response","237","1275720","0.0-237.0","A1NM9PXZDCCQ1E","<p style=""font-size: 48px;"">+</p>","","","","","null","allTrialResponses","500","1","27","img_art/24.jpg","-22","this looks like a print you can find at the thrift store in an ugly frame","Anna,Katelyn,Chloe,Angela,Sara,Margaret","I like how it evokes the feeling of being in a forest. The colors are pretty,31,300,20","Love the colors and contrast. Feels peaceful.,33,100,20","Pretty but cheesy,-15,220,20","Love the colors in this work, and the sense of motion in the water,36,260,20","Beautiful scenic drawing with perfect color coordination,43,160,20","peaceful and serene but Im not the biggest landscape fan,4,100,20","Anna","I like how it evokes the feeling of being in a forest. The colors are pretty,31,300,20","Chloe","Pretty but cheesy,-15,220,20","Margaret","peaceful and serene but Im not the biggest landscape fan,4,100,20","0"
"13430","","survey-text","238","1289171","0.0-238.0-0.0","A1NM9PXZDCCQ1E","","","","{""Q0"":""Zubaz pants from 1992""}","","","","","","","","","","","","","","","","","","","","","","",""
"2981.10000000149","","image-slider-response","239","1292160","0.0-239.0","A1NM9PXZDCCQ1E","","","","","-38","","","","","","","","","","","","","","","","","","","","","",""
"null","","image-button-response","240","1297168","0.0-240.0","A1NM9PXZDCCQ1E","img_art/13.jpg","null","","","","","","","","","","","","","","","","","","","","","","","","",""
"632","","image-button-response","241","1297807","0.0-241.0","A1NM9PXZDCCQ1E","img_art/13.jpg","5","","","","","","","","","","","","","","","","","","","","","","","","",""
"1290","","image-button-response","242","1299104","0.0-242.0-0.0","A1NM9PXZDCCQ1E","img_art/13.jpg","3","","","","","","","","","","","","","","","","","","","","","","","","",""
"1232","","image-button-response","243","1300348","0.0-243.0-0.0","A1NM9PXZDCCQ1E","img_art/13.jpg","2","","","","","","","","","","","","","","","","","","","","","","","","",""
"null","","html-keyboard-response","244","1301852","0.0-244.0","A1NM9PXZDCCQ1E","<p style=""font-size: 48px;"">+</p>","","","","","null","allTrialResponses","1500","1","28","img_art/13.jpg","-38","Zubaz pants from 1992","Anna,Isabella,Chloe,Nicole,Kristen,Margaret","It reminds me of a window on a rainy day.,40,300,20","Rain drops on a window,35,280,20","Industrial Jackson Pollock knock-off,-20,220,20","It's pretty basic but it makes me feel like I'm looking at the ocean,30,20,20","happy, serenity,30,280,20","i like the splatters and the colors,21,100,20","Margaret","i like the splatters and the colors,21,100,20","Nicole","It's pretty basic but it makes me feel like I'm looking at the ocean,30,20,20","Chloe","Industrial Jackson Pollock knock-off,-20,220,20","0"
"18814","","survey-text","245","1320693","0.0-245.0-0.0","A1NM9PXZDCCQ1E","","","","{""Q0"":""no reaction. I'm bored by this""}","","","","","","","","","","","","","","","","","","","","","","",""
"17427.89999999851","","image-slider-response","246","1338128","0.0-246.0","A1NM9PXZDCCQ1E","","","","","-1","","","","","","","","","","","","","","","","","","","","","",""
"null","","image-button-response","247","1343137","0.0-247.0","A1NM9PXZDCCQ1E","img_art/22.jpg","null","","","","","","","","","","","","","","","","","","","","","","","","",""
"579","","image-button-response","248","1343722","0.0-248.0","A1NM9PXZDCCQ1E","img_art/22.jpg","0","","","","","","","","","","","","","","","","","","","","","","","","",""
"3127","","image-button-response","249","1346856","0.0-249.0-0.0","A1NM9PXZDCCQ1E","img_art/22.jpg","5","","","","","","","","","","","","","","","","","","","","","","","","",""
"2182","","image-button-response","250","1349047","0.0-250.0-0.0","A1NM9PXZDCCQ1E","img_art/22.jpg","2","","","","","","","","","","","","","","","","","","","","","","","","",""
"null","","html-keyboard-response","251","1350050","0.0-251.0","A1NM9PXZDCCQ1E","<p style=""font-size: 48px;"">+</p>","","","","","null","allTrialResponses","1000","1","29","img_art/22.jpg","-1","no reaction. I'm bored by this","Katie,Jamie,Chloe,Nicole,Diana,Margaret","Too much red. The red/yellow/orange make me think of heat/fire, which makes me anxious.,-10,160,20","Like the mix of warm and cool colors,15,320,20","Still like the colors but not the most interesting composition,17,220,20","The warm and color colors together in this way feels exciting,39,20,20","I think the colors are beautiful they remind me of a sunset.,13,380,20","i feel like this is a a basic art piece that a school would have on the wall,-24,100,20","Katie","Too much red. The red/yellow/orange make me think of heat/fire, which makes me anxious.,-10,160,20","Margaret","i feel like this is a a basic art piece that a school would have on the wall,-24,100,20","Chloe","Still like the colors but not the most interesting composition,17,220,20","0"
"10852","","survey-text","252","1360932","0.0-252.0-0.0","A1NM9PXZDCCQ1E","","","","{""Q0"":""somewhat haunting, nice color combinations""}","","","","","","","","","","","","","","","","","","","","","","",""
"2764.400000002235","","image-slider-response","253","1363705","0.0-253.0","A1NM9PXZDCCQ1E","","","","","6","","","","","","","","","","","","","","","","","","","","","",""
"null","","image-button-response","254","1368712","0.0-254.0","A1NM9PXZDCCQ1E","img_art/20.jpg","null","","","","","","","","","","","","","","","","","","","","","","","","",""
"632","","image-button-response","255","1369353","0.0-255.0","A1NM9PXZDCCQ1E","img_art/20.jpg","0","","","","","","","","","","","","","","","","","","","","","","","","",""
"1486","","image-button-response","256","1370849","0.0-256.0-0.0","A1NM9PXZDCCQ1E","img_art/20.jpg","1","","","","","","","","","","","","","","","","","","","","","","","","",""
"4362","","image-button-response","257","1375220","0.0-257.0-0.0","A1NM9PXZDCCQ1E","img_art/20.jpg","4","","","","","","","","","","","","","","","","","","","","","","","","",""
"null","","html-keyboard-response","258","1376225","0.0-258.0","A1NM9PXZDCCQ1E","<p style=""font-size: 48px;"">+</p>","","","","","null","allTrialResponses","1000","1","30","img_art/20.jpg","6","somewhat haunting, nice color combinations","Katie,Makayla,Chloe,Elizabeth,Megan,Margaret","I don't like it. Dark sky and black figures. White objects remind me of bones.,-30,160,20","Little picturesque town that I would like to visit,19,80,20","Mood setting if a little dreary,20,220,20","This painting would make a great display art,50,20,20","Fails to capture what similar styles do,-12,200,20","It seems to be a neutral cool toned art piece. Gives me alamo/desert vibes,2,100,20","Katie","I don't like it. Dark sky and black figures. White objects remind me of bones.,-30,160,20","Makayla","Little picturesque town that I would like to visit,19,80,20","Megan","Fails to capture what similar styles do,-12,200,20","0"
"3097","","image-button-response_instructions","259","1379352","0.0-259.0","A1NM9PXZDCCQ1E","","0","instructions","","","","","","","","","","","","","","","","","","","","","","","",""
"6406","","image-button-response","260","1385782","0.0-260.0","A1NM9PXZDCCQ1E","","0","","","","","","","","","","","","","","","","","","","","","","","","",""
