"rt","url","trial_type","trial_index","time_elapsed","internal_node_id","participant_id","stimulus","button_pressed","Name","responses","response","key_press","variableName","fixationTime","condition","trial","photo","subjectRating","subjectResponse","agentsNames","agent_1_Response","agent_2_Response","agent_3_Response","agent_4_Response","agent_5_Response","agent_6_Response","kept_1_name","kept_1_response","kept_2_name","kept_2_response","kept_3_name","kept_3_response","errorCounter"
"11260","external_page_harvard.html","external-html","0","11356","0.0-0.0","A1OKMU27HBN9T3","","","","","","","","","","","","","","","","","","","","","","","","","","",""
"1377","","image-button-response","1","12737","0.0-1.0","A1OKMU27HBN9T3","","1","","","","","","","","","","","","","","","","","","","","","","","","",""
"1029","","image-button-response","2","13776","0.0-2.0-0.0","A1OKMU27HBN9T3","","1","phone","","","","","","","","","","","","","","","","","","","","","","","",""
"6069","","survey-text","3","19848","0.0-3.0-0.0","A1OKMU27HBN9T3","","","","{""Q0"":""A1OKMU27HBN9T3""}","","","","","","","","","","","","","","","","","","","","","","",""
"2708","","image-button-response_instructions","4","22560","0.0-4.0","A1OKMU27HBN9T3","","0","instructions","","","","","","","","","","","","","","","","","","","","","","","",""
"14893","","image-button-response_instructions","5","37457","0.0-5.0","A1OKMU27HBN9T3","img_art/ins/popularity/ins1.png","0","instructions","","","","","","","","","","","","","","","","","","","","","","","",""
"4524","","image-button-response_instructions","6","41984","0.0-6.0","A1OKMU27HBN9T3","img_art/ins/popularity/ins2.png","0","instructions","","","","","","","","","","","","","","","","","","","","","","","",""
"4438","","image-button-response_instructions","7","46424","0.0-7.0","A1OKMU27HBN9T3","img_art/ins/popularity/ins2Extreme.png","0","instructions","","","","","","","","","","","","","","","","","","","","","","","",""
"9285","","image-button-response_instructions","8","55712","0.0-8.0","A1OKMU27HBN9T3","img_art/ins/popularity/ins3KEEPpop.PNG","0","instructions","","","","","","","","","","","","","","","","","","","","","","","",""
"3100","","image-button-response_instructions","9","58816","0.0-9.0","A1OKMU27HBN9T3","img_art/ins/popularity/ins3ANamepop.PNG","0","instructions","","","","","","","","","","","","","","","","","","","","","","","",""
"4500","","image-button-response_instructions","10","63319","0.0-10.0","A1OKMU27HBN9T3","img_art/ins/popularity/ins3ARatingpop.png","0","instructions","","","","","","","","","","","","","","","","","","","","","","","",""
"3485","","image-button-response_instructions","11","66807","0.0-11.0","A1OKMU27HBN9T3","img_art/ins/popularity/ins3ATextpop.png","0","instructions","","","","","","","","","","","","","","","","","","","","","","","",""
"4165","","image-button-response_instructions","12","70975","0.0-12.0","A1OKMU27HBN9T3","img_art/ins/popularity/ins3ALikespop.png","0","instructions","","","","","","","","","","","","","","","","","","","","","","","",""
"11846","","image-button-response_instructions","13","82822","0.0-13.0","A1OKMU27HBN9T3","img_art/ins/popularity/ins3KEEPpop.PNG","0","instructions","","","","","","","","","","","","","","","","","","","","","","","",""
"8198","","image-button-response_instructions","14","91023","0.0-14.0","A1OKMU27HBN9T3","img_art/ins/popularity/ins3_5RED.png","0","instructions","","","","","","","","","","","","","","","","","","","","","","","",""
"4613","","image-button-response_instructions","15","95639","0.0-15.0","A1OKMU27HBN9T3","img_art/ins/popularity/ins3KEEPpop.PNG","0","instructions","","","","","","","","","","","","","","","","","","","","","","","",""
"8236","","image-button-response_instructions","16","103878","0.0-16.0","A1OKMU27HBN9T3","img_art/ins/popularity/ins4KEEPpop.PNG","0","instructions","","","","","","","","","","","","","","","","","","","","","","","",""
"3774","","image-button-response_instructions","17","107655","0.0-17.0","A1OKMU27HBN9T3","img_art/ins/popularity/ins5KEEPpop.PNG","0","instructions","","","","","","","","","","","","","","","","","","","","","","","",""
"1246","","image-button-response_instructions","18","108903","0.0-18.0","A1OKMU27HBN9T3","","0","instructions","","","","","","","","","","","","","","","","","","","","","","","",""
"4642","","survey-text","19","113582","0.0-19.0-0.0","A1OKMU27HBN9T3","","","","{""Q0"":""but""}","","","","","","","","","","","","","","","","","","","","","","",""
"12780","","survey-text","20","126366","0.0-20.0-0.0","A1OKMU27HBN9T3","","","","{""Q0"":""this is a mess. the colors are ugly.""}","","","","","","","","","","","","","","","","","","","","","","",""
"3131.599999964237","","image-slider-response","21","129503","0.0-21.0","A1OKMU27HBN9T3","","","","","-50","","","","","","","","","","","","","","","","","","","","","",""
"null","","image-button-response","22","134513","0.0-22.0","A1OKMU27HBN9T3","img_art/ins/1.jpg","null","","","","","","","","","","","","","","","","","","","","","","","","",""
"9706","","image-button-response","23","144223","0.0-23.0","A1OKMU27HBN9T3","img_art/ins/1.jpg","2","","","","","","","","","","","","","","","","","","","","","","","","",""
"3836","","image-button-response","24","148063","0.0-24.0-0.0","A1OKMU27HBN9T3","img_art/ins/1.jpg","1","","","","","","","","","","","","","","","","","","","","","","","","",""
"1266","","image-button-response","25","149335","0.0-25.0-0.0","A1OKMU27HBN9T3","img_art/ins/1.jpg","3","","","","","","","","","","","","","","","","","","","","","","","","",""
"null","","html-keyboard-response","26","150341","0.0-26.0","A1OKMU27HBN9T3","<p style=""font-size: 48px;"">+</p>","","","","","null","allTrialResponses","1000","1","-2","img_art/ins/1.jpg","-50","this is a mess. the colors are ugly.","Allison,Ashley,Beth,Dora,Erika,Jen","looks like a lot of things going on in the mist,20,20,20","I just don't get why these type of art would be popular,-32,40,20","This color reminds me of poo,-46,60,20","looks like what my niece in 3rd grade did this afternoon,-50,80,20","I like the sophisticated brushwork,40,100,20","It reminds me of a candy land dream I had,36,120,20","Beth","This color reminds me of poo,-46,60,20","Ashley","I just don't get why these type of art would be popular,-32,40,20","Dora","looks like what my niece in 3rd grade did this afternoon,-50,80,20","0"
"6465","","survey-text","27","156814","0.0-27.0-0.0","A1OKMU27HBN9T3","","","","{""Q0"":""a hot red mess""}","","","","","","","","","","","","","","","","","","","","","","",""
"2764.5","","image-slider-response","28","159582","0.0-28.0","A1OKMU27HBN9T3","","","","","-50","","","","","","","","","","","","","","","","","","","","","",""
"null","","image-button-response","29","164589","0.0-29.0","A1OKMU27HBN9T3","img_art/ins/2.jpg","null","","","","","","","","","","","","","","","","","","","","","","","","",""
"790","","image-button-response","30","165383","0.0-30.0","A1OKMU27HBN9T3","img_art/ins/2.jpg","3","","","","","","","","","","","","","","","","","","","","","","","","",""
"1755","","image-button-response","31","167141","0.0-31.0-0.0","A1OKMU27HBN9T3","img_art/ins/2.jpg","2","","","","","","","","","","","","","","","","","","","","","","","","",""
"933","","image-button-response","32","168078","0.0-32.0-0.0","A1OKMU27HBN9T3","img_art/ins/2.jpg","1","","","","","","","","","","","","","","","","","","","","","","","","",""
"null","","html-keyboard-response","33","169586","0.0-33.0","A1OKMU27HBN9T3","<p style=""font-size: 48px;"">+</p>","","","","","null","allTrialResponses","1500","1","-1","img_art/ins/2.jpg","-50","a hot red mess","Jenna,Ashley,Beth,Dora,Kara,Katie","One of my pet peevs,-48,140,20","Idk, it is just annoying,-32,40,20","meaningless painting,-45,60,20","looks too angry,-50,80,20","I like the blocks of color arrangements,30,160,20","too much color!,-28,180,20","Dora","looks too angry,-50,80,20","Beth","meaningless painting,-45,60,20","Ashley","Idk, it is just annoying,-32,40,20","0"
"34860","","survey-text","34","204452","0.0-34.0-0.0","A1OKMU27HBN9T3","","","","{""Q0"":""simple and ugly""}","","","","","","","","","","","","","","","","","","","","","","",""
"2958","","image-slider-response","35","207413","0.0-35.0","A1OKMU27HBN9T3","","","","","-50","","","","","","","","","","","","","","","","","","","","","",""
"null","","image-button-response","36","212419","0.0-36.0","A1OKMU27HBN9T3","img_art/ins/3.jpg","null","","","","","","","","","","","","","","","","","","","","","","","","",""
"4880","","image-button-response","37","217302","0.0-37.0","A1OKMU27HBN9T3","img_art/ins/3.jpg","1","","","","","","","","","","","","","","","","","","","","","","","","",""
"1195","","image-button-response","38","218502","0.0-38.0-0.0","A1OKMU27HBN9T3","img_art/ins/3.jpg","2","","","","","","","","","","","","","","","","","","","","","","","","",""
"3251","","image-button-response","39","221758","0.0-39.0-0.0","A1OKMU27HBN9T3","img_art/ins/3.jpg","3","","","","","","","","","","","","","","","","","","","","","","","","",""
"null","","html-keyboard-response","40","222762","0.0-40.0","A1OKMU27HBN9T3","<p style=""font-size: 48px;"">+</p>","","","","","null","allTrialResponses","1000","1","0","img_art/ins/3.jpg","-50","simple and ugly","Leslie,Ashley,Beth,Dora,Mary,Rose","It's an alright work,15,200,20","It looks like a playground for bats,-36,40,20","This thing gives me anxiety,-41,60,20","My worst nightmare,-42,80,20","I like the overlapping of brushes,41,220,20","My daily routine, it's depressing,-20,240,20","Ashley","It looks like a playground for bats,-36,40,20","Beth","This thing gives me anxiety,-41,60,20","Dora","My worst nightmare,-42,80,20","0"
"4812","","image-button-response_instructions","41","227581","0.0-41.0","A1OKMU27HBN9T3","","0","instructions","","","","","","","","","","","","","","","","","","","","","","","",""
"15213","","survey-likert","42","242798","0.0-42.0-0.0","A1OKMU27HBN9T3","","","","{""Q0"":"""",""Q1"":0,""Q2"":1}","","","","","","","","","","","","","","","","","","","","","","",""
"3812","","survey-text","43","246621","0.0-43.0-0.0","A1OKMU27HBN9T3","","","","{""Q0"":""rock""}","","","","","","","","","","","","","","","","","","","","","","",""
"26381","","survey-text","44","273005","0.0-44.0-0.0","A1OKMU27HBN9T3","","","","{""Q0"":""it looks like a fingerpainting by a 5 year old""}","","","","","","","","","","","","","","","","","","","","","","",""
"2341.5","","image-slider-response","45","275349","0.0-45.0","A1OKMU27HBN9T3","","","","","-50","","","","","","","","","","","","","","","","","","","","","",""
"null","","image-button-response","46","280379","0.0-46.0","A1OKMU27HBN9T3","img_art/22.jpg","null","","","","","","","","","","","","","","","","","","","","","","","","",""
"6263","","image-button-response","47","286645","0.0-47.0","A1OKMU27HBN9T3","img_art/22.jpg","0","","","","","","","","","","","","","","","","","","","","","","","","",""
"1125","","image-button-response","48","287773","0.0-48.0-0.0","A1OKMU27HBN9T3","img_art/22.jpg","1","","","","","","","","","","","","","","","","","","","","","","","","",""
"764","","image-button-response","49","288541","0.0-49.0-0.0","A1OKMU27HBN9T3","img_art/22.jpg","0","","","","","","","","","","","","","","","","","","","","","","","","",""
"1606","","image-button-response","50","294365","0.0-49.1-0.1","A1OKMU27HBN9T3","img_art/22.jpg","0","","","","","","","","","","","","","","","","","","","","","","","","",""
"1053","","image-button-response","51","299125","0.0-49.2-0.2","A1OKMU27HBN9T3","img_art/22.jpg","1","","","","","","","","","","","","","","","","","","","","","","","","",""
"3726","","image-button-response","52","305845","0.0-49.3-0.3","A1OKMU27HBN9T3","img_art/22.jpg","0","","","","","","","","","","","","","","","","","","","","","","","","",""
"3901","","image-button-response","53","313133","0.0-49.4-0.4","A1OKMU27HBN9T3","img_art/22.jpg","5","","","","","","","","","","","","","","","","","","","","","","","","",""
"null","","html-keyboard-response","54","314641","0.0-50.0","A1OKMU27HBN9T3","<p style=""font-size: 48px;"">+</p>","","","","","null","allTrialResponses","1500","1","1","img_art/22.jpg","-50","it looks like a fingerpainting by a 5 year old","Jordan,Angelica,Mariah,Marissa,Sophia,Cheyenne","not a fan of this, it's boring,1,20,20","It's bland and ugly.,-21,280,20","The colors are pleasant, the shapes are inviting.,21,140,20","I enjoy the vibrant colors,23,160,20","I like this one. There is a lot to see if you keep looking for it.,27,280,20","Didn't illicit any reaction,1,200,20","Jordan","not a fan of this, it's boring,1,20,20","Angelica","It's bland and ugly.,-21,280,20","Cheyenne","Didn't illicit any reaction,1,200,20","8"
"11441","","survey-text","55","326092","0.0-51.0-0.0","A1OKMU27HBN9T3","","","","{""Q0"":""very drab""}","","","","","","","","","","","","","","","","","","","","","","",""
"3252.7000000476837","","image-slider-response","56","329349","0.0-52.0","A1OKMU27HBN9T3","","","","","-44","","","","","","","","","","","","","","","","","","","","","",""
"3819","","image-button-response","57","334359","0.0-53.0","A1OKMU27HBN9T3","img_art/28.jpg","1","","","","","","","","","","","","","","","","","","","","","","","","",""
"1314","","image-button-response","58","335677","0.0-54.0","A1OKMU27HBN9T3","img_art/28.jpg","1","","","","","","","","","","","","","","","","","","","","","","","","",""
"13660","","image-button-response","59","349340","0.0-55.0-0.0","A1OKMU27HBN9T3","img_art/28.jpg","3","","","","","","","","","","","","","","","","","","","","","","","","",""
"5779","","image-button-response","60","355123","0.0-56.0-0.0","A1OKMU27HBN9T3","img_art/28.jpg","0","","","","","","","","","","","","","","","","","","","","","","","","",""
"null","","html-keyboard-response","61","356631","0.0-57.0","A1OKMU27HBN9T3","<p style=""font-size: 48px;"">+</p>","","","","","null","allTrialResponses","1500","1","2","img_art/28.jpg","-44","very drab","Jordan,Angelica,Miranda,Mary,Cynthia,Cheyenne","It's a bike that was left abandoned by someone who doesnt care for it,1,20,20","This is very ugly with poor colors.,-23,280,20","This one looks very dark and seems like it has a lot of depth to it.,31,320,20","The colors are really ugly. They do not compliment each other well.,-45,180,20","nostalgic from a memory,11,320,20","Good use of shapes.,7,200,20","Angelica","This is very ugly with poor colors.,-23,280,20","Mary","The colors are really ugly. They do not compliment each other well.,-45,180,20","Jordan","It's a bike that was left abandoned by someone who doesnt care for it,1,20,20","8"
"8219","","survey-text","62","364859","0.0-58.0-0.0","A1OKMU27HBN9T3","","","","{""Q0"":""interesting and novel""}","","","","","","","","","","","","","","","","","","","","","","",""
"5797.099999964237","","image-slider-response","63","370660","0.0-59.0","A1OKMU27HBN9T3","","","","","21","","","","","","","","","","","","","","","","","","","","","",""
"null","","image-button-response","64","375665","0.0-60.0","A1OKMU27HBN9T3","img_art/10.jpg","null","","","","","","","","","","","","","","","","","","","","","","","","",""
"207","","image-button-response","65","375877","0.0-61.0","A1OKMU27HBN9T3","img_art/10.jpg","4","","","","","","","","","","","","","","","","","","","","","","","","",""
"9851","","image-button-response","66","385732","0.0-62.0-0.0","A1OKMU27HBN9T3","img_art/10.jpg","2","","","","","","","","","","","","","","","","","","","","","","","","",""
"1586","","image-button-response","67","387324","0.0-63.0-0.0","A1OKMU27HBN9T3","img_art/10.jpg","5","","","","","","","","","","","","","","","","","","","","","","","","",""
"null","","html-keyboard-response","68","387829","0.0-64.0","A1OKMU27HBN9T3","<p style=""font-size: 48px;"">+</p>","","","","","null","allTrialResponses","500","1","3","img_art/10.jpg","21","interesting and novel","Jordan,Angelica,Leslie,Mary,Vanessa,Andrea","I dont like it, there is too much going on,-19,20,20","This is odd and ugly.,-9,280,20","I love the chaotic feel of the brush strokes.,35,380,20","The flow of lines is off. There are curvy and straight angry lines. It's not flattering at all.,-27,180,20","It's interesting and my eyes keep being drawn to different parts of the picture.,11,380,20","Kraken, and I love it.,39,240,20","Vanessa","It's interesting and my eyes keep being drawn to different parts of the picture.,11,380,20","Leslie","I love the chaotic feel of the brush strokes.,35,380,20","Andrea","Kraken, and I love it.,39,240,20","8"
"9960","","survey-text","69","397795","0.0-65.0-0.0","A1OKMU27HBN9T3","","","","{""Q0"":""eerie and macabre""}","","","","","","","","","","","","","","","","","","","","","","",""
"3060","","image-slider-response","70","400859","0.0-66.0","A1OKMU27HBN9T3","","","","","18","","","","","","","","","","","","","","","","","","","","","",""
"null","","image-button-response","71","405869","0.0-67.0","A1OKMU27HBN9T3","img_art/25.jpg","null","","","","","","","","","","","","","","","","","","","","","","","","",""
"22115","","image-button-response","72","427988","0.0-68.0","A1OKMU27HBN9T3","img_art/25.jpg","2","","","","","","","","","","","","","","","","","","","","","","","","",""
"1939","","image-button-response","73","429931","0.0-69.0-0.0","A1OKMU27HBN9T3","img_art/25.jpg","0","","","","","","","","","","","","","","","","","","","","","","","","",""
"1580","","image-button-response","74","431515","0.0-70.0-0.0","A1OKMU27HBN9T3","img_art/25.jpg","0","","","","","","","","","","","","","","","","","","","","","","","","",""
"3046","","image-button-response","75","436860","0.0-70.1-0.1","A1OKMU27HBN9T3","img_art/25.jpg","5","","","","","","","","","","","","","","","","","","","","","","","","",""
"null","","html-keyboard-response","76","437365","0.0-71.0","A1OKMU27HBN9T3","<p style=""font-size: 48px;"">+</p>","","","","","null","allTrialResponses","500","1","4","img_art/25.jpg","18","eerie and macabre","Kylie,Jacqueline,Leslie,Cassandra,Vanessa,Andrea","Egyptian heiroglyphics and painting,15,300,20","Not particularly interesting for me. The green color is strange mixed with this.,-11,300,20","I feel like I'm looking at something larger than myself.,30,380,20","I hate the colors and the scene,-46,120,20","I don't like the color. I don't like the abstract-ness of it.,-22,380,20","Looks like Burning Man, dont care for the colors.,-5,240,20","Leslie","I feel like I'm looking at something larger than myself.,30,380,20","Kylie","Egyptian heiroglyphics and painting,15,300,20","Andrea","Looks like Burning Man, dont care for the colors.,-5,240,20","10"
"9790","","survey-text","77","447163","0.0-72.0-0.0","A1OKMU27HBN9T3","","","","{""Q0"":""bizarre and a bit strange""}","","","","","","","","","","","","","","","","","","","","","","",""
"3180.300000011921","","image-slider-response","78","450347","0.0-73.0","A1OKMU27HBN9T3","","","","","-1","","","","","","","","","","","","","","","","","","","","","",""
"null","","image-button-response","79","455356","0.0-74.0","A1OKMU27HBN9T3","img_art/16.jpg","null","","","","","","","","","","","","","","","","","","","","","","","","",""
"3636","","image-button-response","80","458995","0.0-75.0","A1OKMU27HBN9T3","img_art/16.jpg","3","","","","","","","","","","","","","","","","","","","","","","","","",""
"6956","","image-button-response","81","465955","0.0-76.0-0.0","A1OKMU27HBN9T3","img_art/16.jpg","1","","","","","","","","","","","","","","","","","","","","","","","","",""
"1715","","image-button-response","82","467675","0.0-77.0-0.0","A1OKMU27HBN9T3","img_art/16.jpg","0","","","","","","","","","","","","","","","","","","","","","","","","",""
"null","","html-keyboard-response","83","469183","0.0-78.0","A1OKMU27HBN9T3","<p style=""font-size: 48px;"">+</p>","","","","","null","allTrialResponses","1500","1","5","img_art/16.jpg","-1","bizarre and a bit strange","Kylie,Kelly,Leslie,Breanna,Julia,Andrea","Mixed feelings. Warm and comfy yet somewhat violent. A stark contrast,0,300,20","Looks like someone got really high and did a bad photoshop job.,-27,220,20","This is making me feel nervous in an enjoyable way.,20,380,20","The bear is terrifying,-50,380,20","I love the teddy bear,50,40,20","I think it's about child abuse. The teddy bear represents innocence and the dark shape is approaching it.,40,240,20","Breanna","The bear is terrifying,-50,380,20","Kelly","Looks like someone got really high and did a bad photoshop job.,-27,220,20","Kylie","Mixed feelings. Warm and comfy yet somewhat violent. A stark contrast,0,300,20","10"
"4720","","survey-text","84","473914","0.0-79.0-0.0","A1OKMU27HBN9T3","","","","{""Q0"":""sky""}","","","","","","","","","","","","","","","","","","","","","","",""
"31636","","survey-text","85","505554","0.0-80.0-0.0","A1OKMU27HBN9T3","","","","{""Q0"":""looks very simple and drab. I hate it.""}","","","","","","","","","","","","","","","","","","","","","","",""
"3317.199999988079","","image-slider-response","86","508874","0.0-81.0","A1OKMU27HBN9T3","","","","","-44","","","","","","","","","","","","","","","","","","","","","",""
"null","","image-button-response","87","513880","0.0-82.0","A1OKMU27HBN9T3","img_art/4.jpg","null","","","","","","","","","","","","","","","","","","","","","","","","",""
"11062","","image-button-response","88","524947","0.0-83.0","A1OKMU27HBN9T3","img_art/4.jpg","2","","","","","","","","","","","","","","","","","","","","","","","","",""
"1731","","image-button-response","89","526683","0.0-84.0-0.0","A1OKMU27HBN9T3","img_art/4.jpg","1","","","","","","","","","","","","","","","","","","","","","","","","",""
"1371","","image-button-response","90","528058","0.0-85.0-0.0","A1OKMU27HBN9T3","img_art/4.jpg","0","","","","","","","","","","","","","","","","","","","","","","","","",""
"null","","html-keyboard-response","91","528566","0.0-86.0","A1OKMU27HBN9T3","<p style=""font-size: 48px;"">+</p>","","","","","null","allTrialResponses","500","1","6","img_art/4.jpg","-44","looks very simple and drab. I hate it.","Kylie,Kelly,Alexa,Breanna,Amber,Claire","I just have no clue,26,300,20","The longer I stare at this the less I like it.,-19,220,20","A bit too plain for my tastes,-10,40,20","Looks like a hand, not very impressed,-22,380,20","I like the bold style.,10,200,20","I really don't like the colors,-26,260,20","Alexa","A bit too plain for my tastes,-10,40,20","Kelly","The longer I stare at this the less I like it.,-19,220,20","Kylie","I just have no clue,26,300,20","10"
"20580","","survey-text","92","549154","0.0-87.0-0.0","A1OKMU27HBN9T3","","","","{""Q0"":""just bad and very elementary""}","","","","","","","","","","","","","","","","","","","","","","",""
"3492.300000011921","","image-slider-response","93","552649","0.0-88.0","A1OKMU27HBN9T3","","","","","-35","","","","","","","","","","","","","","","","","","","","","",""
"null","","image-button-response","94","557659","0.0-89.0","A1OKMU27HBN9T3","img_art/2.jpg","null","","","","","","","","","","","","","","","","","","","","","","","","",""
"1427","","image-button-response","95","559090","0.0-90.0","A1OKMU27HBN9T3","img_art/2.jpg","4","","","","","","","","","","","","","","","","","","","","","","","","",""
"6236","","image-button-response","96","565329","0.0-91.0-0.0","A1OKMU27HBN9T3","img_art/2.jpg","0","","","","","","","","","","","","","","","","","","","","","","","","",""
"5084","","image-button-response","97","570418","0.0-92.0-0.0","A1OKMU27HBN9T3","img_art/2.jpg","3","","","","","","","","","","","","","","","","","","","","","","","","",""
"null","","html-keyboard-response","98","571925","0.0-93.0","A1OKMU27HBN9T3","<p style=""font-size: 48px;"">+</p>","","","","","null","allTrialResponses","1500","1","7","img_art/2.jpg","-35","just bad and very elementary","Kylie,Kelly,Alexa,Emma,Danielle,Emily","Not very appealing,-5,300,20","I cant tell whats happening here and that shade of green is just not my thing.,-17,220,20","Not my favorite but I can see this being hung in a art museum,25,40,20","Don't love the colors,-30,60,20","Not a fan of this style,-30,340,20","Random colors and shapes mashed together. Nothing artistic, but better than some of the other ones.,-37,40,20","Danielle","Not a fan of this style,-30,340,20","Kylie","Not very appealing,-5,300,20","Emma","Don't love the colors,-30,60,20","10"
"61932","","survey-text","99","633864","0.0-94.0-0.0","A1OKMU27HBN9T3","","","","{""Q0"":""looks like concrete""}","","","","","","","","","","","","","","","","","","","","","","",""
"3965.2000000476837","","image-slider-response","100","637833","0.0-95.0","A1OKMU27HBN9T3","","","","","-42","","","","","","","","","","","","","","","","","","","","","",""
"null","","image-button-response","101","642840","0.0-96.0","A1OKMU27HBN9T3","img_art/7.jpg","null","","","","","","","","","","","","","","","","","","","","","","","","",""
"10725","","image-button-response","102","653569","0.0-97.0","A1OKMU27HBN9T3","img_art/7.jpg","1","","","","","","","","","","","","","","","","","","","","","","","","",""
"5125","","image-button-response","103","658698","0.0-98.0-0.0","A1OKMU27HBN9T3","img_art/7.jpg","5","","","","","","","","","","","","","","","","","","","","","","","","",""
"2443","","image-button-response","104","661146","0.0-99.0-0.0","A1OKMU27HBN9T3","img_art/7.jpg","4","","","","","","","","","","","","","","","","","","","","","","","","",""
"null","","html-keyboard-response","105","662150","0.0-100.0","A1OKMU27HBN9T3","<p style=""font-size: 48px;"">+</p>","","","","","null","allTrialResponses","1000","1","8","img_art/7.jpg","-42","looks like concrete","Kylie,Courtney,Margaret,Emma,Danielle,Destiny","No particular reaction to this,10,300,20","That a desert floor,16,280,20","looks like a close up of irritated skin under a microscope,-49,100,20","Cool, makes me think of archeology,15,60,20","I don't like this kind of color scheme or look they went for,-50,340,20","mars also crunchy leaves maybe a beehive,32,360,20","Courtney","That a desert floor,16,280,20","Destiny","mars also crunchy leaves maybe a beehive,32,360,20","Danielle","I don't like this kind of color scheme or look they went for,-50,340,20","10"
"53514","","survey-text","106","715671","0.0-101.0-0.0","A1OKMU27HBN9T3","","","","{""Q0"":""don't hate it but don't love it either""}","","","","","","","","","","","","","","","","","","","","","","",""
"7333.399999976158","","image-slider-response","107","723008","0.0-102.0","A1OKMU27HBN9T3","","","","","-5","","","","","","","","","","","","","","","","","","","","","",""
"null","","image-button-response","108","728013","0.0-103.0","A1OKMU27HBN9T3","img_art/17.jpg","null","","","","","","","","","","","","","","","","","","","","","","","","",""
"5983","","image-button-response","109","734000","0.0-104.0","A1OKMU27HBN9T3","img_art/17.jpg","4","","","","","","","","","","","","","","","","","","","","","","","","",""
"8108","","image-button-response","110","742111","0.0-105.0-0.0","A1OKMU27HBN9T3","img_art/17.jpg","0","","","","","","","","","","","","","","","","","","","","","","","","",""
"4004","","image-button-response","111","746120","0.0-106.0-0.0","A1OKMU27HBN9T3","img_art/17.jpg","1","","","","","","","","","","","","","","","","","","","","","","","","",""
"null","","html-keyboard-response","112","746628","0.0-107.0","A1OKMU27HBN9T3","<p style=""font-size: 48px;"">+</p>","","","","","null","allTrialResponses","500","1","9","img_art/17.jpg","-5","don't hate it but don't love it either","Meghan,Courtney,Brittany,Kathryn,Danielle,Destiny","pretty bland in coloring,1,220,20","Some new perm we got there.,12,280,20","I like the colors and the design.,20,40,20","Reminds me of the modern art museum in Rome. I didn't ""get"" many pieces, but had a positive cultural experience overall.,20,140,20","It's alright, nothing I particularly like but it's just fine,-10,340,20","similar to last one, still pretty cool but I liked arrangement of last one better,13,360,20","Danielle","It's alright, nothing I particularly like but it's just fine,-10,340,20","Meghan","pretty bland in coloring,1,220,20","Courtney","Some new perm we got there.,12,280,20","10"
"14124","","survey-text","113","760758","0.0-108.0-0.0","A1OKMU27HBN9T3","","","","{""Q0"":""looks like it is from the 70s""}","","","","","","","","","","","","","","","","","","","","","","",""
"5244.899999976158","","image-slider-response","114","766007","0.0-109.0","A1OKMU27HBN9T3","","","","","-46","","","","","","","","","","","","","","","","","","","","","",""
"1932","","image-button-response","115","771012","0.0-110.0","A1OKMU27HBN9T3","img_art/12.jpg","1","","","","","","","","","","","","","","","","","","","","","","","","",""
"1087","","image-button-response","116","772104","0.0-111.0","A1OKMU27HBN9T3","img_art/12.jpg","2","","","","","","","","","","","","","","","","","","","","","","","","",""
"700","","image-button-response","117","772808","0.0-112.0-0.0","A1OKMU27HBN9T3","img_art/12.jpg","1","","","","","","","","","","","","","","","","","","","","","","","","",""
"2795","","image-button-response","118","775607","0.0-113.0-0.0","A1OKMU27HBN9T3","img_art/12.jpg","0","","","","","","","","","","","","","","","","","","","","","","","","",""
"null","","html-keyboard-response","119","777110","0.0-114.0","A1OKMU27HBN9T3","<p style=""font-size: 48px;"">+</p>","","","","","null","allTrialResponses","1500","1","10","img_art/12.jpg","-46","looks like it is from the 70s","Meghan,Courtney,Lauren,Crystal,Danielle,Alexis","I don't like the pattern or color choice,-41,220,20","That is a warn quilt grama made.,11,280,20","This doesn't invoke anything. Just a mosaic of random images.,0,340,20","I like the sectioned nature of the squares and curves. Not my favorite but still a good one.,27,300,20","Kind of interesting, seems almost nostalgic in a way to me.,10,340,20","I like the cubic feel.,11,100,20","Lauren","This doesn't invoke anything. Just a mosaic of random images.,0,340,20","Courtney","That is a warn quilt grama made.,11,280,20","Meghan","I don't like the pattern or color choice,-41,220,20","10"
"4508","","survey-text","120","781630","0.0-115.0-0.0","A1OKMU27HBN9T3","","","","{""Q0"":""our""}","","","","","","","","","","","","","","","","","","","","","","",""
"20933","","survey-text","121","802566","0.0-116.0-0.0","A1OKMU27HBN9T3","","","","{""Q0"":""looks like three different things stuck together""}","","","","","","","","","","","","","","","","","","","","","","",""
"2556.699999988079","","image-slider-response","122","805126","0.0-117.0","A1OKMU27HBN9T3","","","","","-24","","","","","","","","","","","","","","","","","","","","","",""
"null","","image-button-response","123","810132","0.0-118.0","A1OKMU27HBN9T3","img_art/9.jpg","null","","","","","","","","","","","","","","","","","","","","","","","","",""
"3951","","image-button-response","124","814087","0.0-119.0","A1OKMU27HBN9T3","img_art/9.jpg","1","","","","","","","","","","","","","","","","","","","","","","","","",""
"5931","","image-button-response","125","820023","0.0-120.0-0.0","A1OKMU27HBN9T3","img_art/9.jpg","4","","","","","","","","","","","","","","","","","","","","","","","","",""
"2396","","image-button-response","126","822424","0.0-121.0-0.0","A1OKMU27HBN9T3","img_art/9.jpg","2","","","","","","","","","","","","","","","","","","","","","","","","",""
"null","","html-keyboard-response","127","823428","0.0-122.0","A1OKMU27HBN9T3","<p style=""font-size: 48px;"">+</p>","","","","","null","allTrialResponses","1000","1","11","img_art/9.jpg","-24","looks like three different things stuck together","Meghan,Courtney,Lauren,Caroline,Jessica,Amanda","looks like someone resting,12,220,20","This is a picture of a scary mans head sideways.,-24,280,20","I like how design can be interpreted differently, I see a person sleeping or a mountainous region.,10,340,20","Stirs up emotions of watching someone sleep which is relaxing,11,100,20","So I don't really like this style but it looks somewhat okay,3,400,20","Makes me feel angry, its not very clear,-50,180,20","Courtney","This is a picture of a scary mans head sideways.,-24,280,20","Jessica","So I don't really like this style but it looks somewhat okay,3,400,20","Lauren","I like how design can be interpreted differently, I see a person sleeping or a mountainous region.,10,340,20","10"
"19913","","survey-text","128","843350","0.0-123.0-0.0","A1OKMU27HBN9T3","","","","{""Q0"":""looks like a plastic bag""}","","","","","","","","","","","","","","","","","","","","","","",""
"5988.300000011921","","image-slider-response","129","849342","0.0-124.0","A1OKMU27HBN9T3","","","","","-45","","","","","","","","","","","","","","","","","","","","","",""
"null","","image-button-response","130","854352","0.0-125.0","A1OKMU27HBN9T3","img_art/5.jpg","null","","","","","","","","","","","","","","","","","","","","","","","","",""
"1331","","image-button-response","131","855687","0.0-126.0","A1OKMU27HBN9T3","img_art/5.jpg","3","","","","","","","","","","","","","","","","","","","","","","","","",""
"1620","","image-button-response","132","857311","0.0-127.0-0.0","A1OKMU27HBN9T3","img_art/5.jpg","5","","","","","","","","","","","","","","","","","","","","","","","","",""
"5131","","image-button-response","133","862446","0.0-128.0-0.0","A1OKMU27HBN9T3","img_art/5.jpg","0","","","","","","","","","","","","","","","","","","","","","","","","",""
"null","","html-keyboard-response","134","863454","0.0-129.0","A1OKMU27HBN9T3","<p style=""font-size: 48px;"">+</p>","","","","","null","allTrialResponses","1000","1","12","img_art/5.jpg","-45","looks like a plastic bag","Morgan,Courtney,Lauren,Michelle,Jessica,Bailey","Dull pyramid that says nothing.,7,380,20","A rabbits head.,4,280,20","I like the simplicity of the design, but I can't tell what the image is trying to depict.,10,340,20","What is this? It looks like no effort was put into this work,-2,280,20","Don't really know the point of this one.,-11,400,20","Not sure what that even is. Looks like a 2-year old drawing,-40,360,20","Michelle","What is this? It looks like no effort was put into this work,-2,280,20","Bailey","Not sure what that even is. Looks like a 2-year old drawing,-40,360,20","Morgan","Dull pyramid that says nothing.,7,380,20","10"
"8064","","survey-text","135","871526","0.0-130.0-0.0","A1OKMU27HBN9T3","","","","{""Q0"":""a hot mess of ugliness""}","","","","","","","","","","","","","","","","","","","","","","",""
"2076.300000011921","","image-slider-response","136","873606","0.0-131.0","A1OKMU27HBN9T3","","","","","-37","","","","","","","","","","","","","","","","","","","","","",""
"null","","image-button-response","137","878615","0.0-132.0","A1OKMU27HBN9T3","img_art/20.jpg","null","","","","","","","","","","","","","","","","","","","","","","","","",""
"1548","","image-button-response","138","880167","0.0-133.0","A1OKMU27HBN9T3","img_art/20.jpg","3","","","","","","","","","","","","","","","","","","","","","","","","",""
"4149","","image-button-response","139","884318","0.0-134.0-0.0","A1OKMU27HBN9T3","img_art/20.jpg","1","","","","","","","","","","","","","","","","","","","","","","","","",""
"1540","","image-button-response","140","885863","0.0-135.0-0.0","A1OKMU27HBN9T3","img_art/20.jpg","4","","","","","","","","","","","","","","","","","","","","","","","","",""
"null","","html-keyboard-response","141","887366","0.0-136.0","A1OKMU27HBN9T3","<p style=""font-size: 48px;"">+</p>","","","","","null","allTrialResponses","1500","1","13","img_art/20.jpg","-37","a hot mess of ugliness","Morgan,Maria,Savannah,Michelle,Mikayla,Bailey","The beach and industry.,12,380,20","just feels generic,-18,120,20","Lovely composition, colors, and message.,35,200,20","Reminds me of Dali for some reason, whom I don't like,-7,280,20","Kinda freaks me out.,-40,300,20","A bit hectic, but it does have a bit of coolness to it,6,360,20","Michelle","Reminds me of Dali for some reason, whom I don't like,-7,280,20","Maria","just feels generic,-18,120,20","Mikayla","Kinda freaks me out.,-40,300,20","10"
"22894","","survey-text","142","910268","0.0-137.0-0.0","A1OKMU27HBN9T3","","","","{""Q0"":""I hate it but I can't say exactly why""}","","","","","","","","","","","","","","","","","","","","","","",""
"2278.5","","image-slider-response","143","912549","0.0-138.0","A1OKMU27HBN9T3","","","","","-12","","","","","","","","","","","","","","","","","","","","","",""
"3964","","image-button-response","144","917555","0.0-139.0","A1OKMU27HBN9T3","img_art/19.jpg","0","","","","","","","","","","","","","","","","","","","","","","","","",""
"1552","","image-button-response","145","919111","0.0-140.0","A1OKMU27HBN9T3","img_art/19.jpg","5","","","","","","","","","","","","","","","","","","","","","","","","",""
"1523","","image-button-response","146","920638","0.0-141.0-0.0","A1OKMU27HBN9T3","img_art/19.jpg","2","","","","","","","","","","","","","","","","","","","","","","","","",""
"1981","","image-button-response","147","922622","0.0-142.0-0.0","A1OKMU27HBN9T3","img_art/19.jpg","0","","","","","","","","","","","","","","","","","","","","","","","","",""
"null","","html-keyboard-response","148","923630","0.0-143.0","A1OKMU27HBN9T3","<p style=""font-size: 48px;"">+</p>","","","","","null","allTrialResponses","1000","1","14","img_art/19.jpg","-12","I hate it but I can't say exactly why","Alexandra,Maria,Shelby,Michelle,Mikayla,Erin","This photo has too much going on.,-19,60,20","the way the landscape is portrayed captivates me - I enjoy studying the structure,32,120,20","Something weird is going on in this painting,-20,240,20","I like the water but again, the small lines with no detail are irritating,3,280,20","Very pretty and colorful.,23,300,20","Childish music hall,-20,120,20","Erin","Childish music hall,-20,120,20","Shelby","Something weird is going on in this painting,-20,240,20","Alexandra","This photo has too much going on.,-19,60,20","10"
"24951","","survey-text","149","948589","0.0-144.0-0.0","A1OKMU27HBN9T3","","","","{""Q0"":"" smashed fall leaves""}","","","","","","","","","","","","","","","","","","","","","","",""
"2132.600000023842","","image-slider-response","150","950725","0.0-145.0","A1OKMU27HBN9T3","","","","","-26","","","","","","","","","","","","","","","","","","","","","",""
"4435","","image-button-response","151","955731","0.0-146.0","A1OKMU27HBN9T3","img_art/1.jpg","1","","","","","","","","","","","","","","","","","","","","","","","","",""
"2815","","image-button-response","152","958550","0.0-147.0","A1OKMU27HBN9T3","img_art/1.jpg","4","","","","","","","","","","","","","","","","","","","","","","","","",""
"1556","","image-button-response","153","960109","0.0-148.0-0.0","A1OKMU27HBN9T3","img_art/1.jpg","3","","","","","","","","","","","","","","","","","","","","","","","","",""
"948","","image-button-response","154","961062","0.0-149.0-0.0","A1OKMU27HBN9T3","img_art/1.jpg","5","","","","","","","","","","","","","","","","","","","","","","","","",""
"null","","html-keyboard-response","155","962065","0.0-150.0","A1OKMU27HBN9T3","<p style=""font-size: 48px;"">+</p>","","","","","null","allTrialResponses","1000","1","15","img_art/1.jpg","-26"," smashed fall leaves","Alexandra,Victoria,Shelby,Alyssa,Shannon,Erin","I love the warm colors of the art,32,60,20","love how the colors blend,42,400,20","This one has a pleasent energy,15,240,20","Its okay,not great.,1,160,20","I think that this picture has nice colors and its pleasing to the eyes.,20,220,20","Love the coloration and abstract figures,18,120,20","Shannon","I think that this picture has nice colors and its pleasing to the eyes.,20,220,20","Alyssa","Its okay,not great.,1,160,20","Erin","Love the coloration and abstract figures,18,120,20","10"
"3782","","survey-text","156","965861","0.0-151.0-0.0","A1OKMU27HBN9T3","","","","{""Q0"":""course""}","","","","","","","","","","","","","","","","","","","","","","",""
"6277","","survey-text","157","972140","0.0-152.0-0.0","A1OKMU27HBN9T3","","","","{""Q0"":""reminds me of worms""}","","","","","","","","","","","","","","","","","","","","","","",""
"3220.600000023842","","image-slider-response","158","975365","0.0-153.0","A1OKMU27HBN9T3","","","","","-39","","","","","","","","","","","","","","","","","","","","","",""
"2588","","image-button-response","159","980370","0.0-154.0","A1OKMU27HBN9T3","img_art/30.jpg","3","","","","","","","","","","","","","","","","","","","","","","","","",""
"1495","","image-button-response","160","981869","0.0-155.0","A1OKMU27HBN9T3","img_art/30.jpg","0","","","","","","","","","","","","","","","","","","","","","","","","",""
"2820","","image-button-response","161","984693","0.0-156.0-0.0","A1OKMU27HBN9T3","img_art/30.jpg","2","","","","","","","","","","","","","","","","","","","","","","","","",""
"3467","","image-button-response","162","988165","0.0-157.0-0.0","A1OKMU27HBN9T3","img_art/30.jpg","3","","","","","","","","","","","","","","","","","","","","","","","","",""
"null","","html-keyboard-response","163","989169","0.0-158.0","A1OKMU27HBN9T3","<p style=""font-size: 48px;"">+</p>","","","","","null","allTrialResponses","1000","1","16","img_art/30.jpg","-39","reminds me of worms","Autumn,Rachel,Jasmine,Alyssa,Shannon,Erin","Absolutely messy,-31,340,20","I like this one because I am a mom and it reminds me of a child finger-painting.,20,80,20","Pretty neutral about this one,0,340,20","ugly nasty colors,-10,160,20","I feel like the colors are too repetitive and not very eyecatching.,-20,220,20","Layers are interesting,22,120,20","Autumn","Absolutely messy,-31,340,20","Jasmine","Pretty neutral about this one,0,340,20","Alyssa","ugly nasty colors,-10,160,20","10"
"14458","","survey-text","164","1003636","0.0-159.0-0.0","A1OKMU27HBN9T3","","","","{""Q0"":""very simplistic and clean""}","","","","","","","","","","","","","","","","","","","","","","",""
"6443.400000035763","","image-slider-response","165","1010083","0.0-160.0","A1OKMU27HBN9T3","","","","","-2","","","","","","","","","","","","","","","","","","","","","",""
"2422","","image-button-response","166","1015092","0.0-161.0","A1OKMU27HBN9T3","img_art/11.jpg","0","","","","","","","","","","","","","","","","","","","","","","","","",""
"838","","image-button-response","167","1015933","0.0-162.0","A1OKMU27HBN9T3","img_art/11.jpg","0","","","","","","","","","","","","","","","","","","","","","","","","",""
"1019","","image-button-response","168","1016957","0.0-163.0-0.0","A1OKMU27HBN9T3","img_art/11.jpg","1","","","","","","","","","","","","","","","","","","","","","","","","",""
"1915","","image-button-response","169","1018877","0.0-164.0-0.0","A1OKMU27HBN9T3","img_art/11.jpg","2","","","","","","","","","","","","","","","","","","","","","","","","",""
"null","","html-keyboard-response","170","1020380","0.0-165.0","A1OKMU27HBN9T3","<p style=""font-size: 48px;"">+</p>","","","","","null","allTrialResponses","1500","1","17","img_art/11.jpg","-2","very simplistic and clean","Autumn,Laura,Jasmine,Alyssa,Grace,Gabrielle","Good but not eye catching,14,340,20","i think of beatnik music and dark piano lounges,25,320,20","Reminds me of a city on a grey/rainy winter's day,25,340,20","Its interesting.,20,160,20","Rainy asian city scape.,31,180,20","I like this one mostly a good combination of colors and light and dark,12,160,20","Autumn","Good but not eye catching,14,340,20","Laura","i think of beatnik music and dark piano lounges,25,320,20","Jasmine","Reminds me of a city on a grey/rainy winter's day,25,340,20","10"
"8167","","survey-text","171","1028556","0.0-166.0-0.0","A1OKMU27HBN9T3","","","","{""Q0"":""looks like a bunch of flies""}","","","","","","","","","","","","","","","","","","","","","","",""
"1788.5","","image-slider-response","172","1030348","0.0-167.0","A1OKMU27HBN9T3","","","","","-39","","","","","","","","","","","","","","","","","","","","","",""
"4924","","image-button-response","173","1035353","0.0-168.0","A1OKMU27HBN9T3","img_art/15.jpg","1","","","","","","","","","","","","","","","","","","","","","","","","",""
"952","","image-button-response","174","1036309","0.0-169.0","A1OKMU27HBN9T3","img_art/15.jpg","1","","","","","","","","","","","","","","","","","","","","","","","","",""
"2388","","image-button-response","175","1038700","0.0-170.0-0.0","A1OKMU27HBN9T3","img_art/15.jpg","0","","","","","","","","","","","","","","","","","","","","","","","","",""
"1141","","image-button-response","176","1039845","0.0-171.0-0.0","A1OKMU27HBN9T3","img_art/15.jpg","0","","","","","","","","","","","","","","","","","","","","","","","","",""
"1629","","image-button-response","177","1044045","0.0-171.1-0.1","A1OKMU27HBN9T3","img_art/15.jpg","5","","","","","","","","","","","","","","","","","","","","","","","","",""
"null","","html-keyboard-response","178","1045047","0.0-172.0","A1OKMU27HBN9T3","<p style=""font-size: 48px;"">+</p>","","","","","null","allTrialResponses","1000","1","18","img_art/15.jpg","-39","looks like a bunch of flies","Autumn,Laura,Jasmine,Tiffany,Jenna,Kaitlyn","Simple but not good,-34,340,20","abrasive, rough, uneven,-31,320,20","I like it as the colors complement each other well,21,340,20","The painting is very relaxing, I'm reminded of sitting in a garden in the evening.,8,360,20","interesting technique. the blue is very pretty,18,360,20","Simplicity of colors is nice,11,80,20","Laura","abrasive, rough, uneven,-31,320,20","Autumn","Simple but not good,-34,340,20","Kaitlyn","Simplicity of colors is nice,11,80,20","12"
"7332","","survey-text","179","1052388","0.0-173.0-0.0","A1OKMU27HBN9T3","","","","{""Q0"":""pale and dull ""}","","","","","","","","","","","","","","","","","","","","","","",""
"2044.5","","image-slider-response","180","1054436","0.0-174.0","A1OKMU27HBN9T3","","","","","-40","","","","","","","","","","","","","","","","","","","","","",""
"4093","","image-button-response","181","1059441","0.0-175.0","A1OKMU27HBN9T3","img_art/14.jpg","0","","","","","","","","","","","","","","","","","","","","","","","","",""
"1064","","image-button-response","182","1060509","0.0-176.0","A1OKMU27HBN9T3","img_art/14.jpg","1","","","","","","","","","","","","","","","","","","","","","","","","",""
"1004","","image-button-response","183","1061516","0.0-177.0-0.0","A1OKMU27HBN9T3","img_art/14.jpg","0","","","","","","","","","","","","","","","","","","","","","","","","",""
"5243","","image-button-response","184","1066763","0.0-178.0-0.0","A1OKMU27HBN9T3","img_art/14.jpg","2","","","","","","","","","","","","","","","","","","","","","","","","",""
"null","","html-keyboard-response","185","1067272","0.0-179.0","A1OKMU27HBN9T3","<p style=""font-size: 48px;"">+</p>","","","","","null","allTrialResponses","500","1","19","img_art/14.jpg","-40","pale and dull ","Autumn,Laura,Chloe,Katie,Brooke,Kaitlyn","It's too basic.,23,340,20","feels incomplete, poorly planned/executed,-34,320,20","Like the brushstrokes but not the composition,9,220,20","It represents growth. I see a plant/tree growing out of the ground. I like the rainbow of color in the painting.,31,160,20","cotton candy skies. pretty.,35,60,20","Focal point is interesting,5,80,20","Laura","feels incomplete, poorly planned/executed,-34,320,20","Autumn","It's too basic.,23,340,20","Chloe","Like the brushstrokes but not the composition,9,220,20","12"
"8395","","survey-text","186","1075675","0.0-180.0-0.0","A1OKMU27HBN9T3","","","","{""Q0"":""a bunch of scribbles""}","","","","","","","","","","","","","","","","","","","","","","",""
"2933","","image-slider-response","187","1078611","0.0-181.0","A1OKMU27HBN9T3","","","","","-40","","","","","","","","","","","","","","","","","","","","","",""
"1899","","image-button-response","188","1083616","0.0-182.0","A1OKMU27HBN9T3","img_art/3.jpg","1","","","","","","","","","","","","","","","","","","","","","","","","",""
"1720","","image-button-response","189","1085340","0.0-183.0","A1OKMU27HBN9T3","img_art/3.jpg","1","","","","","","","","","","","","","","","","","","","","","","","","",""
"995","","image-button-response","190","1086340","0.0-184.0-0.0","A1OKMU27HBN9T3","img_art/3.jpg","1","","","","","","","","","","","","","","","","","","","","","","","","",""
"3285","","image-button-response","191","1092996","0.0-184.1-0.1","A1OKMU27HBN9T3","img_art/3.jpg","4","","","","","","","","","","","","","","","","","","","","","","","","",""
"1867","","image-button-response","192","1094868","0.0-185.0-0.0","A1OKMU27HBN9T3","img_art/3.jpg","0","","","","","","","","","","","","","","","","","","","","","","","","",""
"null","","html-keyboard-response","193","1095872","0.0-186.0","A1OKMU27HBN9T3","<p style=""font-size: 48px;"">+</p>","","","","","null","allTrialResponses","1000","1","20","img_art/3.jpg","-40","a bunch of scribbles","Autumn,Laura,Chloe,Ashley,Sara,Heather","Unfocused and rushed.,-28,340,20","wild scribbling, freedom, expression,40,320,20","Powerful lines but seems incomplete,-10,220,20","Reminds of John Lenonn's art a bit.,27,320,20","Random use of red and looks scary,-50,160,20","Blood splatter and one black spot.,1,260,20","Laura","wild scribbling, freedom, expression,40,320,20","Sara","Random use of red and looks scary,-50,160,20","Autumn","Unfocused and rushed.,-28,340,20","14"
"3982","","survey-text","194","1099866","0.0-187.0-0.0","A1OKMU27HBN9T3","","","","{""Q0"":""we""}","","","","","","","","","","","","","","","","","","","","","","",""
"31725","","survey-text","195","1131594","0.0-188.0-0.0","A1OKMU27HBN9T3","","","","{""Q0"":""interesting and peculiar at the same time""}","","","","","","","","","","","","","","","","","","","","","","",""
"2341.099999964237","","image-slider-response","196","1133939","0.0-189.0","A1OKMU27HBN9T3","","","","","29","","","","","","","","","","","","","","","","","","","","","",""
"null","","image-button-response","197","1138945","0.0-190.0","A1OKMU27HBN9T3","img_art/24.jpg","null","","","","","","","","","","","","","","","","","","","","","","","","",""
"3799","","image-button-response","198","1142748","0.0-191.0","A1OKMU27HBN9T3","img_art/24.jpg","3","","","","","","","","","","","","","","","","","","","","","","","","",""
"1324","","image-button-response","199","1144076","0.0-192.0-0.0","A1OKMU27HBN9T3","img_art/24.jpg","4","","","","","","","","","","","","","","","","","","","","","","","","",""
"2484","","image-button-response","200","1146563","0.0-193.0-0.0","A1OKMU27HBN9T3","img_art/24.jpg","0","","","","","","","","","","","","","","","","","","","","","","","","",""
"null","","html-keyboard-response","201","1148071","0.0-194.0","A1OKMU27HBN9T3","<p style=""font-size: 48px;"">+</p>","","","","","null","allTrialResponses","1500","1","21","img_art/24.jpg","29","interesting and peculiar at the same time","Autumn,Laura,Dominique,Chelsea,Sara,Taylor","Very cute amateur piece.,18,340,20","chunky fresh color,27,320,20","Spending a day in nature,21,400,20","The colors are relaxing and cheerful.,32,180,20","Beautiful scenic drawing with perfect color coordination,43,160,20","Makes me think of a couple of hikes that I've taken,50,340,20","Chelsea","The colors are relaxing and cheerful.,32,180,20","Sara","Beautiful scenic drawing with perfect color coordination,43,160,20","Autumn","Very cute amateur piece.,18,340,20","14"
"20059","","survey-text","202","1168139","0.0-195.0-0.0","A1OKMU27HBN9T3","","","","{""Q0"":""looks like it was done in 2 minutes""}","","","","","","","","","","","","","","","","","","","","","","",""
"2132.300000011921","","image-slider-response","203","1170274","0.0-196.0","A1OKMU27HBN9T3","","","","","-41","","","","","","","","","","","","","","","","","","","","","",""
"1548","","image-button-response","204","1175283","0.0-197.0","A1OKMU27HBN9T3","img_art/27.jpg","1","","","","","","","","","","","","","","","","","","","","","","","","",""
"1276","","image-button-response","205","1176563","0.0-198.0","A1OKMU27HBN9T3","img_art/27.jpg","1","","","","","","","","","","","","","","","","","","","","","","","","",""
"1652","","image-button-response","206","1178220","0.0-199.0-0.0","A1OKMU27HBN9T3","img_art/27.jpg","4","","","","","","","","","","","","","","","","","","","","","","","","",""
"1234","","image-button-response","207","1179459","0.0-200.0-0.0","A1OKMU27HBN9T3","img_art/27.jpg","5","","","","","","","","","","","","","","","","","","","","","","","","",""
"null","","html-keyboard-response","208","1179961","0.0-201.0","A1OKMU27HBN9T3","<p style=""font-size: 48px;"">+</p>","","","","","null","allTrialResponses","500","1","22","img_art/27.jpg","-41","looks like it was done in 2 minutes","Autumn,Briana,Gabriela,Chelsea,Sara,Lindsey","Adult contemporary painting with child.,-33,340,20","Unfinished something?,-30,400,20","I like hoe it looks like a fall day in a city,45,140,20","The green lines look like a child drew over a painting.,-36,180,20","Not cohesive design,-31,160,20","Looks like my niece's doodles.,-50,400,20","Briana","Unfinished something?,-30,400,20","Sara","Not cohesive design,-31,160,20","Lindsey","Looks like my niece's doodles.,-50,400,20","14"
"17889","","survey-text","209","1197858","0.0-202.0-0.0","A1OKMU27HBN9T3","","","","{""Q0"":""a bit trippy ""}","","","","","","","","","","","","","","","","","","","","","","",""
"2500.300000011921","","image-slider-response","210","1200362","0.0-203.0","A1OKMU27HBN9T3","","","","","-15","","","","","","","","","","","","","","","","","","","","","",""
"null","","image-button-response","211","1205367","0.0-204.0","A1OKMU27HBN9T3","img_art/23.jpg","null","","","","","","","","","","","","","","","","","","","","","","","","",""
"872","","image-button-response","212","1206243","0.0-205.0","A1OKMU27HBN9T3","img_art/23.jpg","3","","","","","","","","","","","","","","","","","","","","","","","","",""
"4795","","image-button-response","213","1211043","0.0-206.0-0.0","A1OKMU27HBN9T3","img_art/23.jpg","1","","","","","","","","","","","","","","","","","","","","","","","","",""
"1490","","image-button-response","214","1212538","0.0-207.0-0.0","A1OKMU27HBN9T3","img_art/23.jpg","0","","","","","","","","","","","","","","","","","","","","","","","","",""
"null","","html-keyboard-response","215","1213543","0.0-208.0","A1OKMU27HBN9T3","<p style=""font-size: 48px;"">+</p>","","","","","null","allTrialResponses","1000","1","23","img_art/23.jpg","-15","a bit trippy ","Monica,Briana,Leah,Makayla,Sara,Lindsey","I like the sharp contrast of the white on the colorful background,27,360,20","White in the middle look like people dancing naked,19,400,20","Interesting, want to look at it more to identify,25,360,20","Reminds me of disco/70's, not my favorite design,-12,80,20","Beautiful color scheme,21,160,20","Too much contrasting colors together. I hate it.,-50,400,20","Makayla","Reminds me of disco/70's, not my favorite design,-12,80,20","Briana","White in the middle look like people dancing naked,19,400,20","Monica","I like the sharp contrast of the white on the colorful background,27,360,20","14"
"8658","","survey-text","216","1222210","0.0-209.0-0.0","A1OKMU27HBN9T3","","","","{""Q0"":""paint splatter from the 80s""}","","","","","","","","","","","","","","","","","","","","","","",""
"3924.600000023842","","image-slider-response","217","1226138","0.0-210.0","A1OKMU27HBN9T3","","","","","-35","","","","","","","","","","","","","","","","","","","","","",""
"4028","","image-button-response","218","1231148","0.0-211.0","A1OKMU27HBN9T3","img_art/13.jpg","0","","","","","","","","","","","","","","","","","","","","","","","","",""
"546","","image-button-response","219","1231698","0.0-212.0","A1OKMU27HBN9T3","img_art/13.jpg","0","","","","","","","","","","","","","","","","","","","","","","","","",""
"5404","","image-button-response","220","1237107","0.0-213.0-0.0","A1OKMU27HBN9T3","img_art/13.jpg","3","","","","","","","","","","","","","","","","","","","","","","","","",""
"3483","","image-button-response","221","1240594","0.0-214.0-0.0","A1OKMU27HBN9T3","img_art/13.jpg","1","","","","","","","","","","","","","","","","","","","","","","","","",""
"null","","html-keyboard-response","222","1241103","0.0-215.0","A1OKMU27HBN9T3","<p style=""font-size: 48px;"">+</p>","","","","","null","allTrialResponses","500","1","24","img_art/13.jpg","-35","paint splatter from the 80s","Monica,Briana,Sabrina,Makayla,Molly,Madison","It's like any other splatter paint art piece, nothing special,1,360,20","The blue colors are very calming. Reminds me of water,33,400,20","I love the edgy nature,50,120,20","Reminds me of the aquarium,4,80,20","Incredible, curious.,20,340,20","Pollock? Love the juxtaposition of colors. Soothing and stirring, a beautiful inexplicable paradox.,50,60,20","Monica","It's like any other splatter paint art piece, nothing special,1,360,20","Makayla","Reminds me of the aquarium,4,80,20","Briana","The blue colors are very calming. Reminds me of water,33,400,20","14"
"10554","","survey-text","223","1251665","0.0-216.0-0.0","A1OKMU27HBN9T3","","","","{""Q0"":""looks like a blurry painting""}","","","","","","","","","","","","","","","","","","","","","","",""
"1357.199999988079","","image-slider-response","224","1253026","0.0-217.0","A1OKMU27HBN9T3","","","","","-44","","","","","","","","","","","","","","","","","","","","","",""
"1636","","image-button-response","225","1258035","0.0-218.0","A1OKMU27HBN9T3","img_art/21.jpg","1","","","","","","","","","","","","","","","","","","","","","","","","",""
"378","","image-button-response","226","1258418","0.0-219.0","A1OKMU27HBN9T3","img_art/21.jpg","1","","","","","","","","","","","","","","","","","","","","","","","","",""
"2597","","image-button-response","227","1261019","0.0-220.0-0.0","A1OKMU27HBN9T3","img_art/21.jpg","5","","","","","","","","","","","","","","","","","","","","","","","","",""
"1123","","image-button-response","228","1262146","0.0-221.0-0.0","A1OKMU27HBN9T3","img_art/21.jpg","3","","","","","","","","","","","","","","","","","","","","","","","","",""
"null","","html-keyboard-response","229","1263153","0.0-222.0","A1OKMU27HBN9T3","<p style=""font-size: 48px;"">+</p>","","","","","null","allTrialResponses","1000","1","25","img_art/21.jpg","-44","looks like a blurry painting","Monica,Briana,Hailey,Makayla,Christina,Natalie","I like the dark blue in the lower right which reminds me of a storm but the orange is ugly,12,360,20","Unfinished. Confusing to look at,-12,400,20","ocean and rocks at the beach,11,200,20","I like the two sides meeting, like a movie scene,15,80,20","it has a lot of happy colors and it's very classic looking,35,240,20","my response to the picture is what is going on?,-13,400,20","Briana","Unfinished. Confusing to look at,-12,400,20","Natalie","my response to the picture is what is going on?,-13,400,20","Makayla","I like the two sides meeting, like a movie scene,15,80,20","14"
"3577","","survey-text","230","1266745","0.0-223.0-0.0","A1OKMU27HBN9T3","","","","{""Q0"":""table""}","","","","","","","","","","","","","","","","","","","","","","",""
"15232","","survey-text","231","1281981","0.0-224.0-0.0","A1OKMU27HBN9T3","","","","{""Q0"":""not my taste but its unique""}","","","","","","","","","","","","","","","","","","","","","","",""
"2144.399999976158","","image-slider-response","232","1284129","0.0-225.0","A1OKMU27HBN9T3","","","","","-20","","","","","","","","","","","","","","","","","","","","","",""
"4645","","image-button-response","233","1289134","0.0-226.0","A1OKMU27HBN9T3","img_art/8.jpg","1","","","","","","","","","","","","","","","","","","","","","","","","",""
"1479","","image-button-response","234","1290618","0.0-227.0","A1OKMU27HBN9T3","img_art/8.jpg","1","","","","","","","","","","","","","","","","","","","","","","","","",""
"4683","","image-button-response","235","1295306","0.0-228.0-0.0","A1OKMU27HBN9T3","img_art/8.jpg","4","","","","","","","","","","","","","","","","","","","","","","","","",""
"2019","","image-button-response","236","1297330","0.0-229.0-0.0","A1OKMU27HBN9T3","img_art/8.jpg","2","","","","","","","","","","","","","","","","","","","","","","","","",""
"null","","html-keyboard-response","237","1297836","0.0-230.0","A1OKMU27HBN9T3","<p style=""font-size: 48px;"">+</p>","","","","","null","allTrialResponses","500","1","26","img_art/8.jpg","-20","not my taste but its unique","Alicia,Briana,Caitlin,Makayla,Katherine,Natalie","wow. blocky, angled, neat colors. The faces are what makes it. love it.,45,120,20","Its abstract and interesting,24,400,20","And I'll huff and I'll puff and I'll blow your town down!!,20,80,20","I see water and structures that resemble Ancient Rome,15,80,20","This is really cool, I love the fragments of faces,38,120,20","looks nice, like the details,25,400,20","Briana","Its abstract and interesting,24,400,20","Katherine","This is really cool, I love the fragments of faces,38,120,20","Caitlin","And I'll huff and I'll puff and I'll blow your town down!!,20,80,20","14"
"6396","","survey-text","238","1304241","0.0-231.0-0.0","A1OKMU27HBN9T3","","","","{""Q0"":""bird on a hill""}","","","","","","","","","","","","","","","","","","","","","","",""
"2836.7999999523163","","image-slider-response","239","1307081","0.0-232.0","A1OKMU27HBN9T3","","","","","-17","","","","","","","","","","","","","","","","","","","","","",""
"2524","","image-button-response","240","1312090","0.0-233.0","A1OKMU27HBN9T3","img_art/6.jpg","2","","","","","","","","","","","","","","","","","","","","","","","","",""
"451","","image-button-response","241","1312546","0.0-234.0","A1OKMU27HBN9T3","img_art/6.jpg","2","","","","","","","","","","","","","","","","","","","","","","","","",""
"2861","","image-button-response","242","1315409","0.0-235.0-0.0","A1OKMU27HBN9T3","img_art/6.jpg","3","","","","","","","","","","","","","","","","","","","","","","","","",""
"1932","","image-button-response","243","1317345","0.0-236.0-0.0","A1OKMU27HBN9T3","img_art/6.jpg","4","","","","","","","","","","","","","","","","","","","","","","","","",""
"null","","html-keyboard-response","244","1318348","0.0-237.0","A1OKMU27HBN9T3","<p style=""font-size: 48px;"">+</p>","","","","","null","allTrialResponses","1000","1","27","img_art/6.jpg","-17","bird on a hill","Samantha,Briana,Caitlin,Michaela,Katherine,Amy","It isnt bad but sort of too bland,0,140,20","Close up peach? Hate it,-16,400,20","A crow on one leg?,-10,80,20","It looks like a bird looking away,32,260,20","This could be so many different things. I saw a bird first but then it looks like a needle going into skin,34,120,20","Lack of context makes this painting 1-d for me. The headless bird is mysterious and indecipherable.,-10,220,20","Caitlin","A crow on one leg?,-10,80,20","Michaela","It looks like a bird looking away,32,260,20","Katherine","This could be so many different things. I saw a bird first but then it looks like a needle going into skin,34,120,20","14"
"23498","","survey-text","245","1341857","0.0-238.0-0.0","A1OKMU27HBN9T3","","","","{""Q0"":""the X looks like it is crossing out the horrible painting""}","","","","","","","","","","","","","","","","","","","","","","",""
"2356.5","","image-slider-response","246","1344217","0.0-239.0","A1OKMU27HBN9T3","","","","","-44","","","","","","","","","","","","","","","","","","","","","",""
"4444","","image-button-response","247","1349220","0.0-240.0","A1OKMU27HBN9T3","img_art/29.jpg","2","","","","","","","","","","","","","","","","","","","","","","","","",""
"441","","image-button-response","248","1349666","0.0-241.0","A1OKMU27HBN9T3","img_art/29.jpg","2","","","","","","","","","","","","","","","","","","","","","","","","",""
"4363","","image-button-response","249","1354033","0.0-242.0-0.0","A1OKMU27HBN9T3","img_art/29.jpg","3","","","","","","","","","","","","","","","","","","","","","","","","",""
"1907","","image-button-response","250","1355945","0.0-243.0-0.0","A1OKMU27HBN9T3","img_art/29.jpg","0","","","","","","","","","","","","","","","","","","","","","","","","",""
"null","","html-keyboard-response","251","1356948","0.0-244.0","A1OKMU27HBN9T3","<p style=""font-size: 48px;"">+</p>","","","","","null","allTrialResponses","1000","1","28","img_art/29.jpg","-44","the X looks like it is crossing out the horrible painting","Madeline,Stephanie,Caitlin,Michaela,Katherine,Katelyn","Looks a bit messy,-13,40,20","Looks like a murder,-50,300,20","I would give up and give it a red X too.,-5,80,20","Like a crime scene. It's neat and different,30,260,20","I think the grey and red inspire negative feelings but it's not the worst thing.,13,120,20","Grabs interest but then confuses me,6,100,20","Caitlin","I would give up and give it a red X too.,-5,80,20","Michaela","Like a crime scene. It's neat and different,30,260,20","Madeline","Looks a bit messy,-13,40,20","14"
"10306","","survey-text","252","1367264","0.0-245.0-0.0","A1OKMU27HBN9T3","","","","{""Q0"":""a bit surreal and confusing""}","","","","","","","","","","","","","","","","","","","","","","",""
"2476.599999964237","","image-slider-response","253","1369744","0.0-246.0","A1OKMU27HBN9T3","","","","","-8","","","","","","","","","","","","","","","","","","","","","",""
"null","","image-button-response","254","1374753","0.0-247.0","A1OKMU27HBN9T3","img_art/18.jpg","null","","","","","","","","","","","","","","","","","","","","","","","","",""
"1092","","image-button-response","255","1375849","0.0-248.0","A1OKMU27HBN9T3","img_art/18.jpg","0","","","","","","","","","","","","","","","","","","","","","","","","",""
"2388","","image-button-response","256","1378241","0.0-249.0-0.0","A1OKMU27HBN9T3","img_art/18.jpg","3","","","","","","","","","","","","","","","","","","","","","","","","",""
"4067","","image-button-response","257","1382313","0.0-250.0-0.0","A1OKMU27HBN9T3","img_art/18.jpg","2","","","","","","","","","","","","","","","","","","","","","","","","",""
"null","","html-keyboard-response","258","1383821","0.0-251.0","A1OKMU27HBN9T3","<p style=""font-size: 48px;"">+</p>","","","","","null","allTrialResponses","1500","1","29","img_art/18.jpg","-8","a bit surreal and confusing","Madeline,Hannah,Caitlin,Michaela,Isabella,Diana","Good concept but then scribbled on a bit?,15,40,20","Looks like ghost figures on a boat. It's okay.,7,240,20","Bad guys are after the good guy.,-10,80,20","Reminds me of the four horsemen of the apocalypse,29,260,20","Feels like a story of ancient war of the gods,26,280,20","This painting reminds me of the 4 horsemen of the apocalypse. It feels haunting.,31,380,20","Madeline","Good concept but then scribbled on a bit?,15,40,20","Michaela","Reminds me of the four horsemen of the apocalypse,29,260,20","Caitlin","Bad guys are after the good guy.,-10,80,20","14"
"19874","","survey-text","259","1403704","0.0-252.0-0.0","A1OKMU27HBN9T3","","","","{""Q0"":""very elementary and basic but not horrible""}","","","","","","","","","","","","","","","","","","","","","","",""
"2411.899999976158","","image-slider-response","260","1406120","0.0-253.0","A1OKMU27HBN9T3","","","","","0","","","","","","","","","","","","","","","","","","","","","",""
"3588","","image-button-response","261","1411129","0.0-254.0","A1OKMU27HBN9T3","img_art/26.jpg","2","","","","","","","","","","","","","","","","","","","","","","","","",""
"356","","image-button-response","262","1411488","0.0-255.0","A1OKMU27HBN9T3","img_art/26.jpg","2","","","","","","","","","","","","","","","","","","","","","","","","",""
"5284","","image-button-response","263","1416776","0.0-256.0-0.0","A1OKMU27HBN9T3","img_art/26.jpg","3","","","","","","","","","","","","","","","","","","","","","","","","",""
"1588","","image-button-response","264","1418368","0.0-257.0-0.0","A1OKMU27HBN9T3","img_art/26.jpg","1","","","","","","","","","","","","","","","","","","","","","","","","",""
"null","","html-keyboard-response","265","1418876","0.0-258.0","A1OKMU27HBN9T3","<p style=""font-size: 48px;"">+</p>","","","","","null","allTrialResponses","500","1","30","img_art/26.jpg","0","very elementary and basic but not horrible","Madeline,Rebecca,Caitlin,Michaela,Elizabeth,Abigail","I like the shapes but needs more detail i think,3,40,20","love the ""lowkey"" vibrant colors that are colorful but at the same time greyscale,12,100,20","At least it is a bit of scenery.,10,80,20","Elevator art but the watercolors are good,29,260,20","Like the soft blend of colors,26,20,20","Reminds me of walks in my dads city when I was little,22,20,20","Caitlin","At least it is a bit of scenery.,10,80,20","Michaela","Elevator art but the watercolors are good,29,260,20","Rebecca","love the ""lowkey"" vibrant colors that are colorful but at the same time greyscale,12,100,20","14"
"4225","","image-button-response_instructions","266","1423111","0.0-259.0","A1OKMU27HBN9T3","","0","instructions","","","","","","","","","","","","","","","","","","","","","","","",""
"894","","image-button-response","267","1424015","0.0-260.0","A1OKMU27HBN9T3","","0","","","","","","","","","","","","","","","","","","","","","","","","",""
