"rt","url","trial_type","trial_index","time_elapsed","internal_node_id","participant_id","stimulus","button_pressed","Name","responses","response","key_press","variableName","fixationTime","condition","trial","photo","subjectRating","subjectResponse","agentsNames","agent_1_Response","agent_2_Response","agent_3_Response","agent_4_Response","agent_5_Response","agent_6_Response","kept_1_name","kept_1_response","kept_2_name","kept_2_response","kept_3_name","kept_3_response","errorCounter"
"7808","external_page_harvard.html","external-html","0","7885","0.0-0.0","A1OKFYVJTEK4BI","","","","","","","","","","","","","","","","","","","","","","","","","","",""
"1825","","image-button-response","1","9711","0.0-1.0","A1OKFYVJTEK4BI","","0","","","","","","","","","","","","","","","","","","","","","","","","",""
"1628","","image-button-response","2","11343","0.0-2.0-0.0","A1OKFYVJTEK4BI","","1","phone","","","","","","","","","","","","","","","","","","","","","","","",""
"3359","","survey-text","3","14703","0.0-3.0-0.0","A1OKFYVJTEK4BI","","","","{""Q0"":""A1OKFYVJTEK4BI""}","","","","","","","","","","","","","","","","","","","","","","",""
"16293","","image-button-response_instructions","4","30999","0.0-4.0","A1OKFYVJTEK4BI","","0","instructions","","","","","","","","","","","","","","","","","","","","","","","",""
"22940","","image-button-response_instructions","5","53939","0.0-5.0","A1OKFYVJTEK4BI","img_art/ins/popularity/ins1.png","0","instructions","","","","","","","","","","","","","","","","","","","","","","","",""
"10531","","image-button-response_instructions","6","64471","0.0-6.0","A1OKFYVJTEK4BI","img_art/ins/popularity/ins2.png","0","instructions","","","","","","","","","","","","","","","","","","","","","","","",""
"6106","","image-button-response_instructions","7","70579","0.0-7.0","A1OKFYVJTEK4BI","img_art/ins/popularity/ins2Extreme.png","0","instructions","","","","","","","","","","","","","","","","","","","","","","","",""
"23398","","image-button-response_instructions","8","93978","0.0-8.0","A1OKFYVJTEK4BI","img_art/ins/popularity/ins3KEEPpop.PNG","0","instructions","","","","","","","","","","","","","","","","","","","","","","","",""
"5450","","image-button-response_instructions","9","99430","0.0-9.0","A1OKFYVJTEK4BI","img_art/ins/popularity/ins3ANamepop.PNG","0","instructions","","","","","","","","","","","","","","","","","","","","","","","",""
"3619","","image-button-response_instructions","10","103050","0.0-10.0","A1OKFYVJTEK4BI","img_art/ins/popularity/ins3ARatingpop.png","0","instructions","","","","","","","","","","","","","","","","","","","","","","","",""
"7339","","image-button-response_instructions","11","110389","0.0-11.0","A1OKFYVJTEK4BI","img_art/ins/popularity/ins3ATextpop.png","0","instructions","","","","","","","","","","","","","","","","","","","","","","","",""
"6776","","image-button-response_instructions","12","117167","0.0-12.0","A1OKFYVJTEK4BI","img_art/ins/popularity/ins3ALikespop.png","0","instructions","","","","","","","","","","","","","","","","","","","","","","","",""
"10814","","image-button-response_instructions","13","127983","0.0-13.0","A1OKFYVJTEK4BI","img_art/ins/popularity/ins3KEEPpop.PNG","0","instructions","","","","","","","","","","","","","","","","","","","","","","","",""
"15455","","image-button-response_instructions","14","143438","0.0-14.0","A1OKFYVJTEK4BI","img_art/ins/popularity/ins3_5RED.png","0","instructions","","","","","","","","","","","","","","","","","","","","","","","",""
"3390","","image-button-response_instructions","15","146830","0.0-15.0","A1OKFYVJTEK4BI","img_art/ins/popularity/ins3KEEPpop.PNG","0","instructions","","","","","","","","","","","","","","","","","","","","","","","",""
"7655","","image-button-response_instructions","16","154486","0.0-16.0","A1OKFYVJTEK4BI","img_art/ins/popularity/ins4KEEPpop.PNG","0","instructions","","","","","","","","","","","","","","","","","","","","","","","",""
"8447","","image-button-response_instructions","17","162933","0.0-17.0","A1OKFYVJTEK4BI","img_art/ins/popularity/ins5KEEPpop.PNG","0","instructions","","","","","","","","","","","","","","","","","","","","","","","",""
"1615","","image-button-response_instructions","18","164549","0.0-18.0","A1OKFYVJTEK4BI","","0","instructions","","","","","","","","","","","","","","","","","","","","","","","",""
"7542","","survey-text","19","172117","0.0-19.0-0.0","A1OKFYVJTEK4BI","","","","{""Q0"":""but""}","","","","","","","","","","","","","","","","","","","","","","",""
"10224","","survey-text","20","182342","0.0-20.0-0.0","A1OKFYVJTEK4BI","","","","{""Q0"":""Its just OK.""}","","","","","","","","","","","","","","","","","","","","","","",""
"5205.700000000186","","image-slider-response","21","187550","0.0-21.0","A1OKFYVJTEK4BI","","","","","1","","","","","","","","","","","","","","","","","","","","","",""
"null","","image-button-response","22","192553","0.0-22.0","A1OKFYVJTEK4BI","img_art/ins/1.jpg","null","","","","","","","","","","","","","","","","","","","","","","","","",""
"5851","","image-button-response","23","198406","0.0-23.0","A1OKFYVJTEK4BI","img_art/ins/1.jpg","1","","","","","","","","","","","","","","","","","","","","","","","","",""
"2102","","image-button-response","24","200510","0.0-24.0-0.0","A1OKFYVJTEK4BI","img_art/ins/1.jpg","3","","","","","","","","","","","","","","","","","","","","","","","","",""
"1865","","image-button-response","25","202378","0.0-25.0-0.0","A1OKFYVJTEK4BI","img_art/ins/1.jpg","5","","","","","","","","","","","","","","","","","","","","","","","","",""
"null","","html-keyboard-response","26","203880","0.0-26.0","A1OKFYVJTEK4BI","<p style=""font-size: 48px;"">+</p>","","","","","null","allTrialResponses","1500","1","-2","img_art/ins/1.jpg","1","Its just OK.","Adam,Alex,Ben,Carl,Daniel,Jack","Seems like doodles,-20,20,20","very creative work.,36,40,20","This color reminds me of poo,-46,60,20","very calming artwork,42,80,20","It looks like a murder scene.,-48,100,20","I like the sophisticated brushwork,40,120,20","Alex","very creative work.,36,40,20","Carl","very calming artwork,42,80,20","Jack","I like the sophisticated brushwork,40,120,20","0"
"27633","","survey-text","27","231516","0.0-27.0-0.0","A1OKFYVJTEK4BI","","","","{""Q0"":""Not bad, just not my preference.""}","","","","","","","","","","","","","","","","","","","","","","",""
"2946.5","","image-slider-response","28","234466","0.0-28.0","A1OKFYVJTEK4BI","","","","","6","","","","","","","","","","","","","","","","","","","","","",""
"3519","","image-button-response","29","239468","0.0-29.0","A1OKFYVJTEK4BI","img_art/ins/2.jpg","1","","","","","","","","","","","","","","","","","","","","","","","","",""
"189","","image-button-response","30","239658","0.0-30.0","A1OKFYVJTEK4BI","img_art/ins/2.jpg","1","","","","","","","","","","","","","","","","","","","","","","","","",""
"3782","","image-button-response","31","243442","0.0-31.0-0.0","A1OKFYVJTEK4BI","img_art/ins/2.jpg","3","","","","","","","","","","","","","","","","","","","","","","","","",""
"1894","","image-button-response","32","245338","0.0-32.0-0.0","A1OKFYVJTEK4BI","img_art/ins/2.jpg","4","","","","","","","","","","","","","","","","","","","","","","","","",""
"null","","html-keyboard-response","33","245840","0.0-33.0","A1OKFYVJTEK4BI","<p style=""font-size: 48px;"">+</p>","","","","","null","allTrialResponses","500","1","-1","img_art/ins/2.jpg","6","Not bad, just not my preference.","James,Alex,Kyle,Carl,John,Jack","looks too angry,-50,140,20","I like the blocks of color arrangements,30,40,20","Idk, it is just annoying,-32,180,20","I can feel the artist's passion in it,45,80,20","love the texture of paint,48,160,20","I would never be able to compose a sophisticated pallete like this,48,120,20","Alex","I like the blocks of color arrangements,30,40,20","Carl","I can feel the artist's passion in it,45,80,20","John","love the texture of paint,48,160,20","0"
"11724","","survey-text","34","257569","0.0-34.0-0.0","A1OKFYVJTEK4BI","","","","{""Q0"":""Love the blue!""}","","","","","","","","","","","","","","","","","","","","","","",""
"2690.60000000149","","image-slider-response","35","260261","0.0-35.0","A1OKFYVJTEK4BI","","","","","25","","","","","","","","","","","","","","","","","","","","","",""
"2571","","image-button-response","36","265263","0.0-36.0","A1OKFYVJTEK4BI","img_art/ins/3.jpg","0","","","","","","","","","","","","","","","","","","","","","","","","",""
"165","","image-button-response","37","265429","0.0-37.0","A1OKFYVJTEK4BI","img_art/ins/3.jpg","0","","","","","","","","","","","","","","","","","","","","","","","","",""
"1607","","image-button-response","38","267037","0.0-38.0-0.0","A1OKFYVJTEK4BI","img_art/ins/3.jpg","0","","","","","","","","","","","","","","","","","","","","","","","","",""
"827","","image-button-response","39","278437","0.0-38.1-0.1","A1OKFYVJTEK4BI","img_art/ins/3.jpg","1","","","","","","","","","","","","","","","","","","","","","","","","",""
"13206","","image-button-response","40","291645","0.0-39.0-0.0","A1OKFYVJTEK4BI","img_art/ins/3.jpg","4","","","","","","","","","","","","","","","","","","","","","","","","",""
"null","","html-keyboard-response","41","293147","0.0-40.0","A1OKFYVJTEK4BI","<p style=""font-size: 48px;"">+</p>","","","","","null","allTrialResponses","1500","1","0","img_art/ins/3.jpg","25","Love the blue!","Mike,Alex,Ron,Carl,John,Sam","enjoy the different shades of blue,22,200,20","calming blue is very nice,36,40,20","It looks depressing,-26,220,20","It's an alright work,15,80,20","I like the overlapping of brushes,41,160,20","I can feel a rainy day from this painting,18,240,20","Mike","enjoy the different shades of blue,22,200,20","Alex","calming blue is very nice,36,40,20","John","I like the overlapping of brushes,41,160,20","2"
"4507","","image-button-response_instructions","42","297657","0.0-41.0","A1OKFYVJTEK4BI","","0","instructions","","","","","","","","","","","","","","","","","","","","","","","",""
"9378","","survey-likert","43","307038","0.0-42.0-0.0","A1OKFYVJTEK4BI","","","","{""Q0"":"""",""Q1"":0,""Q2"":1}","","","","","","","","","","","","","","","","","","","","","","",""
"5624","","survey-text","44","312665","0.0-43.0-0.0","A1OKFYVJTEK4BI","","","","{""Q0"":""rock""}","","","","","","","","","","","","","","","","","","","","","","",""
"17570","","survey-text","45","330236","0.0-44.0-0.0","A1OKFYVJTEK4BI","","","","{""Q0"":""Its good.""}","","","","","","","","","","","","","","","","","","","","","","",""
"4514.4000000003725","","image-slider-response","46","334752","0.0-45.0","A1OKFYVJTEK4BI","","","","","17","","","","","","","","","","","","","","","","","","","","","",""
"null","","image-button-response","47","339775","0.0-46.0","A1OKFYVJTEK4BI","img_art/3.jpg","null","","","","","","","","","","","","","","","","","","","","","","","","",""
"3423","","image-button-response","48","343200","0.0-47.0","A1OKFYVJTEK4BI","img_art/3.jpg","0","","","","","","","","","","","","","","","","","","","","","","","","",""
"6446","","image-button-response","49","349648","0.0-48.0-0.0","A1OKFYVJTEK4BI","img_art/3.jpg","4","","","","","","","","","","","","","","","","","","","","","","","","",""
"4611","","image-button-response","50","354262","0.0-49.0-0.0","A1OKFYVJTEK4BI","img_art/3.jpg","5","","","","","","","","","","","","","","","","","","","","","","","","",""
"null","","html-keyboard-response","51","355764","0.0-50.0","A1OKFYVJTEK4BI","<p style=""font-size: 48px;"">+</p>","","","","","null","allTrialResponses","1500","1","1","img_art/3.jpg","17","Its good.","Connor,Isaiah,Zachary,Aaron,Carlos,Dakota","Shapes are interesting but color is overwhelming,5,240,20","I feel uncomfortable, like I am looking at a crime scene.,-17,300,20","Too red and chaotic. Not calming.,-41,400,20","Definition of mediocre abstract art,-12,20,20","The composition keeps the eye moving, the colors are satisfying.,31,80,20","wild scribbling, freedom, expression,40,280,20","Connor","Shapes are interesting but color is overwhelming,5,240,20","Carlos","The composition keeps the eye moving, the colors are satisfying.,31,80,20","Dakota","wild scribbling, freedom, expression,40,280,20","2"
"25257","","survey-text","52","381024","0.0-51.0-0.0","A1OKFYVJTEK4BI","","","","{""Q0"":""An interesting city-scape.""}","","","","","","","","","","","","","","","","","","","","","","",""
"3038.4000000003725","","image-slider-response","53","384064","0.0-52.0","A1OKFYVJTEK4BI","","","","","5","","","","","","","","","","","","","","","","","","","","","",""
"1827","","image-button-response","54","389066","0.0-53.0","A1OKFYVJTEK4BI","img_art/8.jpg","0","","","","","","","","","","","","","","","","","","","","","","","","",""
"1357","","image-button-response","55","390424","0.0-54.0","A1OKFYVJTEK4BI","img_art/8.jpg","0","","","","","","","","","","","","","","","","","","","","","","","","",""
"7078","","image-button-response","56","397504","0.0-55.0-0.0","A1OKFYVJTEK4BI","img_art/8.jpg","4","","","","","","","","","","","","","","","","","","","","","","","","",""
"5150","","image-button-response","57","402656","0.0-56.0-0.0","A1OKFYVJTEK4BI","img_art/8.jpg","1","","","","","","","","","","","","","","","","","","","","","","","","",""
"null","","html-keyboard-response","58","404157","0.0-57.0","A1OKFYVJTEK4BI","<p style=""font-size: 48px;"">+</p>","","","","","null","allTrialResponses","1500","1","2","img_art/8.jpg","5","An interesting city-scape.","Connor,Daniel,Brett,Dylan,Carlos,Dakota","Lots of depth, faces, city, arch,3,240,20","Cortez's influence with fair color choices,10,320,20","Very abstract and seems symbolic,45,360,20","The colors are nice but the big face in the sky is creepy,-11,40,20","Clean and stark. The colors are pleasant.,15,80,20","chaotic and disassembled,-8,280,20","Connor","Lots of depth, faces, city, arch,3,240,20","Carlos","Clean and stark. The colors are pleasant.,15,80,20","Daniel","Cortez's influence with fair color choices,10,320,20","2"
"18796","","survey-text","59","422956","0.0-58.0-0.0","A1OKFYVJTEK4BI","","","","{""Q0"":""Not my preferred style.""}","","","","","","","","","","","","","","","","","","","","","","",""
"4822.4000000003725","","image-slider-response","60","427780","0.0-59.0","A1OKFYVJTEK4BI","","","","","-20","","","","","","","","","","","","","","","","","","","","","",""
"null","","image-button-response","61","432782","0.0-60.0","A1OKFYVJTEK4BI","img_art/29.jpg","null","","","","","","","","","","","","","","","","","","","","","","","","",""
"2724","","image-button-response","62","435508","0.0-61.0","A1OKFYVJTEK4BI","img_art/29.jpg","2","","","","","","","","","","","","","","","","","","","","","","","","",""
"8738","","image-button-response","63","444248","0.0-62.0-0.0","A1OKFYVJTEK4BI","img_art/29.jpg","4","","","","","","","","","","","","","","","","","","","","","","","","",""
"6070","","image-button-response","64","450319","0.0-63.0-0.0","A1OKFYVJTEK4BI","img_art/29.jpg","0","","","","","","","","","","","","","","","","","","","","","","","","",""
"null","","html-keyboard-response","65","451821","0.0-64.0","A1OKFYVJTEK4BI","<p style=""font-size: 48px;"">+</p>","","","","","null","allTrialResponses","1500","1","3","img_art/29.jpg","-20","Not my preferred style.","Connor,Daniel,Cameron,Joseph,Carlos,Stephen","Red X is scary, like the bricks,7,240,20","Pinball meets a dark dream meets whale alien, drab,13,320,20","Lines and light are clean but subject doesn't interest me,0,60,20","It looks like graffiti in a subway tunnel- destruction.,-20,220,20","It feels like looking through layers of frustration.,19,80,20","Really enjoy everything about this one.,50,140,20","Cameron","Lines and light are clean but subject doesn't interest me,0,60,20","Carlos","It feels like looking through layers of frustration.,19,80,20","Connor","Red X is scary, like the bricks,7,240,20","2"
"32387","","survey-text","66","484211","0.0-65.0-0.0","A1OKFYVJTEK4BI","","","","{""Q0"":""It is a good, not great painting.""}","","","","","","","","","","","","","","","","","","","","","","",""
"10286","","image-slider-response","67","494499","0.0-66.0","A1OKFYVJTEK4BI","","","","","14","","","","","","","","","","","","","","","","","","","","","",""
"null","","image-button-response","68","499501","0.0-67.0","A1OKFYVJTEK4BI","img_art/19.jpg","null","","","","","","","","","","","","","","","","","","","","","","","","",""
"3505","","image-button-response","69","503007","0.0-68.0","A1OKFYVJTEK4BI","img_art/19.jpg","3","","","","","","","","","","","","","","","","","","","","","","","","",""
"4454","","image-button-response","70","507463","0.0-69.0-0.0","A1OKFYVJTEK4BI","img_art/19.jpg","4","","","","","","","","","","","","","","","","","","","","","","","","",""
"950","","image-button-response","71","508415","0.0-70.0-0.0","A1OKFYVJTEK4BI","img_art/19.jpg","5","","","","","","","","","","","","","","","","","","","","","","","","",""
"null","","html-keyboard-response","72","509916","0.0-71.0","A1OKFYVJTEK4BI","<p style=""font-size: 48px;"">+</p>","","","","","null","allTrialResponses","1500","1","4","img_art/19.jpg","14","It is a good, not great painting.","Connor,Eric,Cameron,Benjamin,Carlos,Edward","Childish music hall,-20,240,20","I like the color and the mix of sketches along with paint.,30,100,20","Snowy winter scene,25,60,20","Reminds me of a busy village.,16,260,20","I like the watercolor and colors, do not like the deconstructed city scene feel.,0,80,20","It's ok but it's nothing I would hang on my wall,11,60,20","Benjamin","Reminds me of a busy village.,16,260,20","Carlos","I like the watercolor and colors, do not like the deconstructed city scene feel.,0,80,20","Edward","It's ok but it's nothing I would hang on my wall,11,60,20","2"
"27841","","survey-text","73","537760","0.0-72.0-0.0","A1OKFYVJTEK4BI","","","","{""Q0"":""I do not understand or like it.""}","","","","","","","","","","","","","","","","","","","","","","",""
"2978.300000000745","","image-slider-response","74","540740","0.0-73.0","A1OKFYVJTEK4BI","","","","","-29","","","","","","","","","","","","","","","","","","","","","",""
"null","","image-button-response","75","545741","0.0-74.0","A1OKFYVJTEK4BI","img_art/16.jpg","null","","","","","","","","","","","","","","","","","","","","","","","","",""
"3197","","image-button-response","76","548940","0.0-75.0","A1OKFYVJTEK4BI","img_art/16.jpg","3","","","","","","","","","","","","","","","","","","","","","","","","",""
"914","","image-button-response","77","549856","0.0-76.0-0.0","A1OKFYVJTEK4BI","img_art/16.jpg","4","","","","","","","","","","","","","","","","","","","","","","","","",""
"5098","","image-button-response","78","554956","0.0-77.0-0.0","A1OKFYVJTEK4BI","img_art/16.jpg","1","","","","","","","","","","","","","","","","","","","","","","","","",""
"null","","html-keyboard-response","79","556458","0.0-78.0","A1OKFYVJTEK4BI","<p style=""font-size: 48px;"">+</p>","","","","","null","allTrialResponses","1500","1","5","img_art/16.jpg","-29","I do not understand or like it.","Luke,Peter,Tanner,Benjamin,Carlos,Edward","while simple, it seems to have a deeper meaning on childhood,33,20,20","It's a little unsettling,2,320,20","sad. desth of childhood,-5,180,20","Don't like the teddy bear. It takes away from the painting.,-39,260,20","Why is that bear there? It looks like it would be gross to touch. The texture bothers me.,-20,80,20","It feels lazily done,-9,60,20","Benjamin","Don't like the teddy bear. It takes away from the painting.,-39,260,20","Carlos","Why is that bear there? It looks like it would be gross to touch. The texture bothers me.,-20,80,20","Peter","It's a little unsettling,2,320,20","2"
"4560","","survey-text","80","561023","0.0-79.0-0.0","A1OKFYVJTEK4BI","","","","{""Q0"":""sky""}","","","","","","","","","","","","","","","","","","","","","","",""
"17646","","survey-text","81","578670","0.0-80.0-0.0","A1OKFYVJTEK4BI","","","","{""Q0"":""I like all but the green.""}","","","","","","","","","","","","","","","","","","","","","","",""
"1810.199999999255","","image-slider-response","82","580482","0.0-81.0","A1OKFYVJTEK4BI","","","","","-10","","","","","","","","","","","","","","","","","","","","","",""
"4559","","image-button-response","83","585485","0.0-82.0","A1OKFYVJTEK4BI","img_art/27.jpg","0","","","","","","","","","","","","","","","","","","","","","","","","",""
"652","","image-button-response","84","586138","0.0-83.0","A1OKFYVJTEK4BI","img_art/27.jpg","0","","","","","","","","","","","","","","","","","","","","","","","","",""
"4003","","image-button-response","85","590142","0.0-84.0-0.0","A1OKFYVJTEK4BI","img_art/27.jpg","4","","","","","","","","","","","","","","","","","","","","","","","","",""
"2582","","image-button-response","86","592726","0.0-85.0-0.0","A1OKFYVJTEK4BI","img_art/27.jpg","3","","","","","","","","","","","","","","","","","","","","","","","","",""
"null","","html-keyboard-response","87","594228","0.0-86.0","A1OKFYVJTEK4BI","<p style=""font-size: 48px;"">+</p>","","","","","null","allTrialResponses","1500","1","6","img_art/27.jpg","-10","I like all but the green.","Trevor,Peter,Luis,Benjamin,Carlos,Scott","I like the orange but it's a little blah,1,280,20","Calming sky , relaxing,23,320,20","Love the representation of home,22,400,20","I like the colors.,6,260,20","The green lines disrupt the image in an unpleasant and hurried way.,-30,80,20","again looks like childrens artwork,-40,20,20","Trevor","I like the orange but it's a little blah,1,280,20","Carlos","The green lines disrupt the image in an unpleasant and hurried way.,-30,80,20","Benjamin","I like the colors.,6,260,20","2"
"22400","","survey-text","88","616631","0.0-87.0-0.0","A1OKFYVJTEK4BI","","","","{""Q0"":""A weird tree?""}","","","","","","","","","","","","","","","","","","","","","","",""
"4034.4000000003725","","image-slider-response","89","620667","0.0-88.0","A1OKFYVJTEK4BI","","","","","-4","","","","","","","","","","","","","","","","","","","","","",""
"null","","image-button-response","90","625668","0.0-89.0","A1OKFYVJTEK4BI","img_art/6.jpg","null","","","","","","","","","","","","","","","","","","","","","","","","",""
"1937","","image-button-response","91","627607","0.0-90.0","A1OKFYVJTEK4BI","img_art/6.jpg","3","","","","","","","","","","","","","","","","","","","","","","","","",""
"4154","","image-button-response","92","631763","0.0-91.0-0.0","A1OKFYVJTEK4BI","img_art/6.jpg","5","","","","","","","","","","","","","","","","","","","","","","","","",""
"1790","","image-button-response","93","633554","0.0-92.0-0.0","A1OKFYVJTEK4BI","img_art/6.jpg","1","","","","","","","","","","","","","","","","","","","","","","","","",""
"null","","html-keyboard-response","94","635056","0.0-93.0","A1OKFYVJTEK4BI","<p style=""font-size: 48px;"">+</p>","","","","","null","allTrialResponses","1500","1","7","img_art/6.jpg","-4","A weird tree?","Trevor,Corey,Bryce,Benjamin,Carlos,Ethan","i like the simplicity of the tree and the colors,50,280,20","reminds me of a happy edgar allen poe poem,8,260,20","Not very exciting.,-34,20,20","Something very simplistic about it. The colors mesh well.,10,260,20","Clean and simple, a pleasant resting place for the eyes.,21,80,20","This piece has some emotion of isolation. I like it.,6,120,20","Benjamin","Something very simplistic about it. The colors mesh well.,10,260,20","Ethan","This piece has some emotion of isolation. I like it.,6,120,20","Corey","reminds me of a happy edgar allen poe poem,8,260,20","2"
"14190","","survey-text","95","649250","0.0-94.0-0.0","A1OKFYVJTEK4BI","","","","{""Q0"":""Reminds me of beach sand.""}","","","","","","","","","","","","","","","","","","","","","","",""
"4622.60000000149","","image-slider-response","96","653874","0.0-95.0","A1OKFYVJTEK4BI","","","","","14","","","","","","","","","","","","","","","","","","","","","",""
"null","","image-button-response","97","658878","0.0-96.0","A1OKFYVJTEK4BI","img_art/7.jpg","null","","","","","","","","","","","","","","","","","","","","","","","","",""
"3303","","image-button-response","98","662183","0.0-97.0","A1OKFYVJTEK4BI","img_art/7.jpg","4","","","","","","","","","","","","","","","","","","","","","","","","",""
"3482","","image-button-response","99","665667","0.0-98.0-0.0","A1OKFYVJTEK4BI","img_art/7.jpg","5","","","","","","","","","","","","","","","","","","","","","","","","",""
"5938","","image-button-response","100","671607","0.0-99.0-0.0","A1OKFYVJTEK4BI","img_art/7.jpg","0","","","","","","","","","","","","","","","","","","","","","","","","",""
"null","","html-keyboard-response","101","672109","0.0-100.0","A1OKFYVJTEK4BI","<p style=""font-size: 48px;"">+</p>","","","","","null","allTrialResponses","500","1","8","img_art/7.jpg","14","Reminds me of beach sand.","Charles,Corey,Dustin,Benjamin,Angel,Ethan","Looks like a bad picture of a beach,-21,100,20","looks like a close up of irritated skin under a microscope,-49,260,20","I see dryness, which is sad. Dirt, sand, the dessert. Barren dry lifeless,-30,20,20","Dull and confusing,-24,260,20","It's off-putting because it reminds me of walking over rough sand/rocks or having scabs on my skin.,-10,180,20","This reminds me of a close up photo of a stone wall.,-19,120,20","Angel","It's off-putting because it reminds me of walking over rough sand/rocks or having scabs on my skin.,-10,180,20","Ethan","This reminds me of a close up photo of a stone wall.,-19,120,20","Charles","Looks like a bad picture of a beach,-21,100,20","2"
"22233","","survey-text","102","694346","0.0-101.0-0.0","A1OKFYVJTEK4BI","","","","{""Q0"":""Horrible.""}","","","","","","","","","","","","","","","","","","","","","","",""
"3486.5","","image-slider-response","103","697834","0.0-102.0","A1OKFYVJTEK4BI","","","","","-50","","","","","","","","","","","","","","","","","","","","","",""
"2637","","image-button-response","104","702837","0.0-103.0","A1OKFYVJTEK4BI","img_art/20.jpg","2","","","","","","","","","","","","","","","","","","","","","","","","",""
"639","","image-button-response","105","703478","0.0-104.0","A1OKFYVJTEK4BI","img_art/20.jpg","2","","","","","","","","","","","","","","","","","","","","","","","","",""
"3002","","image-button-response","106","706482","0.0-105.0-0.0","A1OKFYVJTEK4BI","img_art/20.jpg","3","","","","","","","","","","","","","","","","","","","","","","","","",""
"7910","","image-button-response","107","714393","0.0-106.0-0.0","A1OKFYVJTEK4BI","img_art/20.jpg","0","","","","","","","","","","","","","","","","","","","","","","","","",""
"null","","html-keyboard-response","108","715396","0.0-107.0","A1OKFYVJTEK4BI","<p style=""font-size: 48px;"">+</p>","","","","","null","allTrialResponses","1000","1","9","img_art/20.jpg","-50","Horrible.","Charles,Michael,Ryan,Jeffrey,Angel,Ethan","Something bad has happened TO reality,-23,100,20","Brings about an emotion response of dspair. Loose lines but yet has a cohesion.,8,140,20","Too negative looks like a car and plane crash,-50,380,20","looks like an auto accident,-30,40,20","This looks like a ruin of what was once a thriving city.,-9,180,20","I can tell this artist has experience. I just don't care for the color combo.,7,120,20","Ryan","Too negative looks like a car and plane crash,-50,380,20","Jeffrey","looks like an auto accident,-30,40,20","Charles","Something bad has happened TO reality,-23,100,20","2"
"21531","","survey-text","109","736930","0.0-108.0-0.0","A1OKFYVJTEK4BI","","","","{""Q0"":""A cello?""}","","","","","","","","","","","","","","","","","","","","","","",""
"1862.6000000014901","","image-slider-response","110","738794","0.0-109.0","A1OKFYVJTEK4BI","","","","","-17","","","","","","","","","","","","","","","","","","","","","",""
"null","","image-button-response","111","743796","0.0-110.0","A1OKFYVJTEK4BI","img_art/10.jpg","null","","","","","","","","","","","","","","","","","","","","","","","","",""
"5240","","image-button-response","112","749038","0.0-111.0","A1OKFYVJTEK4BI","img_art/10.jpg","4","","","","","","","","","","","","","","","","","","","","","","","","",""
"2094","","image-button-response","113","751134","0.0-112.0-0.0","A1OKFYVJTEK4BI","img_art/10.jpg","5","","","","","","","","","","","","","","","","","","","","","","","","",""
"5194","","image-button-response","114","756329","0.0-113.0-0.0","A1OKFYVJTEK4BI","img_art/10.jpg","0","","","","","","","","","","","","","","","","","","","","","","","","",""
"null","","html-keyboard-response","115","757331","0.0-114.0","A1OKFYVJTEK4BI","<p style=""font-size: 48px;"">+</p>","","","","","null","allTrialResponses","1000","1","10","img_art/10.jpg","-17","A cello?","Charles,Mark,Ryan,Jeffrey,Spencer,Bryan","Also too all over the place, I don't see any pattern or anything that's supposed to stand out,-19,100,20","Kraken, and I love it.,39,80,20","Reminds me of a beautiful ship wreck,36,380,20","Relaxing; a lot of going on but colours make it easy to look at,20,40,20","Dark with no object, looks like experimentation, slightly like a storm on the ocean,-21,120,20","First impression was musical instrument then, because of the gray colors, death.,5,400,20","Spencer","Dark with no object, looks like experimentation, slightly like a storm on the ocean,-21,120,20","Bryan","First impression was musical instrument then, because of the gray colors, death.,5,400,20","Charles","Also too all over the place, I don't see any pattern or anything that's supposed to stand out,-19,100,20","2"
"3904","","survey-text","116","761241","0.0-115.0-0.0","A1OKFYVJTEK4BI","","","","{""Q0"":""our""}","","","","","","","","","","","","","","","","","","","","","","",""
"17295","","survey-text","117","778538","0.0-116.0-0.0","A1OKFYVJTEK4BI","","","","{""Q0"":""Not my style.""}","","","","","","","","","","","","","","","","","","","","","","",""
"3766.5999999996275","","image-slider-response","118","782305","0.0-117.0","A1OKFYVJTEK4BI","","","","","-27","","","","","","","","","","","","","","","","","","","","","",""
"null","","image-button-response","119","787308","0.0-118.0","A1OKFYVJTEK4BI","img_art/30.jpg","null","","","","","","","","","","","","","","","","","","","","","","","","",""
"3192","","image-button-response","120","790502","0.0-119.0","A1OKFYVJTEK4BI","img_art/30.jpg","5","","","","","","","","","","","","","","","","","","","","","","","","",""
"5046","","image-button-response","121","795549","0.0-120.0-0.0","A1OKFYVJTEK4BI","img_art/30.jpg","0","","","","","","","","","","","","","","","","","","","","","","","","",""
"5114","","image-button-response","122","800665","0.0-121.0-0.0","A1OKFYVJTEK4BI","img_art/30.jpg","5","","","","","","","","","","","","","","","","","","","","","","","","",""
"1683","","image-button-response","123","805837","0.0-121.1-0.1","A1OKFYVJTEK4BI","img_art/30.jpg","1","","","","","","","","","","","","","","","","","","","","","","","","",""
"null","","html-keyboard-response","124","807338","0.0-122.0","A1OKFYVJTEK4BI","<p style=""font-size: 48px;"">+</p>","","","","","null","allTrialResponses","1500","1","11","img_art/30.jpg","-27","Not my style.","Charles,Jorge,Alexander,Thomas,Spencer,Bryan","looks like eels,-20,100,20","fun and imaginative,12,180,20","Sleek eel in the abstract ocean.,30,120,20","I like the colors,18,220,20","Interesting, almost an underworld of plant life,11,120,20","A little too dull. Would've liked brighter colors. Also looks washed out.,1,400,20","Bryan","A little too dull. Would've liked brighter colors. Also looks washed out.,1,400,20","Charles","looks like eels,-20,100,20","Jorge","fun and imaginative,12,180,20","4"
"16770","","survey-text","125","824112","0.0-123.0-0.0","A1OKFYVJTEK4BI","","","","{""Q0"":""I love waterfalls!""}","","","","","","","","","","","","","","","","","","","","","","",""
"2694.5","","image-slider-response","126","826808","0.0-124.0","A1OKFYVJTEK4BI","","","","","37","","","","","","","","","","","","","","","","","","","","","",""
"null","","image-button-response","127","831810","0.0-125.0","A1OKFYVJTEK4BI","img_art/24.jpg","null","","","","","","","","","","","","","","","","","","","","","","","","",""
"2852","","image-button-response","128","834664","0.0-126.0","A1OKFYVJTEK4BI","img_art/24.jpg","1","","","","","","","","","","","","","","","","","","","","","","","","",""
"3141","","image-button-response","129","837806","0.0-127.0-0.0","A1OKFYVJTEK4BI","img_art/24.jpg","4","","","","","","","","","","","","","","","","","","","","","","","","",""
"2763","","image-button-response","130","840570","0.0-128.0-0.0","A1OKFYVJTEK4BI","img_art/24.jpg","5","","","","","","","","","","","","","","","","","","","","","","","","",""
"null","","html-keyboard-response","131","842072","0.0-129.0","A1OKFYVJTEK4BI","<p style=""font-size: 48px;"">+</p>","","","","","null","allTrialResponses","1500","1","12","img_art/24.jpg","37","I love waterfalls!","Charles,Jorge,Devon,William,Jordan,Bryan","It just feels a little bland for me,-23,100,20","Interested in visiting this place,18,180,20","Aww. I love the peace brought by this picture.,40,400,20","very peaceful and serene,47,380,20","Beautiful waterfall I like waterfalls,39,160,20","Abstract falls & nature.,41,400,20","Jorge","Interested in visiting this place,18,180,20","Jordan","Beautiful waterfall I like waterfalls,39,160,20","Bryan","Abstract falls & nature.,41,400,20","4"
"23322","","survey-text","132","865397","0.0-130.0-0.0","A1OKFYVJTEK4BI","","","","{""Q0"":""Just wierd.""}","","","","","","","","","","","","","","","","","","","","","","",""
"3074.300000000745","","image-slider-response","133","868473","0.0-131.0","A1OKFYVJTEK4BI","","","","","-25","","","","","","","","","","","","","","","","","","","","","",""
"4422","","image-button-response","134","873475","0.0-132.0","A1OKFYVJTEK4BI","img_art/28.jpg","0","","","","","","","","","","","","","","","","","","","","","","","","",""
"716","","image-button-response","135","874193","0.0-133.0","A1OKFYVJTEK4BI","img_art/28.jpg","0","","","","","","","","","","","","","","","","","","","","","","","","",""
"1286","","image-button-response","136","875481","0.0-134.0-0.0","A1OKFYVJTEK4BI","img_art/28.jpg","0","","","","","","","","","","","","","","","","","","","","","","","","",""
"7107","","image-button-response","137","885529","0.0-134.1-0.1","A1OKFYVJTEK4BI","img_art/28.jpg","4","","","","","","","","","","","","","","","","","","","","","","","","",""
"11675","","image-button-response","138","897206","0.0-135.0-0.0","A1OKFYVJTEK4BI","img_art/28.jpg","3","","","","","","","","","","","","","","","","","","","","","","","","",""
"null","","html-keyboard-response","139","897708","0.0-136.0","A1OKFYVJTEK4BI","<p style=""font-size: 48px;"">+</p>","","","","","null","allTrialResponses","500","1","13","img_art/28.jpg","-25","Just wierd.","Jesus,Jorge,Jared,Kyle,Jordan,Bryan","The muted tones aren't my favorite.,-10,100,20","nostalgic from a memory,11,180,20","i like the colors and the shapes look like people,20,400,20","Colors too dull for me,-10,340,20","A messy bed room,-7,160,20","A meeting in Old Jerusalem.,11,400,20","Jesus","The muted tones aren't my favorite.,-10,100,20","Jordan","A messy bed room,-7,160,20","Kyle","Colors too dull for me,-10,340,20","6"
"28609","","survey-text","140","926320","0.0-137.0-0.0","A1OKFYVJTEK4BI","","","","{""Q0"":""An avenging angel on horseback?""}","","","","","","","","","","","","","","","","","","","","","","",""
"2746.5","","image-slider-response","141","929068","0.0-138.0","A1OKFYVJTEK4BI","","","","","12","","","","","","","","","","","","","","","","","","","","","",""
"null","","image-button-response","142","934070","0.0-139.0","A1OKFYVJTEK4BI","img_art/18.jpg","null","","","","","","","","","","","","","","","","","","","","","","","","",""
"2561","","image-button-response","143","936632","0.0-140.0","A1OKFYVJTEK4BI","img_art/18.jpg","4","","","","","","","","","","","","","","","","","","","","","","","","",""
"1139","","image-button-response","144","937772","0.0-141.0-0.0","A1OKFYVJTEK4BI","img_art/18.jpg","5","","","","","","","","","","","","","","","","","","","","","","","","",""
"3878","","image-button-response","145","941652","0.0-142.0-0.0","A1OKFYVJTEK4BI","img_art/18.jpg","2","","","","","","","","","","","","","","","","","","","","","","","","",""
"null","","html-keyboard-response","146","943154","0.0-143.0","A1OKFYVJTEK4BI","<p style=""font-size: 48px;"">+</p>","","","","","null","allTrialResponses","1500","1","14","img_art/18.jpg","12","An avenging angel on horseback?","Jesus,Samuel,Evan,Kyle,Jordan,Chase","The shapes are very fun to interpret,30,100,20","death rides in life,-25,400,20","This brings to mind the four horsemen of the apocalypse,8,140,20","I feel indifferent about this one,0,340,20","Interesting and capitvating to look at,19,160,20","Kinda neat, looks like cavalry, or a knight.,15,120,20","Jordan","Interesting and capitvating to look at,19,160,20","Chase","Kinda neat, looks like cavalry, or a knight.,15,120,20","Evan","This brings to mind the four horsemen of the apocalypse,8,140,20","6"
"13723","","survey-text","147","956881","0.0-144.0-0.0","A1OKFYVJTEK4BI","","","","{""Q0"":""Rain on a windowpane.""}","","","","","","","","","","","","","","","","","","","","","","",""
"2910.5999999996275","","image-slider-response","148","959793","0.0-145.0","A1OKFYVJTEK4BI","","","","","27","","","","","","","","","","","","","","","","","","","","","",""
"4378","","image-button-response","149","964794","0.0-146.0","A1OKFYVJTEK4BI","img_art/13.jpg","2","","","","","","","","","","","","","","","","","","","","","","","","",""
"1184","","image-button-response","150","965981","0.0-147.0","A1OKFYVJTEK4BI","img_art/13.jpg","2","","","","","","","","","","","","","","","","","","","","","","","","",""
"6662","","image-button-response","151","972645","0.0-148.0-0.0","A1OKFYVJTEK4BI","img_art/13.jpg","3","","","","","","","","","","","","","","","","","","","","","","","","",""
"3382","","image-button-response","152","976029","0.0-149.0-0.0","A1OKFYVJTEK4BI","img_art/13.jpg","4","","","","","","","","","","","","","","","","","","","","","","","","",""
"null","","html-keyboard-response","153","977531","0.0-150.0","A1OKFYVJTEK4BI","<p style=""font-size: 48px;"">+</p>","","","","","null","allTrialResponses","1500","1","15","img_art/13.jpg","27","Rain on a windowpane.","Noah,Miguel,Evan,Taylor,Jordan,Chase","evokes a dampening feeling,-9,260,20","Nice color abstractions.,21,160,20","It reminds me of looking out the window on a stormy night at cars drive by,21,140,20","Simple and in my favorite color. I actually like this one.,40,200,20","This is easy to look at,46,160,20","Seems a little cold but I like the neuron looking splatters.,10,120,20","Evan","It reminds me of looking out the window on a stormy night at cars drive by,21,140,20","Taylor","Simple and in my favorite color. I actually like this one.,40,200,20","Jordan","This is easy to look at,46,160,20","6"
"9781","","survey-text","154","987320","0.0-151.0-0.0","A1OKFYVJTEK4BI","","","","{""Q0"":""course""}","","","","","","","","","","","","","","","","","","","","","","",""
"17198","","survey-text","155","1004519","0.0-152.0-0.0","A1OKFYVJTEK4BI","","","","{""Q0"":""Love the colors!""}","","","","","","","","","","","","","","","","","","","","","","",""
"3702.300000000745","","image-slider-response","156","1008223","0.0-153.0","A1OKFYVJTEK4BI","","","","","30","","","","","","","","","","","","","","","","","","","","","",""
"3931","","image-button-response","157","1013225","0.0-154.0","A1OKFYVJTEK4BI","img_art/1.jpg","2","","","","","","","","","","","","","","","","","","","","","","","","",""
"688","","image-button-response","158","1013915","0.0-155.0","A1OKFYVJTEK4BI","img_art/1.jpg","2","","","","","","","","","","","","","","","","","","","","","","","","",""
"7028","","image-button-response","159","1020945","0.0-156.0-0.0","A1OKFYVJTEK4BI","img_art/1.jpg","4","","","","","","","","","","","","","","","","","","","","","","","","",""
"10218","","image-button-response","160","1031164","0.0-157.0-0.0","A1OKFYVJTEK4BI","img_art/1.jpg","1","","","","","","","","","","","","","","","","","","","","","","","","",""
"null","","html-keyboard-response","161","1032666","0.0-158.0","A1OKFYVJTEK4BI","<p style=""font-size: 48px;"">+</p>","","","","","null","allTrialResponses","1500","1","16","img_art/1.jpg","30","Love the colors!","Isaac,Joshua,Evan,Taylor,Jordan,Tyler","The colors are a little too intense.,1,280,20","Reminds me of fall.,7,240,20","It is beautiful, I really enjoy the colors,32,140,20","Deja vu. Haven't I seen this one before? Not bad for those living in the backwoods.,10,200,20","I like the warmth of the picture,21,160,20","This looks like the same artist as the first picture, but cropped? Looks incomplete.,28,320,20","Evan","It is beautiful, I really enjoy the colors,32,140,20","Jordan","I like the warmth of the picture,21,160,20","Joshua","Reminds me of fall.,7,240,20","6"
"21109","","survey-text","162","1053779","0.0-159.0-0.0","A1OKFYVJTEK4BI","","","","{""Q0"":""Too abstract for me.""}","","","","","","","","","","","","","","","","","","","","","","",""
"4074.5","","image-slider-response","163","1057855","0.0-160.0","A1OKFYVJTEK4BI","","","","","-29","","","","","","","","","","","","","","","","","","","","","",""
"null","","image-button-response","164","1062857","0.0-161.0","A1OKFYVJTEK4BI","img_art/2.jpg","null","","","","","","","","","","","","","","","","","","","","","","","","",""
"588","","image-button-response","165","1063447","0.0-162.0","A1OKFYVJTEK4BI","img_art/2.jpg","1","","","","","","","","","","","","","","","","","","","","","","","","",""
"8346","","image-button-response","166","1071795","0.0-163.0-0.0","A1OKFYVJTEK4BI","img_art/2.jpg","0","","","","","","","","","","","","","","","","","","","","","","","","",""
"5018","","image-button-response","167","1076815","0.0-164.0-0.0","A1OKFYVJTEK4BI","img_art/2.jpg","2","","","","","","","","","","","","","","","","","","","","","","","","",""
"null","","html-keyboard-response","168","1078317","0.0-165.0","A1OKFYVJTEK4BI","<p style=""font-size: 48px;"">+</p>","","","","","null","allTrialResponses","1500","1","17","img_art/2.jpg","-29","Too abstract for me.","Shawn,Joshua,Evan,Brendan,Jordan,Andrew","The color choices and lines seem a bit sloppy?,-10,100,20","Looks like child's art.,-19,240,20","I feel bothered by the dark and dingy choice of colors,-22,140,20","its ugly af to be honest,-50,340,20","Reminds me of my baby brother,11,160,20","Doesn't give me a reaction,10,160,20","Joshua","Looks like child's art.,-19,240,20","Shawn","The color choices and lines seem a bit sloppy?,-10,100,20","Evan","I feel bothered by the dark and dingy choice of colors,-22,140,20","6"
"21642","","survey-text","169","1099963","0.0-166.0-0.0","A1OKFYVJTEK4BI","","","","{""Q0"":""A girl in a hammock?""}","","","","","","","","","","","","","","","","","","","","","","",""
"2142.5","","image-slider-response","170","1102107","0.0-167.0","A1OKFYVJTEK4BI","","","","","13","","","","","","","","","","","","","","","","","","","","","",""
"null","","image-button-response","171","1107108","0.0-168.0","A1OKFYVJTEK4BI","img_art/9.jpg","null","","","","","","","","","","","","","","","","","","","","","","","","",""
"3153","","image-button-response","172","1110263","0.0-169.0","A1OKFYVJTEK4BI","img_art/9.jpg","2","","","","","","","","","","","","","","","","","","","","","","","","",""
"5774","","image-button-response","173","1116038","0.0-170.0-0.0","A1OKFYVJTEK4BI","img_art/9.jpg","4","","","","","","","","","","","","","","","","","","","","","","","","",""
"7769","","image-button-response","174","1123810","0.0-171.0-0.0","A1OKFYVJTEK4BI","img_art/9.jpg","3","","","","","","","","","","","","","","","","","","","","","","","","",""
"null","","html-keyboard-response","175","1124812","0.0-172.0","A1OKFYVJTEK4BI","<p style=""font-size: 48px;"">+</p>","","","","","null","allTrialResponses","1000","1","18","img_art/9.jpg","13","A girl in a hammock?","Shawn,Joshua,Evan,Dalton,Antonio,Austin","Cheesy. Looks unprofessional,-20,100,20","Someone lying in bed?  Don't care for it.,-14,240,20","It makes me think of Snow White sleeping,11,140,20","a mother in bed surrounded by emotions,1,300,20","Stirs up emotions of watching someone sleep which is relaxing,11,220,20","Love the uniqueness,21,240,20","Evan","It makes me think of Snow White sleeping,11,140,20","Antonio","Stirs up emotions of watching someone sleep which is relaxing,11,220,20","Dalton","a mother in bed surrounded by emotions,1,300,20","6"
"14225","","survey-text","176","1139041","0.0-173.0-0.0","A1OKFYVJTEK4BI","","","","{""Q0"":""A key to the city?""}","","","","","","","","","","","","","","","","","","","","","","",""
"2666.800000000745","","image-slider-response","177","1141712","0.0-174.0","A1OKFYVJTEK4BI","","","","","7","","","","","","","","","","","","","","","","","","","","","",""
"null","","image-button-response","178","1146714","0.0-175.0","A1OKFYVJTEK4BI","img_art/22.jpg","null","","","","","","","","","","","","","","","","","","","","","","","","",""
"2540","","image-button-response","179","1149256","0.0-176.0","A1OKFYVJTEK4BI","img_art/22.jpg","3","","","","","","","","","","","","","","","","","","","","","","","","",""
"4774","","image-button-response","180","1154032","0.0-177.0-0.0","A1OKFYVJTEK4BI","img_art/22.jpg","2","","","","","","","","","","","","","","","","","","","","","","","","",""
"6930","","image-button-response","181","1160963","0.0-178.0-0.0","A1OKFYVJTEK4BI","img_art/22.jpg","0","","","","","","","","","","","","","","","","","","","","","","","","",""
"null","","html-keyboard-response","182","1162465","0.0-179.0","A1OKFYVJTEK4BI","<p style=""font-size: 48px;"">+</p>","","","","","null","allTrialResponses","1500","1","19","img_art/22.jpg","7","A key to the city?","Nicholas,Juan,Evan,Dalton,Antonio,Robert","Pretty colors but something seems sinister about it,25,240,20","I don't like the colors or the way they've been arranged.,-20,260,20","I enjoy the vibrant colors,23,140,20","i think its pretty but im not sure what i see,1,300,20","Felt blah. Bunch of nothingness,-42,220,20","I don't get much of a reaction.,11,360,20","Dalton","i think its pretty but im not sure what i see,1,300,20","Evan","I enjoy the vibrant colors,23,140,20","Nicholas","Pretty colors but something seems sinister about it,25,240,20","6"
"21157","","survey-text","183","1183626","0.0-180.0-0.0","A1OKFYVJTEK4BI","","","","{""Q0"":""I like this one, like the colors.""}","","","","","","","","","","","","","","","","","","","","","","",""
"2470.4000000003725","","image-slider-response","184","1186098","0.0-181.0","A1OKFYVJTEK4BI","","","","","19","","","","","","","","","","","","","","","","","","","","","",""
"null","","image-button-response","185","1191100","0.0-182.0","A1OKFYVJTEK4BI","img_art/14.jpg","null","","","","","","","","","","","","","","","","","","","","","","","","",""
"325","","image-button-response","186","1191426","0.0-183.0","A1OKFYVJTEK4BI","img_art/14.jpg","1","","","","","","","","","","","","","","","","","","","","","","","","",""
"2882","","image-button-response","187","1194310","0.0-184.0-0.0","A1OKFYVJTEK4BI","img_art/14.jpg","2","","","","","","","","","","","","","","","","","","","","","","","","",""
"1562","","image-button-response","188","1195874","0.0-185.0-0.0","A1OKFYVJTEK4BI","img_art/14.jpg","3","","","","","","","","","","","","","","","","","","","","","","","","",""
"null","","html-keyboard-response","189","1197375","0.0-186.0","A1OKFYVJTEK4BI","<p style=""font-size: 48px;"">+</p>","","","","","null","allTrialResponses","1500","1","20","img_art/14.jpg","19","I like this one, like the colors.","Nicholas,Richard,Evan,Dalton,Brian,Anthony","I love the feeling of the tree and people. Makes me happy,50,240,20","the colors are peaceful and nature colors, soft,37,340,20","I like the sharpness of the lines,20,140,20","nice simple art piece,2,300,20","I don't care for the style,-38,380,20","This piece is average compared to the others.,1,200,20","Richard","the colors are peaceful and nature colors, soft,37,340,20","Evan","I like the sharpness of the lines,20,140,20","Dalton","nice simple art piece,2,300,20","6"
"2994","","survey-text","190","1200377","0.0-187.0-0.0","A1OKFYVJTEK4BI","","","","{""Q0"":""we""}","","","","","","","","","","","","","","","","","","","","","","",""
"14120","","survey-text","191","1214499","0.0-188.0-0.0","A1OKFYVJTEK4BI","","","","{""Q0"":""Not for me.""}","","","","","","","","","","","","","","","","","","","","","","",""
"3862.300000000745","","image-slider-response","192","1218363","0.0-189.0","A1OKFYVJTEK4BI","","","","","-37","","","","","","","","","","","","","","","","","","","","","",""
"null","","image-button-response","193","1223365","0.0-190.0","A1OKFYVJTEK4BI","img_art/5.jpg","null","","","","","","","","","","","","","","","","","","","","","","","","",""
"2052","","image-button-response","194","1225419","0.0-191.0","A1OKFYVJTEK4BI","img_art/5.jpg","0","","","","","","","","","","","","","","","","","","","","","","","","",""
"5758","","image-button-response","195","1231178","0.0-192.0-0.0","A1OKFYVJTEK4BI","img_art/5.jpg","2","","","","","","","","","","","","","","","","","","","","","","","","",""
"5238","","image-button-response","196","1236418","0.0-193.0-0.0","A1OKFYVJTEK4BI","img_art/5.jpg","3","","","","","","","","","","","","","","","","","","","","","","","","",""
"null","","html-keyboard-response","197","1237420","0.0-194.0","A1OKFYVJTEK4BI","<p style=""font-size: 48px;"">+</p>","","","","","null","allTrialResponses","1000","1","21","img_art/5.jpg","-37","Not for me.","Patrick,Richard,Evan,Dalton,Cole,Jake","It looks random,-10,280,20","looks like a 2nd grader did it,-50,340,20","I am confused as to what I am seeing is it a handbag, duck foot, bell?,-18,140,20","its something. i just dont know what it is.,1,300,20","It looks like a poorly drawn pear,17,200,20","This is interesting and nice.,16,360,20","Patrick","It looks random,-10,280,20","Evan","I am confused as to what I am seeing is it a handbag, duck foot, bell?,-18,140,20","Dalton","its something. i just dont know what it is.,1,300,20","6"
"21910","","survey-text","198","1259337","0.0-195.0-0.0","A1OKFYVJTEK4BI","","","","{""Q0"":""Long fingernails...""}","","","","","","","","","","","","","","","","","","","","","","",""
"3338.300000000745","","image-slider-response","199","1262679","0.0-196.0","A1OKFYVJTEK4BI","","","","","-24","","","","","","","","","","","","","","","","","","","","","",""
"null","","image-button-response","200","1267681","0.0-197.0","A1OKFYVJTEK4BI","img_art/4.jpg","null","","","","","","","","","","","","","","","","","","","","","","","","",""
"5544","","image-button-response","201","1273227","0.0-198.0","A1OKFYVJTEK4BI","img_art/4.jpg","5","","","","","","","","","","","","","","","","","","","","","","","","",""
"7486","","image-button-response","202","1280714","0.0-199.0-0.0","A1OKFYVJTEK4BI","img_art/4.jpg","0","","","","","","","","","","","","","","","","","","","","","","","","",""
"12121","","image-button-response","203","1292838","0.0-200.0-0.0","A1OKFYVJTEK4BI","img_art/4.jpg","2","","","","","","","","","","","","","","","","","","","","","","","","",""
"null","","html-keyboard-response","204","1293339","0.0-201.0","A1OKFYVJTEK4BI","<p style=""font-size: 48px;"">+</p>","","","","","null","allTrialResponses","500","1","22","img_art/4.jpg","-24","Long fingernails...","Patrick,Marcus,Evan,Dalton,Nathaniel,Gregory","Random swirls again,-30,280,20","Really like the colors, but don't like the object/squiggle in darker gold and black,4,60,20","I'm disappointed that such a simple piece, with very little effort spent, could be grouped with other detailed pieces,-31,140,20","looks like an award from an award show.,22,300,20","Boring and tasteless. Almost reminds me of when an art gallery called a banana 'art',-42,220,20","Mustard yellow doesn't do it for me,-25,220,20","Gregory","Mustard yellow doesn't do it for me,-25,220,20","Patrick","Random swirls again,-30,280,20","Evan","I'm disappointed that such a simple piece, with very little effort spent, could be grouped with other detailed pieces,-31,140,20","6"
"24924","","survey-text","205","1318269","0.0-202.0-0.0","A1OKFYVJTEK4BI","","","","{""Q0"":""A simple watercolor scene - nothing special.""}","","","","","","","","","","","","","","","","","","","","","","",""
"6002.300000000745","","image-slider-response","206","1324274","0.0-203.0","A1OKFYVJTEK4BI","","","","","1","","","","","","","","","","","","","","","","","","","","","",""
"null","","image-button-response","207","1329276","0.0-204.0","A1OKFYVJTEK4BI","img_art/26.jpg","null","","","","","","","","","","","","","","","","","","","","","","","","",""
"3340","","image-button-response","208","1332618","0.0-205.0","A1OKFYVJTEK4BI","img_art/26.jpg","2","","","","","","","","","","","","","","","","","","","","","","","","",""
"2514","","image-button-response","209","1335134","0.0-206.0-0.0","A1OKFYVJTEK4BI","img_art/26.jpg","5","","","","","","","","","","","","","","","","","","","","","","","","",""
"4710","","image-button-response","210","1339846","0.0-207.0-0.0","A1OKFYVJTEK4BI","img_art/26.jpg","3","","","","","","","","","","","","","","","","","","","","","","","","",""
"null","","html-keyboard-response","211","1341347","0.0-208.0","A1OKFYVJTEK4BI","<p style=""font-size: 48px;"">+</p>","","","","","null","allTrialResponses","1500","1","23","img_art/26.jpg","1","A simple watercolor scene - nothing special.","Patrick,Derek,Evan,Christian,Jesse,Gregory","I can somewhat city a city in this drawing,11,280,20","Looks messy and like it was painted by a small child,-48,360,20","It feels simple and pretty,12,140,20","love the ""lowkey"" vibrant colors that are colorful but at the same time greyscale,12,140,20","Looks bland and boring,-5,80,20","Street corner on a sunny day,5,220,20","Evan","It feels simple and pretty,12,140,20","Gregory","Street corner on a sunny day,5,220,20","Christian","love the ""lowkey"" vibrant colors that are colorful but at the same time greyscale,12,140,20","6"
"20127","","survey-text","212","1361481","0.0-209.0-0.0","A1OKFYVJTEK4BI","","","","{""Q0"":""I love the green, looks voodoo.""}","","","","","","","","","","","","","","","","","","","","","","",""
"4030.2000000011176","","image-slider-response","213","1365512","0.0-210.0","A1OKFYVJTEK4BI","","","","","26","","","","","","","","","","","","","","","","","","","","","",""
"null","","image-button-response","214","1370514","0.0-211.0","A1OKFYVJTEK4BI","img_art/25.jpg","null","","","","","","","","","","","","","","","","","","","","","","","","",""
"4137","","image-button-response","215","1374653","0.0-212.0","A1OKFYVJTEK4BI","img_art/25.jpg","2","","","","","","","","","","","","","","","","","","","","","","","","",""
"3758","","image-button-response","216","1378412","0.0-213.0-0.0","A1OKFYVJTEK4BI","img_art/25.jpg","4","","","","","","","","","","","","","","","","","","","","","","","","",""
"3115","","image-button-response","217","1381530","0.0-214.0-0.0","A1OKFYVJTEK4BI","img_art/25.jpg","1","","","","","","","","","","","","","","","","","","","","","","","","",""
"null","","html-keyboard-response","218","1382531","0.0-215.0","A1OKFYVJTEK4BI","<p style=""font-size: 48px;"">+</p>","","","","","null","allTrialResponses","1000","1","24","img_art/25.jpg","26","I love the green, looks voodoo.","Jason,Jack,Evan,Christian,Mitchell,Gregory","Love the simplicity and lines,20,20,20","beautiful in a primitive way,10,320,20","I really like the green and the fact that it is tattered on the edges,23,140,20","I'm sorry but I don't uderstand this,-20,140,20","culture, tradition. Village people with an honored elder.,40,180,20","Cool color scheme and appears to be a statue of some type of revered god,40,220,20","Evan","I really like the green and the fact that it is tattered on the edges,23,140,20","Mitchell","culture, tradition. Village people with an honored elder.,40,180,20","Jack","beautiful in a primitive way,10,320,20","6"
"18625","","survey-text","219","1401161","0.0-216.0-0.0","A1OKFYVJTEK4BI","","","","{""Q0"":""Looks like an shoreline cliff.""}","","","","","","","","","","","","","","","","","","","","","","",""
"1902.4000000003725","","image-slider-response","220","1403065","0.0-217.0","A1OKFYVJTEK4BI","","","","","12","","","","","","","","","","","","","","","","","","","","","",""
"null","","image-button-response","221","1408067","0.0-218.0","A1OKFYVJTEK4BI","img_art/21.jpg","null","","","","","","","","","","","","","","","","","","","","","","","","",""
"1013","","image-button-response","222","1409081","0.0-219.0","A1OKFYVJTEK4BI","img_art/21.jpg","0","","","","","","","","","","","","","","","","","","","","","","","","",""
"3326","","image-button-response","223","1412409","0.0-220.0-0.0","A1OKFYVJTEK4BI","img_art/21.jpg","1","","","","","","","","","","","","","","","","","","","","","","","","",""
"4070","","image-button-response","224","1416481","0.0-221.0-0.0","A1OKFYVJTEK4BI","img_art/21.jpg","3","","","","","","","","","","","","","","","","","","","","","","","","",""
"null","","html-keyboard-response","225","1417982","0.0-222.0","A1OKFYVJTEK4BI","<p style=""font-size: 48px;"">+</p>","","","","","null","allTrialResponses","1500","1","25","img_art/21.jpg","12","Looks like an shoreline cliff.","Kenneth,Jack,Evan,Hunter,Mitchell,Ian","It actually reminded me of a place I've been to. So I had a positive reaction to it.,22,300,20","beautiful. reminds me of a storm brewing over sea. i love the white dots.,45,320,20","I feel confused,-18,140,20","feels like a harbor scene,11,240,20","Nature, water, ever changing. Cold then warm. Reaction is mostly positive and some negative,30,180,20","This looks very interesting because something is happening but I can't tell what.,28,260,20","Kenneth","It actually reminded me of a place I've been to. So I had a positive reaction to it.,22,300,20","Jack","beautiful. reminds me of a storm brewing over sea. i love the white dots.,45,320,20","Hunter","feels like a harbor scene,11,240,20","6"
"6227","","survey-text","226","1424220","0.0-223.0-0.0","A1OKFYVJTEK4BI","","","","{""Q0"":""table""}","","","","","","","","","","","","","","","","","","","","","","",""
"11475","","survey-text","227","1435696","0.0-224.0-0.0","A1OKFYVJTEK4BI","","","","{""Q0"":""I like this one.""}","","","","","","","","","","","","","","","","","","","","","","",""
"2170.300000000745","","image-slider-response","228","1437868","0.0-225.0","A1OKFYVJTEK4BI","","","","","36","","","","","","","","","","","","","","","","","","","","","",""
"null","","image-button-response","229","1442872","0.0-226.0","A1OKFYVJTEK4BI","img_art/17.jpg","null","","","","","","","","","","","","","","","","","","","","","","","","",""
"2288","","image-button-response","230","1445161","0.0-227.0","A1OKFYVJTEK4BI","img_art/17.jpg","0","","","","","","","","","","","","","","","","","","","","","","","","",""
"6311","","image-button-response","231","1451473","0.0-228.0-0.0","A1OKFYVJTEK4BI","img_art/17.jpg","1","","","","","","","","","","","","","","","","","","","","","","","","",""
"12934","","image-button-response","232","1464409","0.0-229.0-0.0","A1OKFYVJTEK4BI","img_art/17.jpg","4","","","","","","","","","","","","","","","","","","","","","","","","",""
"null","","html-keyboard-response","233","1464910","0.0-230.0","A1OKFYVJTEK4BI","<p style=""font-size: 48px;"">+</p>","","","","","null","allTrialResponses","500","1","26","img_art/17.jpg","36","I like this one.","Kenneth,Jack,Kevin,Hunter,Shane,Matthew","I really like this, especially the tree.,23,300,20","stunning. makes me feel happy, hopeful, serene, and a little wistful.,50,320,20","Some new perm we got there.,12,320,20","impressive attention to subtleties,15,240,20","Pleasant fall to winter day,22,80,20","taste the rainbow, feel the flavor.,23,120,20","Kenneth","I really like this, especially the tree.,23,300,20","Jack","stunning. makes me feel happy, hopeful, serene, and a little wistful.,50,320,20","Shane","Pleasant fall to winter day,22,80,20","6"
"16885","","survey-text","234","1481800","0.0-231.0-0.0","A1OKFYVJTEK4BI","","","","{""Q0"":""Looks like telephone wires.""}","","","","","","","","","","","","","","","","","","","","","","",""
"3114.4000000003725","","image-slider-response","235","1484916","0.0-232.0","A1OKFYVJTEK4BI","","","","","-13","","","","","","","","","","","","","","","","","","","","","",""
"null","","image-button-response","236","1489918","0.0-233.0","A1OKFYVJTEK4BI","img_art/11.jpg","null","","","","","","","","","","","","","","","","","","","","","","","","",""
"1243","","image-button-response","237","1491164","0.0-234.0","A1OKFYVJTEK4BI","img_art/11.jpg","2","","","","","","","","","","","","","","","","","","","","","","","","",""
"5126","","image-button-response","238","1496292","0.0-235.0-0.0","A1OKFYVJTEK4BI","img_art/11.jpg","5","","","","","","","","","","","","","","","","","","","","","","","","",""
"11431","","image-button-response","239","1507725","0.0-236.0-0.0","A1OKFYVJTEK4BI","img_art/11.jpg","3","","","","","","","","","","","","","","","","","","","","","","","","",""
"null","","html-keyboard-response","240","1508727","0.0-237.0","A1OKFYVJTEK4BI","<p style=""font-size: 48px;"">+</p>","","","","","null","allTrialResponses","1000","1","27","img_art/11.jpg","-13","Looks like telephone wires.","Kenneth,Jack,Gabriel,Victor,Shane,John","Its a little psychedelic.,10,300,20","makes me think of city highways & bridges on a rainy, foggy day. I like the melancholy it evokes.,43,320,20","its like telephone wires, or mountains,-17,160,20","Love the colors against the black and gray. The lines are calming.,22,340,20","City on a hill, tranquility,42,80,20","Its interesting.,20,120,20","Gabriel","its like telephone wires, or mountains,-17,160,20","John","Its interesting.,20,120,20","Victor","Love the colors against the black and gray. The lines are calming.,22,340,20","6"
"13553","","survey-text","241","1522284","0.0-238.0-0.0","A1OKFYVJTEK4BI","","","","{""Q0"":""I like the color transition.""}","","","","","","","","","","","","","","","","","","","","","","",""
"3194.4000000003725","","image-slider-response","242","1525480","0.0-239.0","A1OKFYVJTEK4BI","","","","","17","","","","","","","","","","","","","","","","","","","","","",""
"null","","image-button-response","243","1530482","0.0-240.0","A1OKFYVJTEK4BI","img_art/12.jpg","null","","","","","","","","","","","","","","","","","","","","","","","","",""
"701","","image-button-response","244","1531184","0.0-241.0","A1OKFYVJTEK4BI","img_art/12.jpg","3","","","","","","","","","","","","","","","","","","","","","","","","",""
"3023","","image-button-response","245","1534208","0.0-242.0-0.0","A1OKFYVJTEK4BI","img_art/12.jpg","5","","","","","","","","","","","","","","","","","","","","","","","","",""
"4846","","image-button-response","246","1539056","0.0-243.0-0.0","A1OKFYVJTEK4BI","img_art/12.jpg","0","","","","","","","","","","","","","","","","","","","","","","","","",""
"null","","html-keyboard-response","247","1539557","0.0-244.0","A1OKFYVJTEK4BI","<p style=""font-size: 48px;"">+</p>","","","","","null","allTrialResponses","500","1","28","img_art/12.jpg","17","I like the color transition.","Devin,Malik,Gabriel,Victor,Timothy,John","Love the shapes here,12,380,20","I don't like it, but I appreciate the effort and technique,11,40,20","dont like the squares,-16,160,20","I like the colors and pattern,21,340,20","The shapes make me feel a bit uncomfortable,-10,240,20","Its cool,reminiscent of Andy Warhol type of style,10,120,20","Victor","I like the colors and pattern,21,340,20","John","Its cool,reminiscent of Andy Warhol type of style,10,120,20","Devin","Love the shapes here,12,380,20","6"
"12320","","survey-text","248","1551883","0.0-245.0-0.0","A1OKFYVJTEK4BI","","","","{""Q0"":""not bad.""}","","","","","","","","","","","","","","","","","","","","","","",""
"4054.199999999255","","image-slider-response","249","1555939","0.0-246.0","A1OKFYVJTEK4BI","","","","","2","","","","","","","","","","","","","","","","","","","","","",""
"null","","image-button-response","250","1560941","0.0-247.0","A1OKFYVJTEK4BI","img_art/15.jpg","null","","","","","","","","","","","","","","","","","","","","","","","","",""
"1501","","image-button-response","251","1562443","0.0-248.0","A1OKFYVJTEK4BI","img_art/15.jpg","0","","","","","","","","","","","","","","","","","","","","","","","","",""
"1320","","image-button-response","252","1563765","0.0-249.0-0.0","A1OKFYVJTEK4BI","img_art/15.jpg","3","","","","","","","","","","","","","","","","","","","","","","","","",""
"12290","","image-button-response","253","1576057","0.0-250.0-0.0","A1OKFYVJTEK4BI","img_art/15.jpg","4","","","","","","","","","","","","","","","","","","","","","","","","",""
"null","","html-keyboard-response","254","1577558","0.0-251.0","A1OKFYVJTEK4BI","<p style=""font-size: 48px;"">+</p>","","","","","null","allTrialResponses","1500","1","29","img_art/15.jpg","2","not bad.","Devin,Christopher,Alexis,Victor,Tristan,John","Simple but needs some more detail somehow,-3,380,20","this is really pretty! i like the pops of blue in all the black,26,160,20","it is dark and gloomy,-9,140,20","I like the random blue dabs to break up the black, but it looks unfinished.,4,340,20","basic colors and pleasing shapes providing a calming effect,15,300,20","Uninteresting and too much black,-30,120,20","Devin","Simple but needs some more detail somehow,-3,380,20","Victor","I like the random blue dabs to break up the black, but it looks unfinished.,4,340,20","Tristan","basic colors and pleasing shapes providing a calming effect,15,300,20","6"
"22868","","survey-text","255","1600431","0.0-252.0-0.0","A1OKFYVJTEK4BI","","","","{""Q0"":""dancers? orchestra?""}","","","","","","","","","","","","","","","","","","","","","","",""
"2826.300000000745","","image-slider-response","256","1603259","0.0-253.0","A1OKFYVJTEK4BI","","","","","8","","","","","","","","","","","","","","","","","","","","","",""
"null","","image-button-response","257","1608261","0.0-254.0","A1OKFYVJTEK4BI","img_art/23.jpg","null","","","","","","","","","","","","","","","","","","","","","","","","",""
"6084","","image-button-response","258","1614347","0.0-255.0","A1OKFYVJTEK4BI","img_art/23.jpg","3","","","","","","","","","","","","","","","","","","","","","","","","",""
"4826","","image-button-response","259","1619175","0.0-256.0-0.0","A1OKFYVJTEK4BI","img_art/23.jpg","2","","","","","","","","","","","","","","","","","","","","","","","","",""
"6216","","image-button-response","260","1625393","0.0-257.0-0.0","A1OKFYVJTEK4BI","img_art/23.jpg","4","","","","","","","","","","","","","","","","","","","","","","","","",""
"null","","html-keyboard-response","261","1625898","0.0-258.0","A1OKFYVJTEK4BI","<p style=""font-size: 48px;"">+</p>","","","","","null","allTrialResponses","500","1","30","img_art/23.jpg","8","dancers? orchestra?","Devin,Jose,Caleb,Victor,Tristan,Grant","background is great but the white is a bit weird,3,380,20","This one is awesome, kinda looks like a cake with sprinkles but in a different universe,50,200,20","Very colorful. Nice contrasts.,26,40,20","I like the colors, the tiny dots, and the contrast between the white and background,28,340,20","So exciting and full of the night.,20,300,20","It reminds me of being in a crowded place.,-10,200,20","Victor","I like the colors, the tiny dots, and the contrast between the white and background,28,340,20","Caleb","Very colorful. Nice contrasts.,26,40,20","Tristan","So exciting and full of the night.,20,300,20","6"
"5310","","image-button-response_instructions","262","1631216","0.0-259.0","A1OKFYVJTEK4BI","","0","instructions","","","","","","","","","","","","","","","","","","","","","","","",""
"1283","","image-button-response","263","1632504","0.0-260.0","A1OKFYVJTEK4BI","","0","","","","","","","","","","","","","","","","","","","","","","","","",""
