"rt","url","trial_type","trial_index","time_elapsed","internal_node_id","participant_id","stimulus","button_pressed","Name","responses","response","key_press","variableName","fixationTime","condition","trial","photo","subjectRating","subjectResponse","agentsNames","agent_1_Response","agent_2_Response","agent_3_Response","agent_4_Response","agent_5_Response","agent_6_Response","kept_1_name","kept_1_response","kept_2_name","kept_2_response","kept_3_name","kept_3_response","errorCounter"
"4819","external_page_harvard.html","external-html","0","4867","0.0-0.0","A1OU8F92A7M3MR","","","","","","","","","","","","","","","","","","","","","","","","","","",""
"1667","","image-button-response","1","6536","0.0-1.0","A1OU8F92A7M3MR","","1","","","","","","","","","","","","","","","","","","","","","","","","",""
"1178","","image-button-response","2","7718","0.0-2.0-0.0","A1OU8F92A7M3MR","","1","phone","","","","","","","","","","","","","","","","","","","","","","","",""
"14698","","survey-text","3","22418","0.0-3.0-0.0","A1OU8F92A7M3MR","","","","{""Q0"":""A1OU8F92A7M3MR""}","","","","","","","","","","","","","","","","","","","","","","",""
"10492","","image-button-response_instructions","4","32912","0.0-4.0","A1OU8F92A7M3MR","","0","instructions","","","","","","","","","","","","","","","","","","","","","","","",""
"7649","","image-button-response_instructions","5","40562","0.0-5.0","A1OU8F92A7M3MR","img_art/ins/popularity/ins1.png","0","instructions","","","","","","","","","","","","","","","","","","","","","","","",""
"2256","","image-button-response_instructions","6","42819","0.0-6.0","A1OU8F92A7M3MR","img_art/ins/popularity/ins2.png","0","instructions","","","","","","","","","","","","","","","","","","","","","","","",""
"5433","","image-button-response_instructions","7","48254","0.0-7.0","A1OU8F92A7M3MR","img_art/ins/popularity/ins2Extreme.png","0","instructions","","","","","","","","","","","","","","","","","","","","","","","",""
"3469","","image-button-response_instructions","8","51724","0.0-8.0","A1OU8F92A7M3MR","img_art/ins/popularity/ins3KEEPpop.PNG","0","instructions","","","","","","","","","","","","","","","","","","","","","","","",""
"2101","","image-button-response_instructions","9","53826","0.0-9.0","A1OU8F92A7M3MR","img_art/ins/popularity/ins3ANamepop.PNG","0","instructions","","","","","","","","","","","","","","","","","","","","","","","",""
"997","","image-button-response_instructions","10","54824","0.0-10.0","A1OU8F92A7M3MR","img_art/ins/popularity/ins3ARatingpop.png","0","instructions","","","","","","","","","","","","","","","","","","","","","","","",""
"2031","","image-button-response_instructions","11","56856","0.0-11.0","A1OU8F92A7M3MR","img_art/ins/popularity/ins3ATextpop.png","0","instructions","","","","","","","","","","","","","","","","","","","","","","","",""
"2349","","image-button-response_instructions","12","59206","0.0-12.0","A1OU8F92A7M3MR","img_art/ins/popularity/ins3ALikespop.png","0","instructions","","","","","","","","","","","","","","","","","","","","","","","",""
"1575","","image-button-response_instructions","13","60782","0.0-13.0","A1OU8F92A7M3MR","img_art/ins/popularity/ins3KEEPpop.PNG","0","instructions","","","","","","","","","","","","","","","","","","","","","","","",""
"857","","image-button-response_instructions","14","61640","0.0-14.0","A1OU8F92A7M3MR","img_art/ins/popularity/ins3_5RED.png","0","instructions","","","","","","","","","","","","","","","","","","","","","","","",""
"1105","","image-button-response_instructions","15","62746","0.0-15.0","A1OU8F92A7M3MR","img_art/ins/popularity/ins3KEEPpop.PNG","0","instructions","","","","","","","","","","","","","","","","","","","","","","","",""
"749","","image-button-response_instructions","16","63496","0.0-16.0","A1OU8F92A7M3MR","img_art/ins/popularity/ins4KEEPpop.PNG","0","instructions","","","","","","","","","","","","","","","","","","","","","","","",""
"849","","image-button-response_instructions","17","64346","0.0-17.0","A1OU8F92A7M3MR","img_art/ins/popularity/ins5KEEPpop.PNG","0","instructions","","","","","","","","","","","","","","","","","","","","","","","",""
"1111","","image-button-response_instructions","18","65458","0.0-18.0","A1OU8F92A7M3MR","","0","instructions","","","","","","","","","","","","","","","","","","","","","","","",""
"6943","","survey-text","19","72424","0.0-19.0-0.0","A1OU8F92A7M3MR","","","","{""Q0"":""but""}","","","","","","","","","","","","","","","","","","","","","","",""
"16732","","survey-text","20","89158","0.0-20.0-0.0","A1OU8F92A7M3MR","","","","{""Q0"":""kinda busy for my taste""}","","","","","","","","","","","","","","","","","","","","","","",""
"3011.599999964237","","image-slider-response","21","92172","0.0-21.0","A1OU8F92A7M3MR","","","","","-24","","","","","","","","","","","","","","","","","","","","","",""
"null","","image-button-response","22","97179","0.0-22.0","A1OU8F92A7M3MR","img_art/ins/1.jpg","null","","","","","","","","","","","","","","","","","","","","","","","","",""
"5589","","image-button-response","23","102772","0.0-23.0","A1OU8F92A7M3MR","img_art/ins/1.jpg","1","","","","","","","","","","","","","","","","","","","","","","","","",""
"1952","","image-button-response","24","104726","0.0-24.0-0.0","A1OU8F92A7M3MR","img_art/ins/1.jpg","2","","","","","","","","","","","","","","","","","","","","","","","","",""
"2016","","image-button-response","25","106744","0.0-25.0-0.0","A1OU8F92A7M3MR","img_art/ins/1.jpg","5","","","","","","","","","","","","","","","","","","","","","","","","",""
"null","","html-keyboard-response","26","107247","0.0-26.0","A1OU8F92A7M3MR","<p style=""font-size: 48px;"">+</p>","","","","","null","allTrialResponses","500","1","-2","img_art/ins/1.jpg","-24","kinda busy for my taste","Allison,Ashley,Beth,Dora,Erika,Jen","looks like a lot of things going on in the mist,20,20,20","I just don't get why these type of art would be popular,-32,40,20","This color reminds me of poo,-46,60,20","looks like what my niece in 3rd grade did this afternoon,-50,80,20","I like the sophisticated brushwork,40,100,20","It reminds me of a candy land dream I had,36,120,20","Ashley","I just don't get why these type of art would be popular,-32,40,20","Beth","This color reminds me of poo,-46,60,20","Jen","It reminds me of a candy land dream I had,36,120,20","0"
"14343","","survey-text","27","121600","0.0-27.0-0.0","A1OU8F92A7M3MR","","","","{""Q0"":""this is wierd""}","","","","","","","","","","","","","","","","","","","","","","",""
"5827.199999988079","","image-slider-response","28","127429","0.0-28.0","A1OU8F92A7M3MR","","","","","-9","","","","","","","","","","","","","","","","","","","","","",""
"1572","","image-button-response","29","132433","0.0-29.0","A1OU8F92A7M3MR","img_art/ins/2.jpg","2","","","","","","","","","","","","","","","","","","","","","","","","",""
"539","","image-button-response","30","132976","0.0-30.0","A1OU8F92A7M3MR","img_art/ins/2.jpg","2","","","","","","","","","","","","","","","","","","","","","","","","",""
"848","","image-button-response","31","133826","0.0-31.0-0.0","A1OU8F92A7M3MR","img_art/ins/2.jpg","1","","","","","","","","","","","","","","","","","","","","","","","","",""
"1204","","image-button-response","32","135032","0.0-32.0-0.0","A1OU8F92A7M3MR","img_art/ins/2.jpg","0","","","","","","","","","","","","","","","","","","","","","","","","",""
"null","","html-keyboard-response","33","136034","0.0-33.0","A1OU8F92A7M3MR","<p style=""font-size: 48px;"">+</p>","","","","","null","allTrialResponses","1000","1","-1","img_art/ins/2.jpg","-9","this is wierd","Katie,Ashley,Beth,Jenna,Kara,Jen","too much color!,-28,180,20","Idk, it is just annoying,-32,40,20","meaningless painting,-45,60,20","One of my pet peevs,-48,140,20","I like the blocks of color arrangements,30,160,20","It reminds me of a fireplace,36,120,20","Beth","meaningless painting,-45,60,20","Ashley","Idk, it is just annoying,-32,40,20","Katie","too much color!,-28,180,20","0"
"7507","","survey-text","34","143547","0.0-34.0-0.0","A1OU8F92A7M3MR","","","","{""Q0"":""wow, that's BLUE""}","","","","","","","","","","","","","","","","","","","","","","",""
"2958.599999964237","","image-slider-response","35","146508","0.0-35.0","A1OU8F92A7M3MR","","","","","13","","","","","","","","","","","","","","","","","","","","","",""
"4156","","image-button-response","36","151511","0.0-36.0","A1OU8F92A7M3MR","img_art/ins/3.jpg","3","","","","","","","","","","","","","","","","","","","","","","","","",""
"565","","image-button-response","37","152080","0.0-37.0","A1OU8F92A7M3MR","img_art/ins/3.jpg","4","","","","","","","","","","","","","","","","","","","","","","","","",""
"1118","","image-button-response","38","153200","0.0-38.0-0.0","A1OU8F92A7M3MR","img_art/ins/3.jpg","5","","","","","","","","","","","","","","","","","","","","","","","","",""
"1946","","image-button-response","39","155148","0.0-39.0-0.0","A1OU8F92A7M3MR","img_art/ins/3.jpg","3","","","","","","","","","","","","","","","","","","","","","","","","",""
"null","","html-keyboard-response","40","155662","0.0-40.0","A1OU8F92A7M3MR","<p style=""font-size: 48px;"">+</p>","","","","","null","allTrialResponses","500","1","0","img_art/ins/3.jpg","13","wow, that's BLUE","Katie,Ashley,Beth,Leslie,Mary,Rose","It looks depressing,-26,180,20","It looks like a playground for bats,-36,40,20","This thing gives me anxiety,-41,60,20","It's an alright work,15,200,20","I like the overlapping of brushes,41,220,20","My daily routine, it's depressing,-20,240,20","Mary","I like the overlapping of brushes,41,220,20","Rose","My daily routine, it's depressing,-20,240,20","Leslie","It's an alright work,15,200,20","0"
"6519","","image-button-response_instructions","41","162187","0.0-41.0","A1OU8F92A7M3MR","","0","instructions","","","","","","","","","","","","","","","","","","","","","","","",""
"8997","","survey-likert","42","171186","0.0-42.0-0.0","A1OU8F92A7M3MR","","","","{""Q0"":"""",""Q1"":0,""Q2"":1}","","","","","","","","","","","","","","","","","","","","","","",""
"9648","","survey-text","43","180838","0.0-43.0-0.0","A1OU8F92A7M3MR","","","","{""Q0"":""rock""}","","","","","","","","","","","","","","","","","","","","","","",""
"7983","","survey-text","44","188822","0.0-44.0-0.0","A1OU8F92A7M3MR","","","","{""Q0"":""Lovely.  ""}","","","","","","","","","","","","","","","","","","","","","","",""
"2596","","image-slider-response","45","191420","0.0-45.0","A1OU8F92A7M3MR","","","","","37","","","","","","","","","","","","","","","","","","","","","",""
"2284","","image-button-response","46","196462","0.0-46.0","A1OU8F92A7M3MR","img_art/27.jpg","5","","","","","","","","","","","","","","","","","","","","","","","","",""
"465","","image-button-response","47","196931","0.0-47.0","A1OU8F92A7M3MR","img_art/27.jpg","4","","","","","","","","","","","","","","","","","","","","","","","","",""
"5130","","image-button-response","48","202062","0.0-48.0-0.0","A1OU8F92A7M3MR","img_art/27.jpg","0","","","","","","","","","","","","","","","","","","","","","","","","",""
"1126","","image-button-response","49","203191","0.0-49.0-0.0","A1OU8F92A7M3MR","img_art/27.jpg","5","","","","","","","","","","","","","","","","","","","","","","","","",""
"null","","html-keyboard-response","50","204693","0.0-50.0","A1OU8F92A7M3MR","<p style=""font-size: 48px;"">+</p>","","","","","null","allTrialResponses","1500","1","1","img_art/27.jpg","37","Lovely.  ","Katie,Abigail,Angela,Mackenzie,Makayla,Lindsey","Fire, explosion. Red/orange colors are fire/explosion. White is smoke. Makes me worried/scared/anxious,-20,160,20","Looks like a little kids drawing,20,20,20","It's okay. Not really interesting to me.,-10,260,20","The color palette isn't my taste,-24,20,20","Calming sky , relaxing,23,80,20","Looks like my niece's doodles.,-50,400,20","Makayla","Calming sky , relaxing,23,80,20","Katie","Fire, explosion. Red/orange colors are fire/explosion. White is smoke. Makes me worried/scared/anxious,-20,160,20","Lindsey","Looks like my niece's doodles.,-50,400,20","0"
"8866","","survey-text","51","213566","0.0-51.0-0.0","A1OU8F92A7M3MR","","","","{""Q0"":""do NOT like""}","","","","","","","","","","","","","","","","","","","","","","",""
"2548.300000011921","","image-slider-response","52","216116","0.0-52.0","A1OU8F92A7M3MR","","","","","-44","","","","","","","","","","","","","","","","","","","","","",""
"1815","","image-button-response","53","221131","0.0-53.0","A1OU8F92A7M3MR","img_art/18.jpg","2","","","","","","","","","","","","","","","","","","","","","","","","",""
"240","","image-button-response","54","221372","0.0-54.0","A1OU8F92A7M3MR","img_art/18.jpg","2","","","","","","","","","","","","","","","","","","","","","","","","",""
"865","","image-button-response","55","222238","0.0-55.0-0.0","A1OU8F92A7M3MR","img_art/18.jpg","0","","","","","","","","","","","","","","","","","","","","","","","","",""
"1876","","image-button-response","56","224116","0.0-56.0-0.0","A1OU8F92A7M3MR","img_art/18.jpg","4","","","","","","","","","","","","","","","","","","","","","","","","",""
"null","","html-keyboard-response","57","225618","0.0-57.0","A1OU8F92A7M3MR","<p style=""font-size: 48px;"">+</p>","","","","","null","allTrialResponses","1500","1","2","img_art/18.jpg","-44","do NOT like","Katie,Mary,Mikayla,Nicole,Makayla,Lindsey","Looks messy. Reminds me of a battle or war. I have an unpleasant feeling the more I look.,-20,160,20","I like the expression of this piece. The colors are very outdated though.,-5,180,20","Kinda boring. Not my favorite,-34,300,20","There's danger in this painting and it's awesome,40,20,20","I'm not partial to the design, unsettling,2,80,20","Interesting piece - gives you more the more you look at it. I like it but wouldn't buy it.,11,400,20","Mikayla","Kinda boring. Not my favorite,-34,300,20","Katie","Looks messy. Reminds me of a battle or war. I have an unpleasant feeling the more I look.,-20,160,20","Makayla","I'm not partial to the design, unsettling,2,80,20","0"
"6890","","survey-text","58","232518","0.0-58.0-0.0","A1OU8F92A7M3MR","","","","{""Q0"":""not a fan""}","","","","","","","","","","","","","","","","","","","","","","",""
"3022.800000011921","","image-slider-response","59","235542","0.0-59.0","A1OU8F92A7M3MR","","","","","-42","","","","","","","","","","","","","","","","","","","","","",""
"3655","","image-button-response","60","240560","0.0-60.0","A1OU8F92A7M3MR","img_art/12.jpg","2","","","","","","","","","","","","","","","","","","","","","","","","",""
"1395","","image-button-response","61","241956","0.0-61.0","A1OU8F92A7M3MR","img_art/12.jpg","2","","","","","","","","","","","","","","","","","","","","","","","","",""
"3701","","image-button-response","62","245658","0.0-62.0-0.0","A1OU8F92A7M3MR","img_art/12.jpg","3","","","","","","","","","","","","","","","","","","","","","","","","",""
"2178","","image-button-response","63","247839","0.0-63.0-0.0","A1OU8F92A7M3MR","img_art/12.jpg","4","","","","","","","","","","","","","","","","","","","","","","","","",""
"null","","html-keyboard-response","64","249351","0.0-64.0","A1OU8F92A7M3MR","<p style=""font-size: 48px;"">+</p>","","","","","null","allTrialResponses","1500","1","3","img_art/12.jpg","-42","not a fan","Katie,Jamie,Mikayla,Kimberly,Makayla,Katherine","Squares are rigid. I'm ambivalent.,1,160,20","Black and white contrast with color looks nice,15,320,20","A little bit boring.,-24,300,20","Just not a fan, I can't figure out why,-17,260,20","Reminds me Early 2000's decor, don't favor it,-10,80,20","Not sure why but this is my favorite. I'd put it on my wall,50,120,20","Mikayla","A little bit boring.,-24,300,20","Kimberly","Just not a fan, I can't figure out why,-17,260,20","Makayla","Reminds me Early 2000's decor, don't favor it,-10,80,20","0"
"7934","","survey-text","65","257292","0.0-65.0-0.0","A1OU8F92A7M3MR","","","","{""Q0"":""not my style""}","","","","","","","","","","","","","","","","","","","","","","",""
"2804.300000011921","","image-slider-response","66","260098","0.0-66.0","A1OU8F92A7M3MR","","","","","-44","","","","","","","","","","","","","","","","","","","","","",""
"4993","","image-button-response","67","265101","0.0-67.0","A1OU8F92A7M3MR","img_art/16.jpg","0","","","","","","","","","","","","","","","","","","","","","","","","",""
"653","","image-button-response","68","265756","0.0-68.0","A1OU8F92A7M3MR","img_art/16.jpg","0","","","","","","","","","","","","","","","","","","","","","","","","",""
"765","","image-button-response","69","266522","0.0-69.0-0.0","A1OU8F92A7M3MR","img_art/16.jpg","1","","","","","","","","","","","","","","","","","","","","","","","","",""
"994","","image-button-response","70","267518","0.0-70.0-0.0","A1OU8F92A7M3MR","img_art/16.jpg","2","","","","","","","","","","","","","","","","","","","","","","","","",""
"null","","html-keyboard-response","71","268023","0.0-71.0","A1OU8F92A7M3MR","<p style=""font-size: 48px;"">+</p>","","","","","null","allTrialResponses","500","1","4","img_art/16.jpg","-44","not my style","Jacqueline,Breanna,Mikayla,Kimberly,Makayla,Amber","Seems very twisted and dark.,-35,300,20","The bear is terrifying,-50,380,20","The teddy bear is scary as hell.,-44,300,20","Weird and creepy,-30,260,20","It's a little unsettling,2,80,20","Don't like the teddy bear. It takes away from the painting.,-39,200,20","Jacqueline","Seems very twisted and dark.,-35,300,20","Breanna","The bear is terrifying,-50,380,20","Mikayla","The teddy bear is scary as hell.,-44,300,20","0"
"8720","","survey-text","72","276748","0.0-72.0-0.0","A1OU8F92A7M3MR","","","","{""Q0"":""A kid could do this""}","","","","","","","","","","","","","","","","","","","","","","",""
"2156.800000011921","","image-slider-response","73","278906","0.0-73.0","A1OU8F92A7M3MR","","","","","-20","","","","","","","","","","","","","","","","","","","","","",""
"4365","","image-button-response","74","283913","0.0-74.0","A1OU8F92A7M3MR","img_art/22.jpg","0","","","","","","","","","","","","","","","","","","","","","","","","",""
"770","","image-button-response","75","284686","0.0-75.0","A1OU8F92A7M3MR","img_art/22.jpg","1","","","","","","","","","","","","","","","","","","","","","","","","",""
"764","","image-button-response","76","285452","0.0-76.0-0.0","A1OU8F92A7M3MR","img_art/22.jpg","0","","","","","","","","","","","","","","","","","","","","","","","","",""
"1112","","image-button-response","77","286566","0.0-77.0-0.0","A1OU8F92A7M3MR","img_art/22.jpg","2","","","","","","","","","","","","","","","","","","","","","","","","",""
"null","","html-keyboard-response","78","287072","0.0-78.0","A1OU8F92A7M3MR","<p style=""font-size: 48px;"">+</p>","","","","","null","allTrialResponses","500","1","5","img_art/22.jpg","-20","A kid could do this","Jacqueline,Breanna,Mikayla,Melissa,Meghan,Chloe","I feel like I've seen this one already.,-9,300,20","Makes me feel a bit anxious,6,380,20","So colorful i love it!,22,300,20","strong blending skills,7,240,20","really beautiful colors and contrast,30,220,20","Still like the colors but not the most interesting composition,17,220,20","Breanna","Makes me feel a bit anxious,6,380,20","Jacqueline","I feel like I've seen this one already.,-9,300,20","Mikayla","So colorful i love it!,22,300,20","0"
"3100","","survey-text","79","290183","0.0-79.0-0.0","A1OU8F92A7M3MR","","","","{""Q0"":""sky""}","","","","","","","","","","","","","","","","","","","","","","",""
"10452","","survey-text","80","300640","0.0-80.0-0.0","A1OU8F92A7M3MR","","","","{""Q0"":""kindergarten painting""}","","","","","","","","","","","","","","","","","","","","","","",""
"2981","","image-slider-response","81","303622","0.0-81.0","A1OU8F92A7M3MR","","","","","-33","","","","","","","","","","","","","","","","","","","","","",""
"4034","","image-button-response","82","308639","0.0-82.0","A1OU8F92A7M3MR","img_art/30.jpg","1","","","","","","","","","","","","","","","","","","","","","","","","",""
"375","","image-button-response","83","309018","0.0-83.0","A1OU8F92A7M3MR","img_art/30.jpg","1","","","","","","","","","","","","","","","","","","","","","","","","",""
"38242","","image-button-response","84","347262","0.0-84.0-0.0","A1OU8F92A7M3MR","img_art/30.jpg","2","","","","","","","","","","","","","","","","","","","","","","","","",""
"802","","image-button-response","85","348066","0.0-85.0-0.0","A1OU8F92A7M3MR","img_art/30.jpg","0","","","","","","","","","","","","","","","","","","","","","","","","",""
"null","","html-keyboard-response","86","349567","0.0-86.0","A1OU8F92A7M3MR","<p style=""font-size: 48px;"">+</p>","","","","","null","allTrialResponses","1500","1","6","img_art/30.jpg","-33","kindergarten painting","Jacqueline,Breanna,Mikayla,Molly,Katelyn,Kaitlin","Too dark and ugly with all the black smears,-20,300,20","Paint scribbled on canvas,-25,380,20","Very colorful! Wow!,22,300,20","I like the way the artist has painted his work.,40,340,20","I do like the multi-dimensional aspect of this piece,10,100,20","the different roads to take in life,10,60,20","Breanna","Paint scribbled on canvas,-25,380,20","Mikayla","Very colorful! Wow!,22,300,20","Jacqueline","Too dark and ugly with all the black smears,-20,300,20","0"
"5262","","survey-text","87","354835","0.0-87.0-0.0","A1OU8F92A7M3MR","","","","{""Q0"":""nope""}","","","","","","","","","","","","","","","","","","","","","","",""
"5540","","survey-text","88","362133","0.0-87.1-0.1","A1OU8F92A7M3MR","","","","{""Q0"":""no thanks""}","","","","","","","","","","","","","","","","","","","","","","",""
"2308.399999976158","","image-slider-response","89","364443","0.0-88.0","A1OU8F92A7M3MR","","","","","-35","","","","","","","","","","","","","","","","","","","","","",""
"4529","","image-button-response","90","369457","0.0-89.0","A1OU8F92A7M3MR","img_art/15.jpg","3","","","","","","","","","","","","","","","","","","","","","","","","",""
"417","","image-button-response","91","369878","0.0-90.0","A1OU8F92A7M3MR","img_art/15.jpg","3","","","","","","","","","","","","","","","","","","","","","","","","",""
"1468","","image-button-response","92","371348","0.0-91.0-0.0","A1OU8F92A7M3MR","img_art/15.jpg","1","","","","","","","","","","","","","","","","","","","","","","","","",""
"1790","","image-button-response","93","373140","0.0-92.0-0.0","A1OU8F92A7M3MR","img_art/15.jpg","0","","","","","","","","","","","","","","","","","","","","","","","","",""
"null","","html-keyboard-response","94","373641","0.0-93.0","A1OU8F92A7M3MR","<p style=""font-size: 48px;"">+</p>","","","","","null","allTrialResponses","500","1","7","img_art/15.jpg","-35","no thanks","Jacqueline,Breanna,Mikayla,Samantha,Mariah,Anna","I don't like how the black dots are aligned.,-20,300,20","Makes me feel weird,-16,380,20","The dots are cool with the blue accents.,24,300,20","Not interesting enough. Boring,-37,140,20","It is visually appealing, stark and simple but natural.,41,140,20","I like how it's simple but beautiful.,40,300,20","Samantha","Not interesting enough. Boring,-37,140,20","Breanna","Makes me feel weird,-16,380,20","Jacqueline","I don't like how the black dots are aligned.,-20,300,20","0"
"6344","","survey-text","95","379995","0.0-94.0-0.0","A1OU8F92A7M3MR","","","","{""Q0"":""whatevah""}","","","","","","","","","","","","","","","","","","","","","","",""
"3112.599999964237","","image-slider-response","96","383109","0.0-95.0","A1OU8F92A7M3MR","","","","","-50","","","","","","","","","","","","","","","","","","","","","",""
"2418","","image-button-response","97","388115","0.0-96.0","A1OU8F92A7M3MR","img_art/28.jpg","2","","","","","","","","","","","","","","","","","","","","","","","","",""
"513","","image-button-response","98","388630","0.0-97.0","A1OU8F92A7M3MR","img_art/28.jpg","2","","","","","","","","","","","","","","","","","","","","","","","","",""
"770","","image-button-response","99","389402","0.0-98.0-0.0","A1OU8F92A7M3MR","img_art/28.jpg","1","","","","","","","","","","","","","","","","","","","","","","","","",""
"1150","","image-button-response","100","390553","0.0-99.0-0.0","A1OU8F92A7M3MR","img_art/28.jpg","0","","","","","","","","","","","","","","","","","","","","","","","","",""
"null","","html-keyboard-response","101","391055","0.0-100.0","A1OU8F92A7M3MR","<p style=""font-size: 48px;"">+</p>","","","","","null","allTrialResponses","500","1","8","img_art/28.jpg","-50","whatevah","Jacqueline,Breanna,Tiffany,Samantha,Ashley,Haley","I don't like the washed out colors.,-15,300,20","The colors are depressing,-5,380,20","It makes me feel happy, and a little anxious.,50,360,20","Interesting and weird. Perfect conversational piece,33,140,20","Normally don't react well to abstract art, but it looks almost like something's there.,28,320,20","I can't explain why, but I really love this one,50,220,20","Tiffany","It makes me feel happy, and a little anxious.,50,360,20","Breanna","The colors are depressing,-5,380,20","Jacqueline","I don't like the washed out colors.,-15,300,20","0"
"7278","","survey-text","102","398341","0.0-101.0-0.0","A1OU8F92A7M3MR","","","","{""Q0"":""nice stuff here""}","","","","","","","","","","","","","","","","","","","","","","",""
"3066.5","","image-slider-response","103","401409","0.0-102.0","A1OU8F92A7M3MR","","","","","42","","","","","","","","","","","","","","","","","","","","","",""
"null","","image-button-response","104","406412","0.0-103.0","A1OU8F92A7M3MR","img_art/24.jpg","null","","","","","","","","","","","","","","","","","","","","","","","","",""
"302","","image-button-response","105","406718","0.0-104.0","A1OU8F92A7M3MR","img_art/24.jpg","4","","","","","","","","","","","","","","","","","","","","","","","","",""
"1452","","image-button-response","106","408172","0.0-105.0-0.0","A1OU8F92A7M3MR","img_art/24.jpg","3","","","","","","","","","","","","","","","","","","","","","","","","",""
"1180","","image-button-response","107","409354","0.0-106.0-0.0","A1OU8F92A7M3MR","img_art/24.jpg","1","","","","","","","","","","","","","","","","","","","","","","","","",""
"null","","html-keyboard-response","108","410856","0.0-107.0","A1OU8F92A7M3MR","<p style=""font-size: 48px;"">+</p>","","","","","null","allTrialResponses","1500","1","9","img_art/24.jpg","42","nice stuff here","Jacqueline,Breanna,Tiffany,Allison,Autumn,Destiny","This one isn't that abstract. It clearly looks like a waterfall.,31,300,20","Like it, nice attention to details,31,380,20","I feel relaxed and happy, looking at the stream, but it feels hollow, like something is fake.,5,360,20","I appreciate the earth tones. Soothing.,5,140,20","Very cute amateur piece.,18,340,20","brick wall waterfall girl you think you got it all,50,360,20","Autumn","Very cute amateur piece.,18,340,20","Allison","I appreciate the earth tones. Soothing.,5,140,20","Breanna","Like it, nice attention to details,31,380,20","0"
"7888","","survey-text","109","418752","0.0-108.0-0.0","A1OU8F92A7M3MR","","","","{""Q0"":""nah, boring""}","","","","","","","","","","","","","","","","","","","","","","",""
"2214.699999988079","","image-slider-response","110","420968","0.0-109.0","A1OU8F92A7M3MR","","","","","-21","","","","","","","","","","","","","","","","","","","","","",""
"2788","","image-button-response","111","425978","0.0-110.0","A1OU8F92A7M3MR","img_art/7.jpg","2","","","","","","","","","","","","","","","","","","","","","","","","",""
"558","","image-button-response","112","426540","0.0-111.0","A1OU8F92A7M3MR","img_art/7.jpg","2","","","","","","","","","","","","","","","","","","","","","","","","",""
"1360","","image-button-response","113","427902","0.0-112.0-0.0","A1OU8F92A7M3MR","img_art/7.jpg","0","","","","","","","","","","","","","","","","","","","","","","","","",""
"2678","","image-button-response","114","430582","0.0-113.0-0.0","A1OU8F92A7M3MR","img_art/7.jpg","5","","","","","","","","","","","","","","","","","","","","","","","","",""
"null","","html-keyboard-response","115","431584","0.0-114.0","A1OU8F92A7M3MR","<p style=""font-size: 48px;"">+</p>","","","","","null","allTrialResponses","1000","1","10","img_art/7.jpg","-21","nah, boring","Leslie,Breanna,Elizabeth,Allison,Autumn,Caitlin","This elicits no reaction in me.,0,380,20","Not highly impressed,-5,380,20","The picture is just random,-8,20,20","I like the earth tones here,5,140,20","Well done minimalism.,35,340,20","Looks like a photo taken from the moon.,-6,80,20","Elizabeth","The picture is just random,-8,20,20","Leslie","This elicits no reaction in me.,0,380,20","Caitlin","Looks like a photo taken from the moon.,-6,80,20","0"
"4079","","survey-text","116","435678","0.0-115.0-0.0","A1OU8F92A7M3MR","","","","{""Q0"":""our""}","","","","","","","","","","","","","","","","","","","","","","",""
"8956","","survey-text","117","444638","0.0-116.0-0.0","A1OU8F92A7M3MR","","","","{""Q0"":""not my style""}","","","","","","","","","","","","","","","","","","","","","","",""
"1744.5","","image-slider-response","118","446384","0.0-117.0","A1OU8F92A7M3MR","","","","","-21","","","","","","","","","","","","","","","","","","","","","",""
"4944","","image-button-response","119","451386","0.0-118.0","A1OU8F92A7M3MR","img_art/23.jpg","1","","","","","","","","","","","","","","","","","","","","","","","","",""
"141","","image-button-response","120","451530","0.0-119.0","A1OU8F92A7M3MR","img_art/23.jpg","1","","","","","","","","","","","","","","","","","","","","","","","","",""
"208","","image-button-response","121","451740","0.0-120.0-0.0","A1OU8F92A7M3MR","img_art/23.jpg","1","","","","","","","","","","","","","","","","","","","","","","","","",""
"803","","image-button-response","122","456106","0.0-120.1-0.1","A1OU8F92A7M3MR","img_art/23.jpg","3","","","","","","","","","","","","","","","","","","","","","","","","",""
"616","","image-button-response","123","456724","0.0-121.0-0.0","A1OU8F92A7M3MR","img_art/23.jpg","4","","","","","","","","","","","","","","","","","","","","","","","","",""
"null","","html-keyboard-response","124","458225","0.0-122.0","A1OU8F92A7M3MR","<p style=""font-size: 48px;"">+</p>","","","","","null","allTrialResponses","1500","1","11","img_art/23.jpg","-21","not my style","Leslie,Sierra,Elizabeth,Danielle,Catherine,Caitlin","It reminds me of being in a crowded place.,-10,380,20","it makes me aggitated,-21,260,20","Fantastic blend of color and forms,43,20,20","While I don't normally enjoy these color schemes all together, I kind of like this one,10,340,20","Partying, dancing, delusion, kaus.,10,160,20","SOME thought was put into this one.,5,80,20","Sierra","it makes me aggitated,-21,260,20","Danielle","While I don't normally enjoy these color schemes all together, I kind of like this one,10,340,20","Catherine","Partying, dancing, delusion, kaus.,10,160,20","2"
"5723","","survey-text","125","463958","0.0-123.0-0.0","A1OU8F92A7M3MR","","","","{""Q0"":""curious""}","","","","","","","","","","","","","","","","","","","","","","",""
"2332.399999976158","","image-slider-response","126","466291","0.0-124.0","A1OU8F92A7M3MR","","","","","19","","","","","","","","","","","","","","","","","","","","","",""
"null","","image-button-response","127","471293","0.0-125.0","A1OU8F92A7M3MR","img_art/8.jpg","null","","","","","","","","","","","","","","","","","","","","","","","","",""
"614","","image-button-response","128","471909","0.0-126.0","A1OU8F92A7M3MR","img_art/8.jpg","1","","","","","","","","","","","","","","","","","","","","","","","","",""
"1313","","image-button-response","129","473223","0.0-127.0-0.0","A1OU8F92A7M3MR","img_art/8.jpg","2","","","","","","","","","","","","","","","","","","","","","","","","",""
"964","","image-button-response","130","474189","0.0-128.0-0.0","A1OU8F92A7M3MR","img_art/8.jpg","0","","","","","","","","","","","","","","","","","","","","","","","","",""
"null","","html-keyboard-response","131","474691","0.0-129.0","A1OU8F92A7M3MR","<p style=""font-size: 48px;"">+</p>","","","","","null","allTrialResponses","500","1","12","img_art/8.jpg","19","curious","Shannon,Sierra,Crystal,Danielle,Catherine,Hannah","I like that it looks like a city and the way the shapes and colors are put together,40,220,20","i love the colors, the church and the face,42,260,20","i like the abstract nature of a birds eye view of the city. The hard shapes and squares present with a softness rather than rigidity.,26,300,20","Enjoy this, it looks like a rushing water pool, surrounded by mountains and buildings, hiding details such as faces.,30,340,20","Lost in a big city confuse as to where to go to next. No matter if you live in a mansion or homeless. Being bigger than what is going on around you,30,160,20","I don't understand it. Makes no sense to me.,5,240,20","Sierra","i love the colors, the church and the face,42,260,20","Crystal","i like the abstract nature of a birds eye view of the city. The hard shapes and squares present with a softness rather than rigidity.,26,300,20","Shannon","I like that it looks like a city and the way the shapes and colors are put together,40,220,20","2"
"12153","","survey-text","132","486851","0.0-130.0-0.0","A1OU8F92A7M3MR","","","","{""Q0"":""whoa nellie thats wierd""}","","","","","","","","","","","","","","","","","","","","","","",""
"7674.600000023842","","image-slider-response","133","494527","0.0-131.0","A1OU8F92A7M3MR","","","","","-12","","","","","","","","","","","","","","","","","","","","","",""
"4101","","image-button-response","134","499538","0.0-132.0","A1OU8F92A7M3MR","img_art/9.jpg","3","","","","","","","","","","","","","","","","","","","","","","","","",""
"882","","image-button-response","135","500424","0.0-133.0","A1OU8F92A7M3MR","img_art/9.jpg","4","","","","","","","","","","","","","","","","","","","","","","","","",""
"692","","image-button-response","136","501118","0.0-134.0-0.0","A1OU8F92A7M3MR","img_art/9.jpg","3","","","","","","","","","","","","","","","","","","","","","","","","",""
"902","","image-button-response","137","502021","0.0-135.0-0.0","A1OU8F92A7M3MR","img_art/9.jpg","1","","","","","","","","","","","","","","","","","","","","","","","","",""
"null","","html-keyboard-response","138","503023","0.0-136.0","A1OU8F92A7M3MR","<p style=""font-size: 48px;"">+</p>","","","","","null","allTrialResponses","1000","1","13","img_art/9.jpg","-12","whoa nellie thats wierd","Shannon,Sierra,Crystal,Brooke,Sophia,Isabella","This looks like someone sleeping in a bed, and I think the colors make it look interesting.,20,220,20","it looks like a lady resting. it is soothing.,4,260,20","Evokes triumph of a mountain over powering a drowning sea,24,300,20","Dark fantasy seaside cave carnival? Fun.,15,60,20","Yikes. I'm not sure what to make of this one.,-14,280,20","Angry beast mouth,-37,280,20","Sophia","Yikes. I'm not sure what to make of this one.,-14,280,20","Brooke","Dark fantasy seaside cave carnival? Fun.,15,60,20","Sierra","it looks like a lady resting. it is soothing.,4,260,20","2"
"5448","","survey-text","139","508483","0.0-137.0-0.0","A1OU8F92A7M3MR","","","","{""Q0"":""no thanks""}","","","","","","","","","","","","","","","","","","","","","","",""
"2750.600000023842","","image-slider-response","140","511235","0.0-138.0","A1OU8F92A7M3MR","","","","","-38","","","","","","","","","","","","","","","","","","","","","",""
"4999","","image-button-response","141","516237","0.0-139.0","A1OU8F92A7M3MR","img_art/4.jpg","1","","","","","","","","","","","","","","","","","","","","","","","","",""
"576","","image-button-response","142","516816","0.0-140.0","A1OU8F92A7M3MR","img_art/4.jpg","1","","","","","","","","","","","","","","","","","","","","","","","","",""
"748","","image-button-response","143","517565","0.0-141.0-0.0","A1OU8F92A7M3MR","img_art/4.jpg","0","","","","","","","","","","","","","","","","","","","","","","","","",""
"1782","","image-button-response","144","519350","0.0-142.0-0.0","A1OU8F92A7M3MR","img_art/4.jpg","3","","","","","","","","","","","","","","","","","","","","","","","","",""
"null","","html-keyboard-response","145","519851","0.0-143.0","A1OU8F92A7M3MR","<p style=""font-size: 48px;"">+</p>","","","","","null","allTrialResponses","500","1","14","img_art/4.jpg","-38","no thanks","Claire,Sierra,Lauren,Brooke,Sophia,Alexandria","I really don't like the colors,-26,260,20","it looks like a deformed hand,-9,260,20","I like the design. It can be interpreted in various ways, such as a hand of horror or still piece.,15,340,20","Looks like the roomba got into dog poop,-30,60,20","This looks like what happens when someone steps on a mustard packet.,-7,280,20","it looks like a simple finger painting, yet i liked the color choices,-12,80,20","Sierra","it looks like a deformed hand,-9,260,20","Claire","I really don't like the colors,-26,260,20","Brooke","Looks like the roomba got into dog poop,-30,60,20","2"
"9193","","survey-text","146","529054","0.0-144.0-0.0","A1OU8F92A7M3MR","","","","{""Q0"":""looks like vomit""}","","","","","","","","","","","","","","","","","","","","","","",""
"2550.600000023842","","image-slider-response","147","531606","0.0-145.0","A1OU8F92A7M3MR","","","","","-50","","","","","","","","","","","","","","","","","","","","","",""
"4496","","image-button-response","148","536608","0.0-146.0","A1OU8F92A7M3MR","img_art/1.jpg","1","","","","","","","","","","","","","","","","","","","","","","","","",""
"822","","image-button-response","149","537434","0.0-147.0","A1OU8F92A7M3MR","img_art/1.jpg","1","","","","","","","","","","","","","","","","","","","","","","","","",""
"1747","","image-button-response","150","539182","0.0-148.0-0.0","A1OU8F92A7M3MR","img_art/1.jpg","2","","","","","","","","","","","","","","","","","","","","","","","","",""
"3397","","image-button-response","151","542582","0.0-149.0-0.0","A1OU8F92A7M3MR","img_art/1.jpg","4","","","","","","","","","","","","","","","","","","","","","","","","",""
"null","","html-keyboard-response","152","544091","0.0-150.0","A1OU8F92A7M3MR","<p style=""font-size: 48px;"">+</p>","","","","","null","allTrialResponses","1500","1","15","img_art/1.jpg","-50","looks like vomit","Claire,Sierra,Miranda,Brooke,Grace,Kristen","the colors are nice,8,260,20","there isnt anything clear to look at,-2,260,20","Someone painted a landscape and decided they didn't like it so they covered it up.,13,320,20","It's okay, colors remind me of autumn.,10,60,20","Again, like the colors & abstractness.,29,180,20","river, fall, cozy, warm,12,280,20","Sierra","there isnt anything clear to look at,-2,260,20","Miranda","Someone painted a landscape and decided they didn't like it so they covered it up.,13,320,20","Grace","Again, like the colors & abstractness.,29,180,20","2"
"4640","","survey-text","153","548743","0.0-151.0-0.0","A1OU8F92A7M3MR","","","","{""Q0"":""course""}","","","","","","","","","","","","","","","","","","","","","","",""
"6616","","survey-text","154","555362","0.0-152.0-0.0","A1OU8F92A7M3MR","","","","{""Q0"":""meh meh""}","","","","","","","","","","","","","","","","","","","","","","",""
"2324","","image-slider-response","155","557688","0.0-153.0","A1OU8F92A7M3MR","","","","","-6","","","","","","","","","","","","","","","","","","","","","",""
"4453","","image-button-response","156","562693","0.0-154.0","A1OU8F92A7M3MR","img_art/19.jpg","0","","","","","","","","","","","","","","","","","","","","","","","","",""
"852","","image-button-response","157","563548","0.0-155.0","A1OU8F92A7M3MR","img_art/19.jpg","0","","","","","","","","","","","","","","","","","","","","","","","","",""
"1151","","image-button-response","158","564700","0.0-156.0-0.0","A1OU8F92A7M3MR","img_art/19.jpg","3","","","","","","","","","","","","","","","","","","","","","","","","",""
"754","","image-button-response","159","565456","0.0-157.0-0.0","A1OU8F92A7M3MR","img_art/19.jpg","4","","","","","","","","","","","","","","","","","","","","","","","","",""
"null","","html-keyboard-response","160","565958","0.0-158.0","A1OU8F92A7M3MR","<p style=""font-size: 48px;"">+</p>","","","","","null","allTrialResponses","500","1","16","img_art/19.jpg","-6","meh meh","Alicia,Sierra,Miranda,Alexa,Grace,Angelica","calming, like the drips,25,120,20","green and orange are my favorite colors.  this cityscape feels warm,34,260,20","It looks cool but at the time looks like it was done by a talented 5 year old.,13,320,20","It has a chaotic energy about it that draws me in,40,40,20","Looks like a child's rendering of a city street but not too sure.,0,180,20","This is like an ugly version of a Basquiat.,-24,280,20","Alicia","calming, like the drips,25,120,20","Alexa","It has a chaotic energy about it that draws me in,40,40,20","Grace","Looks like a child's rendering of a city street but not too sure.,0,180,20","2"
"5934","","survey-text","161","571902","0.0-159.0-0.0","A1OU8F92A7M3MR","","","","{""Q0"":""really nice""}","","","","","","","","","","","","","","","","","","","","","","",""
"2164.5","","image-slider-response","162","574068","0.0-160.0","A1OU8F92A7M3MR","","","","","10","","","","","","","","","","","","","","","","","","","","","",""
"4613","","image-button-response","163","579080","0.0-161.0","A1OU8F92A7M3MR","img_art/20.jpg","4","","","","","","","","","","","","","","","","","","","","","","","","",""
"758","","image-button-response","164","579840","0.0-162.0","A1OU8F92A7M3MR","img_art/20.jpg","5","","","","","","","","","","","","","","","","","","","","","","","","",""
"517","","image-button-response","165","580358","0.0-163.0-0.0","A1OU8F92A7M3MR","img_art/20.jpg","4","","","","","","","","","","","","","","","","","","","","","","","","",""
"951","","image-button-response","166","581310","0.0-164.0-0.0","A1OU8F92A7M3MR","img_art/20.jpg","3","","","","","","","","","","","","","","","","","","","","","","","","",""
"null","","html-keyboard-response","167","582812","0.0-165.0","A1OU8F92A7M3MR","<p style=""font-size: 48px;"">+</p>","","","","","null","allTrialResponses","1500","1","17","img_art/20.jpg","10","really nice","Alicia,Chelsea,Amy,Alexa,Grace,Morgan","Very cool, and calming (again) Love it.,47,120,20","It is abstract but it looks neat.,15,180,20","Elements that are more defined are incongruous to the soft and melting nature of this painting,5,220,20","I like the calming mood of this painting,35,40,20","Reminds me of Georgia O'Keefe.,11,180,20","The beach and industry.,12,380,20","Morgan","The beach and industry.,12,380,20","Grace","Reminds me of Georgia O'Keefe.,11,180,20","Alexa","I like the calming mood of this painting,35,40,20","2"
"5687","","survey-text","168","588511","0.0-166.0-0.0","A1OU8F92A7M3MR","","","","{""Q0"":""no maam""}","","","","","","","","","","","","","","","","","","","","","","",""
"2842.699999988079","","image-slider-response","169","591355","0.0-167.0","A1OU8F92A7M3MR","","","","","-30","","","","","","","","","","","","","","","","","","","","","",""
"4930","","image-button-response","170","596358","0.0-168.0","A1OU8F92A7M3MR","img_art/2.jpg","0","","","","","","","","","","","","","","","","","","","","","","","","",""
"181","","image-button-response","171","596542","0.0-169.0","A1OU8F92A7M3MR","img_art/2.jpg","0","","","","","","","","","","","","","","","","","","","","","","","","",""
"927","","image-button-response","172","597470","0.0-170.0-0.0","A1OU8F92A7M3MR","img_art/2.jpg","2","","","","","","","","","","","","","","","","","","","","","","","","",""
"1320","","image-button-response","173","598792","0.0-171.0-0.0","A1OU8F92A7M3MR","img_art/2.jpg","5","","","","","","","","","","","","","","","","","","","","","","","","",""
"null","","html-keyboard-response","174","600302","0.0-172.0","A1OU8F92A7M3MR","<p style=""font-size: 48px;"">+</p>","","","","","null","allTrialResponses","1500","1","18","img_art/2.jpg","-30","no maam","Jennifer,Shelby,Cynthia,Alexa,Grace,Morgan","Ugly color scheme,-50,380,20","The contrasting colors are a bit harsh,-10,240,20","Confused and disoriented,-33,320,20","Not my favorite but I can see this being hung in a art museum,25,40,20","Like the colors but reminds me of a kids show done in cubism.,0,180,20","Old, dull, messy.,-10,380,20","Jennifer","Ugly color scheme,-50,380,20","Cynthia","Confused and disoriented,-33,320,20","Morgan","Old, dull, messy.,-10,380,20","2"
"9131","","survey-text","175","609443","0.0-173.0-0.0","A1OU8F92A7M3MR","","","","{""Q0"":""sorta good""}","","","","","","","","","","","","","","","","","","","","","","",""
"3158.600000023842","","image-slider-response","176","612603","0.0-174.0","A1OU8F92A7M3MR","","","","","4","","","","","","","","","","","","","","","","","","","","","",""
"4181","","image-button-response","177","617620","0.0-175.0","A1OU8F92A7M3MR","img_art/17.jpg","3","","","","","","","","","","","","","","","","","","","","","","","","",""
"755","","image-button-response","178","618378","0.0-176.0","A1OU8F92A7M3MR","img_art/17.jpg","5","","","","","","","","","","","","","","","","","","","","","","","","",""
"548","","image-button-response","179","618928","0.0-177.0-0.0","A1OU8F92A7M3MR","img_art/17.jpg","4","","","","","","","","","","","","","","","","","","","","","","","","",""
"538","","image-button-response","180","619468","0.0-178.0-0.0","A1OU8F92A7M3MR","img_art/17.jpg","3","","","","","","","","","","","","","","","","","","","","","","","","",""
"null","","html-keyboard-response","181","620470","0.0-179.0","A1OU8F92A7M3MR","<p style=""font-size: 48px;"">+</p>","","","","","null","allTrialResponses","1000","1","19","img_art/17.jpg","4","sorta good","Jennifer,Caroline,Cynthia,Hailey,Laura,Morgan","Very elegant, this design reminds me of trees,31,380,20","Beautiful colors. Made me feel soft and feminine,50,100,20","battle between nature and man,31,320,20","soft and warm light colors are relaxing,12,200,20","home - reminds me of fond memories of the Barnes Museum courtyard (looks just like it),30,320,20","Tree of knowledge in a quiet school.,17,380,20","Morgan","Tree of knowledge in a quiet school.,17,380,20","Laura","home - reminds me of fond memories of the Barnes Museum courtyard (looks just like it),30,320,20","Hailey","soft and warm light colors are relaxing,12,200,20","2"
"9388","","survey-text","182","629865","0.0-180.0-0.0","A1OU8F92A7M3MR","","","","{""Q0"":""no damn way""}","","","","","","","","","","","","","","","","","","","","","","",""
"2810.5","","image-slider-response","183","632677","0.0-181.0","A1OU8F92A7M3MR","","","","","-33","","","","","","","","","","","","","","","","","","","","","",""
"4806","","image-button-response","184","637680","0.0-182.0","A1OU8F92A7M3MR","img_art/5.jpg","1","","","","","","","","","","","","","","","","","","","","","","","","",""
"383","","image-button-response","185","638066","0.0-183.0","A1OU8F92A7M3MR","img_art/5.jpg","1","","","","","","","","","","","","","","","","","","","","","","","","",""
"1423","","image-button-response","186","639490","0.0-184.0-0.0","A1OU8F92A7M3MR","img_art/5.jpg","0","","","","","","","","","","","","","","","","","","","","","","","","",""
"2856","","image-button-response","187","642348","0.0-185.0-0.0","A1OU8F92A7M3MR","img_art/5.jpg","5","","","","","","","","","","","","","","","","","","","","","","","","",""
"null","","html-keyboard-response","188","642850","0.0-186.0","A1OU8F92A7M3MR","<p style=""font-size: 48px;"">+</p>","","","","","null","allTrialResponses","500","1","20","img_art/5.jpg","-33","no damn way","Bailey,Vanessa,Erica,Hailey,Laura,Morgan","Not sure what that even is. Looks like a 2-year old drawing,-40,360,20","The yellow is garish and the picture doesn't look liked anything.,-49,380,20","positive colours; yellow calls attention,6,80,20","puke yellow with nothing but sadness,-35,200,20","fresh and fun - bright and active,16,320,20","Dull pyramid that says nothing.,7,380,20","Vanessa","The yellow is garish and the picture doesn't look liked anything.,-49,380,20","Bailey","Not sure what that even is. Looks like a 2-year old drawing,-40,360,20","Morgan","Dull pyramid that says nothing.,7,380,20","2"
"2154","","survey-text","189","645015","0.0-187.0-0.0","A1OU8F92A7M3MR","","","","{""Q0"":""we""}","","","","","","","","","","","","","","","","","","","","","","",""
"7527","","survey-text","190","652544","0.0-188.0-0.0","A1OU8F92A7M3MR","","","","{""Q0"":""messy huh""}","","","","","","","","","","","","","","","","","","","","","","",""
"2796.600000023842","","image-slider-response","191","655342","0.0-189.0","A1OU8F92A7M3MR","","","","","-2","","","","","","","","","","","","","","","","","","","","","",""
"3477","","image-button-response","192","660346","0.0-190.0","A1OU8F92A7M3MR","img_art/14.jpg","1","","","","","","","","","","","","","","","","","","","","","","","","",""
"589","","image-button-response","193","660938","0.0-191.0","A1OU8F92A7M3MR","img_art/14.jpg","1","","","","","","","","","","","","","","","","","","","","","","","","",""
"579","","image-button-response","194","661518","0.0-192.0-0.0","A1OU8F92A7M3MR","img_art/14.jpg","0","","","","","","","","","","","","","","","","","","","","","","","","",""
"3066","","image-button-response","195","664586","0.0-193.0-0.0","A1OU8F92A7M3MR","img_art/14.jpg","3","","","","","","","","","","","","","","","","","","","","","","","","",""
"null","","html-keyboard-response","196","665588","0.0-194.0","A1OU8F92A7M3MR","<p style=""font-size: 48px;"">+</p>","","","","","null","allTrialResponses","1000","1","21","img_art/14.jpg","-2","messy huh","Bailey,Vanessa,Leah,Jordan,Kayla,Morgan","Not quite the style I'd like, but it does have a certain air of emptiness.,12,360,20","I don't like the colors, but I espeically don't like all the negative space.,-20,380,20","I like the simplicity along with the colors,27,360,20","this one isn't bad, reminds me a tree that gives life, and people are waiting for someone new to be born,27,20,20","I like that it looks like plants on a table, which reminds me of life.,4,180,20","Angled, colored, boxy.,10,380,20","Vanessa","I don't like the colors, but I espeically don't like all the negative space.,-20,380,20","Bailey","Not quite the style I'd like, but it does have a certain air of emptiness.,12,360,20","Jordan","this one isn't bad, reminds me a tree that gives life, and people are waiting for someone new to be born,27,20,20","2"
"8682","","survey-text","197","674278","0.0-195.0-0.0","A1OU8F92A7M3MR","","","","{""Q0"":""boring""}","","","","","","","","","","","","","","","","","","","","","","",""
"2612.5","","image-slider-response","198","676892","0.0-196.0","A1OU8F92A7M3MR","","","","","-3","","","","","","","","","","","","","","","","","","","","","",""
"4990","","image-button-response","199","681894","0.0-197.0","A1OU8F92A7M3MR","img_art/29.jpg","2","","","","","","","","","","","","","","","","","","","","","","","","",""
"747","","image-button-response","200","682642","0.0-198.0","A1OU8F92A7M3MR","img_art/29.jpg","2","","","","","","","","","","","","","","","","","","","","","","","","",""
"2333","","image-button-response","201","684976","0.0-199.0-0.0","A1OU8F92A7M3MR","img_art/29.jpg","1","","","","","","","","","","","","","","","","","","","","","","","","",""
"829","","image-button-response","202","685806","0.0-200.0-0.0","A1OU8F92A7M3MR","img_art/29.jpg","0","","","","","","","","","","","","","","","","","","","","","","","","",""
"null","","html-keyboard-response","203","686307","0.0-201.0","A1OU8F92A7M3MR","<p style=""font-size: 48px;"">+</p>","","","","","null","allTrialResponses","500","1","22","img_art/29.jpg","-3","boring","Bailey,Vanessa,Marissa,Jordan,Michelle,Alexandra","Giant messy blob. Looks like it tries to be edgy, but fails.,-40,360,20","I hate the red x over everything, hate the black hate how hopeless this is.,-50,380,20","It makes me feel as though the artist put in a lot of time and effort and then gave up,10,160,20","Yeah, I don't know. It's clearly a situation where art is the reject of something more,-27,20,20","The texture really stands out, this is an interesting composition,6,280,20","I don't like this. It is ugly and dark,-29,60,20","Marissa","It makes me feel as though the artist put in a lot of time and effort and then gave up,10,160,20","Vanessa","I hate the red x over everything, hate the black hate how hopeless this is.,-50,380,20","Bailey","Giant messy blob. Looks like it tries to be edgy, but fails.,-40,360,20","2"
"7298","","survey-text","204","693620","0.0-202.0-0.0","A1OU8F92A7M3MR","","","","{""Q0"":""no damn way""}","","","","","","","","","","","","","","","","","","","","","","",""
"2432.399999976158","","image-slider-response","205","696054","0.0-203.0","A1OU8F92A7M3MR","","","","","-50","","","","","","","","","","","","","","","","","","","","","",""
"null","","image-button-response","206","701069","0.0-204.0","A1OU8F92A7M3MR","img_art/21.jpg","null","","","","","","","","","","","","","","","","","","","","","","","","",""
"4412","","image-button-response","207","705484","0.0-205.0","A1OU8F92A7M3MR","img_art/21.jpg","2","","","","","","","","","","","","","","","","","","","","","","","","",""
"757","","image-button-response","208","706243","0.0-206.0-0.0","A1OU8F92A7M3MR","img_art/21.jpg","0","","","","","","","","","","","","","","","","","","","","","","","","",""
"747","","image-button-response","209","706992","0.0-207.0-0.0","A1OU8F92A7M3MR","img_art/21.jpg","3","","","","","","","","","","","","","","","","","","","","","","","","",""
"null","","html-keyboard-response","210","707493","0.0-208.0","A1OU8F92A7M3MR","<p style=""font-size: 48px;"">+</p>","","","","","null","allTrialResponses","500","1","23","img_art/21.jpg","-50","no damn way","Bailey,Vanessa,Marissa,Andrea,Kelly,Rachel","Looks like two ships on fire. Cool image.,12,360,20","The colors and softness work together to make something that's lovely.,42,380,20","I feel confused,-18,160,20","It feels like a day at sea but the pink is slightly jarring and holding my eye.,26,240,20","It actually reminded me of a place I've been to. So I had a positive reaction to it.,22,220,20","Looks like a body of water during a sunset. I like this piece.,21,80,20","Marissa","I feel confused,-18,160,20","Bailey","Looks like two ships on fire. Cool image.,12,360,20","Andrea","It feels like a day at sea but the pink is slightly jarring and holding my eye.,26,240,20","2"
"6890","","survey-text","211","714397","0.0-209.0-0.0","A1OU8F92A7M3MR","","","","{""Q0"":""whatever.  NO""}","","","","","","","","","","","","","","","","","","","","","","",""
"3916.600000023842","","image-slider-response","212","718315","0.0-210.0","A1OU8F92A7M3MR","","","","","-50","","","","","","","","","","","","","","","","","","","","","",""
"null","","image-button-response","213","723331","0.0-211.0","A1OU8F92A7M3MR","img_art/3.jpg","null","","","","","","","","","","","","","","","","","","","","","","","","",""
"663","","image-button-response","214","723998","0.0-212.0","A1OU8F92A7M3MR","img_art/3.jpg","1","","","","","","","","","","","","","","","","","","","","","","","","",""
"870","","image-button-response","215","724870","0.0-213.0-0.0","A1OU8F92A7M3MR","img_art/3.jpg","2","","","","","","","","","","","","","","","","","","","","","","","","",""
"972","","image-button-response","216","725843","0.0-214.0-0.0","A1OU8F92A7M3MR","img_art/3.jpg","0","","","","","","","","","","","","","","","","","","","","","","","","",""
"null","","html-keyboard-response","217","726345","0.0-215.0","A1OU8F92A7M3MR","<p style=""font-size: 48px;"">+</p>","","","","","null","allTrialResponses","500","1","24","img_art/3.jpg","-50","whatever.  NO","Bailey,Amanda,Marissa,Andrea,Savannah,Sabrina","Just scribbles. People buy that?,-47,360,20","Looks like someone threw blood at a wall,-50,180,20","It feels like a half assed and failed imitation of Japanese signatures on old paintings,-22,160,20","I don't feel anything, it seems childish.,-25,240,20","Completely incomprehensible.,-33,200,20","I dont really feel anything from this, i cant see or understand any of it,-20,120,20","Amanda","Looks like someone threw blood at a wall,-50,180,20","Marissa","It feels like a half assed and failed imitation of Japanese signatures on old paintings,-22,160,20","Bailey","Just scribbles. People buy that?,-47,360,20","2"
"7510","","survey-text","218","733869","0.0-216.0-0.0","A1OU8F92A7M3MR","","","","{""Q0"":""et phone home!""}","","","","","","","","","","","","","","","","","","","","","","",""
"2990.600000023842","","image-slider-response","219","736861","0.0-217.0","A1OU8F92A7M3MR","","","","","17","","","","","","","","","","","","","","","","","","","","","",""
"4566","","image-button-response","220","741878","0.0-218.0","A1OU8F92A7M3MR","img_art/25.jpg","1","","","","","","","","","","","","","","","","","","","","","","","","",""
"1906","","image-button-response","221","743787","0.0-219.0","A1OU8F92A7M3MR","img_art/25.jpg","1","","","","","","","","","","","","","","","","","","","","","","","","",""
"608","","image-button-response","222","744397","0.0-220.0-0.0","A1OU8F92A7M3MR","img_art/25.jpg","0","","","","","","","","","","","","","","","","","","","","","","","","",""
"2078","","image-button-response","223","746477","0.0-221.0-0.0","A1OU8F92A7M3MR","img_art/25.jpg","3","","","","","","","","","","","","","","","","","","","","","","","","",""
"null","","html-keyboard-response","224","747981","0.0-222.0","A1OU8F92A7M3MR","<p style=""font-size: 48px;"">+</p>","","","","","null","allTrialResponses","1500","1","25","img_art/25.jpg","17","et phone home!","Bailey,Amanda,Marissa,Jasmine,Sara,Olivia","I love the background color and it's creepy...but cool.,30,360,20","Reminds me of Mr. Burns on drugs in the Simpsons,-50,180,20","I really like the green and the fact that it is tattered on the edges,23,160,20","I liked it as it seems unique in a way,21,340,20","Green color is not my thing,-29,160,20","reminds me of burning man,18,40,20","Amanda","Reminds me of Mr. Burns on drugs in the Simpsons,-50,180,20","Bailey","I love the background color and it's creepy...but cool.,30,360,20","Jasmine","I liked it as it seems unique in a way,21,340,20","2"
"4067","","survey-text","225","752057","0.0-223.0-0.0","A1OU8F92A7M3MR","","","","{""Q0"":""table""}","","","","","","","","","","","","","","","","","","","","","","",""
"6571","","survey-text","226","758629","0.0-224.0-0.0","A1OU8F92A7M3MR","","","","{""Q0"":""no maam""}","","","","","","","","","","","","","","","","","","","","","","",""
"2526.5","","image-slider-response","227","761157","0.0-225.0","A1OU8F92A7M3MR","","","","","-50","","","","","","","","","","","","","","","","","","","","","",""
"4651","","image-button-response","228","766160","0.0-226.0","A1OU8F92A7M3MR","img_art/10.jpg","2","","","","","","","","","","","","","","","","","","","","","","","","",""
"434","","image-button-response","229","766598","0.0-227.0","A1OU8F92A7M3MR","img_art/10.jpg","1","","","","","","","","","","","","","","","","","","","","","","","","",""
"1102","","image-button-response","230","767702","0.0-228.0-0.0","A1OU8F92A7M3MR","img_art/10.jpg","0","","","","","","","","","","","","","","","","","","","","","","","","",""
"1312","","image-button-response","231","769016","0.0-229.0-0.0","A1OU8F92A7M3MR","img_art/10.jpg","4","","","","","","","","","","","","","","","","","","","","","","","","",""
"null","","html-keyboard-response","232","770018","0.0-230.0","A1OU8F92A7M3MR","<p style=""font-size: 48px;"">+</p>","","","","","null","allTrialResponses","1000","1","26","img_art/10.jpg","-50","no maam","Bailey,Amanda,Jenna,Jasmine,Erin,Kelsey","For black and white, this is pretty vibrant and cool. I like this.,39,360,20","Reminds me of a beautiful ship wreck,36,180,20","this piece is okay. I wish it was more colorful, but it is certainly intriguing.,23,360,20","It's okay but not giving me the strongest reaction,6,340,20","Cello music instrument,11,120,20","reminds me of a violin,9,240,20","Amanda","Reminds me of a beautiful ship wreck,36,180,20","Bailey","For black and white, this is pretty vibrant and cool. I like this.,39,360,20","Erin","Cello music instrument,11,120,20","2"
"5622","","survey-text","233","775648","0.0-231.0-0.0","A1OU8F92A7M3MR","","","","{""Q0"":""meh meh""}","","","","","","","","","","","","","","","","","","","","","","",""
"4382.700000047684","","image-slider-response","234","780032","0.0-232.0","A1OU8F92A7M3MR","","","","","-3","","","","","","","","","","","","","","","","","","","","","",""
"2357","","image-button-response","235","785040","0.0-233.0","A1OU8F92A7M3MR","img_art/6.jpg","2","","","","","","","","","","","","","","","","","","","","","","","","",""
"684","","image-button-response","236","785728","0.0-234.0","A1OU8F92A7M3MR","img_art/6.jpg","1","","","","","","","","","","","","","","","","","","","","","","","","",""
"710","","image-button-response","237","786440","0.0-235.0-0.0","A1OU8F92A7M3MR","img_art/6.jpg","0","","","","","","","","","","","","","","","","","","","","","","","","",""
"678","","image-button-response","238","787120","0.0-236.0-0.0","A1OU8F92A7M3MR","img_art/6.jpg","2","","","","","","","","","","","","","","","","","","","","","","","","",""
"null","","html-keyboard-response","239","788628","0.0-237.0","A1OU8F92A7M3MR","<p style=""font-size: 48px;"">+</p>","","","","","null","allTrialResponses","1500","1","27","img_art/6.jpg","-3","meh meh","Bailey,Amanda,Sarah,Emily,Erin,Rebecca","Not my favorite, but I like the empty vibe and the imagination it invokes. A skinny girl with long legs, perhaps, looking over a cliff,9,360,20","Makes me feel lonely,-22,180,20","it's interesting but I don't love it,10,180,20","Looks like a kid created it.,-50,40,20","Blackbird in the desert,27,120,20","??????? fake floating leaf? headless bird,-28,100,20","Amanda","Makes me feel lonely,-22,180,20","Bailey","Not my favorite, but I like the empty vibe and the imagination it invokes. A skinny girl with long legs, perhaps, looking over a cliff,9,360,20","Sarah","it's interesting but I don't love it,10,180,20","2"
"6855","","survey-text","240","795492","0.0-238.0-0.0","A1OU8F92A7M3MR","","","","{""Q0"":""kinda boring""}","","","","","","","","","","","","","","","","","","","","","","",""
"33982.60000002384","","image-slider-response","241","829476","0.0-239.0","A1OU8F92A7M3MR","","","","","-10","","","","","","","","","","","","","","","","","","","","","",""
"null","","image-button-response","242","834516","0.0-240.0","A1OU8F92A7M3MR","img_art/26.jpg","null","","","","","","","","","","","","","","","","","","","","","","","","",""
"2933","","image-button-response","243","837452","0.0-241.0","A1OU8F92A7M3MR","img_art/26.jpg","0","","","","","","","","","","","","","","","","","","","","","","","","",""
"1342","","image-button-response","244","838796","0.0-242.0-0.0","A1OU8F92A7M3MR","img_art/26.jpg","2","","","","","","","","","","","","","","","","","","","","","","","","",""
"1204","","image-button-response","245","840002","0.0-243.0-0.0","A1OU8F92A7M3MR","img_art/26.jpg","4","","","","","","","","","","","","","","","","","","","","","","","","",""
"null","","html-keyboard-response","246","841015","0.0-244.0","A1OU8F92A7M3MR","<p style=""font-size: 48px;"">+</p>","","","","","null","allTrialResponses","1000","1","28","img_art/26.jpg","-10","kinda boring","Bailey,Amanda,Sarah,Madison,Maria,Cassidy","Too blocky and unfocused. It's like the inside of a house, and the outside.,-24,360,20","Pleasant to look at,28,180,20","too hard to figure out if it's meant to be actual objects or impressions,-36,180,20","Colors look glum; photograph is not properly contrasted and does not reflect the appropriate amount of natural light.,-10,60,20","fairly neutral, really,8,120,20","the trees are cool,1,140,20","Bailey","Too blocky and unfocused. It's like the inside of a house, and the outside.,-24,360,20","Sarah","too hard to figure out if it's meant to be actual objects or impressions,-36,180,20","Maria","fairly neutral, really,8,120,20","2"
"4013","","survey-text","247","845040","0.0-245.0-0.0","A1OU8F92A7M3MR","","","","{""Q0"":""wow, that's BLUE""}","","","","","","","","","","","","","","","","","","","","","","",""
"3060.399999976158","","image-slider-response","248","848102","0.0-246.0","A1OU8F92A7M3MR","","","","","29","","","","","","","","","","","","","","","","","","","","","",""
"null","","image-button-response","249","853109","0.0-247.0","A1OU8F92A7M3MR","img_art/13.jpg","null","","","","","","","","","","","","","","","","","","","","","","","","",""
"139","","image-button-response","250","853250","0.0-248.0","A1OU8F92A7M3MR","img_art/13.jpg","5","","","","","","","","","","","","","","","","","","","","","","","","",""
"1088","","image-button-response","251","854340","0.0-249.0-0.0","A1OU8F92A7M3MR","img_art/13.jpg","1","","","","","","","","","","","","","","","","","","","","","","","","",""
"1156","","image-button-response","252","855498","0.0-250.0-0.0","A1OU8F92A7M3MR","img_art/13.jpg","2","","","","","","","","","","","","","","","","","","","","","","","","",""
"null","","html-keyboard-response","253","857014","0.0-251.0","A1OU8F92A7M3MR","<p style=""font-size: 48px;"">+</p>","","","","","null","allTrialResponses","1500","1","29","img_art/13.jpg","29","wow, that's BLUE","Bailey,Michaela,Sarah,Alyssa,Maria,Cheyenne","Looks like an upclose dried set of water droplets. Boring.,-25,360,20","The colors are really pretty together,39,260,20","this is an appealing mix of textures to me and the color scheme is harmonious,36,180,20","Pretty and it reminds me of rain droplets running down a window on a rainy day.,40,160,20","evokes a dampening feeling,-9,120,20","Like how realistic it looks.,33,200,20","Cheyenne","Like how realistic it looks.,33,200,20","Michaela","The colors are really pretty together,39,260,20","Sarah","this is an appealing mix of textures to me and the color scheme is harmonious,36,180,20","2"
"5665","","survey-text","254","862688","0.0-252.0-0.0","A1OU8F92A7M3MR","","","","{""Q0"":""just no""}","","","","","","","","","","","","","","","","","","","","","","",""
"2286.699999988079","","image-slider-response","255","864976","0.0-253.0","A1OU8F92A7M3MR","","","","","-50","","","","","","","","","","","","","","","","","","","","","",""
"null","","image-button-response","256","869983","0.0-254.0","A1OU8F92A7M3MR","img_art/11.jpg","null","","","","","","","","","","","","","","","","","","","","","","","","",""
"927","","image-button-response","257","870912","0.0-255.0","A1OU8F92A7M3MR","img_art/11.jpg","1","","","","","","","","","","","","","","","","","","","","","","","","",""
"818","","image-button-response","258","871732","0.0-256.0-0.0","A1OU8F92A7M3MR","img_art/11.jpg","0","","","","","","","","","","","","","","","","","","","","","","","","",""
"1451","","image-button-response","259","873185","0.0-257.0-0.0","A1OU8F92A7M3MR","img_art/11.jpg","3","","","","","","","","","","","","","","","","","","","","","","","","",""
"null","","html-keyboard-response","260","874197","0.0-258.0","A1OU8F92A7M3MR","<p style=""font-size: 48px;"">+</p>","","","","","null","allTrialResponses","1000","1","30","img_art/11.jpg","-50","just no","Courtney,Michaela,Sarah,Brittany,Monica,Cheyenne","Thats a creepy old rollercoasters abandoned,-2,280,20","Reminds me of a city and how chaotic it can be,22,260,20","i like the gray tones with black lines and bits of color,23,180,20","It reminds me of telephone wires.,1,40,20","I like how it reminds me of music and at the same time it looks like colorful train tracks.,10,360,20","Very good use of colors,44,200,20","Michaela","Reminds me of a city and how chaotic it can be,22,260,20","Courtney","Thats a creepy old rollercoasters abandoned,-2,280,20","Brittany","It reminds me of telephone wires.,1,40,20","2"
"3271","","image-button-response_instructions","261","877482","0.0-259.0","A1OU8F92A7M3MR","","0","instructions","","","","","","","","","","","","","","","","","","","","","","","",""
"1378","","image-button-response","262","878866","0.0-260.0","A1OU8F92A7M3MR","","0","","","","","","","","","","","","","","","","","","","","","","","","",""
