"rt","url","trial_type","trial_index","time_elapsed","internal_node_id","participant_id","stimulus","button_pressed","Name","responses","response","key_press","variableName","fixationTime","condition","trial","photo","subjectRating","subjectResponse","agentsNames","agent_1_Response","agent_2_Response","agent_3_Response","agent_4_Response","agent_5_Response","agent_6_Response","kept_1_name","kept_1_response","kept_2_name","kept_2_response","kept_3_name","kept_3_response","errorCounter"
"12427","external_page_harvard.html","external-html","0","12498","0.0-0.0","A1PBFDQR599N3K","","","","","","","","","","","","","","","","","","","","","","","","","","",""
"1653","","image-button-response","1","14155","0.0-1.0","A1PBFDQR599N3K","","1","","","","","","","","","","","","","","","","","","","","","","","","",""
"2125","","image-button-response","2","16289","0.0-2.0-0.0","A1PBFDQR599N3K","","1","phone","","","","","","","","","","","","","","","","","","","","","","","",""
"4438","","survey-text","3","20730","0.0-3.0-0.0","A1PBFDQR599N3K","","","","{""Q0"":""A1PBFDQR599N3K""}","","","","","","","","","","","","","","","","","","","","","","",""
"5103","","image-button-response_instructions","4","25837","0.0-4.0","A1PBFDQR599N3K","","0","instructions","","","","","","","","","","","","","","","","","","","","","","","",""
"15293","","image-button-response_instructions","5","41136","0.0-5.0","A1PBFDQR599N3K","img_art/ins/popularity/ins1.png","0","instructions","","","","","","","","","","","","","","","","","","","","","","","",""
"2848","","image-button-response_instructions","6","43987","0.0-6.0","A1PBFDQR599N3K","img_art/ins/popularity/ins2.png","0","instructions","","","","","","","","","","","","","","","","","","","","","","","",""
"5264","","image-button-response_instructions","7","49254","0.0-7.0","A1PBFDQR599N3K","img_art/ins/popularity/ins2Extreme.png","0","instructions","","","","","","","","","","","","","","","","","","","","","","","",""
"3381","","image-button-response_instructions","8","52638","0.0-8.0","A1PBFDQR599N3K","img_art/ins/popularity/ins3KEEPpop.PNG","0","instructions","","","","","","","","","","","","","","","","","","","","","","","",""
"2291","","image-button-response_instructions","9","54931","0.0-9.0","A1PBFDQR599N3K","img_art/ins/popularity/ins3ANamepop.PNG","0","instructions","","","","","","","","","","","","","","","","","","","","","","","",""
"2226","","image-button-response_instructions","10","57160","0.0-10.0","A1PBFDQR599N3K","img_art/ins/popularity/ins3ARatingpop.png","0","instructions","","","","","","","","","","","","","","","","","","","","","","","",""
"2773","","image-button-response_instructions","11","59936","0.0-11.0","A1PBFDQR599N3K","img_art/ins/popularity/ins3ATextpop.png","0","instructions","","","","","","","","","","","","","","","","","","","","","","","",""
"2468","","image-button-response_instructions","12","62407","0.0-12.0","A1PBFDQR599N3K","img_art/ins/popularity/ins3ALikespop.png","0","instructions","","","","","","","","","","","","","","","","","","","","","","","",""
"28693","","image-button-response_instructions","13","91103","0.0-13.0","A1PBFDQR599N3K","img_art/ins/popularity/ins3KEEPpop.PNG","0","instructions","","","","","","","","","","","","","","","","","","","","","","","",""
"4769","","image-button-response_instructions","14","95875","0.0-14.0","A1PBFDQR599N3K","img_art/ins/popularity/ins3_5RED.png","0","instructions","","","","","","","","","","","","","","","","","","","","","","","",""
"2170","","image-button-response_instructions","15","98048","0.0-15.0","A1PBFDQR599N3K","img_art/ins/popularity/ins3KEEPpop.PNG","0","instructions","","","","","","","","","","","","","","","","","","","","","","","",""
"3181","","image-button-response_instructions","16","101233","0.0-16.0","A1PBFDQR599N3K","img_art/ins/popularity/ins4KEEPpop.PNG","0","instructions","","","","","","","","","","","","","","","","","","","","","","","",""
"16005","","image-button-response_instructions","17","117240","0.0-17.0","A1PBFDQR599N3K","img_art/ins/popularity/ins5KEEPpop.PNG","0","instructions","","","","","","","","","","","","","","","","","","","","","","","",""
"1424","","image-button-response_instructions","18","118667","0.0-18.0","A1PBFDQR599N3K","","0","instructions","","","","","","","","","","","","","","","","","","","","","","","",""
"9113","","survey-text","19","127817","0.0-19.0-0.0","A1PBFDQR599N3K","","","","{""Q0"":""but""}","","","","","","","","","","","","","","","","","","","","","","",""
"7052","","survey-text","20","134873","0.0-20.0-0.0","A1PBFDQR599N3K","","","","{""Q0"":""bored""}","","","","","","","","","","","","","","","","","","","","","","",""
"8965","","survey-text","21","146019","0.0-20.1-0.1","A1PBFDQR599N3K","","","","{""Q0"":""this is boring""}","","","","","","","","","","","","","","","","","","","","","","",""
"4525.200000000186","","image-slider-response","22","150548","0.0-21.0","A1PBFDQR599N3K","","","","","-11","","","","","","","","","","","","","","","","","","","","","",""
"null","","image-button-response","23","155554","0.0-22.0","A1PBFDQR599N3K","img_art/ins/1.jpg","null","","","","","","","","","","","","","","","","","","","","","","","","",""
"8452","","image-button-response","24","164010","0.0-23.0","A1PBFDQR599N3K","img_art/ins/1.jpg","5","","","","","","","","","","","","","","","","","","","","","","","","",""
"4453","","image-button-response","25","168468","0.0-24.0-0.0","A1PBFDQR599N3K","img_art/ins/1.jpg","4","","","","","","","","","","","","","","","","","","","","","","","","",""
"1868","","image-button-response","26","170343","0.0-25.0-0.0","A1PBFDQR599N3K","img_art/ins/1.jpg","0","","","","","","","","","","","","","","","","","","","","","","","","",""
"null","","html-keyboard-response","27","171352","0.0-26.0","A1PBFDQR599N3K","<p style=""font-size: 48px;"">+</p>","","","","","null","allTrialResponses","1000","1","-2","img_art/ins/1.jpg","-11","this is boring","Allison,Ashley,Beth,Dora,Erika,Jen","looks like a lot of things going on in the mist,20,20,20","I just don't get why these type of art would be popular,-32,40,20","This color reminds me of poo,-46,60,20","looks like what my niece in 3rd grade did this afternoon,-50,80,20","I like the sophisticated brushwork,40,100,20","It reminds me of a candy land dream I had,36,120,20","Jen","It reminds me of a candy land dream I had,36,120,20","Erika","I like the sophisticated brushwork,40,100,20","Allison","looks like a lot of things going on in the mist,20,20,20","0"
"14091","","survey-text","28","185450","0.0-27.0-0.0","A1PBFDQR599N3K","","","","{""Q0"":""angry cityscape""}","","","","","","","","","","","","","","","","","","","","","","",""
"4889.399999999907","","image-slider-response","29","190342","0.0-28.0","A1PBFDQR599N3K","","","","","10","","","","","","","","","","","","","","","","","","","","","",""
"null","","image-button-response","30","195347","0.0-29.0","A1PBFDQR599N3K","img_art/ins/2.jpg","null","","","","","","","","","","","","","","","","","","","","","","","","",""
"3199","","image-button-response","31","198550","0.0-30.0","A1PBFDQR599N3K","img_art/ins/2.jpg","5","","","","","","","","","","","","","","","","","","","","","","","","",""
"3617","","image-button-response","32","202173","0.0-31.0-0.0","A1PBFDQR599N3K","img_art/ins/2.jpg","1","","","","","","","","","","","","","","","","","","","","","","","","",""
"4161","","image-button-response","33","206340","0.0-32.0-0.0","A1PBFDQR599N3K","img_art/ins/2.jpg","4","","","","","","","","","","","","","","","","","","","","","","","","",""
"null","","html-keyboard-response","34","206844","0.0-33.0","A1PBFDQR599N3K","<p style=""font-size: 48px;"">+</p>","","","","","null","allTrialResponses","500","1","-1","img_art/ins/2.jpg","10","angry cityscape","Allison,Kara,Katie,Jenna,Erika,Jen","I don't have strong feelings about this,10,20,20","I like the blocks of color arrangements,30,160,20","too much color!,-28,180,20","One of my pet peevs,-48,140,20","I would never be able to compose a sophisticated pallete like this,48,100,20","It reminds me of a fireplace,36,120,20","Jen","It reminds me of a fireplace,36,120,20","Kara","I like the blocks of color arrangements,30,160,20","Erika","I would never be able to compose a sophisticated pallete like this,48,100,20","0"
"25820","","survey-text","35","232670","0.0-34.0-0.0","A1PBFDQR599N3K","","","","{""Q0"":""I like this""}","","","","","","","","","","","","","","","","","","","","","","",""
"5669.699999999953","","image-slider-response","36","238344","0.0-35.0","A1PBFDQR599N3K","","","","","40","","","","","","","","","","","","","","","","","","","","","",""
"2514","","image-button-response","37","243348","0.0-36.0","A1PBFDQR599N3K","img_art/ins/3.jpg","0","","","","","","","","","","","","","","","","","","","","","","","","",""
"1301","","image-button-response","38","244653","0.0-37.0","A1PBFDQR599N3K","img_art/ins/3.jpg","4","","","","","","","","","","","","","","","","","","","","","","","","",""
"4406","","image-button-response","39","249063","0.0-38.0-0.0","A1PBFDQR599N3K","img_art/ins/3.jpg","1","","","","","","","","","","","","","","","","","","","","","","","","",""
"1453","","image-button-response","40","250521","0.0-39.0-0.0","A1PBFDQR599N3K","img_art/ins/3.jpg","0","","","","","","","","","","","","","","","","","","","","","","","","",""
"null","","html-keyboard-response","41","252024","0.0-40.0","A1PBFDQR599N3K","<p style=""font-size: 48px;"">+</p>","","","","","null","allTrialResponses","1500","1","0","img_art/ins/3.jpg","40","I like this","Mary,Kara,Rose,Leslie,Erika,Jen","I like the overlapping of brushes,41,220,20","calming blue is very nice,36,160,20","My daily routine, it's depressing,-20,240,20","It's an alright work,15,200,20","I feel connected to the artist,40,100,20","I can feel a rainy day from this painting,18,120,20","Erika","I feel connected to the artist,40,100,20","Kara","calming blue is very nice,36,160,20","Mary","I like the overlapping of brushes,41,220,20","0"
"8830","","image-button-response_instructions","42","260862","0.0-41.0","A1PBFDQR599N3K","","0","instructions","","","","","","","","","","","","","","","","","","","","","","","",""
"14761","","survey-likert","43","275626","0.0-42.0-0.0","A1PBFDQR599N3K","","","","{""Q0"":"""",""Q1"":0,""Q2"":1}","","","","","","","","","","","","","","","","","","","","","","",""
"9206","","survey-text","44","284845","0.0-43.0-0.0","A1PBFDQR599N3K","","","","{""Q0"":""rock""}","","","","","","","","","","","","","","","","","","","","","","",""
"21892","","survey-text","45","306741","0.0-44.0-0.0","A1PBFDQR599N3K","","","","{""Q0"":""complicated scene""}","","","","","","","","","","","","","","","","","","","","","","",""
"4237.100000000093","","image-slider-response","46","310981","0.0-45.0","A1PBFDQR599N3K","","","","","-9","","","","","","","","","","","","","","","","","","","","","",""
"2606","","image-button-response","47","316018","0.0-46.0","A1PBFDQR599N3K","img_art/10.jpg","0","","","","","","","","","","","","","","","","","","","","","","","","",""
"6137","","image-button-response","48","322159","0.0-47.0","A1PBFDQR599N3K","img_art/10.jpg","1","","","","","","","","","","","","","","","","","","","","","","","","",""
"1405","","image-button-response","49","323568","0.0-48.0-0.0","A1PBFDQR599N3K","img_art/10.jpg","0","","","","","","","","","","","","","","","","","","","","","","","","",""
"3171","","image-button-response","50","326744","0.0-49.0-0.0","A1PBFDQR599N3K","img_art/10.jpg","3","","","","","","","","","","","","","","","","","","","","","","","","",""
"null","","html-keyboard-response","51","328248","0.0-50.0","A1PBFDQR599N3K","<p style=""font-size: 48px;"">+</p>","","","","","null","allTrialResponses","1500","1","1","img_art/10.jpg","-9","complicated scene","Kathryn,Jamie,Andrea,Rebecca,Alicia,Alexa","This piece makes me think of music. The music is dark; I like dark music so it edges toward good.,10,140,20","Well done designs for being considered abstract,45,320,20","Kraken, and I love it.,39,240,20","gives a sense of a roller coaster unit splashed in water. it's not but i love it nevertheless,44,100,20","It's art. (for some),7,120,20","Cute and has a vintage feel to it,45,40,20","Jamie","Well done designs for being considered abstract,45,320,20","Kathryn","This piece makes me think of music. The music is dark; I like dark music so it edges toward good.,10,140,20","Rebecca","gives a sense of a roller coaster unit splashed in water. it's not but i love it nevertheless,44,100,20","0"
"15574","","survey-text","52","343829","0.0-51.0-0.0","A1PBFDQR599N3K","","","","{""Q0"":""dark and angry""}","","","","","","","","","","","","","","","","","","","","","","",""
"6169.199999999953","","image-slider-response","53","350002","0.0-52.0","A1PBFDQR599N3K","","","","","-16","","","","","","","","","","","","","","","","","","","","","",""
"3470","","image-button-response","54","355006","0.0-53.0","A1PBFDQR599N3K","img_art/22.jpg","0","","","","","","","","","","","","","","","","","","","","","","","","",""
"4630","","image-button-response","55","359640","0.0-54.0","A1PBFDQR599N3K","img_art/22.jpg","4","","","","","","","","","","","","","","","","","","","","","","","","",""
"1591","","image-button-response","56","361234","0.0-55.0-0.0","A1PBFDQR599N3K","img_art/22.jpg","1","","","","","","","","","","","","","","","","","","","","","","","","",""
"6351","","image-button-response","57","367590","0.0-56.0-0.0","A1PBFDQR599N3K","img_art/22.jpg","0","","","","","","","","","","","","","","","","","","","","","","","","",""
"null","","html-keyboard-response","58","368093","0.0-57.0","A1PBFDQR599N3K","<p style=""font-size: 48px;"">+</p>","","","","","null","allTrialResponses","500","1","2","img_art/22.jpg","-16","dark and angry","Kathryn,Jamie,Rachel,Rebecca,Caitlin,Angela","This piece gives off a cool vibe. Reminds me of being out in the city at night.,20,140,20","Like the mix of warm and cool colors,15,320,20","I like the vivid colors.,11,80,20","colorful water (in front of castle?),17,100,20","Looks like the kind of art I would see at the doctor's office.,-5,80,20","Like the colors. I enjoy looking at this one.,15,260,20","Caitlin","Looks like the kind of art I would see at the doctor's office.,-5,80,20","Jamie","Like the mix of warm and cool colors,15,320,20","Kathryn","This piece gives off a cool vibe. Reminds me of being out in the city at night.,20,140,20","0"
"31898","","survey-text","59","399999","0.0-58.0-0.0","A1PBFDQR599N3K","","","","{""Q0"":""Can't even think what this is?""}","","","","","","","","","","","","","","","","","","","","","","",""
"4084.100000000093","","image-slider-response","60","404087","0.0-59.0","A1PBFDQR599N3K","","","","","-45","","","","","","","","","","","","","","","","","","","","","",""
"null","","image-button-response","61","409091","0.0-60.0","A1PBFDQR599N3K","img_art/4.jpg","null","","","","","","","","","","","","","","","","","","","","","","","","",""
"1153","","image-button-response","62","410247","0.0-61.0","A1PBFDQR599N3K","img_art/4.jpg","3","","","","","","","","","","","","","","","","","","","","","","","","",""
"5104","","image-button-response","63","415356","0.0-62.0-0.0","A1PBFDQR599N3K","img_art/4.jpg","5","","","","","","","","","","","","","","","","","","","","","","","","",""
"3497","","image-button-response","64","418857","0.0-63.0-0.0","A1PBFDQR599N3K","img_art/4.jpg","1","","","","","","","","","","","","","","","","","","","","","","","","",""
"null","","html-keyboard-response","65","420361","0.0-64.0","A1PBFDQR599N3K","<p style=""font-size: 48px;"">+</p>","","","","","null","allTrialResponses","1500","1","3","img_art/4.jpg","-45","Can't even think what this is?","Kathryn,Jamie,Mackenzie,Sophia,Caitlin,Haley","I feel kind of guilty looking at this, like I'm receiving a reward I don't I deserve.,-10,140,20","Mustard yellow doesn't do it for me,-25,320,20","I don't enjoy the colors, or texture, it seems like mustard,-23,20,20","This looks like what happens when someone steps on a mustard packet.,-7,280,20","They give out trophies now for fighting with brass knuckles?,-20,80,20","This image doesn't invoke anything in me,-9,220,20","Sophia","This looks like what happens when someone steps on a mustard packet.,-7,280,20","Haley","This image doesn't invoke anything in me,-9,220,20","Jamie","Mustard yellow doesn't do it for me,-25,320,20","0"
"21389","","survey-text","66","441757","0.0-65.0-0.0","A1PBFDQR599N3K","","","","{""Q0"":""Reminds me of a western""}","","","","","","","","","","","","","","","","","","","","","","",""
"4292.200000000186","","image-slider-response","67","446053","0.0-66.0","A1PBFDQR599N3K","","","","","34","","","","","","","","","","","","","","","","","","","","","",""
"null","","image-button-response","68","451057","0.0-67.0","A1PBFDQR599N3K","img_art/20.jpg","null","","","","","","","","","","","","","","","","","","","","","","","","",""
"1584","","image-button-response","69","452648","0.0-68.0","A1PBFDQR599N3K","img_art/20.jpg","3","","","","","","","","","","","","","","","","","","","","","","","","",""
"12040","","image-button-response","70","464693","0.0-69.0-0.0","A1PBFDQR599N3K","img_art/20.jpg","1","","","","","","","","","","","","","","","","","","","","","","","","",""
"2318","","image-button-response","71","467016","0.0-70.0-0.0","A1PBFDQR599N3K","img_art/20.jpg","5","","","","","","","","","","","","","","","","","","","","","","","","",""
"null","","html-keyboard-response","72","467519","0.0-71.0","A1PBFDQR599N3K","<p style=""font-size: 48px;"">+</p>","","","","","null","allTrialResponses","500","1","4","img_art/20.jpg","34","Reminds me of a western","Gabrielle,Jamie,Taylor,Sophia,Kaitlyn,Haley","The white blob on the left seems out of place,-34,160,20","Looks like some type of future dystopian civilization,35,320,20","I just love this painting,47,340,20","A truck rolled over?  I do like the pictures and the technique though.,25,280,20","The picture looks smudged and dirty,-4,80,20","I really enjoy the contrast of colors (blue/red/orange),30,220,20","Sophia","A truck rolled over?  I do like the pictures and the technique though.,25,280,20","Jamie","Looks like some type of future dystopian civilization,35,320,20","Haley","I really enjoy the contrast of colors (blue/red/orange),30,220,20","0"
"18819","","survey-text","73","486343","0.0-72.0-0.0","A1PBFDQR599N3K","","","","{""Q0"":""Bad day in city""}","","","","","","","","","","","","","","","","","","","","","","",""
"3577.9000000001397","","image-slider-response","74","489924","0.0-73.0","A1PBFDQR599N3K","","","","","10","","","","","","","","","","","","","","","","","","","","","",""
"3187","","image-button-response","75","494928","0.0-74.0","A1PBFDQR599N3K","img_art/26.jpg","3","","","","","","","","","","","","","","","","","","","","","","","","",""
"2120","","image-button-response","76","497050","0.0-75.0","A1PBFDQR599N3K","img_art/26.jpg","1","","","","","","","","","","","","","","","","","","","","","","","","",""
"3394","","image-button-response","77","500448","0.0-76.0-0.0","A1PBFDQR599N3K","img_art/26.jpg","3","","","","","","","","","","","","","","","","","","","","","","","","",""
"2329","","image-button-response","78","502781","0.0-77.0-0.0","A1PBFDQR599N3K","img_art/26.jpg","5","","","","","","","","","","","","","","","","","","","","","","","","",""
"null","","html-keyboard-response","79","504284","0.0-78.0","A1PBFDQR599N3K","<p style=""font-size: 48px;"">+</p>","","","","","null","allTrialResponses","1500","1","5","img_art/26.jpg","10","Bad day in city","Michaela,Jamie,Jennifer,Sophia,Lauren,Haley","Elevator art but the watercolors are good,29,260,20","Street corner on a sunny day,5,320,20","This picture doesn't really stand out.,0,380,20","I like this. Looks like a city street and I can use my imagination to make it come alive.,15,280,20","The piece doesn't really invoke anything for me.,0,340,20","It feels almost unfinished, but I like the color palette,9,220,20","Jamie","Street corner on a sunny day,5,320,20","Sophia","I like this. Looks like a city street and I can use my imagination to make it come alive.,15,280,20","Haley","It feels almost unfinished, but I like the color palette,9,220,20","0"
"5766","","survey-text","80","510062","0.0-79.0-0.0","A1PBFDQR599N3K","","","","{""Q0"":""sky""}","","","","","","","","","","","","","","","","","","","","","","",""
"16965","","survey-text","81","527030","0.0-80.0-0.0","A1PBFDQR599N3K","","","","{""Q0"":""Hideous picture""}","","","","","","","","","","","","","","","","","","","","","","",""
"4131.899999999907","","image-slider-response","82","531167","0.0-81.0","A1PBFDQR599N3K","","","","","-50","","","","","","","","","","","","","","","","","","","","","",""
"null","","image-button-response","83","536170","0.0-82.0","A1PBFDQR599N3K","img_art/24.jpg","null","","","","","","","","","","","","","","","","","","","","","","","","",""
"282","","image-button-response","84","536456","0.0-83.0","A1PBFDQR599N3K","img_art/24.jpg","3","","","","","","","","","","","","","","","","","","","","","","","","",""
"2746","","image-button-response","85","539206","0.0-84.0-0.0","A1PBFDQR599N3K","img_art/24.jpg","2","","","","","","","","","","","","","","","","","","","","","","","","",""
"4213","","image-button-response","86","543424","0.0-85.0-0.0","A1PBFDQR599N3K","img_art/24.jpg","5","","","","","","","","","","","","","","","","","","","","","","","","",""
"null","","html-keyboard-response","87","544927","0.0-86.0","A1PBFDQR599N3K","<p style=""font-size: 48px;"">+</p>","","","","","null","allTrialResponses","1500","1","6","img_art/24.jpg","-50","Hideous picture","Molly,Jamie,Ashley,Sophia,Sabrina,Haley","Extraordinary and unusual.,30,340,20","Beautiful waterfall with nice colors,40,320,20","NOt quite Bob Ross, but still good.,30,320,20","Hmm. Don't know what to make of this one.,1,280,20","Love the natural vibe,50,120,20","Beautiful colors and texture,20,220,20","Sophia","Hmm. Don't know what to make of this one.,1,280,20","Ashley","NOt quite Bob Ross, but still good.,30,320,20","Haley","Beautiful colors and texture,20,220,20","0"
"30363","","survey-text","88","575297","0.0-87.0-0.0","A1PBFDQR599N3K","","","","{""Q0"":""Really interesting not sure what to focus on""}","","","","","","","","","","","","","","","","","","","","","","",""
"4254.90000000014","","image-slider-response","89","579555","0.0-88.0","A1PBFDQR599N3K","","","","","24","","","","","","","","","","","","","","","","","","","","","",""
"2736","","image-button-response","90","584560","0.0-89.0","A1PBFDQR599N3K","img_art/18.jpg","0","","","","","","","","","","","","","","","","","","","","","","","","",""
"417","","image-button-response","91","584981","0.0-90.0","A1PBFDQR599N3K","img_art/18.jpg","3","","","","","","","","","","","","","","","","","","","","","","","","",""
"2561","","image-button-response","92","587546","0.0-91.0-0.0","A1PBFDQR599N3K","img_art/18.jpg","5","","","","","","","","","","","","","","","","","","","","","","","","",""
"2013","","image-button-response","93","589565","0.0-92.0-0.0","A1PBFDQR599N3K","img_art/18.jpg","0","","","","","","","","","","","","","","","","","","","","","","","","",""
"null","","html-keyboard-response","94","590569","0.0-93.0","A1PBFDQR599N3K","<p style=""font-size: 48px;"">+</p>","","","","","null","allTrialResponses","1000","1","7","img_art/18.jpg","24","Really interesting not sure what to focus on","Miranda,Christina,Ashley,Sophia,Elizabeth,Haley","This one raises some questions, there could be some sort of fight or battle going on.,11,320,20","it looks dreary and not uplifting,-10,240,20","Resembles a ship at sea, storm of activity.,28,320,20","This one is very dark and apocalyptic indeed!,-30,280,20","Nice abstract art,50,20,20","I could stare at this for long stretches of time and still find new details. I love it.,40,220,20","Sophia","This one is very dark and apocalyptic indeed!,-30,280,20","Haley","I could stare at this for long stretches of time and still find new details. I love it.,40,220,20","Miranda","This one raises some questions, there could be some sort of fight or battle going on.,11,320,20","0"
"30036","","survey-text","95","620612","0.0-94.0-0.0","A1PBFDQR599N3K","","","","{""Q0"":""Like the images and brushwork""}","","","","","","","","","","","","","","","","","","","","","","",""
"4380.899999999907","","image-slider-response","96","624997","0.0-95.0","A1PBFDQR599N3K","","","","","14","","","","","","","","","","","","","","","","","","","","","",""
"null","","image-button-response","97","630001","0.0-96.0","A1PBFDQR599N3K","img_art/30.jpg","null","","","","","","","","","","","","","","","","","","","","","","","","",""
"1590","","image-button-response","98","631594","0.0-97.0","A1PBFDQR599N3K","img_art/30.jpg","5","","","","","","","","","","","","","","","","","","","","","","","","",""
"1071","","image-button-response","99","632668","0.0-98.0-0.0","A1PBFDQR599N3K","img_art/30.jpg","2","","","","","","","","","","","","","","","","","","","","","","","","",""
"3666","","image-button-response","100","636338","0.0-99.0-0.0","A1PBFDQR599N3K","img_art/30.jpg","3","","","","","","","","","","","","","","","","","","","","","","","","",""
"null","","html-keyboard-response","101","636841","0.0-100.0","A1PBFDQR599N3K","<p style=""font-size: 48px;"">+</p>","","","","","null","allTrialResponses","500","1","8","img_art/30.jpg","14","Like the images and brushwork","Miranda,Sierra,Mikayla,Sophia,Victoria,Haley","It looks like it was made by pre-k students.,-30,320,20","i dont like how the colors are mixed,-6,260,20","Very colorful! Wow!,22,300,20","Hmmm. I think the artist is trying to direct me to a spreadsheet?  (s/s),-10,280,20","to dark and dreary,-28,400,20","I like the colors,18,220,20","Haley","I like the colors,18,220,20","Mikayla","Very colorful! Wow!,22,300,20","Sophia","Hmmm. I think the artist is trying to direct me to a spreadsheet?  (s/s),-10,280,20","0"
"25127","","survey-text","102","661976","0.0-101.0-0.0","A1PBFDQR599N3K","","","","{""Q0"":""really confusing""}","","","","","","","","","","","","","","","","","","","","","","",""
"2802","","image-slider-response","103","664782","0.0-102.0","A1PBFDQR599N3K","","","","","-7","","","","","","","","","","","","","","","","","","","","","",""
"4500","","image-button-response","104","669786","0.0-103.0","A1PBFDQR599N3K","img_art/15.jpg","0","","","","","","","","","","","","","","","","","","","","","","","","",""
"7873","","image-button-response","105","677662","0.0-104.0","A1PBFDQR599N3K","img_art/15.jpg","0","","","","","","","","","","","","","","","","","","","","","","","","",""
"1455","","image-button-response","106","679122","0.0-105.0-0.0","A1PBFDQR599N3K","img_art/15.jpg","1","","","","","","","","","","","","","","","","","","","","","","","","",""
"1463","","image-button-response","107","680588","0.0-106.0-0.0","A1PBFDQR599N3K","img_art/15.jpg","0","","","","","","","","","","","","","","","","","","","","","","","","",""
"1849","","image-button-response","108","687135","0.0-106.1-0.1","A1PBFDQR599N3K","img_art/15.jpg","3","","","","","","","","","","","","","","","","","","","","","","","","",""
"null","","html-keyboard-response","109","688137","0.0-107.0","A1PBFDQR599N3K","<p style=""font-size: 48px;"">+</p>","","","","","null","allTrialResponses","1000","1","9","img_art/15.jpg","-7","really confusing","Sydney,Madison,Mikayla,Sophia,Heather,Haley","This picture is too confusing for me. I wouldn't want to stare at it to figure it out.,-10,320,20","I am starting to feel description fatigue. This would be pleasant enough in a doctor's office waiting room.,15,60,20","The dots are cool with the blue accents.,24,300,20","I feel like there's ski jumping going on here.,2,280,20","black leaves makes the blue birds stand out.,1,260,20","Interesting, and I don't dislike it.,9,220,20","Sydney","This picture is too confusing for me. I wouldn't want to stare at it to figure it out.,-10,320,20","Madison","I am starting to feel description fatigue. This would be pleasant enough in a doctor's office waiting room.,15,60,20","Sophia","I feel like there's ski jumping going on here.,2,280,20","2"
"31229","","survey-text","110","719374","0.0-108.0-0.0","A1PBFDQR599N3K","","","","{""Q0"":""this is beautiful like a birch tree in winters night""}","","","","","","","","","","","","","","","","","","","","","","",""
"5464","","image-slider-response","111","724846","0.0-109.0","A1PBFDQR599N3K","","","","","50","","","","","","","","","","","","","","","","","","","","","",""
"2024","","image-button-response","112","729851","0.0-110.0","A1PBFDQR599N3K","img_art/13.jpg","0","","","","","","","","","","","","","","","","","","","","","","","","",""
"218","","image-button-response","113","730073","0.0-111.0","A1PBFDQR599N3K","img_art/13.jpg","3","","","","","","","","","","","","","","","","","","","","","","","","",""
"2897","","image-button-response","114","732974","0.0-112.0-0.0","A1PBFDQR599N3K","img_art/13.jpg","2","","","","","","","","","","","","","","","","","","","","","","","","",""
"2633","","image-button-response","115","735611","0.0-113.0-0.0","A1PBFDQR599N3K","img_art/13.jpg","1","","","","","","","","","","","","","","","","","","","","","","","","",""
"null","","html-keyboard-response","116","736615","0.0-114.0","A1PBFDQR599N3K","<p style=""font-size: 48px;"">+</p>","","","","","null","allTrialResponses","1000","1","10","img_art/13.jpg","50","this is beautiful like a birch tree in winters night","Sydney,Madison,Kylie,Sophia,Samantha,Natalie","I love the style of this piece, but the color choice could've been more eye catching or calming.,40,320,20","Pollock? Love the juxtaposition of colors. Soothing and stirring, a beautiful inexplicable paradox.,50,60,20","Very abstract and soothing,40,300,20","I like the colors used in this piece.,2,280,20","Nice colors. beautiful blue,50,140,20","I like the colors,7,400,20","Sophia","I like the colors used in this piece.,2,280,20","Kylie","Very abstract and soothing,40,300,20","Madison","Pollock? Love the juxtaposition of colors. Soothing and stirring, a beautiful inexplicable paradox.,50,60,20","2"
"4887","","survey-text","117","741512","0.0-115.0-0.0","A1PBFDQR599N3K","","","","{""Q0"":""our""}","","","","","","","","","","","","","","","","","","","","","","",""
"26578","","survey-text","118","768093","0.0-116.0-0.0","A1PBFDQR599N3K","","","","{""Q0"":""day of dead interesting""}","","","","","","","","","","","","","","","","","","","","","","",""
"3709.1999999999534","","image-slider-response","119","771806","0.0-117.0","A1PBFDQR599N3K","","","","","-11","","","","","","","","","","","","","","","","","","","","","",""
"2366","","image-button-response","120","776810","0.0-118.0","A1PBFDQR599N3K","img_art/25.jpg","3","","","","","","","","","","","","","","","","","","","","","","","","",""
"1210","","image-button-response","121","778025","0.0-119.0","A1PBFDQR599N3K","img_art/25.jpg","2","","","","","","","","","","","","","","","","","","","","","","","","",""
"2271","","image-button-response","122","780300","0.0-120.0-0.0","A1PBFDQR599N3K","img_art/25.jpg","1","","","","","","","","","","","","","","","","","","","","","","","","",""
"2223","","image-button-response","123","782529","0.0-121.0-0.0","A1PBFDQR599N3K","img_art/25.jpg","0","","","","","","","","","","","","","","","","","","","","","","","","",""
"null","","html-keyboard-response","124","784032","0.0-122.0","A1PBFDQR599N3K","<p style=""font-size: 48px;"">+</p>","","","","","null","allTrialResponses","1500","1","11","img_art/25.jpg","-11","day of dead interesting","Amanda,Madison,Kylie,Sophia,Amber,Jasmine","Reminds me of Mr. Burns on drugs in the Simpsons,-50,180,20","Meh. Hardly abstract, though.,-40,60,20","Egyptian heiroglyphics and painting,15,300,20","This one just has a dark feeling to me.,-50,280,20","Regal. Reminds me of Egyptian art.,11,200,20","I liked it as it seems unique in a way,21,340,20","Kylie","Egyptian heiroglyphics and painting,15,300,20","Madison","Meh. Hardly abstract, though.,-40,60,20","Amanda","Reminds me of Mr. Burns on drugs in the Simpsons,-50,180,20","2"
"27877","","survey-text","125","811918","0.0-123.0-0.0","A1PBFDQR599N3K","","","","{""Q0"":""looks like a kid went over in crayons""}","","","","","","","","","","","","","","","","","","","","","","",""
"3200.3000000000466","","image-slider-response","126","815122","0.0-124.0","A1PBFDQR599N3K","","","","","-43","","","","","","","","","","","","","","","","","","","","","",""
"3404","","image-button-response","127","820126","0.0-125.0","A1PBFDQR599N3K","img_art/9.jpg","3","","","","","","","","","","","","","","","","","","","","","","","","",""
"1527","","image-button-response","128","821656","0.0-126.0","A1PBFDQR599N3K","img_art/9.jpg","5","","","","","","","","","","","","","","","","","","","","","","","","",""
"2696","","image-button-response","129","824356","0.0-127.0-0.0","A1PBFDQR599N3K","img_art/9.jpg","1","","","","","","","","","","","","","","","","","","","","","","","","",""
"2682","","image-button-response","130","827041","0.0-128.0-0.0","A1PBFDQR599N3K","img_art/9.jpg","0","","","","","","","","","","","","","","","","","","","","","","","","",""
"null","","html-keyboard-response","131","828544","0.0-129.0","A1PBFDQR599N3K","<p style=""font-size: 48px;"">+</p>","","","","","null","allTrialResponses","1500","1","12","img_art/9.jpg","-43","looks like a kid went over in crayons","Amanda,Madison,Kylie,Emma,Alexis,Danielle","Makes me feel angry, its not very clear,-50,180,20","No cohesive form whatsoever. Hard pass.,-31,60,20","Peaceful dreaming,40,300,20","Feels angry .....,-40,60,20","I like the sense of forboding, the green creates a claustrophobic feeling,10,100,20","Looks like a child's drawing,-40,340,20","Danielle","Looks like a child's drawing,-40,340,20","Madison","No cohesive form whatsoever. Hard pass.,-31,60,20","Amanda","Makes me feel angry, its not very clear,-50,180,20","2"
"18838","","survey-text","132","847389","0.0-130.0-0.0","A1PBFDQR599N3K","","","","{""Q0"":""scribbling not cool""}","","","","","","","","","","","","","","","","","","","","","","",""
"3529.8000000000466","","image-slider-response","133","850923","0.0-131.0","A1PBFDQR599N3K","","","","","-25","","","","","","","","","","","","","","","","","","","","","",""
"4109","","image-button-response","134","855927","0.0-132.0","A1PBFDQR599N3K","img_art/3.jpg","3","","","","","","","","","","","","","","","","","","","","","","","","",""
"869","","image-button-response","135","856798","0.0-133.0","A1PBFDQR599N3K","img_art/3.jpg","4","","","","","","","","","","","","","","","","","","","","","","","","",""
"2785","","image-button-response","136","859588","0.0-134.0-0.0","A1PBFDQR599N3K","img_art/3.jpg","5","","","","","","","","","","","","","","","","","","","","","","","","",""
"2034","","image-button-response","137","861627","0.0-135.0-0.0","A1PBFDQR599N3K","img_art/3.jpg","2","","","","","","","","","","","","","","","","","","","","","","","","",""
"null","","html-keyboard-response","138","862630","0.0-136.0","A1PBFDQR599N3K","<p style=""font-size: 48px;"">+</p>","","","","","null","allTrialResponses","1000","1","13","img_art/3.jpg","-25","scribbling not cool","Amanda,Madison,Olivia,Hailey,Bailey,Danielle","Looks like someone threw blood at a wall,-50,180,20","This doesn't grab me. Perhaps the red is meant to be provocative; I find it gimmicky.,-9,60,20","confusing taking over,-15,40,20","painted by a 2 year old. cold and boring,-30,200,20","Just scribbles. People buy that?,-47,360,20","Looks like it was painted with blood, which I'm aware is an art style, but it just looks messy.,-20,340,20","Bailey","Just scribbles. People buy that?,-47,360,20","Danielle","Looks like it was painted with blood, which I'm aware is an art style, but it just looks messy.,-20,340,20","Olivia","confusing taking over,-15,40,20","2"
"35348","","survey-text","139","897986","0.0-137.0-0.0","A1PBFDQR599N3K","","","","{""Q0"":""looks like a disaster""}","","","","","","","","","","","","","","","","","","","","","","",""
"5022.699999999953","","image-slider-response","140","903013","0.0-138.0","A1PBFDQR599N3K","","","","","-9","","","","","","","","","","","","","","","","","","","","","",""
"4684","","image-button-response","141","908018","0.0-139.0","A1PBFDQR599N3K","img_art/21.jpg","4","","","","","","","","","","","","","","","","","","","","","","","","",""
"2086","","image-button-response","142","910107","0.0-140.0","A1PBFDQR599N3K","img_art/21.jpg","5","","","","","","","","","","","","","","","","","","","","","","","","",""
"2534","","image-button-response","143","912646","0.0-141.0-0.0","A1PBFDQR599N3K","img_art/21.jpg","2","","","","","","","","","","","","","","","","","","","","","","","","",""
"3619","","image-button-response","144","916270","0.0-142.0-0.0","A1PBFDQR599N3K","img_art/21.jpg","4","","","","","","","","","","","","","","","","","","","","","","","","",""
"null","","html-keyboard-response","145","917784","0.0-143.0","A1PBFDQR599N3K","<p style=""font-size: 48px;"">+</p>","","","","","null","allTrialResponses","1500","1","14","img_art/21.jpg","-9","looks like a disaster","Madeline,Megan,Olivia,Allison,Bailey,Danielle","Evokes a strong colorful sense,8,40,20","Nice asymmetry with maritime colors city meets the sea,34,200,20","feels like a wave coming into light,9,40,20","I like color mix here,15,140,20","Looks like two ships on fire. Cool image.,12,360,20","I like it. It's some of war-scene, bloodshed and battle on the left, field of dispair on the right, dark and rich,40,340,20","Danielle","I like it. It's some of war-scene, bloodshed and battle on the left, field of dispair on the right, dark and rich,40,340,20","Olivia","feels like a wave coming into light,9,40,20","Bailey","Looks like two ships on fire. Cool image.,12,360,20","2"
"16665","","survey-text","146","934456","0.0-144.0-0.0","A1PBFDQR599N3K","","","","{""Q0"":""beautiful city""}","","","","","","","","","","","","","","","","","","","","","","",""
"2794.5","","image-slider-response","147","937253","0.0-145.0","A1PBFDQR599N3K","","","","","20","","","","","","","","","","","","","","","","","","","","","",""
"4873","","image-button-response","148","942257","0.0-146.0","A1PBFDQR599N3K","img_art/11.jpg","4","","","","","","","","","","","","","","","","","","","","","","","","",""
"2211","","image-button-response","149","944472","0.0-147.0","A1PBFDQR599N3K","img_art/11.jpg","1","","","","","","","","","","","","","","","","","","","","","","","","",""
"1678","","image-button-response","150","946155","0.0-148.0-0.0","A1PBFDQR599N3K","img_art/11.jpg","2","","","","","","","","","","","","","","","","","","","","","","","","",""
"1518","","image-button-response","151","947678","0.0-149.0-0.0","A1PBFDQR599N3K","img_art/11.jpg","5","","","","","","","","","","","","","","","","","","","","","","","","",""
"null","","html-keyboard-response","152","949181","0.0-150.0","A1PBFDQR599N3K","<p style=""font-size: 48px;"">+</p>","","","","","null","allTrialResponses","1500","1","15","img_art/11.jpg","20","beautiful city","Jacqueline,Grace,Olivia,Monica,Bailey,Danielle","It's too dark and dingy.,-30,300,20","Rainy asian city scape.,31,180,20","business of traffic,10,40,20","I like how it reminds me of music and at the same time it looks like colorful train tracks.,10,360,20","Kind of bizzare in that I can imagine ships or something from it.,11,360,20","Reminds me of some of post-apocalyptic view of street lights or maybe a city,30,340,20","Grace","Rainy asian city scape.,31,180,20","Olivia","business of traffic,10,40,20","Danielle","Reminds me of some of post-apocalyptic view of street lights or maybe a city,30,340,20","2"
"5436","","survey-text","153","954632","0.0-151.0-0.0","A1PBFDQR599N3K","","","","{""Q0"":""course""}","","","","","","","","","","","","","","","","","","","","","","",""
"9724","","survey-text","154","964359","0.0-152.0-0.0","A1PBFDQR599N3K","","","","{""Q0"":""ugly colors""}","","","","","","","","","","","","","","","","","","","","","","",""
"3144.6999999999534","","image-slider-response","155","967507","0.0-153.0","A1PBFDQR599N3K","","","","","-35","","","","","","","","","","","","","","","","","","","","","",""
"2432","","image-button-response","156","972512","0.0-154.0","A1PBFDQR599N3K","img_art/2.jpg","3","","","","","","","","","","","","","","","","","","","","","","","","",""
"170","","image-button-response","157","972686","0.0-155.0","A1PBFDQR599N3K","img_art/2.jpg","5","","","","","","","","","","","","","","","","","","","","","","","","",""
"2059","","image-button-response","158","974749","0.0-156.0-0.0","A1PBFDQR599N3K","img_art/2.jpg","1","","","","","","","","","","","","","","","","","","","","","","","","",""
"1110","","image-button-response","159","975863","0.0-157.0-0.0","A1PBFDQR599N3K","img_art/2.jpg","0","","","","","","","","","","","","","","","","","","","","","","","","",""
"null","","html-keyboard-response","160","977366","0.0-158.0","A1PBFDQR599N3K","<p style=""font-size: 48px;"">+</p>","","","","","null","allTrialResponses","1500","1","16","img_art/2.jpg","-35","ugly colors","Kimberly,Grace,Olivia,Paige,Alexandria,Danielle","I like the green,13,260,20","Like the colors but reminds me of a kids show done in cubism.,0,180,20","i liked the bright colors,13,40,20","Unhappy. I do not like it,-5,60,20","too abstract and confusing,-19,80,20","Not a fan of this style,-30,340,20","Danielle","Not a fan of this style,-30,340,20","Grace","Like the colors but reminds me of a kids show done in cubism.,0,180,20","Kimberly","I like the green,13,260,20","2"
"30035","","survey-text","161","1007409","0.0-159.0-0.0","A1PBFDQR599N3K","","","","{""Q0"":""love the different things going on""}","","","","","","","","","","","","","","","","","","","","","","",""
"3241.5","","image-slider-response","162","1010655","0.0-160.0","A1PBFDQR599N3K","","","","","29","","","","","","","","","","","","","","","","","","","","","",""
"4248","","image-button-response","163","1015660","0.0-161.0","A1PBFDQR599N3K","img_art/14.jpg","4","","","","","","","","","","","","","","","","","","","","","","","","",""
"222","","image-button-response","164","1015885","0.0-162.0","A1PBFDQR599N3K","img_art/14.jpg","5","","","","","","","","","","","","","","","","","","","","","","","","",""
"1679","","image-button-response","165","1017570","0.0-163.0-0.0","A1PBFDQR599N3K","img_art/14.jpg","2","","","","","","","","","","","","","","","","","","","","","","","","",""
"1076","","image-button-response","166","1018650","0.0-164.0-0.0","A1PBFDQR599N3K","img_art/14.jpg","1","","","","","","","","","","","","","","","","","","","","","","","","",""
"null","","html-keyboard-response","167","1019152","0.0-165.0","A1PBFDQR599N3K","<p style=""font-size: 48px;"">+</p>","","","","","null","allTrialResponses","500","1","17","img_art/14.jpg","29","love the different things going on","Kimberly,Grace,Courtney,Chelsea,Katherine,Danielle","In some ways it looks natural, but I'm just not feeling it,0,260,20","Like some of the colors but not much else.,1,180,20","The pirates ship is sinking.,27,280,20","The colors are pleasing.,29,180,20","I don't like the color red,30,120,20","Too much yellow in this image, i'm not a fan of art that is overly-saturated with yellow,-30,340,20","Danielle","Too much yellow in this image, i'm not a fan of art that is overly-saturated with yellow,-30,340,20","Courtney","The pirates ship is sinking.,27,280,20","Grace","Like some of the colors but not much else.,1,180,20","2"
"25088","","survey-text","168","1044247","0.0-166.0-0.0","A1PBFDQR599N3K","","","","{""Q0"":""looks like a bad picture""}","","","","","","","","","","","","","","","","","","","","","","",""
"4243.100000000093","","image-slider-response","169","1048493","0.0-167.0","A1PBFDQR599N3K","","","","","-39","","","","","","","","","","","","","","","","","","","","","",""
"3641","","image-button-response","170","1053497","0.0-168.0","A1PBFDQR599N3K","img_art/23.jpg","3","","","","","","","","","","","","","","","","","","","","","","","","",""
"319","","image-button-response","171","1053819","0.0-169.0","A1PBFDQR599N3K","img_art/23.jpg","0","","","","","","","","","","","","","","","","","","","","","","","","",""
"990","","image-button-response","172","1054813","0.0-170.0-0.0","A1PBFDQR599N3K","img_art/23.jpg","1","","","","","","","","","","","","","","","","","","","","","","","","",""
"1294","","image-button-response","173","1056112","0.0-171.0-0.0","A1PBFDQR599N3K","img_art/23.jpg","2","","","","","","","","","","","","","","","","","","","","","","","","",""
"null","","html-keyboard-response","174","1056616","0.0-172.0","A1PBFDQR599N3K","<p style=""font-size: 48px;"">+</p>","","","","","null","allTrialResponses","500","1","18","img_art/23.jpg","-39","looks like a bad picture","Erin,Grace,Courtney,Alyssa,Savannah,Danielle","Confetti dancer,-7,120,20","Looks like fireworks.,21,180,20","Looks like fish fossils,12,280,20","Very bright and eye catching.The White silhouettes remind me of people celebrating.,31,160,20","Very colorful. Nice contrasts.,26,200,20","While I don't normally enjoy these color schemes all together, I kind of like this one,10,340,20","Erin","Confetti dancer,-7,120,20","Grace","Looks like fireworks.,21,180,20","Courtney","Looks like fish fossils,12,280,20","2"
"17415","","survey-text","175","1074040","0.0-173.0-0.0","A1PBFDQR599N3K","","","","{""Q0"":""beautiful images""}","","","","","","","","","","","","","","","","","","","","","","",""
"5344.300000000279","","image-slider-response","176","1079391","0.0-174.0","A1PBFDQR599N3K","","","","","44","","","","","","","","","","","","","","","","","","","","","",""
"4753","","image-button-response","177","1084396","0.0-175.0","A1PBFDQR599N3K","img_art/17.jpg","0","","","","","","","","","","","","","","","","","","","","","","","","",""
"585","","image-button-response","178","1084983","0.0-176.0","A1PBFDQR599N3K","img_art/17.jpg","1","","","","","","","","","","","","","","","","","","","","","","","","",""
"777","","image-button-response","179","1085763","0.0-177.0-0.0","A1PBFDQR599N3K","img_art/17.jpg","2","","","","","","","","","","","","","","","","","","","","","","","","",""
"2081","","image-button-response","180","1087847","0.0-178.0-0.0","A1PBFDQR599N3K","img_art/17.jpg","0","","","","","","","","","","","","","","","","","","","","","","","","",""
"null","","html-keyboard-response","181","1088849","0.0-179.0","A1PBFDQR599N3K","<p style=""font-size: 48px;"">+</p>","","","","","null","allTrialResponses","1000","1","19","img_art/17.jpg","44","beautiful images","Erin,Grace,Courtney,Claire,Katie,Isabella","Windows indoor tree, weird palette,-11,120,20","Reminds me of winters in Minnesota.,48,180,20","Some new perm we got there.,12,280,20","its whimsical and light,50,260,20","Is it a tree/plant of some sort?  Or, I see hair?  I don't get it. But, the colors are pleasing to me.,1,160,20","Pleasant fall to winter day,22,280,20","Grace","Reminds me of winters in Minnesota.,48,180,20","Courtney","Some new perm we got there.,12,280,20","Erin","Windows indoor tree, weird palette,-11,120,20","2"
"17815","","survey-text","182","1106673","0.0-180.0-0.0","A1PBFDQR599N3K","","","","{""Q0"":""too much to try to see""}","","","","","","","","","","","","","","","","","","","","","","",""
"3841.8000000002794","","image-slider-response","183","1110519","0.0-181.0","A1PBFDQR599N3K","","","","","-43","","","","","","","","","","","","","","","","","","","","","",""
"2174","","image-button-response","184","1115524","0.0-182.0","A1PBFDQR599N3K","img_art/19.jpg","1","","","","","","","","","","","","","","","","","","","","","","","","",""
"1121","","image-button-response","185","1116648","0.0-183.0","A1PBFDQR599N3K","img_art/19.jpg","5","","","","","","","","","","","","","","","","","","","","","","","","",""
"1869","","image-button-response","186","1118522","0.0-184.0-0.0","A1PBFDQR599N3K","img_art/19.jpg","2","","","","","","","","","","","","","","","","","","","","","","","","",""
"1936","","image-button-response","187","1120462","0.0-185.0-0.0","A1PBFDQR599N3K","img_art/19.jpg","3","","","","","","","","","","","","","","","","","","","","","","","","",""
"null","","html-keyboard-response","188","1120972","0.0-186.0","A1PBFDQR599N3K","<p style=""font-size: 48px;"">+</p>","","","","","null","allTrialResponses","500","1","20","img_art/19.jpg","-43","too much to try to see","Erin,Grace,Courtney,Alexandra,Kayla,Brianna","Childish music hall,-20,120,20","Looks like a child's rendering of a city street but not too sure.,0,180,20","Thats a lazy town,-8,280,20","This photo has too much going on.,-19,60,20","Too messy and busy. Too much going on there for me.,-12,180,20","I don't know what's going on, and I realise that I don't like it,-21,20,20","Brianna","I don't know what's going on, and I realise that I don't like it,-21,20,20","Courtney","Thats a lazy town,-8,280,20","Alexandra","This photo has too much going on.,-19,60,20","2"
"8997","","survey-text","189","1129983","0.0-187.0-0.0","A1PBFDQR599N3K","","","","{""Q0"":""we""}","","","","","","","","","","","","","","","","","","","","","","",""
"21732","","survey-text","190","1151719","0.0-188.0-0.0","A1PBFDQR599N3K","","","","{""Q0"":""Poor ted what happened""}","","","","","","","","","","","","","","","","","","","","","","",""
"4386.800000000279","","image-slider-response","191","1156108","0.0-189.0","A1PBFDQR599N3K","","","","","-49","","","","","","","","","","","","","","","","","","","","","",""
"4113","","image-button-response","192","1161112","0.0-190.0","A1PBFDQR599N3K","img_art/16.jpg","1","","","","","","","","","","","","","","","","","","","","","","","","",""
"2443","","image-button-response","193","1163560","0.0-191.0","A1PBFDQR599N3K","img_art/16.jpg","2","","","","","","","","","","","","","","","","","","","","","","","","",""
"3000","","image-button-response","194","1166564","0.0-192.0-0.0","A1PBFDQR599N3K","img_art/16.jpg","4","","","","","","","","","","","","","","","","","","","","","","","","",""
"2709","","image-button-response","195","1169278","0.0-193.0-0.0","A1PBFDQR599N3K","img_art/16.jpg","3","","","","","","","","","","","","","","","","","","","","","","","","",""
"null","","html-keyboard-response","196","1170280","0.0-194.0","A1PBFDQR599N3K","<p style=""font-size: 48px;"">+</p>","","","","","null","allTrialResponses","1000","1","21","img_art/16.jpg","-49","Poor ted what happened","Leslie,Lindsey,Courtney,Alexandra,Caroline,Brianna","This is making me feel nervous in an enjoyable way.,20,380,20","It's depressing. Probably achieved its goal. But I wouldn't want it hanging in my home.,-31,400,20","Hmm i don't know what going on here.,1,280,20","This is weird and creepy.,-40,60,20","Did not like at all. I think something sinister going on in the background and the bear a diversion,-50,100,20","It is interesting to say the least,0,20,20","Courtney","Hmm i don't know what going on here.,1,280,20","Caroline","Did not like at all. I think something sinister going on in the background and the bear a diversion,-50,100,20","Alexandra","This is weird and creepy.,-40,60,20","2"
"15158","","survey-text","197","1185446","0.0-195.0-0.0","A1PBFDQR599N3K","","","","{""Q0"":""neat textures""}","","","","","","","","","","","","","","","","","","","","","","",""
"3033.2000000001863","","image-slider-response","198","1188483","0.0-196.0","A1PBFDQR599N3K","","","","","-8","","","","","","","","","","","","","","","","","","","","","",""
"4459","","image-button-response","199","1193486","0.0-197.0","A1PBFDQR599N3K","img_art/7.jpg","5","","","","","","","","","","","","","","","","","","","","","","","","",""
"1018","","image-button-response","200","1194507","0.0-198.0","A1PBFDQR599N3K","img_art/7.jpg","2","","","","","","","","","","","","","","","","","","","","","","","","",""
"1102","","image-button-response","201","1195613","0.0-199.0-0.0","A1PBFDQR599N3K","img_art/7.jpg","1","","","","","","","","","","","","","","","","","","","","","","","","",""
"876","","image-button-response","202","1196493","0.0-200.0-0.0","A1PBFDQR599N3K","img_art/7.jpg","0","","","","","","","","","","","","","","","","","","","","","","","","",""
"null","","html-keyboard-response","203","1196996","0.0-201.0","A1PBFDQR599N3K","<p style=""font-size: 48px;"">+</p>","","","","","null","allTrialResponses","500","1","22","img_art/7.jpg","-8","neat textures","Kaitlin,Morgan,Courtney,Alexandra,Caroline,Destiny","I'm not too sure about this one,-10,60,20","Dead bugs on an insect battleground.,-10,380,20","That a desert floor,16,280,20","I do not like the boring colors in this.,-20,60,20","Looks like dirt on the ground. Makes me feel unclean,-37,100,20","mars also crunchy leaves maybe a beehive,32,360,20","Courtney","That a desert floor,16,280,20","Morgan","Dead bugs on an insect battleground.,-10,380,20","Kaitlin","I'm not too sure about this one,-10,60,20","2"
"18767","","survey-text","204","1215771","0.0-202.0-0.0","A1PBFDQR599N3K","","","","{""Q0"":""dark and creepy""}","","","","","","","","","","","","","","","","","","","","","","",""
"3016.100000000093","","image-slider-response","205","1218791","0.0-203.0","A1PBFDQR599N3K","","","","","1","","","","","","","","","","","","","","","","","","","","","",""
"4938","","image-button-response","206","1223797","0.0-204.0","A1PBFDQR599N3K","img_art/12.jpg","5","","","","","","","","","","","","","","","","","","","","","","","","",""
"1416","","image-button-response","207","1225216","0.0-205.0","A1PBFDQR599N3K","img_art/12.jpg","0","","","","","","","","","","","","","","","","","","","","","","","","",""
"1004","","image-button-response","208","1226224","0.0-206.0-0.0","A1PBFDQR599N3K","img_art/12.jpg","2","","","","","","","","","","","","","","","","","","","","","","","","",""
"1528","","image-button-response","209","1227756","0.0-207.0-0.0","A1PBFDQR599N3K","img_art/12.jpg","1","","","","","","","","","","","","","","","","","","","","","","","","",""
"null","","html-keyboard-response","210","1228259","0.0-208.0","A1PBFDQR599N3K","<p style=""font-size: 48px;"">+</p>","","","","","null","allTrialResponses","500","1","23","img_art/12.jpg","1","dark and creepy","Kaitlin,Morgan,Courtney,Abigail,Jordan,Hannah","too much - just overcrowded,-20,60,20","Ugly color combinations, no focus.,-25,380,20","That is a warn quilt grama made.,11,280,20","Made me uncomfortable, reminded me of the 90s,-9,20,20","not my kind of thing,1,20,20","I don't get this one. Doesn't evoke an emotional response.,-10,240,20","Kaitlin","too much - just overcrowded,-20,60,20","Courtney","That is a warn quilt grama made.,11,280,20","Morgan","Ugly color combinations, no focus.,-25,380,20","2"
"14811","","survey-text","211","1243079","0.0-209.0-0.0","A1PBFDQR599N3K","","","","{""Q0"":""What is this so ugly""}","","","","","","","","","","","","","","","","","","","","","","",""
"3649","","image-slider-response","212","1246731","0.0-210.0","A1PBFDQR599N3K","","","","","-50","","","","","","","","","","","","","","","","","","","","","",""
"4837","","image-button-response","213","1251734","0.0-211.0","A1PBFDQR599N3K","img_art/5.jpg","4","","","","","","","","","","","","","","","","","","","","","","","","",""
"698","","image-button-response","214","1252437","0.0-212.0","A1PBFDQR599N3K","img_art/5.jpg","5","","","","","","","","","","","","","","","","","","","","","","","","",""
"1236","","image-button-response","215","1253677","0.0-213.0-0.0","A1PBFDQR599N3K","img_art/5.jpg","2","","","","","","","","","","","","","","","","","","","","","","","","",""
"1078","","image-button-response","216","1254760","0.0-214.0-0.0","A1PBFDQR599N3K","img_art/5.jpg","1","","","","","","","","","","","","","","","","","","","","","","","","",""
"null","","html-keyboard-response","217","1256263","0.0-215.0","A1PBFDQR599N3K","<p style=""font-size: 48px;"">+</p>","","","","","null","allTrialResponses","1500","1","24","img_art/5.jpg","-50","What is this so ugly","Kaitlin,Morgan,Courtney,Erika,Sarah,Kristen","a bit confused about this picture,-9,60,20","Dull pyramid that says nothing.,7,380,20","A rabbits head.,4,280,20","Not sure what I'm looking at,-16,100,20","looks very childish,-35,180,20","sharp, painful yet playful,-5,280,20","Kristen","sharp, painful yet playful,-5,280,20","Courtney","A rabbits head.,4,280,20","Morgan","Dull pyramid that says nothing.,7,380,20","2"
"15224","","survey-text","218","1271495","0.0-216.0-0.0","A1PBFDQR599N3K","","","","{""Q0"":""boring colors""}","","","","","","","","","","","","","","","","","","","","","","",""
"3007.7999999998137","","image-slider-response","219","1274507","0.0-217.0","A1PBFDQR599N3K","","","","","-24","","","","","","","","","","","","","","","","","","","","","",""
"2848","","image-button-response","220","1279512","0.0-218.0","A1PBFDQR599N3K","img_art/28.jpg","3","","","","","","","","","","","","","","","","","","","","","","","","",""
"1266","","image-button-response","221","1280781","0.0-219.0","A1PBFDQR599N3K","img_art/28.jpg","2","","","","","","","","","","","","","","","","","","","","","","","","",""
"941","","image-button-response","222","1281725","0.0-220.0-0.0","A1PBFDQR599N3K","img_art/28.jpg","1","","","","","","","","","","","","","","","","","","","","","","","","",""
"1470","","image-button-response","223","1283199","0.0-221.0-0.0","A1PBFDQR599N3K","img_art/28.jpg","0","","","","","","","","","","","","","","","","","","","","","","","","",""
"null","","html-keyboard-response","224","1283701","0.0-222.0","A1PBFDQR599N3K","<p style=""font-size: 48px;"">+</p>","","","","","null","allTrialResponses","500","1","25","img_art/28.jpg","-24","boring colors","Cassandra,Morgan,Courtney,Cynthia,Nicole,Kristen","Hate it...brown and drab,-37,120,20","Apartment throw up.,-5,380,20","Looks like some guys in s band playing at a busy park.,18,280,20","nostalgic from a memory,11,320,20","The lack of color variance leaves it looking ugly even if I like the brush strokes,-10,20,20","almost reminds me of thomas becket getting his head cut off,21,280,20","Courtney","Looks like some guys in s band playing at a busy park.,18,280,20","Morgan","Apartment throw up.,-5,380,20","Cassandra","Hate it...brown and drab,-37,120,20","2"
"6067","","survey-text","225","1289783","0.0-223.0-0.0","A1PBFDQR599N3K","","","","{""Q0"":""table""}","","","","","","","","","","","","","","","","","","","","","","",""
"13495","","survey-text","226","1303281","0.0-224.0-0.0","A1PBFDQR599N3K","","","","{""Q0"":""broodin too dark""}","","","","","","","","","","","","","","","","","","","","","","",""
"4824.600000000093","","image-slider-response","227","1308109","0.0-225.0","A1PBFDQR599N3K","","","","","-41","","","","","","","","","","","","","","","","","","","","","",""
"3716","","image-button-response","228","1313113","0.0-226.0","A1PBFDQR599N3K","img_art/29.jpg","2","","","","","","","","","","","","","","","","","","","","","","","","",""
"403","","image-button-response","229","1313519","0.0-227.0","A1PBFDQR599N3K","img_art/29.jpg","5","","","","","","","","","","","","","","","","","","","","","","","","",""
"1119","","image-button-response","230","1314642","0.0-228.0-0.0","A1PBFDQR599N3K","img_art/29.jpg","4","","","","","","","","","","","","","","","","","","","","","","","","",""
"1014","","image-button-response","231","1315660","0.0-229.0-0.0","A1PBFDQR599N3K","img_art/29.jpg","3","","","","","","","","","","","","","","","","","","","","","","","","",""
"null","","html-keyboard-response","232","1316163","0.0-230.0","A1PBFDQR599N3K","<p style=""font-size: 48px;"">+</p>","","","","","null","allTrialResponses","500","1","26","img_art/29.jpg","-41","broodin too dark","Cassandra,Morgan,Courtney,Stephanie,Chloe,Jessica","Neural...just a blackboard jungle.,3,120,20","Tested and failed a lot of ideas.,-20,380,20","Thats a pretty wierd picture.,6,280,20","Looks like a murder,-50,300,20","Looks muddy and sticky,-31,220,20","It looks cool but I don't really get what's going on, it looks too busy,0,400,20","Jessica","It looks cool but I don't really get what's going on, it looks too busy,0,400,20","Chloe","Looks muddy and sticky,-31,220,20","Stephanie","Looks like a murder,-50,300,20","2"
"11766","","survey-text","233","1327937","0.0-231.0-0.0","A1PBFDQR599N3K","","","","{""Q0"":""like the colors""}","","","","","","","","","","","","","","","","","","","","","","",""
"3967.100000000093","","image-slider-response","234","1331907","0.0-232.0","A1PBFDQR599N3K","","","","","3","","","","","","","","","","","","","","","","","","","","","",""
"4842","","image-button-response","235","1336912","0.0-233.0","A1PBFDQR599N3K","img_art/1.jpg","5","","","","","","","","","","","","","","","","","","","","","","","","",""
"783","","image-button-response","236","1337699","0.0-234.0","A1PBFDQR599N3K","img_art/1.jpg","4","","","","","","","","","","","","","","","","","","","","","","","","",""
"1069","","image-button-response","237","1338772","0.0-235.0-0.0","A1PBFDQR599N3K","img_art/1.jpg","3","","","","","","","","","","","","","","","","","","","","","","","","",""
"1358","","image-button-response","238","1340134","0.0-236.0-0.0","A1PBFDQR599N3K","img_art/1.jpg","5","","","","","","","","","","","","","","","","","","","","","","","","",""
"null","","html-keyboard-response","239","1341637","0.0-237.0","A1PBFDQR599N3K","<p style=""font-size: 48px;"">+</p>","","","","","null","allTrialResponses","1500","1","27","img_art/1.jpg","3","like the colors","Erica,Shelby,Shannon,Stephanie,Chloe,Jessica","Makes me warm and relaxed,38,80,20","This one has a pleasent energy,15,240,20","I think that this picture has nice colors and its pleasing to the eyes.,20,220,20","Pretty colors. Fall day in the East Coast of USA.,42,300,20","Powerful colors.,31,220,20","Looks like the same thing as the last piece shown to me,10,400,20","Chloe","Powerful colors.,31,220,20","Stephanie","Pretty colors. Fall day in the East Coast of USA.,42,300,20","Jessica","Looks like the same thing as the last piece shown to me,10,400,20","2"
"10816","","survey-text","240","1352465","0.0-238.0-0.0","A1PBFDQR599N3K","","","","{""Q0"":""So much to see""}","","","","","","","","","","","","","","","","","","","","","","",""
"3806.2999999998137","","image-slider-response","241","1356275","0.0-239.0","A1PBFDQR599N3K","","","","","24","","","","","","","","","","","","","","","","","","","","","",""
"3865","","image-button-response","242","1361279","0.0-240.0","A1PBFDQR599N3K","img_art/8.jpg","4","","","","","","","","","","","","","","","","","","","","","","","","",""
"1352","","image-button-response","243","1362635","0.0-241.0","A1PBFDQR599N3K","img_art/8.jpg","2","","","","","","","","","","","","","","","","","","","","","","","","",""
"1299","","image-button-response","244","1363937","0.0-242.0-0.0","A1PBFDQR599N3K","img_art/8.jpg","1","","","","","","","","","","","","","","","","","","","","","","","","",""
"2406","","image-button-response","245","1366348","0.0-243.0-0.0","A1PBFDQR599N3K","img_art/8.jpg","4","","","","","","","","","","","","","","","","","","","","","","","","",""
"null","","html-keyboard-response","246","1367350","0.0-244.0","A1PBFDQR599N3K","<p style=""font-size: 48px;"">+</p>","","","","","null","allTrialResponses","1000","1","28","img_art/8.jpg","24","So much to see","Maria,Brittany,Margaret,Stephanie,Chloe,Jessica","not sure what to make of this - just neutral again,-1,120,20","Interesting to look at, there are many things happening in the painting.,32,40,20","its pretty exciting to look at, there is alot going on,15,100,20","I like the colors and geometrical shapes but the face in the sky makes it look scary,-10,300,20","Cheesy. A little too knock you over the dead with its message without making it emotional,-31,220,20","Very cool! I like this piece,9,400,20","Margaret","its pretty exciting to look at, there is alot going on,15,100,20","Brittany","Interesting to look at, there are many things happening in the painting.,32,40,20","Chloe","Cheesy. A little too knock you over the dead with its message without making it emotional,-31,220,20","2"
"26505","","survey-text","247","1393865","0.0-245.0-0.0","A1PBFDQR599N3K","","","","{""Q0"":""different looks like a 5 year old did it""}","","","","","","","","","","","","","","","","","","","","","","",""
"2680.5999999996275","","image-slider-response","248","1396549","0.0-246.0","A1PBFDQR599N3K","","","","","-28","","","","","","","","","","","","","","","","","","","","","",""
"3465","","image-button-response","249","1401552","0.0-247.0","A1PBFDQR599N3K","img_art/6.jpg","2","","","","","","","","","","","","","","","","","","","","","","","","",""
"679","","image-button-response","250","1402236","0.0-248.0","A1PBFDQR599N3K","img_art/6.jpg","5","","","","","","","","","","","","","","","","","","","","","","","","",""
"1214","","image-button-response","251","1403453","0.0-249.0-0.0","A1PBFDQR599N3K","img_art/6.jpg","3","","","","","","","","","","","","","","","","","","","","","","","","",""
"1814","","image-button-response","252","1405272","0.0-250.0-0.0","A1PBFDQR599N3K","img_art/6.jpg","0","","","","","","","","","","","","","","","","","","","","","","","","",""
"null","","html-keyboard-response","253","1406775","0.0-251.0","A1PBFDQR599N3K","<p style=""font-size: 48px;"">+</p>","","","","","null","allTrialResponses","1500","1","29","img_art/6.jpg","-28","different looks like a 5 year old did it","Meghan,Brittany,Margaret,Autumn,Chloe,Kelsey","reminds me of a bird,31,220,20","It's alright. I imagined the peach from James and the Giant Peach.,1,40,20","reminds me of a happy edgar allen poe poem,8,100,20","Bird? It's a bird.,23,340,20","Cute and evocative,11,220,20","its like a jalapeno,-28,240,20","Kelsey","its like a jalapeno,-28,240,20","Autumn","Bird? It's a bird.,23,340,20","Meghan","reminds me of a bird,31,220,20","2"
"20460","","survey-text","254","1427245","0.0-252.0-0.0","A1PBFDQR599N3K","","","","{""Q0"":""hate the colors""}","","","","","","","","","","","","","","","","","","","","","","",""
"4050.6999999997206","","image-slider-response","255","1431299","0.0-253.0","A1PBFDQR599N3K","","","","","-33","","","","","","","","","","","","","","","","","","","","","",""
"4714","","image-button-response","256","1436303","0.0-254.0","A1PBFDQR599N3K","img_art/27.jpg","3","","","","","","","","","","","","","","","","","","","","","","","","",""
"1073","","image-button-response","257","1437380","0.0-255.0","A1PBFDQR599N3K","img_art/27.jpg","2","","","","","","","","","","","","","","","","","","","","","","","","",""
"1694","","image-button-response","258","1439077","0.0-256.0-0.0","A1PBFDQR599N3K","img_art/27.jpg","0","","","","","","","","","","","","","","","","","","","","","","","","",""
"1423","","image-button-response","259","1440503","0.0-257.0-0.0","A1PBFDQR599N3K","img_art/27.jpg","1","","","","","","","","","","","","","","","","","","","","","","","","",""
"null","","html-keyboard-response","260","1442006","0.0-258.0","A1PBFDQR599N3K","<p style=""font-size: 48px;"">+</p>","","","","","null","allTrialResponses","1500","1","30","img_art/27.jpg","-33","hate the colors","Meghan,Emily,Jenna,Autumn,Tiffany,Kelsey","again looks like childrens artwork,-40,220,20","Anyone could do that.,-31,40,20","the green & white scribbles feel childlike. perhaps the quality of the photo, but the colors are gloomy.,-13,360,20","Adult contemporary painting with child.,-33,340,20","I feel peaceful and a little nervous at the same time.,11,360,20","too messy dont like the color choices either,-17,240,20","Jenna","the green & white scribbles feel childlike. perhaps the quality of the photo, but the colors are gloomy.,-13,360,20","Meghan","again looks like childrens artwork,-40,220,20","Emily","Anyone could do that.,-31,40,20","2"
"2844","","image-button-response_instructions","261","1444861","0.0-259.0","A1PBFDQR599N3K","","0","instructions","","","","","","","","","","","","","","","","","","","","","","","",""
"1906","","image-button-response","262","1446777","0.0-260.0","A1PBFDQR599N3K","","0","","","","","","","","","","","","","","","","","","","","","","","","",""
