"rt","url","trial_type","trial_index","time_elapsed","internal_node_id","participant_id","stimulus","button_pressed","Name","responses","response","key_press","variableName","fixationTime","condition","trial","photo","subjectRating","subjectResponse","agentsNames","agent_1_Response","agent_2_Response","agent_3_Response","agent_4_Response","agent_5_Response","agent_6_Response","kept_1_name","kept_1_response","kept_2_name","kept_2_response","kept_3_name","kept_3_response","errorCounter"
"31409","external_page_harvard.html","external-html","0","31456","0.0-0.0","A1PHDT66U6IK4Q","","","","","","","","","","","","","","","","","","","","","","","","","","",""
"2718","","image-button-response","1","34177","0.0-1.0","A1PHDT66U6IK4Q","","0","","","","","","","","","","","","","","","","","","","","","","","","",""
"7633","","image-button-response","2","41819","0.0-2.0-0.0","A1PHDT66U6IK4Q","","1","phone","","","","","","","","","","","","","","","","","","","","","","","",""
"12292","","survey-text","3","54113","0.0-3.0-0.0","A1PHDT66U6IK4Q","","","","{""Q0"":""A1PHDT66U6IK4Q""}","","","","","","","","","","","","","","","","","","","","","","",""
"18399","","image-button-response_instructions","4","72516","0.0-4.0","A1PHDT66U6IK4Q","","0","instructions","","","","","","","","","","","","","","","","","","","","","","","",""
"27210","","image-button-response_instructions","5","99728","0.0-5.0","A1PHDT66U6IK4Q","img_art/ins/popularity/ins1.png","0","instructions","","","","","","","","","","","","","","","","","","","","","","","",""
"12340","","image-button-response_instructions","6","112070","0.0-6.0","A1PHDT66U6IK4Q","img_art/ins/popularity/ins2.png","0","instructions","","","","","","","","","","","","","","","","","","","","","","","",""
"11220","","image-button-response_instructions","7","123291","0.0-7.0","A1PHDT66U6IK4Q","img_art/ins/popularity/ins2Extreme.png","0","instructions","","","","","","","","","","","","","","","","","","","","","","","",""
"35523","","image-button-response_instructions","8","158815","0.0-8.0","A1PHDT66U6IK4Q","img_art/ins/popularity/ins3KEEPpop.PNG","0","instructions","","","","","","","","","","","","","","","","","","","","","","","",""
"9724","","image-button-response_instructions","9","168541","0.0-9.0","A1PHDT66U6IK4Q","img_art/ins/popularity/ins3ANamepop.PNG","0","instructions","","","","","","","","","","","","","","","","","","","","","","","",""
"10851","","image-button-response_instructions","10","179393","0.0-10.0","A1PHDT66U6IK4Q","img_art/ins/popularity/ins3ARatingpop.png","0","instructions","","","","","","","","","","","","","","","","","","","","","","","",""
"5856","","image-button-response_instructions","11","185249","0.0-11.0","A1PHDT66U6IK4Q","img_art/ins/popularity/ins3ATextpop.png","0","instructions","","","","","","","","","","","","","","","","","","","","","","","",""
"7060","","image-button-response_instructions","12","192311","0.0-12.0","A1PHDT66U6IK4Q","img_art/ins/popularity/ins3ALikespop.png","0","instructions","","","","","","","","","","","","","","","","","","","","","","","",""
"32671","","image-button-response_instructions","13","224983","0.0-13.0","A1PHDT66U6IK4Q","img_art/ins/popularity/ins3KEEPpop.PNG","0","instructions","","","","","","","","","","","","","","","","","","","","","","","",""
"35999","","image-button-response_instructions","14","260983","0.0-14.0","A1PHDT66U6IK4Q","img_art/ins/popularity/ins3_5RED.png","0","instructions","","","","","","","","","","","","","","","","","","","","","","","",""
"7791","","image-button-response_instructions","15","268775","0.0-15.0","A1PHDT66U6IK4Q","img_art/ins/popularity/ins3KEEPpop.PNG","0","instructions","","","","","","","","","","","","","","","","","","","","","","","",""
"23992","","image-button-response_instructions","16","292769","0.0-16.0","A1PHDT66U6IK4Q","img_art/ins/popularity/ins4KEEPpop.PNG","0","instructions","","","","","","","","","","","","","","","","","","","","","","","",""
"4930","","image-button-response_instructions","17","297701","0.0-17.0","A1PHDT66U6IK4Q","img_art/ins/popularity/ins5KEEPpop.PNG","0","instructions","","","","","","","","","","","","","","","","","","","","","","","",""
"2849","","image-button-response_instructions","18","300551","0.0-18.0","A1PHDT66U6IK4Q","","0","instructions","","","","","","","","","","","","","","","","","","","","","","","",""
"17993","","survey-text","19","318585","0.0-19.0-0.0","A1PHDT66U6IK4Q","","","","{""Q0"":""but""}","","","","","","","","","","","","","","","","","","","","","","",""
"29249","","survey-text","20","347836","0.0-20.0-0.0","A1PHDT66U6IK4Q","","","","{""Q0"":""I don't like at all !""}","","","","","","","","","","","","","","","","","","","","","","",""
"7998.299999952316","","image-slider-response","21","355839","0.0-21.0","A1PHDT66U6IK4Q","","","","","-39","","","","","","","","","","","","","","","","","","","","","",""
"null","","image-button-response","22","360844","0.0-22.0","A1PHDT66U6IK4Q","img_art/ins/1.jpg","null","","","","","","","","","","","","","","","","","","","","","","","","",""
"1821","","image-button-response","23","362667","0.0-23.0","A1PHDT66U6IK4Q","img_art/ins/1.jpg","2","","","","","","","","","","","","","","","","","","","","","","","","",""
"2824","","image-button-response","24","365494","0.0-24.0-0.0","A1PHDT66U6IK4Q","img_art/ins/1.jpg","4","","","","","","","","","","","","","","","","","","","","","","","","",""
"1821","","image-button-response","25","367317","0.0-25.0-0.0","A1PHDT66U6IK4Q","img_art/ins/1.jpg","0","","","","","","","","","","","","","","","","","","","","","","","","",""
"null","","html-keyboard-response","26","367821","0.0-26.0","A1PHDT66U6IK4Q","<p style=""font-size: 48px;"">+</p>","","","","","null","allTrialResponses","500","1","-2","img_art/ins/1.jpg","-39","I don't like at all !","Adam,Alex,Ben,Carl,Daniel,Jack","Seems like doodles,-20,20,20","very creative work.,36,40,20","This color reminds me of poo,-46,60,20","very calming artwork,42,80,20","It looks like a murder scene.,-48,100,20","I like the sophisticated brushwork,40,120,20","Ben","This color reminds me of poo,-46,60,20","Daniel","It looks like a murder scene.,-48,100,20","Adam","Seems like doodles,-20,20,20","0"
"35282","","survey-text","27","403109","0.0-27.0-0.0","A1PHDT66U6IK4Q","","","","{""Q0"":""looks like a grave!""}","","","","","","","","","","","","","","","","","","","","","","",""
"5800","","image-slider-response","28","408911","0.0-28.0","A1PHDT66U6IK4Q","","","","","-42","","","","","","","","","","","","","","","","","","","","","",""
"2856","","image-button-response","29","413927","0.0-29.0","A1PHDT66U6IK4Q","img_art/ins/2.jpg","2","","","","","","","","","","","","","","","","","","","","","","","","",""
"784","","image-button-response","30","414713","0.0-30.0","A1PHDT66U6IK4Q","img_art/ins/2.jpg","0","","","","","","","","","","","","","","","","","","","","","","","","",""
"2895","","image-button-response","31","417611","0.0-31.0-0.0","A1PHDT66U6IK4Q","img_art/ins/2.jpg","2","","","","","","","","","","","","","","","","","","","","","","","","",""
"4530","","image-button-response","32","422143","0.0-32.0-0.0","A1PHDT66U6IK4Q","img_art/ins/2.jpg","3","","","","","","","","","","","","","","","","","","","","","","","","",""
"null","","html-keyboard-response","33","423650","0.0-33.0","A1PHDT66U6IK4Q","<p style=""font-size: 48px;"">+</p>","","","","","null","allTrialResponses","1500","1","-1","img_art/ins/2.jpg","-42","looks like a grave!","Adam,John,Ben,James,Daniel,Kyle","too much color,-18,20,20","love the texture of paint,48,160,20","meaningless painting,-45,60,20","looks too angry,-50,140,20","One of my pet peevs,-48,100,20","Idk, it is just annoying,-32,180,20","Adam","too much color,-18,20,20","Ben","meaningless painting,-45,60,20","James","looks too angry,-50,140,20","0"
"29306","","survey-text","34","452961","0.0-34.0-0.0","A1PHDT66U6IK4Q","","","","{""Q0"":""I really don't understand any of this.""}","","","","","","","","","","","","","","","","","","","","","","",""
"3357.7000000476837","","image-slider-response","35","456321","0.0-35.0","A1PHDT66U6IK4Q","","","","","-26","","","","","","","","","","","","","","","","","","","","","",""
"2480","","image-button-response","36","461324","0.0-36.0","A1PHDT66U6IK4Q","img_art/ins/3.jpg","3","","","","","","","","","","","","","","","","","","","","","","","","",""
"648","","image-button-response","37","461973","0.0-37.0","A1PHDT66U6IK4Q","img_art/ins/3.jpg","3","","","","","","","","","","","","","","","","","","","","","","","","",""
"4437","","image-button-response","38","466413","0.0-38.0-0.0","A1PHDT66U6IK4Q","img_art/ins/3.jpg","2","","","","","","","","","","","","","","","","","","","","","","","","",""
"2700","","image-button-response","39","469116","0.0-39.0-0.0","A1PHDT66U6IK4Q","img_art/ins/3.jpg","4","","","","","","","","","","","","","","","","","","","","","","","","",""
"null","","html-keyboard-response","40","469628","0.0-40.0","A1PHDT66U6IK4Q","<p style=""font-size: 48px;"">+</p>","","","","","null","allTrialResponses","500","1","0","img_art/ins/3.jpg","-26","I really don't understand any of this.","Adam,Mike,Ben,James,Ron,Sam","My daily routine, it's depressing,-20,20,20","enjoy the different shades of blue,22,200,20","This thing gives me anxiety,-41,60,20","My worst nightmare,-42,140,20","It looks depressing,-26,220,20","I can feel a rainy day from this painting,18,240,20","James","My worst nightmare,-42,140,20","Ben","This thing gives me anxiety,-41,60,20","Ron","It looks depressing,-26,220,20","0"
"9035","","image-button-response_instructions","41","478669","0.0-41.0","A1PHDT66U6IK4Q","","0","instructions","","","","","","","","","","","","","","","","","","","","","","","",""
"49190","","survey-likert","42","527861","0.0-42.0-0.0","A1PHDT66U6IK4Q","","","","{""Q0"":"""",""Q1"":0,""Q2"":1}","","","","","","","","","","","","","","","","","","","","","","",""
"8932","","survey-text","43","536801","0.0-43.0-0.0","A1PHDT66U6IK4Q","","","","{""Q0"":""rock""}","","","","","","","","","","","","","","","","","","","","","","",""
"8407","","survey-text","44","545210","0.0-44.0-0.0","A1PHDT66U6IK4Q","","","","{""Q0"":""I really don't understand any of this.""}","","","","","","","","","","","","","","","","","","","","","","",""
"6034.100000023842","","image-slider-response","45","551246","0.0-45.0","A1PHDT66U6IK4Q","","","","","-29","","","","","","","","","","","","","","","","","","","","","",""
"4879","","image-button-response","46","556278","0.0-46.0","A1PHDT66U6IK4Q","img_art/12.jpg","0","","","","","","","","","","","","","","","","","","","","","","","","",""
"925","","image-button-response","47","557206","0.0-47.0","A1PHDT66U6IK4Q","img_art/12.jpg","0","","","","","","","","","","","","","","","","","","","","","","","","",""
"1706","","image-button-response","48","558915","0.0-48.0-0.0","A1PHDT66U6IK4Q","img_art/12.jpg","0","","","","","","","","","","","","","","","","","","","","","","","","",""
"2516","","image-button-response","49","568889","0.0-48.1-0.1","A1PHDT66U6IK4Q","img_art/12.jpg","4","","","","","","","","","","","","","","","","","","","","","","","","",""
"2998","","image-button-response","50","571889","0.0-49.0-0.0","A1PHDT66U6IK4Q","img_art/12.jpg","2","","","","","","","","","","","","","","","","","","","","","","","","",""
"null","","html-keyboard-response","51","572891","0.0-50.0","A1PHDT66U6IK4Q","<p style=""font-size: 48px;"">+</p>","","","","","null","allTrialResponses","1000","1","1","img_art/12.jpg","-29","I really don't understand any of this.","Carlos,Kenneth,Alex,James,Devon,Colton","It is very bland and the colors are not cohesive.,-20,80,20","It's pretty, I find it interesting to look at.,10,300,20","eww hate everything about this, looks like it belongs in a dentist's office,-14,100,20","Don't like it or despise it,1,380,20","too much - just overcrowded,-20,400,20","i like the repetition,30,220,20","Carlos","It is very bland and the colors are not cohesive.,-20,80,20","Devon","too much - just overcrowded,-20,400,20","Alex","eww hate everything about this, looks like it belongs in a dentist's office,-14,100,20","2"
"32619","","survey-text","52","605515","0.0-51.0-0.0","A1PHDT66U6IK4Q","","","","{""Q0"":""it seems extremely strange""}","","","","","","","","","","","","","","","","","","","","","","",""
"7397.899999976158","","image-slider-response","53","612915","0.0-52.0","A1PHDT66U6IK4Q","","","","","-34","","","","","","","","","","","","","","","","","","","","","",""
"null","","image-button-response","54","617918","0.0-53.0","A1PHDT66U6IK4Q","img_art/4.jpg","null","","","","","","","","","","","","","","","","","","","","","","","","",""
"1800","","image-button-response","55","619721","0.0-54.0","A1PHDT66U6IK4Q","img_art/4.jpg","5","","","","","","","","","","","","","","","","","","","","","","","","",""
"6346","","image-button-response","56","626069","0.0-55.0-0.0","A1PHDT66U6IK4Q","img_art/4.jpg","2","","","","","","","","","","","","","","","","","","","","","","","","",""
"5832","","image-button-response","57","631903","0.0-56.0-0.0","A1PHDT66U6IK4Q","img_art/4.jpg","1","","","","","","","","","","","","","","","","","","","","","","","","",""
"null","","html-keyboard-response","58","632920","0.0-57.0","A1PHDT66U6IK4Q","<p style=""font-size: 48px;"">+</p>","","","","","null","allTrialResponses","1000","1","2","img_art/4.jpg","-34","it seems extremely strange","Carlos,Hunter,Alex,Shawn,Devon,Richard","Movement. Snakes. Hair. The uncertainty makes my eye return.,21,80,20","appealing warm palette,6,240,20","Looks like more paint smearing but at least there is structure,-5,100,20","Great movement but don't love the yellowy tones.,31,100,20","heart symbol - this tells a story of hidden love,30,400,20","too childish, not really art in my world,-50,340,20","Richard","too childish, not really art in my world,-50,340,20","Alex","Looks like more paint smearing but at least there is structure,-5,100,20","Hunter","appealing warm palette,6,240,20","2"
"35778","","survey-text","59","668703","0.0-58.0-0.0","A1PHDT66U6IK4Q","","","","{""Q0"":""this is child's play.""}","","","","","","","","","","","","","","","","","","","","","","",""
"6165.299999952316","","image-slider-response","60","674871","0.0-59.0","A1PHDT66U6IK4Q","","","","","-35","","","","","","","","","","","","","","","","","","","","","",""
"3263","","image-button-response","61","679874","0.0-60.0","A1PHDT66U6IK4Q","img_art/29.jpg","1","","","","","","","","","","","","","","","","","","","","","","","","",""
"4742","","image-button-response","62","684619","0.0-61.0","A1PHDT66U6IK4Q","img_art/29.jpg","4","","","","","","","","","","","","","","","","","","","","","","","","",""
"2869","","image-button-response","63","687491","0.0-62.0-0.0","A1PHDT66U6IK4Q","img_art/29.jpg","1","","","","","","","","","","","","","","","","","","","","","","","","",""
"2815","","image-button-response","64","690309","0.0-63.0-0.0","A1PHDT66U6IK4Q","img_art/29.jpg","0","","","","","","","","","","","","","","","","","","","","","","","","",""
"null","","html-keyboard-response","65","691811","0.0-64.0","A1PHDT66U6IK4Q","<p style=""font-size: 48px;"">+</p>","","","","","null","allTrialResponses","1500","1","3","img_art/29.jpg","-35","this is child's play.","Tyler,Hunter,Alex,Christopher,Antonio,Richard","Well if the artist themself is crossing it out, why should I pay any mind?,-30,320,20","abrasive and grotesque textures,-36,240,20","The texture really stands out, this is an interesting composition,6,100,20","it's interesting but not my style,9,160,20","Depressing and with that big red x on it just makes me not like it.,-33,220,20","it's OK, no clue to what's going on but good use of light and dark,4,340,20","Antonio","Depressing and with that big red x on it just makes me not like it.,-33,220,20","Hunter","abrasive and grotesque textures,-36,240,20","Tyler","Well if the artist themself is crossing it out, why should I pay any mind?,-30,320,20","2"
"22887","","survey-text","66","714703","0.0-65.0-0.0","A1PHDT66U6IK4Q","","","","{""Q0"":""I really don't understand any of this.""}","","","","","","","","","","","","","","","","","","","","","","",""
"4279.900000095367","","image-slider-response","67","718985","0.0-66.0","A1PHDT66U6IK4Q","","","","","-33","","","","","","","","","","","","","","","","","","","","","",""
"null","","image-button-response","68","723988","0.0-67.0","A1PHDT66U6IK4Q","img_art/20.jpg","null","","","","","","","","","","","","","","","","","","","","","","","","",""
"3436","","image-button-response","69","727426","0.0-68.0","A1PHDT66U6IK4Q","img_art/20.jpg","2","","","","","","","","","","","","","","","","","","","","","","","","",""
"1743","","image-button-response","70","729172","0.0-69.0-0.0","A1PHDT66U6IK4Q","img_art/20.jpg","1","","","","","","","","","","","","","","","","","","","","","","","","",""
"3764","","image-button-response","71","732938","0.0-70.0-0.0","A1PHDT66U6IK4Q","img_art/20.jpg","0","","","","","","","","","","","","","","","","","","","","","","","","",""
"null","","html-keyboard-response","72","733440","0.0-71.0","A1PHDT66U6IK4Q","<p style=""font-size: 48px;"">+</p>","","","","","null","allTrialResponses","500","1","4","img_art/20.jpg","-33","I really don't understand any of this.","Tyler,Hunter,Charles,Steven,Antonio,Joseph","This is not abstract art, it is representative.,0,320,20","feels underdeveloped,-11,240,20","Something bad has happened TO reality,-23,100,20","It's okay, I see what looks like a truck laying on it's side. Meh,10,160,20","Makes me feel weary,21,220,20","Something fell over and is burning, but it's kinda dope, you know?,14,220,20","Charles","Something bad has happened TO reality,-23,100,20","Hunter","feels underdeveloped,-11,240,20","Tyler","This is not abstract art, it is representative.,0,320,20","2"
"37705","","survey-text","73","771150","0.0-72.0-0.0","A1PHDT66U6IK4Q","","","","{""Q0"":""That's what I drew when I was 4 years old!""}","","","","","","","","","","","","","","","","","","","","","","",""
"4248","","image-slider-response","74","775400","0.0-73.0","A1PHDT66U6IK4Q","","","","","-20","","","","","","","","","","","","","","","","","","","","","",""
"2184","","image-button-response","75","780404","0.0-74.0","A1PHDT66U6IK4Q","img_art/26.jpg","1","","","","","","","","","","","","","","","","","","","","","","","","",""
"4079","","image-button-response","76","784485","0.0-75.0","A1PHDT66U6IK4Q","img_art/26.jpg","0","","","","","","","","","","","","","","","","","","","","","","","","",""
"2472","","image-button-response","77","786959","0.0-76.0-0.0","A1PHDT66U6IK4Q","img_art/26.jpg","1","","","","","","","","","","","","","","","","","","","","","","","","",""
"6450","","image-button-response","78","793411","0.0-77.0-0.0","A1PHDT66U6IK4Q","img_art/26.jpg","4","","","","","","","","","","","","","","","","","","","","","","","","",""
"null","","html-keyboard-response","79","794413","0.0-78.0","A1PHDT66U6IK4Q","<p style=""font-size: 48px;"">+</p>","","","","","null","allTrialResponses","1000","1","5","img_art/26.jpg","-20","That's what I drew when I was 4 years old!","Tyler,Hunter,Charles,Juan,Blake,Garrett","Colors look glum; photograph is not properly contrasted and does not reflect the appropriate amount of natural light.,-10,320,20","feels incomplete,-50,240,20","It looks like I'm staring out of the window of a nice house, but the house is mine,20,100,20","Something I'd see in a thrift store. It looks like not much effort was used to paint this.,9,260,20","bedroom in the outdoors. warm,9,280,20","I like that it looks like an actual picture and isn't just random colors.,25,180,20","Tyler","Colors look glum; photograph is not properly contrasted and does not reflect the appropriate amount of natural light.,-10,320,20","Hunter","feels incomplete,-50,240,20","Blake","bedroom in the outdoors. warm,9,280,20","2"
"8613","","survey-text","80","803034","0.0-79.0-0.0","A1PHDT66U6IK4Q","","","","{""Q0"":""sky""}","","","","","","","","","","","","","","","","","","","","","","",""
"35106","","survey-text","81","838142","0.0-80.0-0.0","A1PHDT66U6IK4Q","","","","{""Q0"":""It looks nice, but a bit abstract.""}","","","","","","","","","","","","","","","","","","","","","","",""
"5042.200000047684","","image-slider-response","82","843187","0.0-81.0","A1PHDT66U6IK4Q","","","","","4","","","","","","","","","","","","","","","","","","","","","",""
"4835","","image-button-response","83","848189","0.0-82.0","A1PHDT66U6IK4Q","img_art/14.jpg","2","","","","","","","","","","","","","","","","","","","","","","","","",""
"1755","","image-button-response","84","849947","0.0-83.0","A1PHDT66U6IK4Q","img_art/14.jpg","1","","","","","","","","","","","","","","","","","","","","","","","","",""
"2170","","image-button-response","85","852120","0.0-84.0-0.0","A1PHDT66U6IK4Q","img_art/14.jpg","2","","","","","","","","","","","","","","","","","","","","","","","","",""
"5713","","image-button-response","86","857836","0.0-85.0-0.0","A1PHDT66U6IK4Q","img_art/14.jpg","0","","","","","","","","","","","","","","","","","","","","","","","","",""
"null","","html-keyboard-response","87","858839","0.0-86.0","A1PHDT66U6IK4Q","<p style=""font-size: 48px;"">+</p>","","","","","null","allTrialResponses","1000","1","6","img_art/14.jpg","4","It looks nice, but a bit abstract.","Tyler,Hunter,Tanner,Nicholas,Blake,Seth","No strong feelings either direction.,-4,320,20","makes me feel sad,-2,240,20","somewhat stressful, crazy,-3,180,20","I love the feeling of the tree and people. Makes me happy,50,240,20","fuzzy and confused. ok then well,16,280,20","This piece feels inviting. It's like opening up the pages of your favorite book for the first time.,26,60,20","Hunter","makes me feel sad,-2,240,20","Tanner","somewhat stressful, crazy,-3,180,20","Tyler","No strong feelings either direction.,-4,320,20","2"
"41647","","survey-text","88","900492","0.0-87.0-0.0","A1PHDT66U6IK4Q","","","","{""Q0"":""hard to understand and appreciate something like that!""}","","","","","","","","","","","","","","","","","","","","","","",""
"3435.5","","image-slider-response","89","903930","0.0-88.0","A1PHDT66U6IK4Q","","","","","-35","","","","","","","","","","","","","","","","","","","","","",""
"null","","image-button-response","90","908934","0.0-89.0","A1PHDT66U6IK4Q","img_art/2.jpg","null","","","","","","","","","","","","","","","","","","","","","","","","",""
"2126","","image-button-response","91","911063","0.0-90.0","A1PHDT66U6IK4Q","img_art/2.jpg","3","","","","","","","","","","","","","","","","","","","","","","","","",""
"1980","","image-button-response","92","913045","0.0-91.0-0.0","A1PHDT66U6IK4Q","img_art/2.jpg","4","","","","","","","","","","","","","","","","","","","","","","","","",""
"6334","","image-button-response","93","919381","0.0-92.0-0.0","A1PHDT66U6IK4Q","img_art/2.jpg","5","","","","","","","","","","","","","","","","","","","","","","","","",""
"null","","html-keyboard-response","94","920885","0.0-93.0","A1PHDT66U6IK4Q","<p style=""font-size: 48px;"">+</p>","","","","","null","allTrialResponses","1500","1","7","img_art/2.jpg","-35","hard to understand and appreciate something like that!","Tyler,Hunter,Tanner,Noah,Cody,Chase","Grim and overwhelming,-6,320,20","appealing colors,4,240,20","smilely face, soulful,11,180,20","again, I struggle to see the art and I dislike the green in particular.,-31,260,20","Don't love the colors,-30,180,20","A bit ugly with the greens.,-20,120,20","Noah","again, I struggle to see the art and I dislike the green in particular.,-31,260,20","Cody","Don't love the colors,-30,180,20","Chase","A bit ugly with the greens.,-20,120,20","2"
"47941","","survey-text","95","968830","0.0-94.0-0.0","A1PHDT66U6IK4Q","","","","{""Q0"":""cute teddy bear, but the rest is cabbage!""}","","","","","","","","","","","","","","","","","","","","","","",""
"3624","","image-slider-response","96","972457","0.0-95.0","A1PHDT66U6IK4Q","","","","","-41","","","","","","","","","","","","","","","","","","","","","",""
"3301","","image-button-response","97","977460","0.0-96.0","A1PHDT66U6IK4Q","img_art/16.jpg","4","","","","","","","","","","","","","","","","","","","","","","","","",""
"1675","","image-button-response","98","979137","0.0-97.0","A1PHDT66U6IK4Q","img_art/16.jpg","5","","","","","","","","","","","","","","","","","","","","","","","","",""
"1972","","image-button-response","99","981111","0.0-98.0-0.0","A1PHDT66U6IK4Q","img_art/16.jpg","4","","","","","","","","","","","","","","","","","","","","","","","","",""
"7803","","image-button-response","100","988917","0.0-99.0-0.0","A1PHDT66U6IK4Q","img_art/16.jpg","2","","","","","","","","","","","","","","","","","","","","","","","","",""
"null","","html-keyboard-response","101","990428","0.0-100.0","A1PHDT66U6IK4Q","<p style=""font-size: 48px;"">+</p>","","","","","null","allTrialResponses","1500","1","8","img_art/16.jpg","-41","cute teddy bear, but the rest is cabbage!","Lucas,Peter,Bryan,Noah,Cody,Chase","It's frightening.,30,380,20","It's a little unsettling,2,320,20","Something terrible happened. Either the figure on the right is the victim or another shredded toy.,-49,400,20","feel a little creeped out,-20,260,20","Kind of creepyyyyyy,-41,180,20","Seems very twisted and dark.,-35,120,20","Chase","Seems very twisted and dark.,-35,120,20","Cody","Kind of creepyyyyyy,-41,180,20","Bryan","Something terrible happened. Either the figure on the right is the victim or another shredded toy.,-49,400,20","2"
"40889","","survey-text","102","1031322","0.0-101.0-0.0","A1PHDT66U6IK4Q","","","","{""Q0"":""it's like a landscape with a hurricane.""}","","","","","","","","","","","","","","","","","","","","","","",""
"3911.7999999523163","","image-slider-response","103","1035236","0.0-102.0","A1PHDT66U6IK4Q","","","","","-25","","","","","","","","","","","","","","","","","","","","","",""
"null","","image-button-response","104","1040239","0.0-103.0","A1PHDT66U6IK4Q","img_art/27.jpg","null","","","","","","","","","","","","","","","","","","","","","","","","",""
"3367","","image-button-response","105","1043609","0.0-104.0","A1PHDT66U6IK4Q","img_art/27.jpg","2","","","","","","","","","","","","","","","","","","","","","","","","",""
"4014","","image-button-response","106","1047625","0.0-105.0-0.0","A1PHDT66U6IK4Q","img_art/27.jpg","3","","","","","","","","","","","","","","","","","","","","","","","","",""
"3529","","image-button-response","107","1051156","0.0-106.0-0.0","A1PHDT66U6IK4Q","img_art/27.jpg","1","","","","","","","","","","","","","","","","","","","","","","","","",""
"null","","html-keyboard-response","108","1051667","0.0-107.0","A1PHDT66U6IK4Q","<p style=""font-size: 48px;"">+</p>","","","","","null","allTrialResponses","500","1","9","img_art/27.jpg","-25","it's like a landscape with a hurricane.","Jordan,Robert,Bryan,Dakota,Cody,Chase","Looks like a little kids drawing,20,160,20","The black sketchy over the colors doesn't fit.,-4,360,20","Not fond of the bad pencil drawing mixed with the drab colors.,-21,400,20","feels like a bar scene, tucked away in the corner of a small town,-40,280,20","Not sure how I feel about this. Messy, even for art. But good colors.,0,180,20","I don't really see anything to this art.,-5,120,20","Bryan","Not fond of the bad pencil drawing mixed with the drab colors.,-21,400,20","Dakota","feels like a bar scene, tucked away in the corner of a small town,-40,280,20","Robert","The black sketchy over the colors doesn't fit.,-4,360,20","2"
"29050","","survey-text","109","1080725","0.0-108.0-0.0","A1PHDT66U6IK4Q","","","","{""Q0"":""what do we have here?""}","","","","","","","","","","","","","","","","","","","","","","",""
"4289.5","","image-slider-response","110","1085016","0.0-109.0","A1PHDT66U6IK4Q","","","","","-40","","","","","","","","","","","","","","","","","","","","","",""
"2590","","image-button-response","111","1090019","0.0-110.0","A1PHDT66U6IK4Q","img_art/15.jpg","1","","","","","","","","","","","","","","","","","","","","","","","","",""
"1581","","image-button-response","112","1091602","0.0-111.0","A1PHDT66U6IK4Q","img_art/15.jpg","3","","","","","","","","","","","","","","","","","","","","","","","","",""
"2636","","image-button-response","113","1094240","0.0-112.0-0.0","A1PHDT66U6IK4Q","img_art/15.jpg","1","","","","","","","","","","","","","","","","","","","","","","","","",""
"7476","","image-button-response","114","1101718","0.0-113.0-0.0","A1PHDT66U6IK4Q","img_art/15.jpg","4","","","","","","","","","","","","","","","","","","","","","","","","",""
"null","","html-keyboard-response","115","1103221","0.0-114.0","A1PHDT66U6IK4Q","<p style=""font-size: 48px;"">+</p>","","","","","null","allTrialResponses","1500","1","10","img_art/15.jpg","-40","what do we have here?","Jorge,Robert,Bryan,Dakota,Mason,Bryce","interested in this transformation,20,180,20","This piece is too dark,-42,360,20","Interesting. Reminds me of a biopsy slide.,21,400,20","abrasive, rough, uneven,-31,280,20","It's ok, it makes me think. That's something I guess.,8,100,20","The dots are cool with the blue accents.,24,20,20","Dakota","abrasive, rough, uneven,-31,280,20","Robert","This piece is too dark,-42,360,20","Mason","It's ok, it makes me think. That's something I guess.,8,100,20","2"
"10726","","survey-text","116","1113958","0.0-115.0-0.0","A1PHDT66U6IK4Q","","","","{""Q0"":""our""}","","","","","","","","","","","","","","","","","","","","","","",""
"37073","","survey-text","117","1151034","0.0-116.0-0.0","A1PHDT66U6IK4Q","","","","{""Q0"":""an excellently done stylization""}","","","","","","","","","","","","","","","","","","","","","","",""
"3833.600000023842","","image-slider-response","118","1154870","0.0-117.0","A1PHDT66U6IK4Q","","","","","30","","","","","","","","","","","","","","","","","","","","","",""
"3763","","image-button-response","119","1159874","0.0-118.0","A1PHDT66U6IK4Q","img_art/11.jpg","3","","","","","","","","","","","","","","","","","","","","","","","","",""
"3083","","image-button-response","120","1162960","0.0-119.0","A1PHDT66U6IK4Q","img_art/11.jpg","2","","","","","","","","","","","","","","","","","","","","","","","","",""
"2590","","image-button-response","121","1165552","0.0-120.0-0.0","A1PHDT66U6IK4Q","img_art/11.jpg","0","","","","","","","","","","","","","","","","","","","","","","","","",""
"1423","","image-button-response","122","1166978","0.0-121.0-0.0","A1PHDT66U6IK4Q","img_art/11.jpg","0","","","","","","","","","","","","","","","","","","","","","","","","",""
"1358","","image-button-response","123","1176538","0.0-121.1-0.1","A1PHDT66U6IK4Q","img_art/11.jpg","3","","","","","","","","","","","","","","","","","","","","","","","","",""
"null","","html-keyboard-response","124","1178041","0.0-122.0","A1PHDT66U6IK4Q","<p style=""font-size: 48px;"">+</p>","","","","","null","allTrialResponses","1500","1","11","img_art/11.jpg","30","an excellently done stylization","Jesse,Robert,Ian,Dakota,Mason,Andrew","I like the dark lines and it interests me,13,80,20","Rainy dreary day in a town.,7,360,20","This one is a little erie, gives me post-apocalyptic feeling,27,260,20","i think of beatnik music and dark piano lounges,25,280,20","dna, odd but nice.,25,100,20","It's a really cool painting, but it reminds me of bad traffic,-20,160,20","Ian","This one is a little erie, gives me post-apocalyptic feeling,27,260,20","Jesse","I like the dark lines and it interests me,13,80,20","Dakota","i think of beatnik music and dark piano lounges,25,280,20","4"
"29652","","survey-text","125","1207700","0.0-123.0-0.0","A1PHDT66U6IK4Q","","","","{""Q0"":""naive painting?""}","","","","","","","","","","","","","","","","","","","","","","",""
"6959.800000071526","","image-slider-response","126","1214662","0.0-124.0","A1PHDT66U6IK4Q","","","","","-37","","","","","","","","","","","","","","","","","","","","","",""
"null","","image-button-response","127","1219665","0.0-125.0","A1PHDT66U6IK4Q","img_art/24.jpg","null","","","","","","","","","","","","","","","","","","","","","","","","",""
"4061","","image-button-response","128","1223728","0.0-126.0","A1PHDT66U6IK4Q","img_art/24.jpg","2","","","","","","","","","","","","","","","","","","","","","","","","",""
"3288","","image-button-response","129","1227018","0.0-127.0-0.0","A1PHDT66U6IK4Q","img_art/24.jpg","4","","","","","","","","","","","","","","","","","","","","","","","","",""
"1313","","image-button-response","130","1228334","0.0-128.0-0.0","A1PHDT66U6IK4Q","img_art/24.jpg","3","","","","","","","","","","","","","","","","","","","","","","","","",""
"null","","html-keyboard-response","131","1229348","0.0-129.0","A1PHDT66U6IK4Q","<p style=""font-size: 48px;"">+</p>","","","","","null","allTrialResponses","1000","1","12","img_art/24.jpg","-37","naive painting?","Jesse,Kyle,Ian,Dakota,Joshua,Christian","Love the colors and contrast. Feels peaceful.,33,80,20","This one is nice because it reminds me of nature,18,340,20","I find the colors work really well. It's very pretty but I have no idea as what it is.,34,260,20","chunky fresh color,27,280,20","It's okay but don't love it.,7,240,20","organized mess at first glance, would love to inspect this in closer proximity,39,140,20","Ian","I find the colors work really well. It's very pretty but I have no idea as what it is.,34,260,20","Joshua","It's okay but don't love it.,7,240,20","Dakota","chunky fresh color,27,280,20","4"
"50832","","survey-text","132","1280188","0.0-130.0-0.0","A1PHDT66U6IK4Q","","","","{""Q0"":""who is looking for this in an exhibition?""}","","","","","","","","","","","","","","","","","","","","","","",""
"4813.600000023842","","image-slider-response","133","1285004","0.0-131.0","A1PHDT66U6IK4Q","","","","","-47","","","","","","","","","","","","","","","","","","","","","",""
"null","","image-button-response","134","1290008","0.0-132.0","A1PHDT66U6IK4Q","img_art/7.jpg","null","","","","","","","","","","","","","","","","","","","","","","","","",""
"295","","image-button-response","135","1290304","0.0-133.0","A1PHDT66U6IK4Q","img_art/7.jpg","2","","","","","","","","","","","","","","","","","","","","","","","","",""
"3615","","image-button-response","136","1293922","0.0-134.0-0.0","A1PHDT66U6IK4Q","img_art/7.jpg","5","","","","","","","","","","","","","","","","","","","","","","","","",""
"2495","","image-button-response","137","1296420","0.0-135.0-0.0","A1PHDT66U6IK4Q","img_art/7.jpg","0","","","","","","","","","","","","","","","","","","","","","","","","",""
"null","","html-keyboard-response","138","1297922","0.0-136.0","A1PHDT66U6IK4Q","<p style=""font-size: 48px;"">+</p>","","","","","null","allTrialResponses","1500","1","13","img_art/7.jpg","-47","who is looking for this in an exhibition?","Adam,Gregory,Ian,Dakota,Joshua,Travis","I like the earth tones here,5,40,20","Looks like a battle raging on,20,220,20","This looks like a literal picture of the ground so I'm really not too sure about this one.,-42,260,20","I feel thirsty - reminds me of desert sand,11,280,20","Looks almost like a photograph of nature.,11,240,20","Just neutral...looks like sand at the beach.,3,260,20","Ian","This looks like a literal picture of the ground so I'm really not too sure about this one.,-42,260,20","Travis","Just neutral...looks like sand at the beach.,3,260,20","Adam","I like the earth tones here,5,40,20","4"
"35289","","survey-text","139","1333217","0.0-137.0-0.0","A1PHDT66U6IK4Q","","","","{""Q0"":""Great is the garden of the Lord!""}","","","","","","","","","","","","","","","","","","","","","","",""
"3568.899999976158","","image-slider-response","140","1336789","0.0-138.0","A1PHDT66U6IK4Q","","","","","-34","","","","","","","","","","","","","","","","","","","","","",""
"null","","image-button-response","141","1341792","0.0-139.0","A1PHDT66U6IK4Q","img_art/23.jpg","null","","","","","","","","","","","","","","","","","","","","","","","","",""
"1313","","image-button-response","142","1343107","0.0-140.0","A1PHDT66U6IK4Q","img_art/23.jpg","1","","","","","","","","","","","","","","","","","","","","","","","","",""
"3600","","image-button-response","143","1346709","0.0-141.0-0.0","A1PHDT66U6IK4Q","img_art/23.jpg","5","","","","","","","","","","","","","","","","","","","","","","","","",""
"3943","","image-button-response","144","1350655","0.0-142.0-0.0","A1PHDT66U6IK4Q","img_art/23.jpg","3","","","","","","","","","","","","","","","","","","","","","","","","",""
"null","","html-keyboard-response","145","1351656","0.0-143.0","A1PHDT66U6IK4Q","<p style=""font-size: 48px;"">+</p>","","","","","null","allTrialResponses","1000","1","14","img_art/23.jpg","-34","Great is the garden of the Lord!","Adam,Corey,Ian,Trevor,Mitchell,Travis","I like the color contrast, though I'm unable to tell what the white shapes are.,25,40,20","white reminds me of screamo music band tshirts when they have their name in the unreadable lettering,-9,260,20","It's very colorful and different, the white looks like people dancing,26,260,20","nice bright colors but looks like it's from the 90's,6,280,20","Partying, dancing, delusion, kaus.,10,180,20","I had a very neutral feeling to this,no feelings at all.,1,260,20","Corey","white reminds me of screamo music band tshirts when they have their name in the unreadable lettering,-9,260,20","Travis","I had a very neutral feeling to this,no feelings at all.,1,260,20","Trevor","nice bright colors but looks like it's from the 90's,6,280,20","4"
"55583","","survey-text","146","1407245","0.0-144.0-0.0","A1PHDT66U6IK4Q","","","","{""Q0"":""I'm trying to find an explanation for this monstrosity!""}","","","","","","","","","","","","","","","","","","","","","","",""
"3841.899999976158","","image-slider-response","147","1411089","0.0-145.0","A1PHDT66U6IK4Q","","","","","-50","","","","","","","","","","","","","","","","","","","","","",""
"null","","image-button-response","148","1416092","0.0-146.0","A1PHDT66U6IK4Q","img_art/10.jpg","null","","","","","","","","","","","","","","","","","","","","","","","","",""
"2535","","image-button-response","149","1418630","0.0-147.0","A1PHDT66U6IK4Q","img_art/10.jpg","3","","","","","","","","","","","","","","","","","","","","","","","","",""
"3510","","image-button-response","150","1422142","0.0-148.0-0.0","A1PHDT66U6IK4Q","img_art/10.jpg","1","","","","","","","","","","","","","","","","","","","","","","","","",""
"2343","","image-button-response","151","1424488","0.0-149.0-0.0","A1PHDT66U6IK4Q","img_art/10.jpg","0","","","","","","","","","","","","","","","","","","","","","","","","",""
"null","","html-keyboard-response","152","1425992","0.0-150.0","A1PHDT66U6IK4Q","<p style=""font-size: 48px;"">+</p>","","","","","null","allTrialResponses","1500","1","15","img_art/10.jpg","-50","I'm trying to find an explanation for this monstrosity!","Dalton,Corey,Brett,Trevor,Scott,Travis","for some reason reminds me of music,2,300,20","I think this was going to be a guitar but then the artist got mad and gave up,-4,260,20","Musical guitar whimsy,45,360,20","It's very dark and angry looking,-31,280,20","kind of reminds me of a map,1,20,20","I liked it...it looked somewhat like a guitar.,32,260,20","Trevor","It's very dark and angry looking,-31,280,20","Corey","I think this was going to be a guitar but then the artist got mad and gave up,-4,260,20","Dalton","for some reason reminds me of music,2,300,20","4"
"7918","","survey-text","153","1433926","0.0-151.0-0.0","A1PHDT66U6IK4Q","","","","{""Q0"":""course""}","","","","","","","","","","","","","","","","","","","","","","",""
"41305","","survey-text","154","1475234","0.0-152.0-0.0","A1PHDT66U6IK4Q","","","","{""Q0"":""although it represents nothing, it still delights the eye.""}","","","","","","","","","","","","","","","","","","","","","","",""
"4115.700000047684","","image-slider-response","155","1479352","0.0-153.0","A1PHDT66U6IK4Q","","","","","32","","","","","","","","","","","","","","","","","","","","","",""
"null","","image-button-response","156","1484354","0.0-154.0","A1PHDT66U6IK4Q","img_art/8.jpg","null","","","","","","","","","","","","","","","","","","","","","","","","",""
"212","","image-button-response","157","1484568","0.0-155.0","A1PHDT66U6IK4Q","img_art/8.jpg","5","","","","","","","","","","","","","","","","","","","","","","","","",""
"2340","","image-button-response","158","1486910","0.0-156.0-0.0","A1PHDT66U6IK4Q","img_art/8.jpg","2","","","","","","","","","","","","","","","","","","","","","","","","",""
"3773","","image-button-response","159","1490686","0.0-157.0-0.0","A1PHDT66U6IK4Q","img_art/8.jpg","1","","","","","","","","","","","","","","","","","","","","","","","","",""
"null","","html-keyboard-response","160","1491688","0.0-158.0","A1PHDT66U6IK4Q","<p style=""font-size: 48px;"">+</p>","","","","","null","allTrialResponses","1000","1","16","img_art/8.jpg","32","although it represents nothing, it still delights the eye.","Dalton,Corey,Elijah,Trevor,William,Luis","woman looking over a the community,1,300,20","its pretty exciting to look at, there is alot going on,15,260,20","Makes me feel nice,23,80,20","it looks very 80's and kind of scary,-11,280,20","makes me think of a busy city,-18,380,20","I love the expressiveness of this,50,400,20","Luis","I love the expressiveness of this,50,400,20","Elijah","Makes me feel nice,23,80,20","Corey","its pretty exciting to look at, there is alot going on,15,260,20","4"
"45254","","survey-text","161","1536950","0.0-159.0-0.0","A1PHDT66U6IK4Q","","","","{""Q0"":""something a bit murky in this painter's thinking!""}","","","","","","","","","","","","","","","","","","","","","","",""
"2144","","image-slider-response","162","1539096","0.0-160.0","A1PHDT66U6IK4Q","","","","","-46","","","","","","","","","","","","","","","","","","","","","",""
"null","","image-button-response","163","1544103","0.0-161.0","A1PHDT66U6IK4Q","img_art/21.jpg","null","","","","","","","","","","","","","","","","","","","","","","","","",""
"129","","image-button-response","164","1544234","0.0-162.0","A1PHDT66U6IK4Q","img_art/21.jpg","2","","","","","","","","","","","","","","","","","","","","","","","","",""
"2942","","image-button-response","165","1547178","0.0-163.0-0.0","A1PHDT66U6IK4Q","img_art/21.jpg","3","","","","","","","","","","","","","","","","","","","","","","","","",""
"3835","","image-button-response","166","1551016","0.0-164.0-0.0","A1PHDT66U6IK4Q","img_art/21.jpg","1","","","","","","","","","","","","","","","","","","","","","","","","",""
"null","","html-keyboard-response","167","1552518","0.0-165.0","A1PHDT66U6IK4Q","<p style=""font-size: 48px;"">+</p>","","","","","null","allTrialResponses","1500","1","17","img_art/21.jpg","-46","something a bit murky in this painter's thinking!","Matthew,Corey,Elijah,Justin,Vincent,Luis","Disturbing, land meets ocean, lvoely really.,43,120,20","i like the colors and the blending,17,260,20","Can't understand what it is,-27,80,20","Alright. I like the colors.,5,280,20","Love the colors have to say this is my favorite above all,37,360,20","I like the representation of love and hate in this,43,400,20","Elijah","Can't understand what it is,-27,80,20","Justin","Alright. I like the colors.,5,280,20","Corey","i like the colors and the blending,17,260,20","4"
"43576","","survey-text","168","1596101","0.0-166.0-0.0","A1PHDT66U6IK4Q","","","","{""Q0"":""To be a woman in bed?""}","","","","","","","","","","","","","","","","","","","","","","",""
"3836.100000023842","","image-slider-response","169","1599939","0.0-167.0","A1PHDT66U6IK4Q","","","","","-8","","","","","","","","","","","","","","","","","","","","","",""
"4164","","image-button-response","170","1604942","0.0-168.0","A1PHDT66U6IK4Q","img_art/9.jpg","2","","","","","","","","","","","","","","","","","","","","","","","","",""
"909","","image-button-response","171","1605854","0.0-169.0","A1PHDT66U6IK4Q","img_art/9.jpg","2","","","","","","","","","","","","","","","","","","","","","","","","",""
"1430","","image-button-response","172","1607286","0.0-170.0-0.0","A1PHDT66U6IK4Q","img_art/9.jpg","4","","","","","","","","","","","","","","","","","","","","","","","","",""
"1955","","image-button-response","173","1609243","0.0-171.0-0.0","A1PHDT66U6IK4Q","img_art/9.jpg","5","","","","","","","","","","","","","","","","","","","","","","","","",""
"null","","html-keyboard-response","174","1610245","0.0-172.0","A1PHDT66U6IK4Q","<p style=""font-size: 48px;"">+</p>","","","","","null","allTrialResponses","1000","1","18","img_art/9.jpg","-8","To be a woman in bed?","Taylor,Corey,Elijah,Justin,Caleb,Aaron","Caveman. Not for my walls.,-5,200,20","keeps me interested. like the colors,17,260,20","It's a mix of paint splash and scribbling,-33,80,20","It reminds me of an illustration for a fairy tale.,19,280,20","Unfinished, weird composition.,-34,40,20","It looks like a child's crayon drawing.,-10,20,20","Elijah","It's a mix of paint splash and scribbling,-33,80,20","Caleb","Unfinished, weird composition.,-34,40,20","Aaron","It looks like a child's crayon drawing.,-10,20,20","4"
"38797","","survey-text","175","1649049","0.0-173.0-0.0","A1PHDT66U6IK4Q","","","","{""Q0"":""A bit difficult to understand and appreciate!""}","","","","","","","","","","","","","","","","","","","","","","",""
"4155.700000047684","","image-slider-response","176","1653208","0.0-174.0","A1PHDT66U6IK4Q","","","","","-37","","","","","","","","","","","","","","","","","","","","","",""
"null","","image-button-response","177","1658224","0.0-175.0","A1PHDT66U6IK4Q","img_art/13.jpg","null","","","","","","","","","","","","","","","","","","","","","","","","",""
"3066","","image-button-response","178","1661292","0.0-176.0","A1PHDT66U6IK4Q","img_art/13.jpg","2","","","","","","","","","","","","","","","","","","","","","","","","",""
"3240","","image-button-response","179","1664534","0.0-177.0-0.0","A1PHDT66U6IK4Q","img_art/13.jpg","5","","","","","","","","","","","","","","","","","","","","","","","","",""
"3861","","image-button-response","180","1668398","0.0-178.0-0.0","A1PHDT66U6IK4Q","img_art/13.jpg","3","","","","","","","","","","","","","","","","","","","","","","","","",""
"null","","html-keyboard-response","181","1668901","0.0-179.0","A1PHDT66U6IK4Q","<p style=""font-size: 48px;"">+</p>","","","","","null","allTrialResponses","500","1","19","img_art/13.jpg","-37","A bit difficult to understand and appreciate!","Victor,Anthony,Elijah,Isaiah,Caleb,Aaron","Great color balance. I like the splatter, and how the vertical lines go from sharper to more blended.,31,340,20","I like the color scheme,41,200,20","Makes me feel nice and calm,18,80,20","The painting makes me feel awe and like I am very little. Like I am alone at the bottom of the ocean.,41,300,20","Lots of depth and character.,30,40,20","It reminds me of a window on a rainy day.,40,20,20","Elijah","Makes me feel nice and calm,18,80,20","Aaron","It reminds me of a window on a rainy day.,40,20,20","Isaiah","The painting makes me feel awe and like I am very little. Like I am alone at the bottom of the ocean.,41,300,20","4"
"36959","","survey-text","182","1705868","0.0-180.0-0.0","A1PHDT66U6IK4Q","","","","{""Q0"":""When I think that some people like it!""}","","","","","","","","","","","","","","","","","","","","","","",""
"2175.7000000476837","","image-slider-response","183","1708046","0.0-181.0","A1PHDT66U6IK4Q","","","","","-37","","","","","","","","","","","","","","","","","","","","","",""
"3435","","image-button-response","184","1713048","0.0-182.0","A1PHDT66U6IK4Q","img_art/18.jpg","1","","","","","","","","","","","","","","","","","","","","","","","","",""
"680","","image-button-response","185","1713731","0.0-183.0","A1PHDT66U6IK4Q","img_art/18.jpg","1","","","","","","","","","","","","","","","","","","","","","","","","",""
"1933","","image-button-response","186","1715665","0.0-184.0-0.0","A1PHDT66U6IK4Q","img_art/18.jpg","0","","","","","","","","","","","","","","","","","","","","","","","","",""
"7415","","image-button-response","187","1723083","0.0-185.0-0.0","A1PHDT66U6IK4Q","img_art/18.jpg","3","","","","","","","","","","","","","","","","","","","","","","","","",""
"null","","html-keyboard-response","188","1724089","0.0-186.0","A1PHDT66U6IK4Q","<p style=""font-size: 48px;"">+</p>","","","","","null","allTrialResponses","1000","1","20","img_art/18.jpg","-37","When I think that some people like it!","Connor,Jake,Elijah,Isaiah,Brandon,Aaron","See a weird horse,-22,240,20","It looks grotesque and violent.,-50,360,20","Makes me feel confused,16,80,20","I'm mildly disgusted by the colors, and can't piece together the story the figures are trying to tell.,-10,300,20","Crusade-feel, but a little too abstract for my taste,23,320,20","I could spend a long time looking at it and see different things in the shapes.,21,20,20","Jake","It looks grotesque and violent.,-50,360,20","Connor","See a weird horse,-22,240,20","Isaiah","I'm mildly disgusted by the colors, and can't piece together the story the figures are trying to tell.,-10,300,20","4"
"7533","","survey-text","189","1731643","0.0-187.0-0.0","A1PHDT66U6IK4Q","","","","{""Q0"":""we""}","","","","","","","","","","","","","","","","","","","","","","",""
"44388","","survey-text","190","1776033","0.0-188.0-0.0","A1PHDT66U6IK4Q","","","","{""Q0"":""zero appreciation from me!""}","","","","","","","","","","","","","","","","","","","","","","",""
"3177.2000000476837","","image-slider-response","191","1779213","0.0-189.0","A1PHDT66U6IK4Q","","","","","-43","","","","","","","","","","","","","","","","","","","","","",""
"null","","image-button-response","192","1784228","0.0-190.0","A1PHDT66U6IK4Q","img_art/22.jpg","null","","","","","","","","","","","","","","","","","","","","","","","","",""
"646","","image-button-response","193","1784876","0.0-191.0","A1PHDT66U6IK4Q","img_art/22.jpg","1","","","","","","","","","","","","","","","","","","","","","","","","",""
"1392","","image-button-response","194","1786269","0.0-192.0-0.0","A1PHDT66U6IK4Q","img_art/22.jpg","0","","","","","","","","","","","","","","","","","","","","","","","","",""
"3819","","image-button-response","195","1790091","0.0-193.0-0.0","A1PHDT66U6IK4Q","img_art/22.jpg","2","","","","","","","","","","","","","","","","","","","","","","","","",""
"null","","html-keyboard-response","196","1790593","0.0-194.0","A1PHDT66U6IK4Q","<p style=""font-size: 48px;"">+</p>","","","","","null","allTrialResponses","500","1","21","img_art/22.jpg","-43","zero appreciation from me!","Connor,Jake,Alexander,Isaiah,Shane,Cole","Seems dated with geometic forms,-20,240,20","It's bland and ugly.,-21,360,20","Glowing city of many emotions.,10,120,20","The painting makes me feel a little sad.,12,300,20","Sunsets at the beach,42,80,20","Bright colors feel warm,22,200,20","Jake","It's bland and ugly.,-21,360,20","Connor","Seems dated with geometic forms,-20,240,20","Alexander","Glowing city of many emotions.,10,120,20","4"
"44005","","survey-text","197","1834606","0.0-195.0-0.0","A1PHDT66U6IK4Q","","","","{""Q0"":""A kindergarten child played with his mother's pen.""}","","","","","","","","","","","","","","","","","","","","","","",""
"5409.899999976158","","image-slider-response","198","1840018","0.0-196.0","A1PHDT66U6IK4Q","","","","","-50","","","","","","","","","","","","","","","","","","","","","",""
"2793","","image-button-response","199","1845021","0.0-197.0","A1PHDT66U6IK4Q","img_art/3.jpg","1","","","","","","","","","","","","","","","","","","","","","","","","",""
"665","","image-button-response","200","1845688","0.0-198.0","A1PHDT66U6IK4Q","img_art/3.jpg","1","","","","","","","","","","","","","","","","","","","","","","","","",""
"7628","","image-button-response","201","1853318","0.0-199.0-0.0","A1PHDT66U6IK4Q","img_art/3.jpg","3","","","","","","","","","","","","","","","","","","","","","","","","",""
"3185","","image-button-response","202","1856506","0.0-200.0-0.0","A1PHDT66U6IK4Q","img_art/3.jpg","5","","","","","","","","","","","","","","","","","","","","","","","","",""
"null","","html-keyboard-response","203","1857512","0.0-201.0","A1PHDT66U6IK4Q","<p style=""font-size: 48px;"">+</p>","","","","","null","allTrialResponses","1000","1","22","img_art/3.jpg","-50","A kindergarten child played with his mother's pen.","Connor,Jake,Alexander,Paul,Miguel,Cameron","Shapes are interesting but color is overwhelming,5,240,20","This is angry and childish looking.,-49,360,20","Somewhere between a child's art and a poorly drawn battle map.,8,120,20","It looks like random scribbles by a child and not appealing,-38,300,20","Unfocused and rushed.,-28,160,20","kid scribbled on the wall again,-35,60,20","Jake","This is angry and childish looking.,-49,360,20","Paul","It looks like random scribbles by a child and not appealing,-38,300,20","Cameron","kid scribbled on the wall again,-35,60,20","4"
"32897","","survey-text","204","1890418","0.0-202.0-0.0","A1PHDT66U6IK4Q","","","","{""Q0"":""A sample of failed painting.""}","","","","","","","","","","","","","","","","","","","","","","",""
"2205.5","","image-slider-response","205","1892625","0.0-203.0","A1PHDT66U6IK4Q","","","","","-50","","","","","","","","","","","","","","","","","","","","","",""
"2756","","image-button-response","206","1897628","0.0-204.0","A1PHDT66U6IK4Q","img_art/1.jpg","0","","","","","","","","","","","","","","","","","","","","","","","","",""
"587","","image-button-response","207","1898217","0.0-205.0","A1PHDT66U6IK4Q","img_art/1.jpg","0","","","","","","","","","","","","","","","","","","","","","","","","",""
"4941","","image-button-response","208","1903159","0.0-206.0-0.0","A1PHDT66U6IK4Q","img_art/1.jpg","4","","","","","","","","","","","","","","","","","","","","","","","","",""
"2206","","image-button-response","209","1905367","0.0-207.0-0.0","A1PHDT66U6IK4Q","img_art/1.jpg","2","","","","","","","","","","","","","","","","","","","","","","","","",""
"null","","html-keyboard-response","210","1906869","0.0-208.0","A1PHDT66U6IK4Q","<p style=""font-size: 48px;"">+</p>","","","","","null","allTrialResponses","1500","1","23","img_art/1.jpg","-50","A sample of failed painting.","Patrick,Jake,Michael,Paul,Dustin,Cameron","I feel uneasy looking at this,-41,280,20","This is ugly with bad colors.,-6,360,20","Just a mess though a better mess than some others.,-11,140,20","I like the yellow and purple but the large red spot reminds me of blood and isn't great,6,300,20","Too messy. Just looks like a mess of dark colors.,-20,20,20","It's okay, colors remind me of autumn.,10,60,20","Patrick","I feel uneasy looking at this,-41,280,20","Dustin","Too messy. Just looks like a mess of dark colors.,-20,20,20","Michael","Just a mess though a better mess than some others.,-11,140,20","4"
"29671","","survey-text","211","1936547","0.0-209.0-0.0","A1PHDT66U6IK4Q","","","","{""Q0"":""Something strange and illogical.""}","","","","","","","","","","","","","","","","","","","","","","",""
"3591.399999976158","","image-slider-response","212","1940141","0.0-210.0","A1PHDT66U6IK4Q","","","","","-40","","","","","","","","","","","","","","","","","","","","","",""
"4092","","image-button-response","213","1945144","0.0-211.0","A1PHDT66U6IK4Q","img_art/5.jpg","2","","","","","","","","","","","","","","","","","","","","","","","","",""
"337","","image-button-response","214","1945483","0.0-212.0","A1PHDT66U6IK4Q","img_art/5.jpg","2","","","","","","","","","","","","","","","","","","","","","","","","",""
"1338","","image-button-response","215","1946823","0.0-213.0-0.0","A1PHDT66U6IK4Q","img_art/5.jpg","4","","","","","","","","","","","","","","","","","","","","","","","","",""
"2332","","image-button-response","216","1949157","0.0-214.0-0.0","A1PHDT66U6IK4Q","img_art/5.jpg","3","","","","","","","","","","","","","","","","","","","","","","","","",""
"null","","html-keyboard-response","217","1950159","0.0-215.0","A1PHDT66U6IK4Q","<p style=""font-size: 48px;"">+</p>","","","","","null","allTrialResponses","1000","1","24","img_art/5.jpg","-40","Something strange and illogical.","Patrick,Sean,Michael,Spencer,Dustin,Zachary","It looks random,-10,280,20","the picture looks ok,8,40,20","Complete garbage. Looks like a kid drew it.,-50,140,20","Boring, no flow except the pink feathery band,-42,120,20","I don't get it at all. But, maybe it is the top portion of a piece of fruit.,-50,20,20","Not sure what to make of this one.,-1,400,20","Michael","Complete garbage. Looks like a kid drew it.,-50,140,20","Dustin","I don't get it at all. But, maybe it is the top portion of a piece of fruit.,-50,20,20","Spencer","Boring, no flow except the pink feathery band,-42,120,20","4"
"98488","","survey-text","218","2048655","0.0-216.0-0.0","A1PHDT66U6IK4Q","","","","{""Q0"":""It's like the last Lady is coming!""}","","","","","","","","","","","","","","","","","","","","","","",""
"4171.799999952316","","image-slider-response","219","2052829","0.0-217.0","A1PHDT66U6IK4Q","","","","","-47","","","","","","","","","","","","","","","","","","","","","",""
"null","","image-button-response","220","2057833","0.0-218.0","A1PHDT66U6IK4Q","img_art/25.jpg","null","","","","","","","","","","","","","","","","","","","","","","","","",""
"3969","","image-button-response","221","2061804","0.0-219.0","A1PHDT66U6IK4Q","img_art/25.jpg","2","","","","","","","","","","","","","","","","","","","","","","","","",""
"2387","","image-button-response","222","2064193","0.0-220.0-0.0","A1PHDT66U6IK4Q","img_art/25.jpg","1","","","","","","","","","","","","","","","","","","","","","","","","",""
"1404","","image-button-response","223","2065601","0.0-221.0-0.0","A1PHDT66U6IK4Q","img_art/25.jpg","0","","","","","","","","","","","","","","","","","","","","","","","","",""
"null","","html-keyboard-response","224","2066103","0.0-222.0","A1PHDT66U6IK4Q","<p style=""font-size: 48px;"">+</p>","","","","","null","allTrialResponses","500","1","25","img_art/25.jpg","-47","It's like the last Lady is coming!","Samuel,Eric,Michael,Spencer,Dustin,Evan","reminds me of burning man,18,400,20","This piece gives me a lot of questions which I kind of like.,10,100,20","Low skill not impressed.,-14,140,20","I really like it, very simple, very tribal,38,120,20","Reminds me of ancient civilization art. I like the aqua color; soothing to me.,1,20,20","I really like the green and the fact that it is tattered on the edges,23,140,20","Michael","Low skill not impressed.,-14,140,20","Eric","This piece gives me a lot of questions which I kind of like.,10,100,20","Samuel","reminds me of burning man,18,400,20","4"
"9788","","survey-text","225","2075907","0.0-223.0-0.0","A1PHDT66U6IK4Q","","","","{""Q0"":""table""}","","","","","","","","","","","","","","","","","","","","","","",""
"37883","","survey-text","226","2113793","0.0-224.0-0.0","A1PHDT66U6IK4Q","","","","{""Q0"":""Again a sample of artistic ambiguity.""}","","","","","","","","","","","","","","","","","","","","","","",""
"2949.8000000715256","","image-slider-response","227","2116745","0.0-225.0","A1PHDT66U6IK4Q","","","","","-43","","","","","","","","","","","","","","","","","","","","","",""
"4225","","image-button-response","228","2121747","0.0-226.0","A1PHDT66U6IK4Q","img_art/30.jpg","2","","","","","","","","","","","","","","","","","","","","","","","","",""
"642","","image-button-response","229","2122391","0.0-227.0","A1PHDT66U6IK4Q","img_art/30.jpg","2","","","","","","","","","","","","","","","","","","","","","","","","",""
"1870","","image-button-response","230","2124263","0.0-228.0-0.0","A1PHDT66U6IK4Q","img_art/30.jpg","4","","","","","","","","","","","","","","","","","","","","","","","","",""
"1699","","image-button-response","231","2125963","0.0-229.0-0.0","A1PHDT66U6IK4Q","img_art/30.jpg","3","","","","","","","","","","","","","","","","","","","","","","","","",""
"null","","html-keyboard-response","232","2126465","0.0-230.0","A1PHDT66U6IK4Q","<p style=""font-size: 48px;"">+</p>","","","","","null","allTrialResponses","500","1","26","img_art/30.jpg","-43","Again a sample of artistic ambiguity.","Samuel,Eric,Michael,Jason,Stephen,Austin","perceiving greatness,20,400,20","I love the colors, the style, and the uniqueness in this piece. I love everything.,50,100,20","It looks like a child did it. There is nothing talented or special about it.,-16,140,20","Do not like the streaks,-14,20,20","A bit too dark for my liking,-10,140,20","Love the bold brush strokes and the illusion it creates,50,240,20","Michael","It looks like a child did it. There is nothing talented or special about it.,-16,140,20","Stephen","A bit too dark for my liking,-10,140,20","Jason","Do not like the streaks,-14,20,20","4"
"45523","","survey-text","233","2171995","0.0-231.0-0.0","A1PHDT66U6IK4Q","","","","{""Q0"":""A crow that perched on a slice of watermelon.""}","","","","","","","","","","","","","","","","","","","","","","",""
"5095.600000023842","","image-slider-response","234","2177093","0.0-232.0","A1PHDT66U6IK4Q","","","","","-17","","","","","","","","","","","","","","","","","","","","","",""
"4117","","image-button-response","235","2182100","0.0-233.0","A1PHDT66U6IK4Q","img_art/6.jpg","1","","","","","","","","","","","","","","","","","","","","","","","","",""
"533","","image-button-response","236","2182637","0.0-234.0","A1PHDT66U6IK4Q","img_art/6.jpg","1","","","","","","","","","","","","","","","","","","","","","","","","",""
"1809","","image-button-response","237","2184447","0.0-235.0-0.0","A1PHDT66U6IK4Q","img_art/6.jpg","2","","","","","","","","","","","","","","","","","","","","","","","","",""
"2692","","image-button-response","238","2187142","0.0-236.0-0.0","A1PHDT66U6IK4Q","img_art/6.jpg","5","","","","","","","","","","","","","","","","","","","","","","","","",""
"null","","html-keyboard-response","239","2187644","0.0-237.0","A1PHDT66U6IK4Q","<p style=""font-size: 48px;"">+</p>","","","","","null","allTrialResponses","500","1","27","img_art/6.jpg","-17","A crow that perched on a slice of watermelon.","Jose,Jack,Michael,Jason,Stephen,Isaac","This could be so many different things. I saw a bird first but then it looks like a needle going into skin,34,200,20","I like the bottom half, but not the top,-7,320,20","Looks like a kid created it.,-50,140,20","I like the simplicity of the picture,30,20,20","Good painting but too simple to care about it for very long.,-15,140,20","It looks like one tall ugly bird.,-43,280,20","Jack","I like the bottom half, but not the top,-7,320,20","Michael","Looks like a kid created it.,-50,140,20","Isaac","It looks like one tall ugly bird.,-43,280,20","4"
"35354","","survey-text","240","2223007","0.0-238.0-0.0","A1PHDT66U6IK4Q","","","","{""Q0"":""From the series of misunderstood painters!""}","","","","","","","","","","","","","","","","","","","","","","",""
"2873.399999976158","","image-slider-response","241","2225883","0.0-239.0","A1PHDT66U6IK4Q","","","","","-45","","","","","","","","","","","","","","","","","","","","","",""
"2864","","image-button-response","242","2230885","0.0-240.0","A1PHDT66U6IK4Q","img_art/28.jpg","2","","","","","","","","","","","","","","","","","","","","","","","","",""
"1315","","image-button-response","243","2232202","0.0-241.0","A1PHDT66U6IK4Q","img_art/28.jpg","2","","","","","","","","","","","","","","","","","","","","","","","","",""
"3812","","image-button-response","244","2236017","0.0-242.0-0.0","A1PHDT66U6IK4Q","img_art/28.jpg","5","","","","","","","","","","","","","","","","","","","","","","","","",""
"5095","","image-button-response","245","2241115","0.0-243.0-0.0","A1PHDT66U6IK4Q","img_art/28.jpg","4","","","","","","","","","","","","","","","","","","","","","","","","",""
"null","","html-keyboard-response","246","2241618","0.0-244.0","A1PHDT66U6IK4Q","<p style=""font-size: 48px;"">+</p>","","","","","null","allTrialResponses","500","1","28","img_art/28.jpg","-45","From the series of misunderstood painters!","Alejandro,Jack,Michael,Nathan,Mark,Isaac","I like the flow and abstract nature of what seems to be humans,40,80,20","looks like humanoid figures in distress. I like it, but makes me slightly uncomfortable,35,320,20","Incoherent ugly mess.,-50,140,20","I enjoy the color themes, they seem gloomy and mysterious, and content in their own way, which I love.,20,200,20","It reminds me of the cantina in Star Wars.,37,80,20","It is too messy.,-38,280,20","Michael","Incoherent ugly mess.,-50,140,20","Isaac","It is too messy.,-38,280,20","Mark","It reminds me of the cantina in Star Wars.,37,80,20","4"
"32803","","survey-text","247","2274429","0.0-245.0-0.0","A1PHDT66U6IK4Q","","","","{""Q0"":""A beautiful winter landscape.""}","","","","","","","","","","","","","","","","","","","","","","",""
"3631.8000000715256","","image-slider-response","248","2278064","0.0-246.0","A1PHDT66U6IK4Q","","","","","37","","","","","","","","","","","","","","","","","","","","","",""
"null","","image-button-response","249","2283066","0.0-247.0","A1PHDT66U6IK4Q","img_art/17.jpg","null","","","","","","","","","","","","","","","","","","","","","","","","",""
"515","","image-button-response","250","2283584","0.0-248.0","A1PHDT66U6IK4Q","img_art/17.jpg","5","","","","","","","","","","","","","","","","","","","","","","","","",""
"1416","","image-button-response","251","2285001","0.0-249.0-0.0","A1PHDT66U6IK4Q","img_art/17.jpg","3","","","","","","","","","","","","","","","","","","","","","","","","",""
"5026","","image-button-response","252","2290030","0.0-250.0-0.0","A1PHDT66U6IK4Q","img_art/17.jpg","2","","","","","","","","","","","","","","","","","","","","","","","","",""
"null","","html-keyboard-response","253","2290532","0.0-251.0","A1PHDT66U6IK4Q","<p style=""font-size: 48px;"">+</p>","","","","","null","allTrialResponses","500","1","29","img_art/17.jpg","37","A beautiful winter landscape.","Marcus,Jared,Michael,Derek,Mark,Isaac","I like this, but it's a bit bland.,10,60,20","the colors, the arch and the wall,15,400,20","There is better structure and direction in this one.,19,140,20","The colors are beautiful and the painting itself is magnificent,50,360,20","A coming storm but I think I would appreciate it more with more contrast.,-12,80,20","The colors are soft.,32,280,20","Isaac","The colors are soft.,32,280,20","Derek","The colors are beautiful and the painting itself is magnificent,50,360,20","Michael","There is better structure and direction in this one.,19,140,20","4"
"39012","","survey-text","254","2329551","0.0-252.0-0.0","A1PHDT66U6IK4Q","","","","{""Q0"":""An unsuccessful attempt at an urban landscape!""}","","","","","","","","","","","","","","","","","","","","","","",""
"3546.5","","image-slider-response","255","2333099","0.0-253.0","A1PHDT66U6IK4Q","","","","","-43","","","","","","","","","","","","","","","","","","","","","",""
"4242","","image-button-response","256","2338103","0.0-254.0","A1PHDT66U6IK4Q","img_art/19.jpg","2","","","","","","","","","","","","","","","","","","","","","","","","",""
"523","","image-button-response","257","2338629","0.0-255.0","A1PHDT66U6IK4Q","img_art/19.jpg","2","","","","","","","","","","","","","","","","","","","","","","","","",""
"2080","","image-button-response","258","2340711","0.0-256.0-0.0","A1PHDT66U6IK4Q","img_art/19.jpg","5","","","","","","","","","","","","","","","","","","","","","","","","",""
"2095","","image-button-response","259","2342809","0.0-257.0-0.0","A1PHDT66U6IK4Q","img_art/19.jpg","0","","","","","","","","","","","","","","","","","","","","","","","","",""
"null","","html-keyboard-response","260","2343810","0.0-258.0","A1PHDT66U6IK4Q","<p style=""font-size: 48px;"">+</p>","","","","","null","allTrialResponses","1000","1","30","img_art/19.jpg","-43","An unsuccessful attempt at an urban landscape!","Thomas,David,Michael,Derek,Ethan,Isaac","I like this as a whole, but the longer I look at it, the less it pleases me,-10,220,20","The image doesn't really invoke any emotions strongly.,0,340,20","Loks like an amature did it, Not pleasing.,-45,140,20","It has a chaotic energy about it that draws me in,40,360,20","I interpret an outdoor scene. It's good because it makes me want to look longer.,22,120,20","It is too busy.,-34,280,20","Michael","Loks like an amature did it, Not pleasing.,-45,140,20","Isaac","It is too busy.,-34,280,20","Thomas","I like this as a whole, but the longer I look at it, the less it pleases me,-10,220,20","4"
"5162","","image-button-response_instructions","261","2348981","0.0-259.0","A1PHDT66U6IK4Q","","0","instructions","","","","","","","","","","","","","","","","","","","","","","","",""
"2146","","image-button-response","262","2351135","0.0-260.0","A1PHDT66U6IK4Q","","0","","","","","","","","","","","","","","","","","","","","","","","","",""
