"rt","url","trial_type","trial_index","time_elapsed","internal_node_id","participant_id","stimulus","button_pressed","Name","responses","response","key_press","variableName","fixationTime","condition","trial","photo","subjectRating","subjectResponse","agentsNames","agent_1_Response","agent_2_Response","agent_3_Response","agent_4_Response","agent_5_Response","agent_6_Response","kept_1_name","kept_1_response","kept_2_name","kept_2_response","kept_3_name","kept_3_response","errorCounter"
"20173","external_page_harvard.html","external-html","0","20265","0.0-0.0","A1PIGZNLSQMGNW","","","","","","","","","","","","","","","","","","","","","","","","","","",""
"1140","","image-button-response","1","21406","0.0-1.0","A1PIGZNLSQMGNW","","0","","","","","","","","","","","","","","","","","","","","","","","","",""
"1655","","image-button-response","2","23066","0.0-2.0-0.0","A1PIGZNLSQMGNW","","1","phone","","","","","","","","","","","","","","","","","","","","","","","",""
"208728","","survey-text","3","231796","0.0-3.0-0.0","A1PIGZNLSQMGNW","","","","{""Q0"":""A1PIGZNLSQMGNW""}","","","","","","","","","","","","","","","","","","","","","","",""
"9278","","image-button-response_instructions","4","241076","0.0-4.0","A1PIGZNLSQMGNW","","0","instructions","","","","","","","","","","","","","","","","","","","","","","","",""
"14893","","image-button-response_instructions","5","255969","0.0-5.0","A1PIGZNLSQMGNW","img_art/ins/popularity/ins1.png","0","instructions","","","","","","","","","","","","","","","","","","","","","","","",""
"4591","","image-button-response_instructions","6","260561","0.0-6.0","A1PIGZNLSQMGNW","img_art/ins/popularity/ins2.png","0","instructions","","","","","","","","","","","","","","","","","","","","","","","",""
"4077","","image-button-response_instructions","7","264639","0.0-7.0","A1PIGZNLSQMGNW","img_art/ins/popularity/ins2Extreme.png","0","instructions","","","","","","","","","","","","","","","","","","","","","","","",""
"12983","","image-button-response_instructions","8","277623","0.0-8.0","A1PIGZNLSQMGNW","img_art/ins/popularity/ins3KEEPpop.PNG","0","instructions","","","","","","","","","","","","","","","","","","","","","","","",""
"2677","","image-button-response_instructions","9","280302","0.0-9.0","A1PIGZNLSQMGNW","img_art/ins/popularity/ins3ANamepop.PNG","0","instructions","","","","","","","","","","","","","","","","","","","","","","","",""
"2091","","image-button-response_instructions","10","282394","0.0-10.0","A1PIGZNLSQMGNW","img_art/ins/popularity/ins3ARatingpop.png","0","instructions","","","","","","","","","","","","","","","","","","","","","","","",""
"2205","","image-button-response_instructions","11","284599","0.0-11.0","A1PIGZNLSQMGNW","img_art/ins/popularity/ins3ATextpop.png","0","instructions","","","","","","","","","","","","","","","","","","","","","","","",""
"5421","","image-button-response_instructions","12","290021","0.0-12.0","A1PIGZNLSQMGNW","img_art/ins/popularity/ins3ALikespop.png","0","instructions","","","","","","","","","","","","","","","","","","","","","","","",""
"5563","","image-button-response_instructions","13","295586","0.0-13.0","A1PIGZNLSQMGNW","img_art/ins/popularity/ins3KEEPpop.PNG","0","instructions","","","","","","","","","","","","","","","","","","","","","","","",""
"5675","","image-button-response_instructions","14","301262","0.0-14.0","A1PIGZNLSQMGNW","img_art/ins/popularity/ins3_5RED.png","0","instructions","","","","","","","","","","","","","","","","","","","","","","","",""
"13963","","image-button-response_instructions","15","315226","0.0-15.0","A1PIGZNLSQMGNW","img_art/ins/popularity/ins3KEEPpop.PNG","0","instructions","","","","","","","","","","","","","","","","","","","","","","","",""
"4555","","image-button-response_instructions","16","319782","0.0-16.0","A1PIGZNLSQMGNW","img_art/ins/popularity/ins4KEEPpop.PNG","0","instructions","","","","","","","","","","","","","","","","","","","","","","","",""
"3309","","image-button-response_instructions","17","323092","0.0-17.0","A1PIGZNLSQMGNW","img_art/ins/popularity/ins5KEEPpop.PNG","0","instructions","","","","","","","","","","","","","","","","","","","","","","","",""
"1495","","image-button-response_instructions","18","324588","0.0-18.0","A1PIGZNLSQMGNW","","0","instructions","","","","","","","","","","","","","","","","","","","","","","","",""
"5577","","survey-text","19","330184","0.0-19.0-0.0","A1PIGZNLSQMGNW","","","","{""Q0"":""but""}","","","","","","","","","","","","","","","","","","","","","","",""
"14916","","survey-text","20","345102","0.0-20.0-0.0","A1PIGZNLSQMGNW","","","","{""Q0"":""Looks like a rainbow wave crashing on a beach""}","","","","","","","","","","","","","","","","","","","","","","",""
"3320.5","","image-slider-response","21","348424","0.0-21.0","A1PIGZNLSQMGNW","","","","","6","","","","","","","","","","","","","","","","","","","","","",""
"null","","image-button-response","22","353430","0.0-22.0","A1PIGZNLSQMGNW","img_art/ins/1.jpg","null","","","","","","","","","","","","","","","","","","","","","","","","",""
"1312","","image-button-response","23","354744","0.0-23.0","A1PIGZNLSQMGNW","img_art/ins/1.jpg","1","","","","","","","","","","","","","","","","","","","","","","","","",""
"970","","image-button-response","24","355716","0.0-24.0-0.0","A1PIGZNLSQMGNW","img_art/ins/1.jpg","3","","","","","","","","","","","","","","","","","","","","","","","","",""
"576","","image-button-response","25","356294","0.0-25.0-0.0","A1PIGZNLSQMGNW","img_art/ins/1.jpg","5","","","","","","","","","","","","","","","","","","","","","","","","",""
"null","","html-keyboard-response","26","356795","0.0-26.0","A1PIGZNLSQMGNW","<p style=""font-size: 48px;"">+</p>","","","","","null","allTrialResponses","500","1","-2","img_art/ins/1.jpg","6","Looks like a rainbow wave crashing on a beach","Adam,Alex,Ben,Carl,Daniel,Jack","Seems like doodles,-20,20,20","very creative work.,36,40,20","This color reminds me of poo,-46,60,20","very calming artwork,42,80,20","It looks like a murder scene.,-48,100,20","I like the sophisticated brushwork,40,120,20","Alex","very creative work.,36,40,20","Carl","very calming artwork,42,80,20","Jack","I like the sophisticated brushwork,40,120,20","0"
"23567","","survey-text","27","380365","0.0-27.0-0.0","A1PIGZNLSQMGNW","","","","{""Q0"":""This appears to be a man playing a piece of music on a red piano""}","","","","","","","","","","","","","","","","","","","","","","",""
"3156.5999999996275","","image-slider-response","28","383524","0.0-28.0","A1PIGZNLSQMGNW","","","","","18","","","","","","","","","","","","","","","","","","","","","",""
"4502","","image-button-response","29","388525","0.0-29.0","A1PIGZNLSQMGNW","img_art/ins/2.jpg","1","","","","","","","","","","","","","","","","","","","","","","","","",""
"3497","","image-button-response","30","392024","0.0-30.0","A1PIGZNLSQMGNW","img_art/ins/2.jpg","3","","","","","","","","","","","","","","","","","","","","","","","","",""
"3159","","image-button-response","31","395184","0.0-31.0-0.0","A1PIGZNLSQMGNW","img_art/ins/2.jpg","4","","","","","","","","","","","","","","","","","","","","","","","","",""
"2158","","image-button-response","32","397344","0.0-32.0-0.0","A1PIGZNLSQMGNW","img_art/ins/2.jpg","1","","","","","","","","","","","","","","","","","","","","","","","","",""
"null","","html-keyboard-response","33","398845","0.0-33.0","A1PIGZNLSQMGNW","<p style=""font-size: 48px;"">+</p>","","","","","null","allTrialResponses","1500","1","-1","img_art/ins/2.jpg","18","This appears to be a man playing a piece of music on a red piano","James,Alex,Kyle,Carl,John,Jack","looks too angry,-50,140,20","I like the blocks of color arrangements,30,40,20","Idk, it is just annoying,-32,180,20","I can feel the artist's passion in it,45,80,20","love the texture of paint,48,160,20","I would never be able to compose a sophisticated pallete like this,48,120,20","Carl","I can feel the artist's passion in it,45,80,20","John","love the texture of paint,48,160,20","Alex","I like the blocks of color arrangements,30,40,20","0"
"8635","","survey-text","34","407483","0.0-34.0-0.0","A1PIGZNLSQMGNW","","","","{""Q0"":""Crystals forming on a windowpane""}","","","","","","","","","","","","","","","","","","","","","","",""
"2568.7999999988824","","image-slider-response","35","410053","0.0-35.0","A1PIGZNLSQMGNW","","","","","28","","","","","","","","","","","","","","","","","","","","","",""
"2315","","image-button-response","36","415055","0.0-36.0","A1PIGZNLSQMGNW","img_art/ins/3.jpg","1","","","","","","","","","","","","","","","","","","","","","","","","",""
"1109","","image-button-response","37","416166","0.0-37.0","A1PIGZNLSQMGNW","img_art/ins/3.jpg","0","","","","","","","","","","","","","","","","","","","","","","","","",""
"386","","image-button-response","38","416554","0.0-38.0-0.0","A1PIGZNLSQMGNW","img_art/ins/3.jpg","1","","","","","","","","","","","","","","","","","","","","","","","","",""
"1268","","image-button-response","39","417824","0.0-39.0-0.0","A1PIGZNLSQMGNW","img_art/ins/3.jpg","0","","","","","","","","","","","","","","","","","","","","","","","","",""
"1304","","image-button-response","40","424226","0.0-39.1-0.1","A1PIGZNLSQMGNW","img_art/ins/3.jpg","5","","","","","","","","","","","","","","","","","","","","","","","","",""
"null","","html-keyboard-response","41","424727","0.0-40.0","A1PIGZNLSQMGNW","<p style=""font-size: 48px;"">+</p>","","","","","null","allTrialResponses","500","1","0","img_art/ins/3.jpg","28","Crystals forming on a windowpane","Mike,Alex,Ron,Carl,John,Sam","enjoy the different shades of blue,22,200,20","calming blue is very nice,36,40,20","It looks depressing,-26,220,20","It's an alright work,15,80,20","I like the overlapping of brushes,41,160,20","I can feel a rainy day from this painting,18,240,20","Mike","enjoy the different shades of blue,22,200,20","Alex","calming blue is very nice,36,40,20","Sam","I can feel a rainy day from this painting,18,240,20","2"
"80310","","image-button-response_instructions","42","505039","0.0-41.0","A1PIGZNLSQMGNW","","0","instructions","","","","","","","","","","","","","","","","","","","","","","","",""
"5578","","survey-likert","43","510618","0.0-42.0-0.0","A1PIGZNLSQMGNW","","","","{""Q0"":"""",""Q1"":0,""Q2"":1}","","","","","","","","","","","","","","","","","","","","","","",""
"3740","","survey-text","44","514362","0.0-43.0-0.0","A1PIGZNLSQMGNW","","","","{""Q0"":""rock""}","","","","","","","","","","","","","","","","","","","","","","",""
"12933","","survey-text","45","527296","0.0-44.0-0.0","A1PIGZNLSQMGNW","","","","{""Q0"":""An early morning fall day on the prairie""}","","","","","","","","","","","","","","","","","","","","","","",""
"1854.699999999255","","image-slider-response","46","529152","0.0-45.0","A1PIGZNLSQMGNW","","","","","5","","","","","","","","","","","","","","","","","","","","","",""
"null","","image-button-response","47","534172","0.0-46.0","A1PIGZNLSQMGNW","img_art/27.jpg","null","","","","","","","","","","","","","","","","","","","","","","","","",""
"412","","image-button-response","48","534586","0.0-47.0","A1PIGZNLSQMGNW","img_art/27.jpg","4","","","","","","","","","","","","","","","","","","","","","","","","",""
"2648","","image-button-response","49","537236","0.0-48.0-0.0","A1PIGZNLSQMGNW","img_art/27.jpg","5","","","","","","","","","","","","","","","","","","","","","","","","",""
"3790","","image-button-response","50","541028","0.0-49.0-0.0","A1PIGZNLSQMGNW","img_art/27.jpg","0","","","","","","","","","","","","","","","","","","","","","","","","",""
"null","","html-keyboard-response","51","542030","0.0-50.0","A1PIGZNLSQMGNW","<p style=""font-size: 48px;"">+</p>","","","","","null","allTrialResponses","1000","1","1","img_art/27.jpg","5","An early morning fall day on the prairie","Jesus,Scott,Grant,Marcus,Paul,Antonio","The color palette isn't my taste,-24,100,20","again looks like childrens artwork,-40,20,20","This feels like I'm looking at a child's scribbles.,-27,200,20","It's okay. Not really interesting to me.,-10,60,20","It tries to remind me of the autumn season but it's grey and looks dirty,-5,300,20","Didnt actually make me feel anything, sort of bland,3,220,20","Paul","It tries to remind me of the autumn season but it's grey and looks dirty,-5,300,20","Antonio","Didnt actually make me feel anything, sort of bland,3,220,20","Jesus","The color palette isn't my taste,-24,100,20","2"
"14122","","survey-text","52","556156","0.0-51.0-0.0","A1PIGZNLSQMGNW","","","","{""Q0"":""A monster pouring his heart out""}","","","","","","","","","","","","","","","","","","","","","","",""
"1668.5","","image-slider-response","53","557826","0.0-52.0","A1PIGZNLSQMGNW","","","","","13","","","","","","","","","","","","","","","","","","","","","",""
"4906","","image-button-response","54","562828","0.0-53.0","A1PIGZNLSQMGNW","img_art/2.jpg","4","","","","","","","","","","","","","","","","","","","","","","","","",""
"1614","","image-button-response","55","564444","0.0-54.0","A1PIGZNLSQMGNW","img_art/2.jpg","3","","","","","","","","","","","","","","","","","","","","","","","","",""
"320","","image-button-response","56","564766","0.0-55.0-0.0","A1PIGZNLSQMGNW","img_art/2.jpg","4","","","","","","","","","","","","","","","","","","","","","","","","",""
"392","","image-button-response","57","565160","0.0-56.0-0.0","A1PIGZNLSQMGNW","img_art/2.jpg","5","","","","","","","","","","","","","","","","","","","","","","","","",""
"null","","html-keyboard-response","58","565662","0.0-57.0","A1PIGZNLSQMGNW","<p style=""font-size: 48px;"">+</p>","","","","","null","allTrialResponses","500","1","2","img_art/2.jpg","13","A monster pouring his heart out","Jesus,Anthony,Taylor,Joseph,Paul,Antonio","Muted green is overpowering,-10,100,20","Ugly color scheme,-50,200,20","Have now advanced from kindergarten to the first grade.,-5,200,20","Different cultures. I like that it brings differences together.,4,220,20","I like the blue color in the center but that's it, the green is a gross color,-3,300,20","Colors are drab and cause a sense of blandness,-28,220,20","Joseph","Different cultures. I like that it brings differences together.,4,220,20","Paul","I like the blue color in the center but that's it, the green is a gross color,-3,300,20","Antonio","Colors are drab and cause a sense of blandness,-28,220,20","2"
"17317","","survey-text","59","582982","0.0-58.0-0.0","A1PIGZNLSQMGNW","","","","{""Q0"":""Darkness fills the forest canopy""}","","","","","","","","","","","","","","","","","","","","","","",""
"2210.5","","image-slider-response","60","585194","0.0-59.0","A1PIGZNLSQMGNW","","","","","25","","","","","","","","","","","","","","","","","","","","","",""
"4598","","image-button-response","61","590205","0.0-60.0","A1PIGZNLSQMGNW","img_art/15.jpg","0","","","","","","","","","","","","","","","","","","","","","","","","",""
"722","","image-button-response","62","590928","0.0-61.0","A1PIGZNLSQMGNW","img_art/15.jpg","1","","","","","","","","","","","","","","","","","","","","","","","","",""
"434","","image-button-response","63","591364","0.0-62.0-0.0","A1PIGZNLSQMGNW","img_art/15.jpg","0","","","","","","","","","","","","","","","","","","","","","","","","",""
"6868","","image-button-response","64","598234","0.0-63.0-0.0","A1PIGZNLSQMGNW","img_art/15.jpg","5","","","","","","","","","","","","","","","","","","","","","","","","",""
"null","","html-keyboard-response","65","599236","0.0-64.0","A1PIGZNLSQMGNW","<p style=""font-size: 48px;"">+</p>","","","","","null","allTrialResponses","1000","1","3","img_art/15.jpg","25","Darkness fills the forest canopy","Aaron,Victor,Alexander,Joseph,Paul,Antonio","I like how it's simple but beautiful.,40,20,20","I like the random blue dabs to break up the black, but it looks unfinished.,4,340,20","Leafs spread on the ground.,27,120,20","Bushes, good! Life, good!,12,220,20","I don't feel much of anything when looking at this, it's just a random pattern,1,300,20","Makes me think of a bush and flowers and spring and happy warm times,25,220,20","Victor","I like the random blue dabs to break up the black, but it looks unfinished.,4,340,20","Aaron","I like how it's simple but beautiful.,40,20,20","Antonio","Makes me think of a bush and flowers and spring and happy warm times,25,220,20","2"
"14212","","survey-text","66","613452","0.0-65.0-0.0","A1PIGZNLSQMGNW","","","","{""Q0"":""A balloon bouncing between some buildings""}","","","","","","","","","","","","","","","","","","","","","","",""
"2092.9000000003725","","image-slider-response","67","615546","0.0-66.0","A1PIGZNLSQMGNW","","","","","4","","","","","","","","","","","","","","","","","","","","","",""
"3432","","image-button-response","68","620547","0.0-67.0","A1PIGZNLSQMGNW","img_art/22.jpg","1","","","","","","","","","","","","","","","","","","","","","","","","",""
"739","","image-button-response","69","621288","0.0-68.0","A1PIGZNLSQMGNW","img_art/22.jpg","4","","","","","","","","","","","","","","","","","","","","","","","","",""
"1422","","image-button-response","70","622712","0.0-69.0-0.0","A1PIGZNLSQMGNW","img_art/22.jpg","2","","","","","","","","","","","","","","","","","","","","","","","","",""
"1474","","image-button-response","71","624188","0.0-70.0-0.0","A1PIGZNLSQMGNW","img_art/22.jpg","3","","","","","","","","","","","","","","","","","","","","","","","","",""
"null","","html-keyboard-response","72","624690","0.0-71.0","A1PIGZNLSQMGNW","<p style=""font-size: 48px;"">+</p>","","","","","null","allTrialResponses","500","1","4","img_art/22.jpg","4","A balloon bouncing between some buildings","Aaron,Victor,Blake,Cole,Evan,Antonio","Boring, typical abstract art,-30,20,20","I don't really know why, I just like looking at it,10,340,20","a lost balloon in outer space,12,280,20","Bright colors feel warm,22,200,20","I enjoy the vibrant colors,23,140,20","Felt blah. Bunch of nothingness,-42,220,20","Evan","I enjoy the vibrant colors,23,140,20","Blake","a lost balloon in outer space,12,280,20","Cole","Bright colors feel warm,22,200,20","2"
"20330","","survey-text","73","645024","0.0-72.0-0.0","A1PIGZNLSQMGNW","","","","{""Q0"":""Looking deep into a cave of mushrooms""}","","","","","","","","","","","","","","","","","","","","","","",""
"2752.5","","image-slider-response","74","647777","0.0-73.0","A1PIGZNLSQMGNW","","","","","-15","","","","","","","","","","","","","","","","","","","","","",""
"4079","","image-button-response","75","652779","0.0-74.0","A1PIGZNLSQMGNW","img_art/9.jpg","0","","","","","","","","","","","","","","","","","","","","","","","","",""
"863","","image-button-response","76","653644","0.0-75.0","A1PIGZNLSQMGNW","img_art/9.jpg","0","","","","","","","","","","","","","","","","","","","","","","","","",""
"516","","image-button-response","77","654162","0.0-76.0-0.0","A1PIGZNLSQMGNW","img_art/9.jpg","1","","","","","","","","","","","","","","","","","","","","","","","","",""
"3074","","image-button-response","78","657238","0.0-77.0-0.0","A1PIGZNLSQMGNW","img_art/9.jpg","4","","","","","","","","","","","","","","","","","","","","","","","","",""
"null","","html-keyboard-response","79","658239","0.0-78.0","A1PIGZNLSQMGNW","<p style=""font-size: 48px;"">+</p>","","","","","null","allTrialResponses","1000","1","5","img_art/9.jpg","-15","Looking deep into a cave of mushrooms","Eric,Justin,Blake,Cole,Evan,Bradley","I see some of my favorite colors which I like, but I don't like what's portrayed.,35,100,20","It reminds me of an illustration for a fairy tale.,19,280,20","looks like a woman in bed and its ok,8,280,20","I see a foot. Idk colors are pleasant,12,200,20","It makes me think of Snow White sleeping,11,140,20","Yikes. I'm not sure what to make of this one.,-14,300,20","Eric","I see some of my favorite colors which I like, but I don't like what's portrayed.,35,100,20","Justin","It reminds me of an illustration for a fairy tale.,19,280,20","Evan","It makes me think of Snow White sleeping,11,140,20","2"
"2808","","survey-text","80","661051","0.0-79.0-0.0","A1PIGZNLSQMGNW","","","","{""Q0"":""sky""}","","","","","","","","","","","","","","","","","","","","","","",""
"13641","","survey-text","81","674694","0.0-80.0-0.0","A1PIGZNLSQMGNW","","","","{""Q0"":""This looks like a puzzle that has been put back together incorrectly""}","","","","","","","","","","","","","","","","","","","","","","",""
"1402.4000000003725","","image-slider-response","82","676098","0.0-81.0","A1PIGZNLSQMGNW","","","","","18","","","","","","","","","","","","","","","","","","","","","",""
"4533","","image-button-response","83","681099","0.0-82.0","A1PIGZNLSQMGNW","img_art/12.jpg","0","","","","","","","","","","","","","","","","","","","","","","","","",""
"746","","image-button-response","84","681846","0.0-83.0","A1PIGZNLSQMGNW","img_art/12.jpg","2","","","","","","","","","","","","","","","","","","","","","","","","",""
"514","","image-button-response","85","682362","0.0-84.0-0.0","A1PIGZNLSQMGNW","img_art/12.jpg","0","","","","","","","","","","","","","","","","","","","","","","","","",""
"4418","","image-button-response","86","686782","0.0-85.0-0.0","A1PIGZNLSQMGNW","img_art/12.jpg","4","","","","","","","","","","","","","","","","","","","","","","","","",""
"null","","html-keyboard-response","87","688285","0.0-86.0","A1PIGZNLSQMGNW","<p style=""font-size: 48px;"">+</p>","","","","","null","allTrialResponses","1500","1","6","img_art/12.jpg","18","This looks like a puzzle that has been put back together incorrectly","Eric,Justin,Jonathan,Shane,Evan,James","I don't like the dark black with the bright colors, but this as a whole is nice.,25,100,20","Too blocky and not interesting enough.,-15,280,20","I like all the squares and the colors but it feels too cluttered to me,20,140,20","Something you would see in a government building hallway,3,80,20","It reminds me of the documentary Paris is Burning, though I'm not sure why,11,140,20","Don't like it or despise it,1,380,20","Jonathan","I like all the squares and the colors but it feels too cluttered to me,20,140,20","Eric","I don't like the dark black with the bright colors, but this as a whole is nice.,25,100,20","Evan","It reminds me of the documentary Paris is Burning, though I'm not sure why,11,140,20","2"
"10837","","survey-text","88","699126","0.0-87.0-0.0","A1PIGZNLSQMGNW","","","","{""Q0"":""Chutes and ladders at a park""}","","","","","","","","","","","","","","","","","","","","","","",""
"1498.4000000003725","","image-slider-response","89","700626","0.0-88.0","A1PIGZNLSQMGNW","","","","","9","","","","","","","","","","","","","","","","","","","","","",""
"2846","","image-button-response","90","705628","0.0-89.0","A1PIGZNLSQMGNW","img_art/30.jpg","0","","","","","","","","","","","","","","","","","","","","","","","","",""
"468","","image-button-response","91","706098","0.0-90.0","A1PIGZNLSQMGNW","img_art/30.jpg","0","","","","","","","","","","","","","","","","","","","","","","","","",""
"605","","image-button-response","92","706704","0.0-91.0-0.0","A1PIGZNLSQMGNW","img_art/30.jpg","2","","","","","","","","","","","","","","","","","","","","","","","","",""
"2336","","image-button-response","93","709041","0.0-92.0-0.0","A1PIGZNLSQMGNW","img_art/30.jpg","4","","","","","","","","","","","","","","","","","","","","","","","","",""
"null","","html-keyboard-response","94","710042","0.0-93.0","A1PIGZNLSQMGNW","<p style=""font-size: 48px;"">+</p>","","","","","null","allTrialResponses","1000","1","7","img_art/30.jpg","9","Chutes and ladders at a park","Eric,Devon,Jonathan,Malik,Evan,Michael","I love the colors, the style, and the uniqueness in this piece. I love everything.,50,100,20","the different roads to take in life,10,400,20","I like the softness of this but it doesn't make me feel that nice,5,140,20","I can't parse any intention or emotion,-17,40,20","I really like the broad and colorful strokes,21,140,20","It looks like a child did it. There is nothing talented or special about it.,-16,140,20","Eric","I love the colors, the style, and the uniqueness in this piece. I love everything.,50,100,20","Jonathan","I like the softness of this but it doesn't make me feel that nice,5,140,20","Evan","I really like the broad and colorful strokes,21,140,20","2"
"8960","","survey-text","95","719006","0.0-94.0-0.0","A1PIGZNLSQMGNW","","","","{""Q0"":""Rollercoasters flowing through time""}","","","","","","","","","","","","","","","","","","","","","","",""
"1450.2000000011176","","image-slider-response","96","720457","0.0-95.0","A1PIGZNLSQMGNW","","","","","26","","","","","","","","","","","","","","","","","","","","","",""
"3853","","image-button-response","97","725459","0.0-96.0","A1PIGZNLSQMGNW","img_art/11.jpg","0","","","","","","","","","","","","","","","","","","","","","","","","",""
"481","","image-button-response","98","725942","0.0-97.0","A1PIGZNLSQMGNW","img_art/11.jpg","0","","","","","","","","","","","","","","","","","","","","","","","","",""
"1016","","image-button-response","99","726960","0.0-98.0-0.0","A1PIGZNLSQMGNW","img_art/11.jpg","3","","","","","","","","","","","","","","","","","","","","","","","","",""
"2330","","image-button-response","100","729292","0.0-99.0-0.0","A1PIGZNLSQMGNW","img_art/11.jpg","5","","","","","","","","","","","","","","","","","","","","","","","","",""
"null","","html-keyboard-response","101","729794","0.0-100.0","A1PIGZNLSQMGNW","<p style=""font-size: 48px;"">+</p>","","","","","null","allTrialResponses","500","1","8","img_art/11.jpg","26","Rollercoasters flowing through time","Eric,Tanner,Jonathan,Luis,Evan,Bryan","I don't like the gloomy color, but it reminds me of a city which I like.,35,100,20","small town, friendly. calm,35,180,20","Those vertical strokes are to die for and I love these colors !!!,50,140,20","I love the city chaos from this,50,400,20","I dislike how dark this is,-21,140,20","Rainy asian city scape.,31,400,20","Eric","I don't like the gloomy color, but it reminds me of a city which I like.,35,100,20","Luis","I love the city chaos from this,50,400,20","Bryan","Rainy asian city scape.,31,400,20","2"
"14365","","survey-text","102","744162","0.0-101.0-0.0","A1PIGZNLSQMGNW","","","","{""Q0"":""X marks the spot - too much chaos""}","","","","","","","","","","","","","","","","","","","","","","",""
"1710.0999999996275","","image-slider-response","103","745874","0.0-102.0","A1PIGZNLSQMGNW","","","","","-32","","","","","","","","","","","","","","","","","","","","","",""
"4478","","image-button-response","104","750875","0.0-103.0","A1PIGZNLSQMGNW","img_art/29.jpg","1","","","","","","","","","","","","","","","","","","","","","","","","",""
"969","","image-button-response","105","751846","0.0-104.0","A1PIGZNLSQMGNW","img_art/29.jpg","1","","","","","","","","","","","","","","","","","","","","","","","","",""
"945","","image-button-response","106","752792","0.0-105.0-0.0","A1PIGZNLSQMGNW","img_art/29.jpg","3","","","","","","","","","","","","","","","","","","","","","","","","",""
"1386","","image-button-response","107","754180","0.0-106.0-0.0","A1PIGZNLSQMGNW","img_art/29.jpg","5","","","","","","","","","","","","","","","","","","","","","","","","",""
"null","","html-keyboard-response","108","754690","0.0-107.0","A1PIGZNLSQMGNW","<p style=""font-size: 48px;"">+</p>","","","","","null","allTrialResponses","500","1","9","img_art/29.jpg","-32","X marks the spot - too much chaos","Eric,Spencer,Ryan,Luis,Sean,Bryan","I like that the colors are toned down even though they're everywhere.,5,100,20","Scrawled graffiti, with a red x as saying it was a mistake,-40,120,20","Once again, very modern, activists will love,27,380,20","I love the representation of a mess,50,400,20","my response to the picture is that it looks so nice and cool and the details,34,40,20","Doesn't do much for me. I like some of the colors but not much else.,-10,400,20","Spencer","Scrawled graffiti, with a red x as saying it was a mistake,-40,120,20","Luis","I love the representation of a mess,50,400,20","Bryan","Doesn't do much for me. I like some of the colors but not much else.,-10,400,20","2"
"7780","","survey-text","109","762474","0.0-108.0-0.0","A1PIGZNLSQMGNW","","","","{""Q0"":""The crow stands alone in the morning""}","","","","","","","","","","","","","","","","","","","","","","",""
"1366.5","","image-slider-response","110","763842","0.0-109.0","A1PIGZNLSQMGNW","","","","","15","","","","","","","","","","","","","","","","","","","","","",""
"null","","image-button-response","111","768849","0.0-110.0","A1PIGZNLSQMGNW","img_art/6.jpg","null","","","","","","","","","","","","","","","","","","","","","","","","",""
"253","","image-button-response","112","769104","0.0-111.0","A1PIGZNLSQMGNW","img_art/6.jpg","0","","","","","","","","","","","","","","","","","","","","","","","","",""
"725","","image-button-response","113","769830","0.0-112.0-0.0","A1PIGZNLSQMGNW","img_art/6.jpg","3","","","","","","","","","","","","","","","","","","","","","","","","",""
"2940","","image-button-response","114","772772","0.0-113.0-0.0","A1PIGZNLSQMGNW","img_art/6.jpg","1","","","","","","","","","","","","","","","","","","","","","","","","",""
"null","","html-keyboard-response","115","773273","0.0-114.0","A1PIGZNLSQMGNW","<p style=""font-size: 48px;"">+</p>","","","","","null","allTrialResponses","500","1","10","img_art/6.jpg","15","The crow stands alone in the morning","Jeffrey,Spencer,Isaac,Luis,Christian,Bryan","positive because of bright colours and a bird,20,40,20","Boring, looks like a sad tree in wind,-37,120,20","It looks like one tall ugly bird.,-43,280,20","I love the representation of death and life.,50,400,20","??????? fake floating leaf? headless bird,-28,140,20","Growth in the desert?  Don't care for it very much.,-26,400,20","Jeffrey","positive because of bright colours and a bird,20,40,20","Luis","I love the representation of death and life.,50,400,20","Spencer","Boring, looks like a sad tree in wind,-37,120,20","2"
"2861","","survey-text","116","776140","0.0-115.0-0.0","A1PIGZNLSQMGNW","","","","{""Q0"":""our""}","","","","","","","","","","","","","","","","","","","","","","",""
"8665","","survey-text","117","784806","0.0-116.0-0.0","A1PIGZNLSQMGNW","","","","{""Q0"":""Lade of death ringing her bell""}","","","","","","","","","","","","","","","","","","","","","","",""
"1786.4000000003725","","image-slider-response","118","786594","0.0-117.0","A1PIGZNLSQMGNW","","","","","11","","","","","","","","","","","","","","","","","","","","","",""
"2474","","image-button-response","119","791602","0.0-118.0","A1PIGZNLSQMGNW","img_art/25.jpg","1","","","","","","","","","","","","","","","","","","","","","","","","",""
"530","","image-button-response","120","792134","0.0-119.0","A1PIGZNLSQMGNW","img_art/25.jpg","1","","","","","","","","","","","","","","","","","","","","","","","","",""
"1724","","image-button-response","121","793860","0.0-120.0-0.0","A1PIGZNLSQMGNW","img_art/25.jpg","3","","","","","","","","","","","","","","","","","","","","","","","","",""
"762","","image-button-response","122","794623","0.0-121.0-0.0","A1PIGZNLSQMGNW","img_art/25.jpg","2","","","","","","","","","","","","","","","","","","","","","","","","",""
"null","","html-keyboard-response","123","795124","0.0-122.0","A1PIGZNLSQMGNW","<p style=""font-size: 48px;"">+</p>","","","","","null","allTrialResponses","500","1","11","img_art/25.jpg","11","Lade of death ringing her bell","Jeffrey,Spencer,John,Luis,Angel,Robert","reminds me of a demon,-25,40,20","I really like it, very simple, very tribal,38,120,20","Dark silhouette against the murky background Illicites an ominous feeling. Don't really like it.,-20,120,20","New life, rising from your personal battles,50,400,20","I feel uneasy. Like watching someone powerful ready to perform a ritual, but I don't know their intentions.,-10,180,20","It made me think of healing.,22,360,20","Spencer","I really like it, very simple, very tribal,38,120,20","Luis","New life, rising from your personal battles,50,400,20","John","Dark silhouette against the murky background Illicites an ominous feeling. Don't really like it.,-20,120,20","2"
"14726","","survey-text","124","809854","0.0-123.0-0.0","A1PIGZNLSQMGNW","","","","{""Q0"":""Mice racing towards their candy dinner""}","","","","","","","","","","","","","","","","","","","","","","",""
"1894.5999999996275","","image-slider-response","125","811750","0.0-124.0","A1PIGZNLSQMGNW","","","","","-14","","","","","","","","","","","","","","","","","","","","","",""
"4460","","image-button-response","126","816767","0.0-125.0","A1PIGZNLSQMGNW","img_art/23.jpg","1","","","","","","","","","","","","","","","","","","","","","","","","",""
"813","","image-button-response","127","817582","0.0-126.0","A1PIGZNLSQMGNW","img_art/23.jpg","1","","","","","","","","","","","","","","","","","","","","","","","","",""
"734","","image-button-response","128","818318","0.0-127.0-0.0","A1PIGZNLSQMGNW","img_art/23.jpg","3","","","","","","","","","","","","","","","","","","","","","","","","",""
"2220","","image-button-response","129","820540","0.0-128.0-0.0","A1PIGZNLSQMGNW","img_art/23.jpg","5","","","","","","","","","","","","","","","","","","","","","","","","",""
"null","","html-keyboard-response","130","821541","0.0-129.0","A1PIGZNLSQMGNW","<p style=""font-size: 48px;"">+</p>","","","","","null","allTrialResponses","1000","1","12","img_art/23.jpg","-14","Mice racing towards their candy dinner","Timothy,Spencer,John,Luis,Isaiah,Mitchell","This feels so energized, i love it,50,240,20","Interesting, want to look at it more to identify,25,120,20","Very bright and eye catching.The White silhouettes remind me of people celebrating.,31,120,20","I dont like the chaos of this,-20,400,20","I feel happy and a little excited. Like watching fireworks with family.,26,300,20","Partying, dancing, delusion, kaus.,10,180,20","Spencer","Interesting, want to look at it more to identify,25,120,20","Luis","I dont like the chaos of this,-20,400,20","Mitchell","Partying, dancing, delusion, kaus.,10,180,20","2"
"16779","","survey-text","131","838324","0.0-130.0-0.0","A1PIGZNLSQMGNW","","","","{""Q0"":""Ominous desert scene - love the colors""}","","","","","","","","","","","","","","","","","","","","","","",""
"1566.5","","image-slider-response","132","839892","0.0-131.0","A1PIGZNLSQMGNW","","","","","34","","","","","","","","","","","","","","","","","","","","","",""
"3404","","image-button-response","133","844894","0.0-132.0","A1PIGZNLSQMGNW","img_art/20.jpg","0","","","","","","","","","","","","","","","","","","","","","","","","",""
"766","","image-button-response","134","845662","0.0-133.0","A1PIGZNLSQMGNW","img_art/20.jpg","1","","","","","","","","","","","","","","","","","","","","","","","","",""
"902","","image-button-response","135","846566","0.0-134.0-0.0","A1PIGZNLSQMGNW","img_art/20.jpg","0","","","","","","","","","","","","","","","","","","","","","","","","",""
"4350","","image-button-response","136","850918","0.0-135.0-0.0","A1PIGZNLSQMGNW","img_art/20.jpg","5","","","","","","","","","","","","","","","","","","","","","","","","",""
"null","","html-keyboard-response","137","851419","0.0-136.0","A1PIGZNLSQMGNW","<p style=""font-size: 48px;"">+</p>","","","","","null","allTrialResponses","500","1","13","img_art/20.jpg","34","Ominous desert scene - love the colors","Caleb,Spencer,Tristan,Luis,Gabriel,Mitchell","Lovely composition, colors, and message.,35,40,20","A sad past town, pollution, guess I like happier scenes,-30,120,20","Elements that are more defined are incongruous to the soft and melting nature of this painting,5,300,20","I love the way it expresses dark nature and uncontrolled situations.,44,400,20","i almost feel like i can recognize what this is,-6,160,20","Interesting. Empty place, wondering what happened, leaving what you used to know.,10,180,20","Spencer","A sad past town, pollution, guess I like happier scenes,-30,120,20","Caleb","Lovely composition, colors, and message.,35,40,20","Mitchell","Interesting. Empty place, wondering what happened, leaving what you used to know.,10,180,20","2"
"15734","","survey-text","138","867156","0.0-137.0-0.0","A1PIGZNLSQMGNW","","","","{""Q0"":""Empty city street in the autumn - broad strokes""}","","","","","","","","","","","","","","","","","","","","","","",""
"3168.7999999988824","","image-slider-response","139","870326","0.0-138.0","A1PIGZNLSQMGNW","","","","","7","","","","","","","","","","","","","","","","","","","","","",""
"4850","","image-button-response","140","875328","0.0-139.0","A1PIGZNLSQMGNW","img_art/26.jpg","1","","","","","","","","","","","","","","","","","","","","","","","","",""
"2493","","image-button-response","141","877822","0.0-140.0","A1PIGZNLSQMGNW","img_art/26.jpg","3","","","","","","","","","","","","","","","","","","","","","","","","",""
"1274","","image-button-response","142","879098","0.0-141.0-0.0","A1PIGZNLSQMGNW","img_art/26.jpg","1","","","","","","","","","","","","","","","","","","","","","","","","",""
"2093","","image-button-response","143","881192","0.0-142.0-0.0","A1PIGZNLSQMGNW","img_art/26.jpg","2","","","","","","","","","","","","","","","","","","","","","","","","",""
"null","","html-keyboard-response","144","881694","0.0-143.0","A1PIGZNLSQMGNW","<p style=""font-size: 48px;"">+</p>","","","","","null","allTrialResponses","500","1","14","img_art/26.jpg","7","Empty city street in the autumn - broad strokes","Caleb,Spencer,Matthew,Patrick,Corey,Mitchell","Appears childish and unfinished.,-20,40,20","Really like it, a very nice neighborhood scene to me,42,120,20","Telented watercolor artist or second grader.,18,120,20","I can somewhat city a city in this drawing,11,280,20","its boring and i dont like the color palette,3,260,20","Incomplete, The artist painted his impression of somthing he was thinking of,0,180,20","Patrick","I can somewhat city a city in this drawing,11,280,20","Spencer","Really like it, a very nice neighborhood scene to me,42,120,20","Matthew","Telented watercolor artist or second grader.,18,120,20","2"
"23697","","survey-text","145","905394","0.0-144.0-0.0","A1PIGZNLSQMGNW","","","","{""Q0"":""The ship can barely float - full steam ahead""}","","","","","","","","","","","","","","","","","","","","","","",""
"1630.2999999988824","","image-slider-response","146","907026","0.0-145.0","A1PIGZNLSQMGNW","","","","","15","","","","","","","","","","","","","","","","","","","","","",""
"4838","","image-button-response","147","912032","0.0-146.0","A1PIGZNLSQMGNW","img_art/10.jpg","1","","","","","","","","","","","","","","","","","","","","","","","","",""
"979","","image-button-response","148","913012","0.0-147.0","A1PIGZNLSQMGNW","img_art/10.jpg","1","","","","","","","","","","","","","","","","","","","","","","","","",""
"1685","","image-button-response","149","914698","0.0-148.0-0.0","A1PIGZNLSQMGNW","img_art/10.jpg","4","","","","","","","","","","","","","","","","","","","","","","","","",""
"803","","image-button-response","150","915502","0.0-149.0-0.0","A1PIGZNLSQMGNW","img_art/10.jpg","5","","","","","","","","","","","","","","","","","","","","","","","","",""
"null","","html-keyboard-response","151","916503","0.0-150.0","A1PIGZNLSQMGNW","<p style=""font-size: 48px;"">+</p>","","","","","null","allTrialResponses","1000","1","15","img_art/10.jpg","15","The ship can barely float - full steam ahead","Jake,Spencer,Matthew,Patrick,Jacob,Travis","This is odd and ugly.,-9,360,20","Dark with no object, looks like experimentation, slightly like a storm on the ocean,-21,120,20","AWESOME VIOLIN!`,26,120,20","I don't like the colors,-20,280,20","I feel like this has a cool concept behind it.,11,340,20","I liked it...it looked somewhat like a guitar.,32,260,20","Spencer","Dark with no object, looks like experimentation, slightly like a storm on the ocean,-21,120,20","Jacob","I feel like this has a cool concept behind it.,11,340,20","Travis","I liked it...it looked somewhat like a guitar.,32,260,20","2"
"2722","","survey-text","152","919232","0.0-151.0-0.0","A1PIGZNLSQMGNW","","","","{""Q0"":""course""}","","","","","","","","","","","","","","","","","","","","","","",""
"19040","","survey-text","153","938273","0.0-152.0-0.0","A1PIGZNLSQMGNW","","","","{""Q0"":""The explosion scared everyone - is that someone poking out for help?""}","","","","","","","","","","","","","","","","","","","","","","",""
"1778.5","","image-slider-response","154","940053","0.0-153.0","A1PIGZNLSQMGNW","","","","","-23","","","","","","","","","","","","","","","","","","","","","",""
"null","","image-button-response","155","945055","0.0-154.0","A1PIGZNLSQMGNW","img_art/1.jpg","null","","","","","","","","","","","","","","","","","","","","","","","","",""
"1003","","image-button-response","156","946060","0.0-155.0","A1PIGZNLSQMGNW","img_art/1.jpg","5","","","","","","","","","","","","","","","","","","","","","","","","",""
"804","","image-button-response","157","946865","0.0-156.0-0.0","A1PIGZNLSQMGNW","img_art/1.jpg","0","","","","","","","","","","","","","","","","","","","","","","","","",""
"2029","","image-button-response","158","948895","0.0-157.0-0.0","A1PIGZNLSQMGNW","img_art/1.jpg","3","","","","","","","","","","","","","","","","","","","","","","","","",""
"null","","html-keyboard-response","159","949897","0.0-158.0","A1PIGZNLSQMGNW","<p style=""font-size: 48px;"">+</p>","","","","","null","allTrialResponses","1000","1","16","img_art/1.jpg","-23","The explosion scared everyone - is that someone poking out for help?","Trevor,Spencer,Kyle,Connor,Jacob,Travis","nice colors but kinds of blah,1,280,20","Pretty intermeshing of colors, happy,32,120,20","Too similar to some of the other pieces,-18,340,20","Love the coloration and abstract figures,18,240,20","Looks like the same thing as the last piece shown to me,10,340,20","I didn't like this too much...I didn't like the red and the jaggedness to it.,-29,260,20","Travis","I didn't like this too much...I didn't like the red and the jaggedness to it.,-29,260,20","Trevor","nice colors but kinds of blah,1,280,20","Connor","Love the coloration and abstract figures,18,240,20","2"
"19375","","survey-text","160","969275","0.0-159.0-0.0","A1PIGZNLSQMGNW","","","","{""Q0"":""The exchange of information on a rainy night""}","","","","","","","","","","","","","","","","","","","","","","",""
"1664.5","","image-slider-response","161","970941","0.0-160.0","A1PIGZNLSQMGNW","","","","","19","","","","","","","","","","","","","","","","","","","","","",""
"4123","","image-button-response","162","975943","0.0-161.0","A1PIGZNLSQMGNW","img_art/28.jpg","0","","","","","","","","","","","","","","","","","","","","","","","","",""
"531","","image-button-response","163","976476","0.0-162.0","A1PIGZNLSQMGNW","img_art/28.jpg","3","","","","","","","","","","","","","","","","","","","","","","","","",""
"1107","","image-button-response","164","977584","0.0-163.0-0.0","A1PIGZNLSQMGNW","img_art/28.jpg","5","","","","","","","","","","","","","","","","","","","","","","","","",""
"534","","image-button-response","165","978119","0.0-164.0-0.0","A1PIGZNLSQMGNW","img_art/28.jpg","4","","","","","","","","","","","","","","","","","","","","","","","","",""
"null","","html-keyboard-response","166","978621","0.0-165.0","A1PIGZNLSQMGNW","<p style=""font-size: 48px;"">+</p>","","","","","null","allTrialResponses","500","1","17","img_art/28.jpg","19","The exchange of information on a rainy night","Trevor,Brian,Steven,Connor,Adam,Travis","very blah colors and it's not fun,-27,280,20","the people kind of scare me in this one,-15,380,20","It's a bike that was left abandoned by someone who doesnt care for it,1,160,20","Dislike color palette and amoeba,-9,240,20","Dislike the colors.,-20,40,20","Hate it...brown and drab,-37,260,20","Connor","Dislike color palette and amoeba,-9,240,20","Travis","Hate it...brown and drab,-37,260,20","Adam","Dislike the colors.,-20,40,20","2"
"12901","","survey-text","167","991525","0.0-166.0-0.0","A1PIGZNLSQMGNW","","","","{""Q0"":""The tree was on it's way down - what crashed into it?""}","","","","","","","","","","","","","","","","","","","","","","",""
"3524.5","","image-slider-response","168","995051","0.0-167.0","A1PIGZNLSQMGNW","","","","","20","","","","","","","","","","","","","","","","","","","","","",""
"4885","","image-button-response","169","1000053","0.0-168.0","A1PIGZNLSQMGNW","img_art/14.jpg","1","","","","","","","","","","","","","","","","","","","","","","","","",""
"435","","image-button-response","170","1000489","0.0-169.0","A1PIGZNLSQMGNW","img_art/14.jpg","0","","","","","","","","","","","","","","","","","","","","","","","","",""
"411","","image-button-response","171","1000902","0.0-170.0-0.0","A1PIGZNLSQMGNW","img_art/14.jpg","1","","","","","","","","","","","","","","","","","","","","","","","","",""
"2754","","image-button-response","172","1003658","0.0-171.0-0.0","A1PIGZNLSQMGNW","img_art/14.jpg","5","","","","","","","","","","","","","","","","","","","","","","","","",""
"null","","html-keyboard-response","173","1004159","0.0-172.0","A1PIGZNLSQMGNW","<p style=""font-size: 48px;"">+</p>","","","","","null","allTrialResponses","500","1","18","img_art/14.jpg","20","The tree was on it's way down - what crashed into it?","Austin,Devin,Lucas,Connor,Adam,Travis","Love the abstractness of this painting,39,240,20","It looks nice colorwise but detail is lacking,18,380,20","In my opinion it's spectacular.,35,380,20","Looks childish and basic,-42,240,20","Very abstract. Unsure of what I'm looking at. No emotions towards it.,-6,40,20","I kind of like it...I like the white back ground,11,260,20","Austin","Love the abstractness of this painting,39,240,20","Devin","It looks nice colorwise but detail is lacking,18,380,20","Travis","I kind of like it...I like the white back ground,11,260,20","2"
"14231","","survey-text","174","1018393","0.0-173.0-0.0","A1PIGZNLSQMGNW","","","","{""Q0"":""The blood stains on the wall form no patterns""}","","","","","","","","","","","","","","","","","","","","","","",""
"1942.699999999255","","image-slider-response","175","1020337","0.0-174.0","A1PIGZNLSQMGNW","","","","","16","","","","","","","","","","","","","","","","","","","","","",""
"null","","image-button-response","176","1025354","0.0-175.0","A1PIGZNLSQMGNW","img_art/3.jpg","null","","","","","","","","","","","","","","","","","","","","","","","","",""
"1328","","image-button-response","177","1026684","0.0-176.0","A1PIGZNLSQMGNW","img_art/3.jpg","1","","","","","","","","","","","","","","","","","","","","","","","","",""
"1519","","image-button-response","178","1028204","0.0-177.0-0.0","A1PIGZNLSQMGNW","img_art/3.jpg","5","","","","","","","","","","","","","","","","","","","","","","","","",""
"534","","image-button-response","179","1028740","0.0-178.0-0.0","A1PIGZNLSQMGNW","img_art/3.jpg","4","","","","","","","","","","","","","","","","","","","","","","","","",""
"null","","html-keyboard-response","180","1029741","0.0-179.0","A1PIGZNLSQMGNW","<p style=""font-size: 48px;"">+</p>","","","","","null","allTrialResponses","1000","1","19","img_art/3.jpg","16","The blood stains on the wall form no patterns","Austin,Devin,Jesse,Daniel,Nathaniel,Travis","It doesn't invoke any excitement,-21,240,20","Scribbly a bit too much,-30,380,20","No substance or feeling to it,-20,80,20","5 min scribble by a 3 year old,-46,320,20","Just scribbles. People buy that?,-47,220,20","I hate this...just a scribble of red.,-50,260,20","Devin","Scribbly a bit too much,-30,380,20","Travis","I hate this...just a scribble of red.,-50,260,20","Nathaniel","Just scribbles. People buy that?,-47,220,20","2"
"15829","","survey-text","181","1045573","0.0-180.0-0.0","A1PIGZNLSQMGNW","","","","{""Q0"":""Interesting colors of a beach scene with a ship approaching""}","","","","","","","","","","","","","","","","","","","","","","",""
"1494.5","","image-slider-response","182","1047069","0.0-181.0","A1PIGZNLSQMGNW","","","","","18","","","","","","","","","","","","","","","","","","","","","",""
"4975","","image-button-response","183","1052071","0.0-182.0","A1PIGZNLSQMGNW","img_art/21.jpg","1","","","","","","","","","","","","","","","","","","","","","","","","",""
"427","","image-button-response","184","1052499","0.0-183.0","A1PIGZNLSQMGNW","img_art/21.jpg","0","","","","","","","","","","","","","","","","","","","","","","","","",""
"329","","image-button-response","185","1052829","0.0-184.0-0.0","A1PIGZNLSQMGNW","img_art/21.jpg","1","","","","","","","","","","","","","","","","","","","","","","","","",""
"1925","","image-button-response","186","1054755","0.0-185.0-0.0","A1PIGZNLSQMGNW","img_art/21.jpg","4","","","","","","","","","","","","","","","","","","","","","","","","",""
"null","","html-keyboard-response","187","1055257","0.0-186.0","A1PIGZNLSQMGNW","<p style=""font-size: 48px;"">+</p>","","","","","null","allTrialResponses","500","1","20","img_art/21.jpg","18","Interesting colors of a beach scene with a ship approaching","Dakota,Devin,Stephen,Jason,Nathaniel,Travis","a serene, calm and eloquent storm,9,280,20","Evokes a strong colorful sense,8,380,20","Don't see anything special about it,-21,140,20","The division in the picture is pleasing but the random white dots are distracting,12,20,20","Looks like two ships on fire. Cool image.,12,220,20","I liked it...it looked like a storm raging.,12,260,20","Dakota","a serene, calm and eloquent storm,9,280,20","Devin","Evokes a strong colorful sense,8,380,20","Nathaniel","Looks like two ships on fire. Cool image.,12,220,20","2"
"1521","","survey-text","188","1056785","0.0-187.0-0.0","A1PIGZNLSQMGNW","","","","{""Q0"":""we""}","","","","","","","","","","","","","","","","","","","","","","",""
"18913","","survey-text","189","1075699","0.0-188.0-0.0","A1PIGZNLSQMGNW","","","","{""Q0"":""The man tries to stay on course in a busy city - looks to be finished quickly""}","","","","","","","","","","","","","","","","","","","","","","",""
"1544.699999999255","","image-slider-response","190","1077245","0.0-189.0","A1PIGZNLSQMGNW","","","","","-29","","","","","","","","","","","","","","","","","","","","","",""
"null","","image-button-response","191","1082247","0.0-190.0","A1PIGZNLSQMGNW","img_art/19.jpg","null","","","","","","","","","","","","","","","","","","","","","","","","",""
"423","","image-button-response","192","1082671","0.0-191.0","A1PIGZNLSQMGNW","img_art/19.jpg","1","","","","","","","","","","","","","","","","","","","","","","","","",""
"889","","image-button-response","193","1083561","0.0-192.0-0.0","A1PIGZNLSQMGNW","img_art/19.jpg","4","","","","","","","","","","","","","","","","","","","","","","","","",""
"563","","image-button-response","194","1084125","0.0-193.0-0.0","A1PIGZNLSQMGNW","img_art/19.jpg","3","","","","","","","","","","","","","","","","","","","","","","","","",""
"null","","html-keyboard-response","195","1084627","0.0-194.0","A1PIGZNLSQMGNW","<p style=""font-size: 48px;"">+</p>","","","","","null","allTrialResponses","500","1","21","img_art/19.jpg","-29","The man tries to stay on course in a busy city - looks to be finished quickly","Dakota,Devin,Adrian,Alexis,Nathaniel,Kevin","confusion, scattered and diffuse,-4,280,20","Looks a bit too loose,-2,380,20","Pleasant colors with just enough detail to be recognizable. I can see a scene in it that tells a story.,7,60,20","it looks messy and non-unique.,-9,140,20","Horrible. Squiggly lines everywhere.,-50,220,20","Thats a lazy town,-8,320,20","Devin","Looks a bit too loose,-2,380,20","Nathaniel","Horrible. Squiggly lines everywhere.,-50,220,20","Alexis","it looks messy and non-unique.,-9,140,20","2"
"12788","","survey-text","196","1097419","0.0-195.0-0.0","A1PIGZNLSQMGNW","","","","{""Q0"":""The snow on the windows made it hard to see""}","","","","","","","","","","","","","","","","","","","","","","",""
"1692.8999999985099","","image-slider-response","197","1099113","0.0-196.0","A1PIGZNLSQMGNW","","","","","23","","","","","","","","","","","","","","","","","","","","","",""
"1847","","image-button-response","198","1104124","0.0-197.0","A1PIGZNLSQMGNW","img_art/13.jpg","0","","","","","","","","","","","","","","","","","","","","","","","","",""
"1290","","image-button-response","199","1105416","0.0-198.0","A1PIGZNLSQMGNW","img_art/13.jpg","0","","","","","","","","","","","","","","","","","","","","","","","","",""
"348","","image-button-response","200","1105766","0.0-199.0-0.0","A1PIGZNLSQMGNW","img_art/13.jpg","1","","","","","","","","","","","","","","","","","","","","","","","","",""
"396","","image-button-response","201","1106164","0.0-200.0-0.0","A1PIGZNLSQMGNW","img_art/13.jpg","2","","","","","","","","","","","","","","","","","","","","","","","","",""
"null","","html-keyboard-response","202","1107668","0.0-201.0","A1PIGZNLSQMGNW","<p style=""font-size: 48px;"">+</p>","","","","","null","allTrialResponses","1500","1","22","img_art/13.jpg","23","The snow on the windows made it hard to see","Brett,Devin,Zachary,Alexis,Nathaniel,Alex","Very abstract and soothing,40,360,20","Really love the colors,11,380,20","Peaceful colors.,20,400,20","It looks too common, is a bit boring,-41,140,20","Looks like an upclose dried set of water droplets. Boring.,-25,220,20","I like the blue colors and the symmetry and paint splatters but I would not hang it in my house,8,100,20","Brett","Very abstract and soothing,40,360,20","Devin","Really love the colors,11,380,20","Zachary","Peaceful colors.,20,400,20","2"
"16536","","survey-text","203","1124207","0.0-202.0-0.0","A1PIGZNLSQMGNW","","","","{""Q0"":""Scary forest holds the pot of gold at the end of the rainbow""}","","","","","","","","","","","","","","","","","","","","","","",""
"1396.7999999988824","","image-slider-response","204","1125606","0.0-203.0","A1PIGZNLSQMGNW","","","","","28","","","","","","","","","","","","","","","","","","","","","",""
"null","","image-button-response","205","1130618","0.0-204.0","A1PIGZNLSQMGNW","img_art/17.jpg","null","","","","","","","","","","","","","","","","","","","","","","","","",""
"500","","image-button-response","206","1131120","0.0-205.0","A1PIGZNLSQMGNW","img_art/17.jpg","5","","","","","","","","","","","","","","","","","","","","","","","","",""
"458","","image-button-response","207","1131580","0.0-206.0-0.0","A1PIGZNLSQMGNW","img_art/17.jpg","3","","","","","","","","","","","","","","","","","","","","","","","","",""
"696","","image-button-response","208","1132278","0.0-207.0-0.0","A1PIGZNLSQMGNW","img_art/17.jpg","1","","","","","","","","","","","","","","","","","","","","","","","","",""
"null","","html-keyboard-response","209","1133293","0.0-208.0","A1PIGZNLSQMGNW","<p style=""font-size: 48px;"">+</p>","","","","","null","allTrialResponses","1000","1","23","img_art/17.jpg","28","Scary forest holds the pot of gold at the end of the rainbow","Brett,Devin,Zachary,Gregory,Ethan,Cody","Looks like an explosion of pretty artwork,45,360,20","So expressive and wonderful wow!,17,380,20","Reminds me of a beautiful tree growing in a courtyard. I like the light and airy technique used.,34,400,20","Looks like some fantasy tree. Nice,30,220,20","The colors are nice and soft but not very complimentary.,7,120,20","Love the colors and the movement,46,180,20","Cody","Love the colors and the movement,46,180,20","Gregory","Looks like some fantasy tree. Nice,30,220,20","Devin","So expressive and wonderful wow!,17,380,20","2"
"19366","","survey-text","210","1152664","0.0-209.0-0.0","A1PIGZNLSQMGNW","","","","{""Q0"":""The demons fought the man and his horse bringing danger""}","","","","","","","","","","","","","","","","","","","","","","",""
"1700.5999999996275","","image-slider-response","211","1154366","0.0-210.0","A1PIGZNLSQMGNW","","","","","20","","","","","","","","","","","","","","","","","","","","","",""
"4602","","image-button-response","212","1159368","0.0-211.0","A1PIGZNLSQMGNW","img_art/18.jpg","0","","","","","","","","","","","","","","","","","","","","","","","","",""
"519","","image-button-response","213","1159888","0.0-212.0","A1PIGZNLSQMGNW","img_art/18.jpg","0","","","","","","","","","","","","","","","","","","","","","","","","",""
"617","","image-button-response","214","1160506","0.0-213.0-0.0","A1PIGZNLSQMGNW","img_art/18.jpg","4","","","","","","","","","","","","","","","","","","","","","","","","",""
"330","","image-button-response","215","1160838","0.0-214.0-0.0","A1PIGZNLSQMGNW","img_art/18.jpg","5","","","","","","","","","","","","","","","","","","","","","","","","",""
"null","","html-keyboard-response","216","1162339","0.0-215.0","A1PIGZNLSQMGNW","<p style=""font-size: 48px;"">+</p>","","","","","null","allTrialResponses","1500","1","24","img_art/18.jpg","20","The demons fought the man and his horse bringing danger","Jack,Devin,Shawn,Gregory,Benjamin,Cody","hauntingly beautiful. more things revealed the longer you look. love the spirit-like figure in the top left.,47,320,20","Good concept but then scribbled on a bit?,15,380,20","Evocative but cheesy.,-20,100,20","Mash up of colors and don't see a grander picture,-10,220,20","ugly and lots of movement,-6,260,20","Vaguely creepy ........,-20,180,20","Jack","hauntingly beautiful. more things revealed the longer you look. love the spirit-like figure in the top left.,47,320,20","Benjamin","ugly and lots of movement,-6,260,20","Cody","Vaguely creepy ........,-20,180,20","2"
"13429","","survey-text","217","1175772","0.0-216.0-0.0","A1PIGZNLSQMGNW","","","","{""Q0"":""The fields were full of mud that the last storm created""}","","","","","","","","","","","","","","","","","","","","","","",""
"3060.7999999988824","","image-slider-response","218","1178834","0.0-217.0","A1PIGZNLSQMGNW","","","","","-39","","","","","","","","","","","","","","","","","","","","","",""
"4841","","image-button-response","219","1183836","0.0-218.0","A1PIGZNLSQMGNW","img_art/7.jpg","1","","","","","","","","","","","","","","","","","","","","","","","","",""
"611","","image-button-response","220","1184448","0.0-219.0","A1PIGZNLSQMGNW","img_art/7.jpg","2","","","","","","","","","","","","","","","","","","","","","","","","",""
"437","","image-button-response","221","1184886","0.0-220.0-0.0","A1PIGZNLSQMGNW","img_art/7.jpg","1","","","","","","","","","","","","","","","","","","","","","","","","",""
"322","","image-button-response","222","1185210","0.0-221.0-0.0","A1PIGZNLSQMGNW","img_art/7.jpg","0","","","","","","","","","","","","","","","","","","","","","","","","",""
"null","","html-keyboard-response","223","1186711","0.0-222.0","A1PIGZNLSQMGNW","<p style=""font-size: 48px;"">+</p>","","","","","null","allTrialResponses","1500","1","25","img_art/7.jpg","-39","The fields were full of mud that the last storm created","Jack,Carlos,Ian,Elijah,Benjamin,Cody","reminds me of a desert from far above,23,320,20","The dried bottom of a puddle in July.,-41,80,20","This looks like a literal picture of the ground so I'm really not too sure about this one.,-42,260,20","Not highly impressed,-5,80,20","Dull and confusing,-24,260,20","Cool, makes me think of archeology,15,180,20","Ian","This looks like a literal picture of the ground so I'm really not too sure about this one.,-42,260,20","Carlos","The dried bottom of a puddle in July.,-41,80,20","Jack","reminds me of a desert from far above,23,320,20","2"
"2890","","survey-text","224","1189608","0.0-223.0-0.0","A1PIGZNLSQMGNW","","","","{""Q0"":""table""}","","","","","","","","","","","","","","","","","","","","","","",""
"10665","","survey-text","225","1200274","0.0-224.0-0.0","A1PIGZNLSQMGNW","","","","{""Q0"":""This waterfall represents life with it's beauty""}","","","","","","","","","","","","","","","","","","","","","","",""
"1590.699999999255","","image-slider-response","226","1201866","0.0-225.0","A1PIGZNLSQMGNW","","","","","37","","","","","","","","","","","","","","","","","","","","","",""
"4685","","image-button-response","227","1206868","0.0-226.0","A1PIGZNLSQMGNW","img_art/24.jpg","2","","","","","","","","","","","","","","","","","","","","","","","","",""
"617","","image-button-response","228","1207486","0.0-227.0","A1PIGZNLSQMGNW","img_art/24.jpg","2","","","","","","","","","","","","","","","","","","","","","","","","",""
"1185","","image-button-response","229","1208672","0.0-228.0-0.0","A1PIGZNLSQMGNW","img_art/24.jpg","4","","","","","","","","","","","","","","","","","","","","","","","","",""
"663","","image-button-response","230","1209336","0.0-229.0-0.0","A1PIGZNLSQMGNW","img_art/24.jpg","5","","","","","","","","","","","","","","","","","","","","","","","","",""
"null","","html-keyboard-response","231","1209838","0.0-230.0","A1PIGZNLSQMGNW","<p style=""font-size: 48px;"">+</p>","","","","","null","allTrialResponses","500","1","26","img_art/24.jpg","37","This waterfall represents life with it's beauty","Jack,Carlos,Ian,Miguel,Mason,Samuel","colors are a bit cramped together. really unique take on a waterfall though.,32,320,20","It is like a really bad impressionist painting.,-40,80,20","I find the colors work really well. It's very pretty but I have no idea as what it is.,34,260,20","Very cute amateur piece.,18,160,20","Nature, abstract, I'd hang this in my house.,37,100,20","tranquility in the stream,34,400,20","Ian","I find the colors work really well. It's very pretty but I have no idea as what it is.,34,260,20","Mason","Nature, abstract, I'd hang this in my house.,37,100,20","Samuel","tranquility in the stream,34,400,20","2"
"25694","","survey-text","232","1235536","0.0-231.0-0.0","A1PIGZNLSQMGNW","","","","{""Q0"":""The bear is scared of the unknown - needs help""}","","","","","","","","","","","","","","","","","","","","","","",""
"1668.5","","image-slider-response","233","1237206","0.0-232.0","A1PIGZNLSQMGNW","","","","","11","","","","","","","","","","","","","","","","","","","","","",""
"4685","","image-button-response","234","1242208","0.0-233.0","A1PIGZNLSQMGNW","img_art/16.jpg","1","","","","","","","","","","","","","","","","","","","","","","","","",""
"743","","image-button-response","235","1242952","0.0-234.0","A1PIGZNLSQMGNW","img_art/16.jpg","5","","","","","","","","","","","","","","","","","","","","","","","","",""
"1073","","image-button-response","236","1244026","0.0-235.0-0.0","A1PIGZNLSQMGNW","img_art/16.jpg","0","","","","","","","","","","","","","","","","","","","","","","","","",""
"453","","image-button-response","237","1244480","0.0-236.0-0.0","A1PIGZNLSQMGNW","img_art/16.jpg","1","","","","","","","","","","","","","","","","","","","","","","","","",""
"null","","html-keyboard-response","238","1244988","0.0-237.0","A1PIGZNLSQMGNW","<p style=""font-size: 48px;"">+</p>","","","","","null","allTrialResponses","500","1","27","img_art/16.jpg","11","The bear is scared of the unknown - needs help","Derek,Chase,Ian,Alejandro,Mason,Samuel","I can't figure out the meaning of this painting but it is pleasant to look at,40,360,20","Seems very twisted and dark.,-35,120,20","This looks like it was made by an art student filled with angst,-30,260,20","Garble and nonsense,-50,80,20","Don't get it. Hate it. ugly.,-44,100,20","childhood horror,3,400,20","Samuel","childhood horror,3,400,20","Derek","I can't figure out the meaning of this painting but it is pleasant to look at,40,360,20","Chase","Seems very twisted and dark.,-35,120,20","2"
"14134","","survey-text","239","1259126","0.0-238.0-0.0","A1PIGZNLSQMGNW","","","","{""Q0"":""The mustard couldn't wait to leave the bottle - seems messy""}","","","","","","","","","","","","","","","","","","","","","","",""
"1968.5","","image-slider-response","240","1261096","0.0-239.0","A1PIGZNLSQMGNW","","","","","24","","","","","","","","","","","","","","","","","","","","","",""
"4317","","image-button-response","241","1266098","0.0-240.0","A1PIGZNLSQMGNW","img_art/4.jpg","2","","","","","","","","","","","","","","","","","","","","","","","","",""
"161","","image-button-response","242","1266260","0.0-241.0","A1PIGZNLSQMGNW","img_art/4.jpg","2","","","","","","","","","","","","","","","","","","","","","","","","",""
"1695","","image-button-response","243","1267957","0.0-242.0-0.0","A1PIGZNLSQMGNW","img_art/4.jpg","4","","","","","","","","","","","","","","","","","","","","","","","","",""
"400","","image-button-response","244","1268358","0.0-243.0-0.0","A1PIGZNLSQMGNW","img_art/4.jpg","5","","","","","","","","","","","","","","","","","","","","","","","","",""
"null","","html-keyboard-response","245","1268860","0.0-244.0","A1PIGZNLSQMGNW","<p style=""font-size: 48px;"">+</p>","","","","","null","allTrialResponses","500","1","28","img_art/4.jpg","24","The mustard couldn't wait to leave the bottle - seems messy","Derek,Chase,Juan,Edward,Hunter,Samuel","A bit too plain for my tastes,-10,360,20","It looks like smeared poop.,-27,120,20","Again, this is too abstract and I really don't like the colors.,-21,260,20","It reminds me of something a kid would make for their parents,13,60,20","appealing warm palette,6,240,20","The muted tones,-11,400,20","Juan","Again, this is too abstract and I really don't like the colors.,-21,260,20","Hunter","appealing warm palette,6,240,20","Samuel","The muted tones,-11,400,20","2"
"18981","","survey-text","246","1287845","0.0-245.0-0.0","A1PIGZNLSQMGNW","","","","{""Q0"":""Pyramids shining lights - this is a basic piece""}","","","","","","","","","","","","","","","","","","","","","","",""
"1802.5","","image-slider-response","247","1289649","0.0-246.0","A1PIGZNLSQMGNW","","","","","-18","","","","","","","","","","","","","","","","","","","","","",""
"4811","","image-button-response","248","1294651","0.0-247.0","A1PIGZNLSQMGNW","img_art/5.jpg","0","","","","","","","","","","","","","","","","","","","","","","","","",""
"797","","image-button-response","249","1295450","0.0-248.0","A1PIGZNLSQMGNW","img_art/5.jpg","5","","","","","","","","","","","","","","","","","","","","","","","","",""
"1114","","image-button-response","250","1296566","0.0-249.0-0.0","A1PIGZNLSQMGNW","img_art/5.jpg","3","","","","","","","","","","","","","","","","","","","","","","","","",""
"708","","image-button-response","251","1297275","0.0-250.0-0.0","A1PIGZNLSQMGNW","img_art/5.jpg","0","","","","","","","","","","","","","","","","","","","","","","","","",""
"null","","html-keyboard-response","252","1298776","0.0-251.0","A1PIGZNLSQMGNW","<p style=""font-size: 48px;"">+</p>","","","","","null","allTrialResponses","1500","1","29","img_art/5.jpg","-18","Pyramids shining lights - this is a basic piece","Luke,Charles,Juan,Thomas,Hunter,Samuel","no clear emotion,-16,20,20","It feels positive and kind of uplifting,24,100,20","The yellow is garish and the picture doesn't look liked anything.,-49,260,20","I'm confused by what I am looking at,-3,220,20","strong appeal in contrast,27,240,20","a brush in time,-14,400,20","Samuel","a brush in time,-14,400,20","Thomas","I'm confused by what I am looking at,-3,220,20","Luke","no clear emotion,-16,20,20","2"
"18399","","survey-text","253","1317179","0.0-252.0-0.0","A1PIGZNLSQMGNW","","","","{""Q0"":""This city is peculiar looking and the man looking from above watches all.""}","","","","","","","","","","","","","","","","","","","","","","",""
"1495.0999999996275","","image-slider-response","254","1318675","0.0-253.0","A1PIGZNLSQMGNW","","","","","23","","","","","","","","","","","","","","","","","","","","","",""
"4541","","image-button-response","255","1323685","0.0-254.0","A1PIGZNLSQMGNW","img_art/8.jpg","0","","","","","","","","","","","","","","","","","","","","","","","","",""
"305","","image-button-response","256","1323992","0.0-255.0","A1PIGZNLSQMGNW","img_art/8.jpg","1","","","","","","","","","","","","","","","","","","","","","","","","",""
"303","","image-button-response","257","1324296","0.0-256.0-0.0","A1PIGZNLSQMGNW","img_art/8.jpg","0","","","","","","","","","","","","","","","","","","","","","","","","",""
"1696","","image-button-response","258","1325994","0.0-257.0-0.0","A1PIGZNLSQMGNW","img_art/8.jpg","3","","","","","","","","","","","","","","","","","","","","","","","","",""
"null","","html-keyboard-response","259","1327495","0.0-258.0","A1PIGZNLSQMGNW","<p style=""font-size: 48px;"">+</p>","","","","","null","allTrialResponses","1500","1","30","img_art/8.jpg","23","This city is peculiar looking and the man looking from above watches all.","Luke,Jorge,Nicholas,Thomas,David,Samuel","It is very colorful with a deeper meaning,25,20,20","New power in the community,22,180,20","The face bothers me,-25,240,20","Gorgeous! I love the colors and the details.,50,220,20","I like how the piece is showcasing emotion in relation to something.,25,340,20","being watched over,17,400,20","Jorge","New power in the community,22,180,20","Luke","It is very colorful with a deeper meaning,25,20,20","Thomas","Gorgeous! I love the colors and the details.,50,220,20","2"
"10306","","image-button-response_instructions","260","1337805","0.0-259.0","A1PIGZNLSQMGNW","","0","instructions","","","","","","","","","","","","","","","","","","","","","","","",""
"909","","image-button-response","261","1338719","0.0-260.0","A1PIGZNLSQMGNW","","0","","","","","","","","","","","","","","","","","","","","","","","","",""
