"rt","url","trial_type","trial_index","time_elapsed","internal_node_id","participant_id","stimulus","button_pressed","Name","responses","response","key_press","variableName","fixationTime","condition","trial","photo","subjectRating","subjectResponse","agentsNames","agent_1_Response","agent_2_Response","agent_3_Response","agent_4_Response","agent_5_Response","agent_6_Response","kept_1_name","kept_1_response","kept_2_name","kept_2_response","kept_3_name","kept_3_response","errorCounter"
"21134","external_page_harvard.html","external-html","0","21213","0.0-0.0","A1Q9GPUCKQSEN9","","","","","","","","","","","","","","","","","","","","","","","","","","",""
"1791","","image-button-response","1","23012","0.0-1.0","A1Q9GPUCKQSEN9","","1","","","","","","","","","","","","","","","","","","","","","","","","",""
"3474","","image-button-response","2","26498","0.0-2.0-0.0","A1Q9GPUCKQSEN9","","1","phone","","","","","","","","","","","","","","","","","","","","","","","",""
"6764","","survey-text","3","33267","0.0-3.0-0.0","A1Q9GPUCKQSEN9","","","","{""Q0"":""A1Q9GPUCKQSEN9""}","","","","","","","","","","","","","","","","","","","","","","",""
"5842","","image-button-response_instructions","4","39115","0.0-4.0","A1Q9GPUCKQSEN9","","0","instructions","","","","","","","","","","","","","","","","","","","","","","","",""
"23852","","image-button-response_instructions","5","62970","0.0-5.0","A1Q9GPUCKQSEN9","img_art/ins/popularity/ins1.png","0","instructions","","","","","","","","","","","","","","","","","","","","","","","",""
"11543","","image-button-response_instructions","6","74515","0.0-6.0","A1Q9GPUCKQSEN9","img_art/ins/popularity/ins2.png","0","instructions","","","","","","","","","","","","","","","","","","","","","","","",""
"2474","","image-button-response_instructions","7","76995","0.0-7.0","A1Q9GPUCKQSEN9","img_art/ins/popularity/ins2Extreme.png","0","instructions","","","","","","","","","","","","","","","","","","","","","","","",""
"6396","","image-button-response_instructions","8","83394","0.0-8.0","A1Q9GPUCKQSEN9","img_art/ins/popularity/ins3KEEPpop.PNG","0","instructions","","","","","","","","","","","","","","","","","","","","","","","",""
"3195","","image-button-response_instructions","9","86594","0.0-9.0","A1Q9GPUCKQSEN9","img_art/ins/popularity/ins3ANamepop.PNG","0","instructions","","","","","","","","","","","","","","","","","","","","","","","",""
"2260","","image-button-response_instructions","10","88858","0.0-10.0","A1Q9GPUCKQSEN9","img_art/ins/popularity/ins3ARatingpop.png","0","instructions","","","","","","","","","","","","","","","","","","","","","","","",""
"1109","","image-button-response_instructions","11","89970","0.0-11.0","A1Q9GPUCKQSEN9","img_art/ins/popularity/ins3ATextpop.png","0","instructions","","","","","","","","","","","","","","","","","","","","","","","",""
"7540","","image-button-response_instructions","12","97514","0.0-12.0","A1Q9GPUCKQSEN9","img_art/ins/popularity/ins3ALikespop.png","0","instructions","","","","","","","","","","","","","","","","","","","","","","","",""
"13119","","image-button-response_instructions","13","110638","0.0-13.0","A1Q9GPUCKQSEN9","img_art/ins/popularity/ins3KEEPpop.PNG","0","instructions","","","","","","","","","","","","","","","","","","","","","","","",""
"3327","","image-button-response_instructions","14","113970","0.0-14.0","A1Q9GPUCKQSEN9","img_art/ins/popularity/ins3_5RED.png","0","instructions","","","","","","","","","","","","","","","","","","","","","","","",""
"5424","","image-button-response_instructions","15","119401","0.0-15.0","A1Q9GPUCKQSEN9","img_art/ins/popularity/ins3KEEPpop.PNG","0","instructions","","","","","","","","","","","","","","","","","","","","","","","",""
"6613","","image-button-response_instructions","16","126020","0.0-16.0","A1Q9GPUCKQSEN9","img_art/ins/popularity/ins4KEEPpop.PNG","0","instructions","","","","","","","","","","","","","","","","","","","","","","","",""
"5842","","image-button-response_instructions","17","131865","0.0-17.0","A1Q9GPUCKQSEN9","img_art/ins/popularity/ins5KEEPpop.PNG","0","instructions","","","","","","","","","","","","","","","","","","","","","","","",""
"1764","","image-button-response_instructions","18","133633","0.0-18.0","A1Q9GPUCKQSEN9","","0","instructions","","","","","","","","","","","","","","","","","","","","","","","",""
"10283","","survey-text","19","143981","0.0-19.0-0.0","A1Q9GPUCKQSEN9","","","","{""Q0"":""but""}","","","","","","","","","","","","","","","","","","","","","","",""
"20274","","survey-text","20","164261","0.0-20.0-0.0","A1Q9GPUCKQSEN9","","","","{""Q0"":""This feels visceral and chaotic""}","","","","","","","","","","","","","","","","","","","","","","",""
"4194.200000000186","","image-slider-response","21","168464","0.0-21.0","A1Q9GPUCKQSEN9","","","","","29","","","","","","","","","","","","","","","","","","","","","",""
"null","","image-button-response","22","173474","0.0-22.0","A1Q9GPUCKQSEN9","img_art/ins/1.jpg","null","","","","","","","","","","","","","","","","","","","","","","","","",""
"13685","","image-button-response","23","187166","0.0-23.0","A1Q9GPUCKQSEN9","img_art/ins/1.jpg","5","","","","","","","","","","","","","","","","","","","","","","","","",""
"4368","","image-button-response","24","191542","0.0-24.0-0.0","A1Q9GPUCKQSEN9","img_art/ins/1.jpg","4","","","","","","","","","","","","","","","","","","","","","","","","",""
"1865","","image-button-response","25","193414","0.0-25.0-0.0","A1Q9GPUCKQSEN9","img_art/ins/1.jpg","0","","","","","","","","","","","","","","","","","","","","","","","","",""
"null","","html-keyboard-response","26","194419","0.0-26.0","A1Q9GPUCKQSEN9","<p style=""font-size: 48px;"">+</p>","","","","","null","allTrialResponses","1000","1","-2","img_art/ins/1.jpg","29","This feels visceral and chaotic","Allison,Ashley,Beth,Dora,Erika,Jen","looks like a lot of things going on in the mist,20,20,20","I just don't get why these type of art would be popular,-32,40,20","This color reminds me of poo,-46,60,20","looks like what my niece in 3rd grade did this afternoon,-50,80,20","I like the sophisticated brushwork,40,100,20","It reminds me of a candy land dream I had,36,120,20","Jen","It reminds me of a candy land dream I had,36,120,20","Erika","I like the sophisticated brushwork,40,100,20","Allison","looks like a lot of things going on in the mist,20,20,20","0"
"27790","","survey-text","27","222229","0.0-27.0-0.0","A1Q9GPUCKQSEN9","","","","{""Q0"":""This is crimson and rigid, like something I'd expect to climb""}","","","","","","","","","","","","","","","","","","","","","","",""
"3987","","image-slider-response","28","226221","0.0-28.0","A1Q9GPUCKQSEN9","","","","","17","","","","","","","","","","","","","","","","","","","","","",""
"4866","","image-button-response","29","231229","0.0-29.0","A1Q9GPUCKQSEN9","img_art/ins/2.jpg","5","","","","","","","","","","","","","","","","","","","","","","","","",""
"610","","image-button-response","30","231846","0.0-30.0","A1Q9GPUCKQSEN9","img_art/ins/2.jpg","5","","","","","","","","","","","","","","","","","","","","","","","","",""
"1472","","image-button-response","31","233326","0.0-31.0-0.0","A1Q9GPUCKQSEN9","img_art/ins/2.jpg","4","","","","","","","","","","","","","","","","","","","","","","","","",""
"6137","","image-button-response","32","239469","0.0-32.0-0.0","A1Q9GPUCKQSEN9","img_art/ins/2.jpg","1","","","","","","","","","","","","","","","","","","","","","","","","",""
"null","","html-keyboard-response","33","240474","0.0-33.0","A1Q9GPUCKQSEN9","<p style=""font-size: 48px;"">+</p>","","","","","null","allTrialResponses","1000","1","-1","img_art/ins/2.jpg","17","This is crimson and rigid, like something I'd expect to climb","Allison,Kara,Katie,Jenna,Erika,Jen","I don't have strong feelings about this,10,20,20","I like the blocks of color arrangements,30,160,20","too much color!,-28,180,20","One of my pet peevs,-48,140,20","I would never be able to compose a sophisticated pallete like this,48,100,20","It reminds me of a fireplace,36,120,20","Jen","It reminds me of a fireplace,36,120,20","Erika","I would never be able to compose a sophisticated pallete like this,48,100,20","Kara","I like the blocks of color arrangements,30,160,20","0"
"22333","","survey-text","34","262828","0.0-34.0-0.0","A1Q9GPUCKQSEN9","","","","{""Q0"":""This is cold and triangular, it reminds me of paper airplanes""}","","","","","","","","","","","","","","","","","","","","","","",""
"4579.200000000186","","image-slider-response","35","267413","0.0-35.0","A1Q9GPUCKQSEN9","","","","","19","","","","","","","","","","","","","","","","","","","","","",""
"3957","","image-button-response","36","272419","0.0-36.0","A1Q9GPUCKQSEN9","img_art/ins/3.jpg","5","","","","","","","","","","","","","","","","","","","","","","","","",""
"213","","image-button-response","37","272637","0.0-37.0","A1Q9GPUCKQSEN9","img_art/ins/3.jpg","3","","","","","","","","","","","","","","","","","","","","","","","","",""
"987","","image-button-response","38","273629","0.0-38.0-0.0","A1Q9GPUCKQSEN9","img_art/ins/3.jpg","4","","","","","","","","","","","","","","","","","","","","","","","","",""
"801","","image-button-response","39","274437","0.0-39.0-0.0","A1Q9GPUCKQSEN9","img_art/ins/3.jpg","5","","","","","","","","","","","","","","","","","","","","","","","","",""
"null","","html-keyboard-response","40","275940","0.0-40.0","A1Q9GPUCKQSEN9","<p style=""font-size: 48px;"">+</p>","","","","","null","allTrialResponses","1500","1","0","img_art/ins/3.jpg","19","This is cold and triangular, it reminds me of paper airplanes","Mary,Kara,Rose,Leslie,Erika,Jen","I like the overlapping of brushes,41,220,20","calming blue is very nice,36,160,20","My daily routine, it's depressing,-20,240,20","It's an alright work,15,200,20","I feel connected to the artist,40,100,20","I can feel a rainy day from this painting,18,120,20","Leslie","It's an alright work,15,200,20","Erika","I feel connected to the artist,40,100,20","Jen","I can feel a rainy day from this painting,18,120,20","0"
"6355","","image-button-response_instructions","41","282316","0.0-41.0","A1Q9GPUCKQSEN9","","0","instructions","","","","","","","","","","","","","","","","","","","","","","","",""
"19901","","survey-likert","42","302222","0.0-42.0-0.0","A1Q9GPUCKQSEN9","","","","{""Q0"":"""",""Q1"":0,""Q2"":1}","","","","","","","","","","","","","","","","","","","","","","",""
"5189","","survey-text","43","307439","0.0-43.0-0.0","A1Q9GPUCKQSEN9","","","","{""Q0"":""rock""}","","","","","","","","","","","","","","","","","","","","","","",""
"24508","","survey-text","44","331952","0.0-44.0-0.0","A1Q9GPUCKQSEN9","","","","{""Q0"":""This reminds me of resin, matches, smoke""}","","","","","","","","","","","","","","","","","","","","","","",""
"3390.7000000001863","","image-slider-response","45","335349","0.0-45.0","A1Q9GPUCKQSEN9","","","","","-11","","","","","","","","","","","","","","","","","","","","","",""
"2977","","image-button-response","46","340424","0.0-46.0","A1Q9GPUCKQSEN9","img_art/15.jpg","1","","","","","","","","","","","","","","","","","","","","","","","","",""
"799","","image-button-response","47","341232","0.0-47.0","A1Q9GPUCKQSEN9","img_art/15.jpg","1","","","","","","","","","","","","","","","","","","","","","","","","",""
"586","","image-button-response","48","341825","0.0-48.0-0.0","A1Q9GPUCKQSEN9","img_art/15.jpg","0","","","","","","","","","","","","","","","","","","","","","","","","",""
"909","","image-button-response","49","342740","0.0-49.0-0.0","A1Q9GPUCKQSEN9","img_art/15.jpg","0","","","","","","","","","","","","","","","","","","","","","","","","",""
"2069","","image-button-response","50","349977","0.0-49.1-0.1","A1Q9GPUCKQSEN9","img_art/15.jpg","2","","","","","","","","","","","","","","","","","","","","","","","","",""
"null","","html-keyboard-response","51","350482","0.0-50.0","A1Q9GPUCKQSEN9","<p style=""font-size: 48px;"">+</p>","","","","","null","allTrialResponses","500","1","1","img_art/15.jpg","-11","This reminds me of resin, matches, smoke","Kelly,Sara,Monica,Amy,Miranda,Bailey","I can't really make out what this is supposed to be.,-8,220,20","I don't like the black dots,-19,160,20","I don't feel much of anything when looking at this, it's just a random pattern,1,360,20","basic colors and pleasing shapes providing a calming effect,15,220,20","This gives a skin crawling feeling. Like something that you could see under a mircoscope,10,320,20","This is passable, but personally it just has nothing I'd like to see.,-14,360,20","Sara","I don't like the black dots,-19,160,20","Kelly","I can't really make out what this is supposed to be.,-8,220,20","Monica","I don't feel much of anything when looking at this, it's just a random pattern,1,360,20","2"
"17121","","survey-text","52","367624","0.0-51.0-0.0","A1Q9GPUCKQSEN9","","","","{""Q0"":""This is blurry and undefined""}","","","","","","","","","","","","","","","","","","","","","","",""
"3651.0999999996275","","image-slider-response","53","371279","0.0-52.0","A1Q9GPUCKQSEN9","","","","","-29","","","","","","","","","","","","","","","","","","","","","",""
"3628","","image-button-response","54","376284","0.0-53.0","A1Q9GPUCKQSEN9","img_art/3.jpg","5","","","","","","","","","","","","","","","","","","","","","","","","",""
"2549","","image-button-response","55","378840","0.0-54.0","A1Q9GPUCKQSEN9","img_art/3.jpg","3","","","","","","","","","","","","","","","","","","","","","","","","",""
"1659","","image-button-response","56","380504","0.0-55.0-0.0","A1Q9GPUCKQSEN9","img_art/3.jpg","2","","","","","","","","","","","","","","","","","","","","","","","","",""
"1080","","image-button-response","57","381592","0.0-56.0-0.0","A1Q9GPUCKQSEN9","img_art/3.jpg","5","","","","","","","","","","","","","","","","","","","","","","","","",""
"null","","html-keyboard-response","58","382597","0.0-57.0","A1Q9GPUCKQSEN9","<p style=""font-size: 48px;"">+</p>","","","","","null","allTrialResponses","1000","1","2","img_art/3.jpg","-29","This is blurry and undefined","Kelly,Sara,Monica,Brittany,Kimberly,Marissa","Reminds me of blood.,-28,220,20","Random use of red and looks scary,-50,160,20","It looks like random scribbles by a child and not appealing,-38,360,20","I don't care for art that looks like it was just scribbled.,-19,40,20","I like that it feels kind of simple but still chaotic,6,260,20","It feels like a half assed and failed imitation of Japanese signatures on old paintings,-22,160,20","Brittany","I don't care for art that looks like it was just scribbled.,-19,40,20","Monica","It looks like random scribbles by a child and not appealing,-38,360,20","Marissa","It feels like a half assed and failed imitation of Japanese signatures on old paintings,-22,160,20","2"
"23797","","survey-text","59","406415","0.0-58.0-0.0","A1Q9GPUCKQSEN9","","","","{""Q0"":""I like the fall colors and the way it reminds me of a lake in the woods""}","","","","","","","","","","","","","","","","","","","","","","",""
"2770.9000000003725","","image-slider-response","60","409191","0.0-59.0","A1Q9GPUCKQSEN9","","","","","34","","","","","","","","","","","","","","","","","","","","","",""
"null","","image-button-response","61","414198","0.0-60.0","A1Q9GPUCKQSEN9","img_art/1.jpg","null","","","","","","","","","","","","","","","","","","","","","","","","",""
"102542","","image-button-response","62","516747","0.0-61.0","A1Q9GPUCKQSEN9","img_art/1.jpg","3","","","","","","","","","","","","","","","","","","","","","","","","",""
"1518","","image-button-response","63","518271","0.0-62.0-0.0","A1Q9GPUCKQSEN9","img_art/1.jpg","5","","","","","","","","","","","","","","","","","","","","","","","","",""
"1521","","image-button-response","64","519799","0.0-63.0-0.0","A1Q9GPUCKQSEN9","img_art/1.jpg","2","","","","","","","","","","","","","","","","","","","","","","","","",""
"null","","html-keyboard-response","65","520804","0.0-64.0","A1Q9GPUCKQSEN9","<p style=""font-size: 48px;"">+</p>","","","","","null","allTrialResponses","1000","1","3","img_art/1.jpg","34","I like the fall colors and the way it reminds me of a lake in the woods","Sarah,Olivia,Monica,Brittany,Andrea,Marissa","it's boring despite all the colors,-2,180,20","feels like there is meaning,9,40,20","I like the yellow and purple but the large red spot reminds me of blood and isn't great,6,360,20","It reminds me of a sunset I once saw.,16,40,20","It just doesn't speak to me.,0,240,20","It is beautiful, I really enjoy the colors,32,160,20","Brittany","It reminds me of a sunset I once saw.,16,40,20","Marissa","It is beautiful, I really enjoy the colors,32,160,20","Monica","I like the yellow and purple but the large red spot reminds me of blood and isn't great,6,360,20","2"
"11857","","survey-text","66","532682","0.0-65.0-0.0","A1Q9GPUCKQSEN9","","","","{""Q0"":""This is brittle and pixelated""}","","","","","","","","","","","","","","","","","","","","","","",""
"3571","","image-slider-response","67","536258","0.0-66.0","A1Q9GPUCKQSEN9","","","","","-31","","","","","","","","","","","","","","","","","","","","","",""
"3650","","image-button-response","68","541263","0.0-67.0","A1Q9GPUCKQSEN9","img_art/7.jpg","1","","","","","","","","","","","","","","","","","","","","","","","","",""
"633","","image-button-response","69","541906","0.0-68.0","A1Q9GPUCKQSEN9","img_art/7.jpg","0","","","","","","","","","","","","","","","","","","","","","","","","",""
"843","","image-button-response","70","542754","0.0-69.0-0.0","A1Q9GPUCKQSEN9","img_art/7.jpg","1","","","","","","","","","","","","","","","","","","","","","","","","",""
"658","","image-button-response","71","543418","0.0-70.0-0.0","A1Q9GPUCKQSEN9","img_art/7.jpg","1","","","","","","","","","","","","","","","","","","","","","","","","",""
"932","","image-button-response","72","548146","0.0-70.1-0.1","A1Q9GPUCKQSEN9","img_art/7.jpg","2","","","","","","","","","","","","","","","","","","","","","","","","",""
"null","","html-keyboard-response","73","549650","0.0-71.0","A1Q9GPUCKQSEN9","<p style=""font-size: 48px;"">+</p>","","","","","null","allTrialResponses","1500","1","4","img_art/7.jpg","-31","This is brittle and pixelated","Kayla,Brianna,Monica,Brittany,Kaylee,Marissa","Dinosaur bones. Death.,-14,180,20","Looks plain and dull, sorry.,-31,20,20","It looks like bloody scabs on skin, I don't like it,-42,360,20","It looks like a wall, not really something I'd enjoy looking at.,-12,40,20","some rocks on a mars?,7,200,20","I feel confused, am I looking at a painting or a close up picture of some sort of fly stone?,-19,160,20","Kayla","Dinosaur bones. Death.,-14,180,20","Brianna","Looks plain and dull, sorry.,-31,20,20","Monica","It looks like bloody scabs on skin, I don't like it,-42,360,20","4"
"20650","","survey-text","74","570322","0.0-72.0-0.0","A1Q9GPUCKQSEN9","","","","{""Q0"":""I like this. It's indistinct but lures you eye""}","","","","","","","","","","","","","","","","","","","","","","",""
"3162.7999999988824","","image-slider-response","75","573490","0.0-73.0","A1Q9GPUCKQSEN9","","","","","24","","","","","","","","","","","","","","","","","","","","","",""
"4314","","image-button-response","76","578496","0.0-74.0","A1Q9GPUCKQSEN9","img_art/18.jpg","3","","","","","","","","","","","","","","","","","","","","","","","","",""
"3006","","image-button-response","77","581506","0.0-75.0","A1Q9GPUCKQSEN9","img_art/18.jpg","1","","","","","","","","","","","","","","","","","","","","","","","","",""
"1250","","image-button-response","78","582763","0.0-76.0-0.0","A1Q9GPUCKQSEN9","img_art/18.jpg","3","","","","","","","","","","","","","","","","","","","","","","","","",""
"743","","image-button-response","79","583514","0.0-77.0-0.0","A1Q9GPUCKQSEN9","img_art/18.jpg","4","","","","","","","","","","","","","","","","","","","","","","","","",""
"null","","html-keyboard-response","80","584017","0.0-78.0","A1Q9GPUCKQSEN9","<p style=""font-size: 48px;"">+</p>","","","","","null","allTrialResponses","500","1","5","img_art/18.jpg","24","I like this. It's indistinct but lures you eye","Kayla,Brianna,Monica,Nicole,Emily,Amber","It's like a ship, but a freaky ship.,-11,180,20","Very eerie and it's spooky,11,20,20","It doesn't look like much, the colors are dark and it doesn't really make me feel anything.,-2,360,20","There's danger in this painting and it's awesome,40,20,20","Not my style but I can see some serious skill went int it.,21,40,20","ugly and lots of movement,-6,200,20","Brianna","Very eerie and it's spooky,11,20,20","Nicole","There's danger in this painting and it's awesome,40,20,20","Emily","Not my style but I can see some serious skill went int it.,21,40,20","4"
"5964","","survey-text","81","590009","0.0-79.0-0.0","A1Q9GPUCKQSEN9","","","","{""Q0"":""sky""}","","","","","","","","","","","","","","","","","","","","","","",""
"17076","","survey-text","82","607089","0.0-80.0-0.0","A1Q9GPUCKQSEN9","","","","{""Q0"":""This reminds me of a cityscape or go kart track, it has direction""}","","","","","","","","","","","","","","","","","","","","","","",""
"2402.300000000745","","image-slider-response","83","609497","0.0-81.0","A1Q9GPUCKQSEN9","","","","","43","","","","","","","","","","","","","","","","","","","","","",""
"4652","","image-button-response","84","614503","0.0-82.0","A1Q9GPUCKQSEN9","img_art/11.jpg","1","","","","","","","","","","","","","","","","","","","","","","","","",""
"1132","","image-button-response","85","615642","0.0-83.0","A1Q9GPUCKQSEN9","img_art/11.jpg","4","","","","","","","","","","","","","","","","","","","","","","","","",""
"941","","image-button-response","86","616590","0.0-84.0-0.0","A1Q9GPUCKQSEN9","img_art/11.jpg","3","","","","","","","","","","","","","","","","","","","","","","","","",""
"791","","image-button-response","87","617386","0.0-85.0-0.0","A1Q9GPUCKQSEN9","img_art/11.jpg","5","","","","","","","","","","","","","","","","","","","","","","","","",""
"null","","html-keyboard-response","88","618391","0.0-86.0","A1Q9GPUCKQSEN9","<p style=""font-size: 48px;"">+</p>","","","","","null","allTrialResponses","1000","1","6","img_art/11.jpg","43","This reminds me of a cityscape or go kart track, it has direction","Madison,Brianna,Mariah,Nicole,Emily,Jessica","Rainy day at an urban sea port. Portugal?,30,60,20","I like dark colors.,31,20,20","The colors are lovely. February getting ready to yield to March.,41,140,20","Those vertical strokes are to die for and I love these colors !!!,50,20,20","It's kind of cool and I see it looks clean.,22,40,20","This looks cool, and definitely comes to life in a way,36,400,20","Emily","It's kind of cool and I see it looks clean.,22,40,20","Nicole","Those vertical strokes are to die for and I love these colors !!!,50,20,20","Jessica","This looks cool, and definitely comes to life in a way,36,400,20","4"
"20307","","survey-text","89","638720","0.0-87.0-0.0","A1Q9GPUCKQSEN9","","","","{""Q0"":""This is cracked and skewed, the coloring works well""}","","","","","","","","","","","","","","","","","","","","","","",""
"1987.7999999988824","","image-slider-response","90","640713","0.0-88.0","A1Q9GPUCKQSEN9","","","","","27","","","","","","","","","","","","","","","","","","","","","",""
"4711","","image-button-response","91","645720","0.0-89.0","A1Q9GPUCKQSEN9","img_art/21.jpg","5","","","","","","","","","","","","","","","","","","","","","","","","",""
"1307","","image-button-response","92","647033","0.0-90.0","A1Q9GPUCKQSEN9","img_art/21.jpg","2","","","","","","","","","","","","","","","","","","","","","","","","",""
"1091","","image-button-response","93","648130","0.0-91.0-0.0","A1Q9GPUCKQSEN9","img_art/21.jpg","3","","","","","","","","","","","","","","","","","","","","","","","","",""
"932","","image-button-response","94","649070","0.0-92.0-0.0","A1Q9GPUCKQSEN9","img_art/21.jpg","5","","","","","","","","","","","","","","","","","","","","","","","","",""
"null","","html-keyboard-response","95","650074","0.0-93.0","A1Q9GPUCKQSEN9","<p style=""font-size: 48px;"">+</p>","","","","","null","allTrialResponses","1000","1","7","img_art/21.jpg","27","This is cracked and skewed, the coloring works well","Kylie,Erika,Claire,Nicole,Emily,Jessica","Makes me think of a battleship targeting a beautiful mountainside,0,300,20","Indistinct, but beautiful hues,10,100,20","i enjoy the clash of colors, reminds me of a storm at sea,32,260,20","Makes me think of a natural disaster but I love how it looks. Makes you think,30,20,20","What's the point?,-30,40,20","I like how the colors blend together like a beautiful sunset.,25,400,20","Claire","i enjoy the clash of colors, reminds me of a storm at sea,32,260,20","Nicole","Makes me think of a natural disaster but I love how it looks. Makes you think,30,20,20","Jessica","I like how the colors blend together like a beautiful sunset.,25,400,20","4"
"17931","","survey-text","96","668027","0.0-94.0-0.0","A1Q9GPUCKQSEN9","","","","{""Q0"":""Pastel and expressionistic. I like it""}","","","","","","","","","","","","","","","","","","","","","","",""
"3408.7000000011176","","image-slider-response","97","671441","0.0-95.0","A1Q9GPUCKQSEN9","","","","","25","","","","","","","","","","","","","","","","","","","","","",""
"2089","","image-button-response","98","676448","0.0-96.0","A1Q9GPUCKQSEN9","img_art/17.jpg","1","","","","","","","","","","","","","","","","","","","","","","","","",""
"869","","image-button-response","99","677326","0.0-97.0","A1Q9GPUCKQSEN9","img_art/17.jpg","1","","","","","","","","","","","","","","","","","","","","","","","","",""
"1637","","image-button-response","100","678969","0.0-98.0-0.0","A1Q9GPUCKQSEN9","img_art/17.jpg","0","","","","","","","","","","","","","","","","","","","","","","","","",""
"2638","","image-button-response","101","681614","0.0-99.0-0.0","A1Q9GPUCKQSEN9","img_art/17.jpg","3","","","","","","","","","","","","","","","","","","","","","","","","",""
"null","","html-keyboard-response","102","683118","0.0-100.0","A1Q9GPUCKQSEN9","<p style=""font-size: 48px;"">+</p>","","","","","null","allTrialResponses","1500","1","8","img_art/17.jpg","25","Pastel and expressionistic. I like it","Sierra,Brooke,Claire,Nicole,Jennifer,Jessica","the colors, the arch and the wall,15,260,20","doorways and trees are pleasant,30,60,20","its whimsical and light,50,260,20","Feels nostalgic somehow,31,20,20","Very elegant, this design reminds me of trees,31,380,20","The way they painted the trees is so cool.,27,400,20","Brooke","doorways and trees are pleasant,30,60,20","Sierra","the colors, the arch and the wall,15,260,20","Nicole","Feels nostalgic somehow,31,20,20","4"
"9333","","survey-text","103","692472","0.0-101.0-0.0","A1Q9GPUCKQSEN9","","","","{""Q0"":""Eerie and foreboding""}","","","","","","","","","","","","","","","","","","","","","","",""
"3436.2000000011176","","image-slider-response","104","695912","0.0-102.0","A1Q9GPUCKQSEN9","","","","","-11","","","","","","","","","","","","","","","","","","","","","",""
"2582","","image-button-response","105","700920","0.0-103.0","A1Q9GPUCKQSEN9","img_art/25.jpg","1","","","","","","","","","","","","","","","","","","","","","","","","",""
"760","","image-button-response","106","701690","0.0-104.0","A1Q9GPUCKQSEN9","img_art/25.jpg","1","","","","","","","","","","","","","","","","","","","","","","","","",""
"844","","image-button-response","107","702541","0.0-105.0-0.0","A1Q9GPUCKQSEN9","img_art/25.jpg","0","","","","","","","","","","","","","","","","","","","","","","","","",""
"1354","","image-button-response","108","703902","0.0-106.0-0.0","A1Q9GPUCKQSEN9","img_art/25.jpg","3","","","","","","","","","","","","","","","","","","","","","","","","",""
"null","","html-keyboard-response","109","705406","0.0-107.0","A1Q9GPUCKQSEN9","<p style=""font-size: 48px;"">+</p>","","","","","null","allTrialResponses","1500","1","9","img_art/25.jpg","-11","Eerie and foreboding","Sierra,Brooke,Jamie,Nicole,Cassidy,Megan","the green is serene. the figure is scare crow like,7,260,20","Like the color, but what is that thing.,-10,60,20","Cool color scheme and appears to be a statue of some type of revered god,40,320,20","This painting is cool but it gives off an evil vibe,-10,20,20","Love the colors, and how it's simple yet complex,25,140,20","Beautiful color with an interesting otherworldly figure,29,200,20","Brooke","Like the color, but what is that thing.,-10,60,20","Sierra","the green is serene. the figure is scare crow like,7,260,20","Nicole","This painting is cool but it gives off an evil vibe,-10,20,20","4"
"12585","","survey-text","110","718012","0.0-108.0-0.0","A1Q9GPUCKQSEN9","","","","{""Q0"":""Square. Reminds me of Jenga""}","","","","","","","","","","","","","","","","","","","","","","",""
"2155.4000000003725","","image-slider-response","111","720172","0.0-109.0","A1Q9GPUCKQSEN9","","","","","-14","","","","","","","","","","","","","","","","","","","","","",""
"4924","","image-button-response","112","725179","0.0-110.0","A1Q9GPUCKQSEN9","img_art/8.jpg","4","","","","","","","","","","","","","","","","","","","","","","","","",""
"3209","","image-button-response","113","728397","0.0-111.0","A1Q9GPUCKQSEN9","img_art/8.jpg","4","","","","","","","","","","","","","","","","","","","","","","","","",""
"1370","","image-button-response","114","729773","0.0-112.0-0.0","A1Q9GPUCKQSEN9","img_art/8.jpg","1","","","","","","","","","","","","","","","","","","","","","","","","",""
"1289","","image-button-response","115","731068","0.0-113.0-0.0","A1Q9GPUCKQSEN9","img_art/8.jpg","0","","","","","","","","","","","","","","","","","","","","","","","","",""
"null","","html-keyboard-response","116","731574","0.0-114.0","A1Q9GPUCKQSEN9","<p style=""font-size: 48px;"">+</p>","","","","","null","allTrialResponses","500","1","10","img_art/8.jpg","-14","Square. Reminds me of Jenga","Sierra,Brooke,Cheyenne,Nicole,Michelle,Abigail","i love the colors, the church and the face,42,260,20","what's going on here. looks like scary town.,-25,60,20","Has nice depth to it.,12,200,20","It's very grand and ominous but I like it,25,20,20","I appreciate the complexity of this piece but it's too cubist for me,3,280,20","I did not like the face,-10,20,20","Michelle","I appreciate the complexity of this piece but it's too cubist for me,3,280,20","Brooke","what's going on here. looks like scary town.,-25,60,20","Sierra","i love the colors, the church and the face,42,260,20","4"
"3257","","survey-text","117","734860","0.0-115.0-0.0","A1Q9GPUCKQSEN9","","","","{""Q0"":""our""}","","","","","","","","","","","","","","","","","","","","","","",""
"24955","","survey-text","118","759820","0.0-116.0-0.0","A1Q9GPUCKQSEN9","","","","{""Q0"":""Creepy, desaturated, conjures up memories of things lost""}","","","","","","","","","","","","","","","","","","","","","","",""
"15479.299999998882","","image-slider-response","119","775303","0.0-117.0","A1Q9GPUCKQSEN9","","","","","-22","","","","","","","","","","","","","","","","","","","","","",""
"1359","","image-button-response","120","780309","0.0-118.0","A1Q9GPUCKQSEN9","img_art/16.jpg","2","","","","","","","","","","","","","","","","","","","","","","","","",""
"562","","image-button-response","121","780876","0.0-119.0","A1Q9GPUCKQSEN9","img_art/16.jpg","2","","","","","","","","","","","","","","","","","","","","","","","","",""
"1587","","image-button-response","122","782468","0.0-120.0-0.0","A1Q9GPUCKQSEN9","img_art/16.jpg","1","","","","","","","","","","","","","","","","","","","","","","","","",""
"826","","image-button-response","123","783300","0.0-121.0-0.0","A1Q9GPUCKQSEN9","img_art/16.jpg","0","","","","","","","","","","","","","","","","","","","","","","","","",""
"null","","html-keyboard-response","124","783804","0.0-122.0","A1Q9GPUCKQSEN9","<p style=""font-size: 48px;"">+</p>","","","","","null","allTrialResponses","500","1","11","img_art/16.jpg","-22","Creepy, desaturated, conjures up memories of things lost","Sierra,Brooke,Molly,Samantha,Michelle,Anna","it looks psychotic,-31,260,20","Don't like teddy bears in art. I could draw that house.,-20,60,20","It's frightening.,30,340,20","Creepy teddybear,-50,140,20","I'm a fan of collage and of reminiscing about childhood so this was nice,10,280,20","It's edgy but cool,10,300,20","Molly","It's frightening.,30,340,20","Brooke","Don't like teddy bears in art. I could draw that house.,-20,60,20","Sierra","it looks psychotic,-31,260,20","4"
"18616","","survey-text","125","802435","0.0-123.0-0.0","A1Q9GPUCKQSEN9","","","","{""Q0"":""A square and rigid mosaic""}","","","","","","","","","","","","","","","","","","","","","","",""
"2836","","image-slider-response","126","805275","0.0-124.0","A1Q9GPUCKQSEN9","","","","","-36","","","","","","","","","","","","","","","","","","","","","",""
"3035","","image-button-response","127","810283","0.0-125.0","A1Q9GPUCKQSEN9","img_art/12.jpg","1","","","","","","","","","","","","","","","","","","","","","","","","",""
"2161","","image-button-response","128","812452","0.0-126.0","A1Q9GPUCKQSEN9","img_art/12.jpg","0","","","","","","","","","","","","","","","","","","","","","","","","",""
"1051","","image-button-response","129","813508","0.0-127.0-0.0","A1Q9GPUCKQSEN9","img_art/12.jpg","1","","","","","","","","","","","","","","","","","","","","","","","","",""
"1378","","image-button-response","130","814892","0.0-128.0-0.0","A1Q9GPUCKQSEN9","img_art/12.jpg","2","","","","","","","","","","","","","","","","","","","","","","","","",""
"null","","html-keyboard-response","131","815396","0.0-129.0","A1Q9GPUCKQSEN9","<p style=""font-size: 48px;"">+</p>","","","","","null","allTrialResponses","500","1","12","img_art/12.jpg","-36","A square and rigid mosaic","Sierra,Brooke,Molly,Stephanie,Katelyn,Crystal","i dont see the point.,-19,260,20","Dislike the style, the sharp rectangular pattern very jarring.,-20,60,20","Seems to be puzzles.,25,340,20","I like the pattern to it.,31,300,20","Just confuses me overall,-11,100,20","I like the sectioned nature of the squares and curves. Not my favorite but still a good one.,27,300,20","Sierra","i dont see the point.,-19,260,20","Brooke","Dislike the style, the sharp rectangular pattern very jarring.,-20,60,20","Molly","Seems to be puzzles.,25,340,20","4"
"22360","","survey-text","132","837779","0.0-130.0-0.0","A1Q9GPUCKQSEN9","","","","{""Q0"":""It reminds me of something other-worldly""}","","","","","","","","","","","","","","","","","","","","","","",""
"3091","","image-slider-response","133","840875","0.0-131.0","A1Q9GPUCKQSEN9","","","","","10","","","","","","","","","","","","","","","","","","","","","",""
"null","","image-button-response","134","845881","0.0-132.0","A1Q9GPUCKQSEN9","img_art/30.jpg","null","","","","","","","","","","","","","","","","","","","","","","","","",""
"508","","image-button-response","135","846396","0.0-133.0","A1Q9GPUCKQSEN9","img_art/30.jpg","3","","","","","","","","","","","","","","","","","","","","","","","","",""
"3635","","image-button-response","136","850035","0.0-134.0-0.0","A1Q9GPUCKQSEN9","img_art/30.jpg","0","","","","","","","","","","","","","","","","","","","","","","","","",""
"1750","","image-button-response","137","851792","0.0-135.0-0.0","A1Q9GPUCKQSEN9","img_art/30.jpg","4","","","","","","","","","","","","","","","","","","","","","","","","",""
"null","","html-keyboard-response","138","853296","0.0-136.0","A1Q9GPUCKQSEN9","<p style=""font-size: 48px;"">+</p>","","","","","null","allTrialResponses","1500","1","13","img_art/30.jpg","10","It reminds me of something other-worldly","Sierra,Brooke,Molly,Grace,Alyssa,Alexandra","i dont like how the colors are mixed,-6,260,20","Like the color and style,31,60,20","I like the way the artist has painted his work.,40,340,20","A little too dull. Would've liked brighter colors. Also looks washed out.,1,180,20","ugly nasty colors,-10,160,20","I really love the pastel colors and the 3D design in this,43,60,20","Grace","A little too dull. Would've liked brighter colors. Also looks washed out.,1,180,20","Sierra","i dont like how the colors are mixed,-6,260,20","Alyssa","ugly nasty colors,-10,160,20","4"
"20443","","survey-text","139","873763","0.0-137.0-0.0","A1Q9GPUCKQSEN9","","","","{""Q0"":""Serenity steeped in anxiety""}","","","","","","","","","","","","","","","","","","","","","","",""
"2580.5999999996275","","image-slider-response","140","876351","0.0-138.0","A1Q9GPUCKQSEN9","","","","","-12","","","","","","","","","","","","","","","","","","","","","",""
"null","","image-button-response","141","881357","0.0-139.0","A1Q9GPUCKQSEN9","img_art/20.jpg","null","","","","","","","","","","","","","","","","","","","","","","","","",""
"808","","image-button-response","142","882171","0.0-140.0","A1Q9GPUCKQSEN9","img_art/20.jpg","1","","","","","","","","","","","","","","","","","","","","","","","","",""
"1542","","image-button-response","143","883719","0.0-141.0-0.0","A1Q9GPUCKQSEN9","img_art/20.jpg","2","","","","","","","","","","","","","","","","","","","","","","","","",""
"850","","image-button-response","144","884578","0.0-142.0-0.0","A1Q9GPUCKQSEN9","img_art/20.jpg","5","","","","","","","","","","","","","","","","","","","","","","","","",""
"null","","html-keyboard-response","145","885585","0.0-143.0","A1Q9GPUCKQSEN9","<p style=""font-size: 48px;"">+</p>","","","","","null","allTrialResponses","1000","1","14","img_art/20.jpg","-12","Serenity steeped in anxiety","Sierra,Emma,Gabriela,Grace,Alyssa,Lauren","i like the rounded edges,18,260,20","I like the distortion of the objects, good colors,20,60,20","it is a bit disturbing, like a monster or ghost floating away from a bleak building,-8,140,20","Reminds me of Georgia O'Keefe.,11,180,20","Its interesting.It almost seems like a painting of a landscape,14,160,20","I like how the image is depicting a scene.,10,340,20","Emma","I like the distortion of the objects, good colors,20,60,20","Gabriela","it is a bit disturbing, like a monster or ghost floating away from a bleak building,-8,140,20","Lauren","I like how the image is depicting a scene.,10,340,20","4"
"17300","","survey-text","146","902910","0.0-144.0-0.0","A1Q9GPUCKQSEN9","","","","{""Q0"":""This reminds me of an abstract take on a violin body and strings""}","","","","","","","","","","","","","","","","","","","","","","",""
"2172.10000000149","","image-slider-response","147","905086","0.0-145.0","A1Q9GPUCKQSEN9","","","","","6","","","","","","","","","","","","","","","","","","","","","",""
"null","","image-button-response","148","910093","0.0-146.0","A1Q9GPUCKQSEN9","img_art/10.jpg","null","","","","","","","","","","","","","","","","","","","","","","","","",""
"2042","","image-button-response","149","912143","0.0-147.0","A1Q9GPUCKQSEN9","img_art/10.jpg","3","","","","","","","","","","","","","","","","","","","","","","","","",""
"1626","","image-button-response","150","913776","0.0-148.0-0.0","A1Q9GPUCKQSEN9","img_art/10.jpg","4","","","","","","","","","","","","","","","","","","","","","","","","",""
"1273","","image-button-response","151","915056","0.0-149.0-0.0","A1Q9GPUCKQSEN9","img_art/10.jpg","5","","","","","","","","","","","","","","","","","","","","","","","","",""
"null","","html-keyboard-response","152","916560","0.0-150.0","A1Q9GPUCKQSEN9","<p style=""font-size: 48px;"">+</p>","","","","","null","allTrialResponses","1500","1","15","img_art/10.jpg","6","This reminds me of an abstract take on a violin body and strings","Autumn,Emma,Gabriela,Laura,Leah,Lauren","It just looks like a dirty stain.,-38,340,20","Feels musical .....,40,60,20","It looks like a sea monster overtaking a ship,21,140,20","I feel a state of readiness without anxiety.,24,320,20","Dark with no object, looks like experimentation, slightly like a storm on the ocean,-21,360,20","I can't really tell what this is suppose to represent, but overall I don't like the design.,-20,340,20","Laura","I feel a state of readiness without anxiety.,24,320,20","Leah","Dark with no object, looks like experimentation, slightly like a storm on the ocean,-21,360,20","Lauren","I can't really tell what this is suppose to represent, but overall I don't like the design.,-20,340,20","4"
"4586","","survey-text","153","921174","0.0-151.0-0.0","A1Q9GPUCKQSEN9","","","","{""Q0"":""course""}","","","","","","","","","","","","","","","","","","","","","","",""
"15522","","survey-text","154","936701","0.0-152.0-0.0","A1Q9GPUCKQSEN9","","","","{""Q0"":""An incomplete still life""}","","","","","","","","","","","","","","","","","","","","","","",""
"3564.5999999996275","","image-slider-response","155","940270","0.0-153.0","A1Q9GPUCKQSEN9","","","","","-15","","","","","","","","","","","","","","","","","","","","","",""
"3067","","image-button-response","156","945275","0.0-154.0","A1Q9GPUCKQSEN9","img_art/14.jpg","0","","","","","","","","","","","","","","","","","","","","","","","","",""
"1455","","image-button-response","157","946735","0.0-155.0","A1Q9GPUCKQSEN9","img_art/14.jpg","0","","","","","","","","","","","","","","","","","","","","","","","","",""
"1433","","image-button-response","158","948175","0.0-156.0-0.0","A1Q9GPUCKQSEN9","img_art/14.jpg","1","","","","","","","","","","","","","","","","","","","","","","","","",""
"2425","","image-button-response","159","950608","0.0-157.0-0.0","A1Q9GPUCKQSEN9","img_art/14.jpg","3","","","","","","","","","","","","","","","","","","","","","","","","",""
"null","","html-keyboard-response","160","951115","0.0-158.0","A1Q9GPUCKQSEN9","<p style=""font-size: 48px;"">+</p>","","","","","null","allTrialResponses","500","1","16","img_art/14.jpg","-15","An incomplete still life","Alexis,Leslie,Kaitlin,Laura,Leah,Lauren","Don't like the colors on this. Too simple,-20,100,20","This elicits no reaction in me.,0,380,20","this would make a very beautiful art project,22,60,20","feels incomplete, poorly planned/executed,-34,320,20","I like the simplicity along with the colors,27,360,20","I like how balanced the piece is with its symmetrical design.,20,340,20","Alexis","Don't like the colors on this. Too simple,-20,100,20","Leslie","This elicits no reaction in me.,0,380,20","Laura","feels incomplete, poorly planned/executed,-34,320,20","4"
"7900","","survey-text","161","959038","0.0-159.0-0.0","A1Q9GPUCKQSEN9","","","","{""Q0"":""A crow on a dune""}","","","","","","","","","","","","","","","","","","","","","","",""
"3409.800000000745","","image-slider-response","162","962454","0.0-160.0","A1Q9GPUCKQSEN9","","","","","19","","","","","","","","","","","","","","","","","","","","","",""
"null","","image-button-response","163","967462","0.0-161.0","A1Q9GPUCKQSEN9","img_art/6.jpg","null","","","","","","","","","","","","","","","","","","","","","","","","",""
"2116","","image-button-response","164","969584","0.0-162.0","A1Q9GPUCKQSEN9","img_art/6.jpg","3","","","","","","","","","","","","","","","","","","","","","","","","",""
"766","","image-button-response","165","970359","0.0-163.0-0.0","A1Q9GPUCKQSEN9","img_art/6.jpg","4","","","","","","","","","","","","","","","","","","","","","","","","",""
"1929","","image-button-response","166","972296","0.0-164.0-0.0","A1Q9GPUCKQSEN9","img_art/6.jpg","1","","","","","","","","","","","","","","","","","","","","","","","","",""
"null","","html-keyboard-response","167","973801","0.0-165.0","A1Q9GPUCKQSEN9","<p style=""font-size: 48px;"">+</p>","","","","","null","allTrialResponses","1500","1","17","img_art/6.jpg","19","A crow on a dune","Alexis,Leslie,Angela,Laura,Catherine,Briana","The feeling of isolation with so little objects. Great,20,100,20","The limited colors make me feel lonely.,36,380,20","I like the orange color, and I don't know why but I like this piece.,22,260,20","graceful and light,35,320,20","Looking, searching at the same time being content.,30,160,20","Close up peach? Hate it,-16,400,20","Laura","graceful and light,35,320,20","Catherine","Looking, searching at the same time being content.,30,160,20","Leslie","The limited colors make me feel lonely.,36,380,20","4"
"19624","","survey-text","168","993437","0.0-166.0-0.0","A1Q9GPUCKQSEN9","","","","{""Q0"":""A superimposed sort of picture within a picture""}","","","","","","","","","","","","","","","","","","","","","","",""
"2911","","image-slider-response","169","996354","0.0-167.0","A1Q9GPUCKQSEN9","","","","","-19","","","","","","","","","","","","","","","","","","","","","",""
"null","","image-button-response","170","1001361","0.0-168.0","A1Q9GPUCKQSEN9","img_art/19.jpg","null","","","","","","","","","","","","","","","","","","","","","","","","",""
"1828","","image-button-response","171","1003197","0.0-169.0","A1Q9GPUCKQSEN9","img_art/19.jpg","3","","","","","","","","","","","","","","","","","","","","","","","","",""
"2848","","image-button-response","172","1006054","0.0-170.0-0.0","A1Q9GPUCKQSEN9","img_art/19.jpg","5","","","","","","","","","","","","","","","","","","","","","","","","",""
"1065","","image-button-response","173","1007125","0.0-171.0-0.0","A1Q9GPUCKQSEN9","img_art/19.jpg","2","","","","","","","","","","","","","","","","","","","","","","","","",""
"null","","html-keyboard-response","174","1008629","0.0-172.0","A1Q9GPUCKQSEN9","<p style=""font-size: 48px;"">+</p>","","","","","null","allTrialResponses","1500","1","18","img_art/19.jpg","-19","A superimposed sort of picture within a picture","Amanda,Leslie,Chelsea,Laura,Catherine,Diana","Its just a nice painting, nothing too special but nothing negative,25,180,20","It's a cute city scene, but nothing special.,10,380,20","It is too busy.,-34,180,20","confusion, scattered and diffuse,-4,320,20","Higher power looking down at its creation with a half smile and some hurt.,45,160,20","I wasn't sure if I liked it or hated it. It oddly reminds me of a clothing store.,11,380,20","Laura","confusion, scattered and diffuse,-4,320,20","Diana","I wasn't sure if I liked it or hated it. It oddly reminds me of a clothing store.,11,380,20","Chelsea","It is too busy.,-34,180,20","4"
"20281","","survey-text","175","1028933","0.0-173.0-0.0","A1Q9GPUCKQSEN9","","","","{""Q0"":""A circle inside squares. I don't know what I'm looking at""}","","","","","","","","","","","","","","","","","","","","","","",""
"4744.800000000745","","image-slider-response","176","1033684","0.0-174.0","A1Q9GPUCKQSEN9","","","","","-29","","","","","","","","","","","","","","","","","","","","","",""
"null","","image-button-response","177","1038695","0.0-175.0","A1Q9GPUCKQSEN9","img_art/22.jpg","null","","","","","","","","","","","","","","","","","","","","","","","","",""
"746","","image-button-response","178","1039449","0.0-176.0","A1Q9GPUCKQSEN9","img_art/22.jpg","0","","","","","","","","","","","","","","","","","","","","","","","","",""
"1503","","image-button-response","179","1040958","0.0-177.0-0.0","A1Q9GPUCKQSEN9","img_art/22.jpg","4","","","","","","","","","","","","","","","","","","","","","","","","",""
"1058","","image-button-response","180","1042025","0.0-178.0-0.0","A1Q9GPUCKQSEN9","img_art/22.jpg","3","","","","","","","","","","","","","","","","","","","","","","","","",""
"null","","html-keyboard-response","181","1042531","0.0-179.0","A1Q9GPUCKQSEN9","<p style=""font-size: 48px;"">+</p>","","","","","null","allTrialResponses","500","1","19","img_art/22.jpg","-29","A circle inside squares. I don't know what I'm looking at","Destiny,Shelby,Chelsea,Laura,Cassandra,Diana","so boring. Wow you made some circles some squares very nice,-40,360,20","This painting has a very nostalgic feel,20,240,20","The colors clash, and I don't know what is happening.,-23,180,20","muddy and rough,14,320,20","Don't like it...too much red,-17,120,20","I think the colors are beautiful they remind me of a sunset.,13,380,20","Destiny","so boring. Wow you made some circles some squares very nice,-40,360,20","Cassandra","Don't like it...too much red,-17,120,20","Laura","muddy and rough,14,320,20","4"
"15702","","survey-text","182","1058258","0.0-180.0-0.0","A1Q9GPUCKQSEN9","","","","{""Q0"":""This reminds me of an avant garde waterfall""}","","","","","","","","","","","","","","","","","","","","","","",""
"4271.5999999996275","","image-slider-response","183","1062538","0.0-181.0","A1Q9GPUCKQSEN9","","","","","31","","","","","","","","","","","","","","","","","","","","","",""
"null","","image-button-response","184","1067549","0.0-182.0","A1Q9GPUCKQSEN9","img_art/24.jpg","null","","","","","","","","","","","","","","","","","","","","","","","","",""
"2149","","image-button-response","185","1069705","0.0-183.0","A1Q9GPUCKQSEN9","img_art/24.jpg","1","","","","","","","","","","","","","","","","","","","","","","","","",""
"1684","","image-button-response","186","1071398","0.0-184.0-0.0","A1Q9GPUCKQSEN9","img_art/24.jpg","0","","","","","","","","","","","","","","","","","","","","","","","","",""
"2350","","image-button-response","187","1073754","0.0-185.0-0.0","A1Q9GPUCKQSEN9","img_art/24.jpg","4","","","","","","","","","","","","","","","","","","","","","","","","",""
"null","","html-keyboard-response","188","1074264","0.0-186.0","A1Q9GPUCKQSEN9","<p style=""font-size: 48px;"">+</p>","","","","","null","allTrialResponses","500","1","20","img_art/24.jpg","31","This reminds me of an avant garde waterfall","Destiny,Kristen,Kathryn,Laura,Cassandra,Christina","brick wall waterfall girl you think you got it all,50,360,20","calm, nature, safe, happy place,,50,280,20","This is clear and healthy. It makes me think of unspoiled nature.,20,140,20","chunky fresh color,27,320,20","I like it...looks like a waterfall.,11,120,20","I like how it looks like a waterfall in an exotic place,50,240,20","Kristen","calm, nature, safe, happy place,,50,280,20","Destiny","brick wall waterfall girl you think you got it all,50,360,20","Cassandra","I like it...looks like a waterfall.,11,120,20","4"
"4778","","survey-text","189","1079080","0.0-187.0-0.0","A1Q9GPUCKQSEN9","","","","{""Q0"":""we""}","","","","","","","","","","","","","","","","","","","","","","",""
"30244","","survey-text","190","1109328","0.0-188.0-0.0","A1Q9GPUCKQSEN9","","","","{""Q0"":""Sleeping inside (this reminds me of dreams or what goes on in our minds while we sleep)""}","","","","","","","","","","","","","","","","","","","","","","",""
"1971.9000000003725","","image-slider-response","191","1111304","0.0-189.0","A1Q9GPUCKQSEN9","","","","","28","","","","","","","","","","","","","","","","","","","","","",""
"4435","","image-button-response","192","1116309","0.0-190.0","A1Q9GPUCKQSEN9","img_art/9.jpg","1","","","","","","","","","","","","","","","","","","","","","","","","",""
"1791","","image-button-response","193","1118105","0.0-191.0","A1Q9GPUCKQSEN9","img_art/9.jpg","1","","","","","","","","","","","","","","","","","","","","","","","","",""
"1083","","image-button-response","194","1119193","0.0-192.0-0.0","A1Q9GPUCKQSEN9","img_art/9.jpg","3","","","","","","","","","","","","","","","","","","","","","","","","",""
"3018","","image-button-response","195","1122217","0.0-193.0-0.0","A1Q9GPUCKQSEN9","img_art/9.jpg","0","","","","","","","","","","","","","","","","","","","","","","","","",""
"null","","html-keyboard-response","196","1123721","0.0-194.0","A1Q9GPUCKQSEN9","<p style=""font-size: 48px;"">+</p>","","","","","null","allTrialResponses","1500","1","21","img_art/9.jpg","28","Sleeping inside (this reminds me of dreams or what goes on in our minds while we sleep)","Destiny,Kristen,Chloe,Jenna,Cassandra,Sophia","is that sleeping beauty,33,360,20","sleep, calm, safe,12,280,20","Cheesy. Looks unprofessional,-20,220,20","gorgeous colors, love the little details,42,360,20","Stuipid looking...dumb,-48,120,20","Yikes. I'm not sure what to make of this one.,-14,280,20","Kristen","sleep, calm, safe,12,280,20","Jenna","gorgeous colors, love the little details,42,360,20","Destiny","is that sleeping beauty,33,360,20","4"
"15177","","survey-text","197","1138927","0.0-195.0-0.0","A1Q9GPUCKQSEN9","","","","{""Q0"":""I don't like the color selection or composition""}","","","","","","","","","","","","","","","","","","","","","","",""
"3539.2999999988824","","image-slider-response","198","1142472","0.0-196.0","A1Q9GPUCKQSEN9","","","","","-47","","","","","","","","","","","","","","","","","","","","","",""
"null","","image-button-response","199","1147478","0.0-197.0","A1Q9GPUCKQSEN9","img_art/2.jpg","null","","","","","","","","","","","","","","","","","","","","","","","","",""
"7262","","image-button-response","200","1154745","0.0-198.0","A1Q9GPUCKQSEN9","img_art/2.jpg","3","","","","","","","","","","","","","","","","","","","","","","","","",""
"10809","","image-button-response","201","1165561","0.0-199.0-0.0","A1Q9GPUCKQSEN9","img_art/2.jpg","1","","","","","","","","","","","","","","","","","","","","","","","","",""
"2398","","image-button-response","202","1167970","0.0-200.0-0.0","A1Q9GPUCKQSEN9","img_art/2.jpg","2","","","","","","","","","","","","","","","","","","","","","","","","",""
"null","","html-keyboard-response","203","1168974","0.0-201.0","A1Q9GPUCKQSEN9","<p style=""font-size: 48px;"">+</p>","","","","","null","allTrialResponses","1000","1","22","img_art/2.jpg","-47","I don't like the color selection or composition","Destiny,Kristen,Shannon,Jenna,Dominique,Erica","omg she's so cute look at that little smile those eyelashes ugh love it,30,360,20","smilely face, soulful,11,280,20","I like this picture a little because the colors make it look a little vibrant.,10,220,20","the colors are a bit odd, and the squiggly line at the top is distracting,0,360,20","This reminds me of a peaceful day out alone shopping and spending some me time,41,400,20","positive, seems like someone really happy and colourful is looking at me,22,80,20","Jenna","the colors are a bit odd, and the squiggly line at the top is distracting,0,360,20","Kristen","smilely face, soulful,11,280,20","Shannon","I like this picture a little because the colors make it look a little vibrant.,10,220,20","4"
"23033","","survey-text","204","1192019","0.0-202.0-0.0","A1Q9GPUCKQSEN9","","","","{""Q0"":""This is how I feel after painting a room in my house--like throwing the brush at the wall""}","","","","","","","","","","","","","","","","","","","","","","",""
"2523.199999999255","","image-slider-response","205","1194547","0.0-203.0","A1Q9GPUCKQSEN9","","","","","-29","","","","","","","","","","","","","","","","","","","","","",""
"null","","image-button-response","206","1199556","0.0-204.0","A1Q9GPUCKQSEN9","img_art/29.jpg","null","","","","","","","","","","","","","","","","","","","","","","","","",""
"2191","","image-button-response","207","1201752","0.0-205.0","A1Q9GPUCKQSEN9","img_art/29.jpg","0","","","","","","","","","","","","","","","","","","","","","","","","",""
"1331","","image-button-response","208","1203088","0.0-206.0-0.0","A1Q9GPUCKQSEN9","img_art/29.jpg","1","","","","","","","","","","","","","","","","","","","","","","","","",""
"1563","","image-button-response","209","1204656","0.0-207.0-0.0","A1Q9GPUCKQSEN9","img_art/29.jpg","2","","","","","","","","","","","","","","","","","","","","","","","","",""
"null","","html-keyboard-response","210","1205160","0.0-208.0","A1Q9GPUCKQSEN9","<p style=""font-size: 48px;"">+</p>","","","","","null","allTrialResponses","500","1","23","img_art/29.jpg","-29","This is how I feel after painting a room in my house--like throwing the brush at the wall","Melissa,Kristen,Shannon,Jenna,Katherine,Caroline","abrasive and grotesque textures,-36,240,20","danger, crime scene,,10,280,20","I think this image looks ugly and needs more colors so it looks nicer.,-30,220,20","risks well taken. the brush is hilarious. feels like an artist's frustration, which is relatable.,50,360,20","I think the grey and red inspire negative feelings but it's not the worst thing.,13,120,20","Depressing and with that big red x on it just makes me not like it.,-33,100,20","Melissa","abrasive and grotesque textures,-36,240,20","Kristen","danger, crime scene,,10,280,20","Shannon","I think this image looks ugly and needs more colors so it looks nicer.,-30,220,20","4"
"11729","","survey-text","211","1216915","0.0-209.0-0.0","A1Q9GPUCKQSEN9","","","","{""Q0"":""Street view before Google maps""}","","","","","","","","","","","","","","","","","","","","","","",""
"3335.2999999988824","","image-slider-response","212","1220255","0.0-210.0","A1Q9GPUCKQSEN9","","","","","-20","","","","","","","","","","","","","","","","","","","","","",""
"null","","image-button-response","213","1225262","0.0-211.0","A1Q9GPUCKQSEN9","img_art/26.jpg","null","","","","","","","","","","","","","","","","","","","","","","","","",""
"2524","","image-button-response","214","1227793","0.0-212.0","A1Q9GPUCKQSEN9","img_art/26.jpg","3","","","","","","","","","","","","","","","","","","","","","","","","",""
"1202","","image-button-response","215","1229004","0.0-213.0-0.0","A1Q9GPUCKQSEN9","img_art/26.jpg","0","","","","","","","","","","","","","","","","","","","","","","","","",""
"890","","image-button-response","216","1229899","0.0-214.0-0.0","A1Q9GPUCKQSEN9","img_art/26.jpg","1","","","","","","","","","","","","","","","","","","","","","","","","",""
"null","","html-keyboard-response","217","1230903","0.0-215.0","A1Q9GPUCKQSEN9","<p style=""font-size: 48px;"">+</p>","","","","","null","allTrialResponses","1000","1","24","img_art/26.jpg","-20","Street view before Google maps","Melissa,Kristen,Shannon,Sydney,Jordan,Alexa","feels incomplete,-50,240,20","happy, park, childhood,9,280,20","I like that it looks like an actual picture and isn't just random colors.,25,220,20","I wish there was more detail, but I really like this simple piece.,35,320,20","This one is nicer, looks like a walk in a small, dreamy city,20,20,20","Looks messy and like it was painted by a small child,-48,40,20","Sydney","I wish there was more detail, but I really like this simple piece.,35,320,20","Melissa","feels incomplete,-50,240,20","Kristen","happy, park, childhood,9,280,20","4"
"16022","","survey-text","218","1246943","0.0-216.0-0.0","A1Q9GPUCKQSEN9","","","","{""Q0"":""A fountainhead pen? Or a pyramid?""}","","","","","","","","","","","","","","","","","","","","","","",""
"2971.0999999996275","","image-slider-response","219","1249918","0.0-217.0","A1Q9GPUCKQSEN9","","","","","14","","","","","","","","","","","","","","","","","","","","","",""
"4222","","image-button-response","220","1254925","0.0-218.0","A1Q9GPUCKQSEN9","img_art/5.jpg","3","","","","","","","","","","","","","","","","","","","","","","","","",""
"2445","","image-button-response","221","1257380","0.0-219.0","A1Q9GPUCKQSEN9","img_art/5.jpg","3","","","","","","","","","","","","","","","","","","","","","","","","",""
"669","","image-button-response","222","1258055","0.0-220.0-0.0","A1Q9GPUCKQSEN9","img_art/5.jpg","4","","","","","","","","","","","","","","","","","","","","","","","","",""
"2022","","image-button-response","223","1260084","0.0-221.0-0.0","A1Q9GPUCKQSEN9","img_art/5.jpg","0","","","","","","","","","","","","","","","","","","","","","","","","",""
"null","","html-keyboard-response","224","1260588","0.0-222.0","A1Q9GPUCKQSEN9","<p style=""font-size: 48px;"">+</p>","","","","","null","allTrialResponses","500","1","25","img_art/5.jpg","14","A fountainhead pen? Or a pyramid?","Melissa,Kristen,Kaitlyn,Sydney,Mikayla,Julia","strong appeal in contrast,27,240,20","sharp, painful yet playful,-5,280,20","Wish the background had been kept clean; distracts from main object,11,80,20","I'm reminded of a volcano with weird colors.,-5,320,20","I love the yellow! It really pops!,30,300,20","I like this one but wish it had more context around it,18,40,20","Sydney","I'm reminded of a volcano with weird colors.,-5,320,20","Mikayla","I love the yellow! It really pops!,30,300,20","Melissa","strong appeal in contrast,27,240,20","4"
"5605","","survey-text","225","1266235","0.0-223.0-0.0","A1Q9GPUCKQSEN9","","","","{""Q0"":""table""}","","","","","","","","","","","","","","","","","","","","","","",""
"18779","","survey-text","226","1285018","0.0-224.0-0.0","A1Q9GPUCKQSEN9","","","","{""Q0"":""This seems like rope or scissors, some extension of a human hand""}","","","","","","","","","","","","","","","","","","","","","","",""
"2627.10000000149","","image-slider-response","227","1287650","0.0-225.0","A1Q9GPUCKQSEN9","","","","","18","","","","","","","","","","","","","","","","","","","","","",""
"null","","image-button-response","228","1292656","0.0-226.0","A1Q9GPUCKQSEN9","img_art/4.jpg","null","","","","","","","","","","","","","","","","","","","","","","","","",""
"72840","","image-button-response","229","1365503","0.0-227.0","A1Q9GPUCKQSEN9","img_art/4.jpg","0","","","","","","","","","","","","","","","","","","","","","","","","",""
"1034","","image-button-response","230","1366544","0.0-228.0-0.0","A1Q9GPUCKQSEN9","img_art/4.jpg","3","","","","","","","","","","","","","","","","","","","","","","","","",""
"1781","","image-button-response","231","1368331","0.0-229.0-0.0","A1Q9GPUCKQSEN9","img_art/4.jpg","1","","","","","","","","","","","","","","","","","","","","","","","","",""
"null","","html-keyboard-response","232","1369336","0.0-230.0","A1Q9GPUCKQSEN9","<p style=""font-size: 48px;"">+</p>","","","","","null","allTrialResponses","1000","1","26","img_art/4.jpg","18","This seems like rope or scissors, some extension of a human hand","Melissa,Meghan,Cynthia,Sydney,Mikayla,Breanna","appealing warm palette,6,240,20","feels free flowing and relaxed,21,220,20","creepy as it looks like fingernails,-23,320,20","This piece catches my eye, but it's strange to me.,10,320,20","Not very interesting to look at.,-34,300,20","Looks like a hand, not very impressed,-22,380,20","Melissa","appealing warm palette,6,240,20","Sydney","This piece catches my eye, but it's strange to me.,10,320,20","Meghan","feels free flowing and relaxed,21,220,20","4"
"25682","","survey-text","233","1395045","0.0-231.0-0.0","A1Q9GPUCKQSEN9","","","","{""Q0"":""Splatter and entropy""}","","","","","","","","","","","","","","","","","","","","","","",""
"2766.300000000745","","image-slider-response","234","1397818","0.0-232.0","A1Q9GPUCKQSEN9","","","","","23","","","","","","","","","","","","","","","","","","","","","",""
"4513","","image-button-response","235","1402825","0.0-233.0","A1Q9GPUCKQSEN9","img_art/13.jpg","3","","","","","","","","","","","","","","","","","","","","","","","","",""
"157","","image-button-response","236","1402988","0.0-234.0","A1Q9GPUCKQSEN9","img_art/13.jpg","3","","","","","","","","","","","","","","","","","","","","","","","","",""
"565","","image-button-response","237","1403563","0.0-235.0-0.0","A1Q9GPUCKQSEN9","img_art/13.jpg","4","","","","","","","","","","","","","","","","","","","","","","","","",""
"666","","image-button-response","238","1404237","0.0-236.0-0.0","A1Q9GPUCKQSEN9","img_art/13.jpg","5","","","","","","","","","","","","","","","","","","","","","","","","",""
"null","","html-keyboard-response","239","1405744","0.0-237.0","A1Q9GPUCKQSEN9","<p style=""font-size: 48px;"">+</p>","","","","","null","allTrialResponses","1500","1","27","img_art/13.jpg","23","Splatter and entropy","Melissa,Meghan,Mary,Sydney,Madeline,Courtney","feels sterile/manufactured,1,240,20","I like the transition to other colors,24,220,20","I do not care for the colors in this art. it doesnt go well at all.,-15,180,20","I love the style of this piece, but the color choice could've been more eye catching or calming.,40,320,20","Really love the colors,11,40,20","Debree on top of a calm pond.,18,280,20","Sydney","I love the style of this piece, but the color choice could've been more eye catching or calming.,40,320,20","Madeline","Really love the colors,11,40,20","Courtney","Debree on top of a calm pond.,18,280,20","4"
"28250","","survey-text","240","1434025","0.0-238.0-0.0","A1Q9GPUCKQSEN9","","","","{""Q0"":""I like the color scheme but the green looks like magic markers on top of acrylic on canvas..doesn't mesh""}","","","","","","","","","","","","","","","","","","","","","","",""
"2575.5","","image-slider-response","241","1436605","0.0-239.0","A1Q9GPUCKQSEN9","","","","","-44","","","","","","","","","","","","","","","","","","","","","",""
"4719","","image-button-response","242","1441612","0.0-240.0","A1Q9GPUCKQSEN9","img_art/27.jpg","4","","","","","","","","","","","","","","","","","","","","","","","","",""
"753","","image-button-response","243","1442375","0.0-241.0","A1Q9GPUCKQSEN9","img_art/27.jpg","4","","","","","","","","","","","","","","","","","","","","","","","","",""
"1254","","image-button-response","244","1443639","0.0-242.0-0.0","A1Q9GPUCKQSEN9","img_art/27.jpg","5","","","","","","","","","","","","","","","","","","","","","","","","",""
"1961","","image-button-response","245","1445606","0.0-243.0-0.0","A1Q9GPUCKQSEN9","img_art/27.jpg","1","","","","","","","","","","","","","","","","","","","","","","","","",""
"null","","html-keyboard-response","246","1447110","0.0-244.0","A1Q9GPUCKQSEN9","<p style=""font-size: 48px;"">+</p>","","","","","null","allTrialResponses","1500","1","28","img_art/27.jpg","-44","I like the color scheme but the green looks like magic markers on top of acrylic on canvas..doesn't mesh","Mackenzie,Alicia,Makayla,Sydney,Madeline,Courtney","The color palette isn't my taste,-24,20,20","dont like it, don't hate it, meh.,2,120,20","Calming sky , relaxing,23,80,20","This piece reminds me of a summer day.,30,320,20","Looks like the green bits were added on later,-1,40,20","A fall mess going on here,2,280,20","Madeline","Looks like the green bits were added on later,-1,40,20","Courtney","A fall mess going on here,2,280,20","Alicia","dont like it, don't hate it, meh.,2,120,20","4"
"21678","","survey-text","247","1468829","0.0-245.0-0.0","A1Q9GPUCKQSEN9","","","","{""Q0"":""This reminds me of a chorus line of people with confetti as their backdrop""}","","","","","","","","","","","","","","","","","","","","","","",""
"2862.699999999255","","image-slider-response","248","1471702","0.0-246.0","A1Q9GPUCKQSEN9","","","","","26","","","","","","","","","","","","","","","","","","","","","",""
"3662","","image-button-response","249","1476709","0.0-247.0","A1Q9GPUCKQSEN9","img_art/23.jpg","3","","","","","","","","","","","","","","","","","","","","","","","","",""
"503","","image-button-response","250","1477222","0.0-248.0","A1Q9GPUCKQSEN9","img_art/23.jpg","3","","","","","","","","","","","","","","","","","","","","","","","","",""
"674","","image-button-response","251","1477902","0.0-249.0-0.0","A1Q9GPUCKQSEN9","img_art/23.jpg","4","","","","","","","","","","","","","","","","","","","","","","","","",""
"1616","","image-button-response","252","1479526","0.0-250.0-0.0","A1Q9GPUCKQSEN9","img_art/23.jpg","5","","","","","","","","","","","","","","","","","","","","","","","","",""
"null","","html-keyboard-response","253","1480031","0.0-251.0","A1Q9GPUCKQSEN9","<p style=""font-size: 48px;"">+</p>","","","","","null","allTrialResponses","500","1","29","img_art/23.jpg","26","This reminds me of a chorus line of people with confetti as their backdrop","Lindsey,Alicia,Hannah,Natalie,Madeline,Courtney","Too much contrasting colors together. I hate it.,-50,400,20","No reactions, childish.,-19,120,20","This one is interesting. Looks like people with maybe musical instruments?,11,240,20","so much detail .,31,400,20","background is great but the white is a bit weird,3,40,20","Looks like fish fossils,12,280,20","Natalie","so much detail .,31,400,20","Madeline","background is great but the white is a bit weird,3,40,20","Courtney","Looks like fish fossils,12,280,20","4"
"23622","","survey-text","254","1503685","0.0-252.0-0.0","A1Q9GPUCKQSEN9","","","","{""Q0"":""This seems incomplete. I don't know where my eyes should focus""}","","","","","","","","","","","","","","","","","","","","","","",""
"2699.0999999996275","","image-slider-response","255","1506389","0.0-253.0","A1Q9GPUCKQSEN9","","","","","-14","","","","","","","","","","","","","","","","","","","","","",""
"null","","image-button-response","256","1511396","0.0-254.0","A1Q9GPUCKQSEN9","img_art/28.jpg","null","","","","","","","","","","","","","","","","","","","","","","","","",""
"761","","image-button-response","257","1512166","0.0-255.0","A1Q9GPUCKQSEN9","img_art/28.jpg","4","","","","","","","","","","","","","","","","","","","","","","","","",""
"2329","","image-button-response","258","1514502","0.0-256.0-0.0","A1Q9GPUCKQSEN9","img_art/28.jpg","5","","","","","","","","","","","","","","","","","","","","","","","","",""
"1633","","image-button-response","259","1516142","0.0-257.0-0.0","A1Q9GPUCKQSEN9","img_art/28.jpg","2","","","","","","","","","","","","","","","","","","","","","","","","",""
"null","","html-keyboard-response","260","1517146","0.0-258.0","A1Q9GPUCKQSEN9","<p style=""font-size: 48px;"">+</p>","","","","","null","allTrialResponses","1000","1","30","img_art/28.jpg","-14","This seems incomplete. I don't know where my eyes should focus","Haley,Savannah,Heather,Natalie,Madeline,Courtney","I can't explain why, but I really love this one,50,220,20","White and dark balance is way off- Seems dull.,-33,200,20","not sure what i feel but it makes me feel uncomfortable,1,260,20","it looks alright,-1,400,20","It is a bit drab,-10,40,20","Looks like some guys in s band playing at a busy park.,18,280,20","Madeline","It is a bit drab,-10,40,20","Courtney","Looks like some guys in s band playing at a busy park.,18,280,20","Heather","not sure what i feel but it makes me feel uncomfortable,1,260,20","4"
"6260","","image-button-response_instructions","261","1523436","0.0-259.0","A1Q9GPUCKQSEN9","","0","instructions","","","","","","","","","","","","","","","","","","","","","","","",""
"1489","","image-button-response","262","1524941","0.0-260.0","A1Q9GPUCKQSEN9","","0","","","","","","","","","","","","","","","","","","","","","","","","",""
