"rt","url","trial_type","trial_index","time_elapsed","internal_node_id","participant_id","stimulus","button_pressed","Name","responses","response","key_press","variableName","fixationTime","condition","trial","photo","subjectRating","subjectResponse","agentsNames","agent_1_Response","agent_2_Response","agent_3_Response","agent_4_Response","agent_5_Response","agent_6_Response","kept_1_name","kept_1_response","kept_2_name","kept_2_response","kept_3_name","kept_3_response","errorCounter"
"15557","external_page_harvard.html","external-html","0","16005","0.0-0.0","A1QC1K71RGKZBI","","","","","","","","","","","","","","","","","","","","","","","","","","",""
"3060","","image-button-response","1","19069","0.0-1.0","A1QC1K71RGKZBI","","1","","","","","","","","","","","","","","","","","","","","","","","","",""
"3508","","image-button-response","2","22588","0.0-2.0-0.0","A1QC1K71RGKZBI","","1","phone","","","","","","","","","","","","","","","","","","","","","","","",""
"6592","","survey-text","3","29185","0.0-3.0-0.0","A1QC1K71RGKZBI","","","","{""Q0"":""A1QC1K71RGKZBI""}","","","","","","","","","","","","","","","","","","","","","","",""
"8346","","image-button-response_instructions","4","37535","0.0-4.0","A1QC1K71RGKZBI","","0","instructions","","","","","","","","","","","","","","","","","","","","","","","",""
"32149","","image-button-response_instructions","5","69686","0.0-5.0","A1QC1K71RGKZBI","img_art/ins/popularity/ins1.png","0","instructions","","","","","","","","","","","","","","","","","","","","","","","",""
"5500","","image-button-response_instructions","6","75188","0.0-6.0","A1QC1K71RGKZBI","img_art/ins/popularity/ins2.png","0","instructions","","","","","","","","","","","","","","","","","","","","","","","",""
"4724","","image-button-response_instructions","7","79915","0.0-7.0","A1QC1K71RGKZBI","img_art/ins/popularity/ins2Extreme.png","0","instructions","","","","","","","","","","","","","","","","","","","","","","","",""
"7201","","image-button-response_instructions","8","87120","0.0-8.0","A1QC1K71RGKZBI","img_art/ins/popularity/ins3KEEPpop.PNG","0","instructions","","","","","","","","","","","","","","","","","","","","","","","",""
"7694","","image-button-response_instructions","9","94817","0.0-9.0","A1QC1K71RGKZBI","img_art/ins/popularity/ins3ANamepop.PNG","0","instructions","","","","","","","","","","","","","","","","","","","","","","","",""
"12106","","image-button-response_instructions","10","106926","0.0-10.0","A1QC1K71RGKZBI","img_art/ins/popularity/ins3ARatingpop.png","0","instructions","","","","","","","","","","","","","","","","","","","","","","","",""
"5173","","image-button-response_instructions","11","112101","0.0-11.0","A1QC1K71RGKZBI","img_art/ins/popularity/ins3ATextpop.png","0","instructions","","","","","","","","","","","","","","","","","","","","","","","",""
"21989","","image-button-response_instructions","12","134092","0.0-12.0","A1QC1K71RGKZBI","img_art/ins/popularity/ins3ALikespop.png","0","instructions","","","","","","","","","","","","","","","","","","","","","","","",""
"62165","","image-button-response_instructions","13","196260","0.0-13.0","A1QC1K71RGKZBI","img_art/ins/popularity/ins3KEEPpop.PNG","0","instructions","","","","","","","","","","","","","","","","","","","","","","","",""
"22293","","image-button-response_instructions","14","218556","0.0-14.0","A1QC1K71RGKZBI","img_art/ins/popularity/ins3_5RED.png","0","instructions","","","","","","","","","","","","","","","","","","","","","","","",""
"10119","","image-button-response_instructions","15","228678","0.0-15.0","A1QC1K71RGKZBI","img_art/ins/popularity/ins3KEEPpop.PNG","0","instructions","","","","","","","","","","","","","","","","","","","","","","","",""
"11590","","image-button-response_instructions","16","240271","0.0-16.0","A1QC1K71RGKZBI","img_art/ins/popularity/ins4KEEPpop.PNG","0","instructions","","","","","","","","","","","","","","","","","","","","","","","",""
"7803","","image-button-response_instructions","17","248078","0.0-17.0","A1QC1K71RGKZBI","img_art/ins/popularity/ins5KEEPpop.PNG","0","instructions","","","","","","","","","","","","","","","","","","","","","","","",""
"2526","","image-button-response_instructions","18","250607","0.0-18.0","A1QC1K71RGKZBI","","0","instructions","","","","","","","","","","","","","","","","","","","","","","","",""
"29507","","survey-text","19","280167","0.0-19.0-0.0","A1QC1K71RGKZBI","","","","{""Q0"":""BUT""}","","","","","","","","","","","","","","","","","","","","","","",""
"7824","","survey-text","20","291820","0.0-19.1-0.1","A1QC1K71RGKZBI","","","","{""Q0"":""but""}","","","","","","","","","","","","","","","","","","","","","","",""
"18347","","survey-text","21","310172","0.0-20.0-0.0","A1QC1K71RGKZBI","","","","{""Q0"":""ocean scene""}","","","","","","","","","","","","","","","","","","","","","","",""
"14734","","image-slider-response","22","324911","0.0-21.0","A1QC1K71RGKZBI","","","","","15","","","","","","","","","","","","","","","","","","","","","",""
"null","","image-button-response","23","329930","0.0-22.0","A1QC1K71RGKZBI","img_art/ins/1.jpg","null","","","","","","","","","","","","","","","","","","","","","","","","",""
"6553","","image-button-response","24","336490","0.0-23.0","A1QC1K71RGKZBI","img_art/ins/1.jpg","3","","","","","","","","","","","","","","","","","","","","","","","","",""
"7018","","image-button-response","25","343513","0.0-24.0-0.0","A1QC1K71RGKZBI","img_art/ins/1.jpg","5","","","","","","","","","","","","","","","","","","","","","","","","",""
"11924","","image-button-response","26","355445","0.0-25.0-0.0","A1QC1K71RGKZBI","img_art/ins/1.jpg","0","","","","","","","","","","","","","","","","","","","","","","","","",""
"null","","html-keyboard-response","27","355952","0.0-26.0","A1QC1K71RGKZBI","<p style=""font-size: 48px;"">+</p>","","","","","null","allTrialResponses","500","1","-2","img_art/ins/1.jpg","15","ocean scene","Allison,Ashley,Beth,Dora,Erika,Jen","looks like a lot of things going on in the mist,20,20,20","I just don't get why these type of art would be popular,-32,40,20","This color reminds me of poo,-46,60,20","looks like what my niece in 3rd grade did this afternoon,-50,80,20","I like the sophisticated brushwork,40,100,20","It reminds me of a candy land dream I had,36,120,20","Dora","looks like what my niece in 3rd grade did this afternoon,-50,80,20","Jen","It reminds me of a candy land dream I had,36,120,20","Allison","looks like a lot of things going on in the mist,20,20,20","1"
"16056","","survey-text","28","372026","0.0-27.0-0.0","A1QC1K71RGKZBI","","","","{""Q0"":""rocks and hills""}","","","","","","","","","","","","","","","","","","","","","","",""
"4573.800000011921","","image-slider-response","29","376604","0.0-28.0","A1QC1K71RGKZBI","","","","","23","","","","","","","","","","","","","","","","","","","","","",""
"null","","image-button-response","30","381620","0.0-29.0","A1QC1K71RGKZBI","img_art/ins/2.jpg","null","","","","","","","","","","","","","","","","","","","","","","","","",""
"10034","","image-button-response","31","391657","0.0-30.0","A1QC1K71RGKZBI","img_art/ins/2.jpg","5","","","","","","","","","","","","","","","","","","","","","","","","",""
"1162","","image-button-response","32","392825","0.0-31.0-0.0","A1QC1K71RGKZBI","img_art/ins/2.jpg","4","","","","","","","","","","","","","","","","","","","","","","","","",""
"5159","","image-button-response","33","397989","0.0-32.0-0.0","A1QC1K71RGKZBI","img_art/ins/2.jpg","2","","","","","","","","","","","","","","","","","","","","","","","","",""
"null","","html-keyboard-response","34","399506","0.0-33.0","A1QC1K71RGKZBI","<p style=""font-size: 48px;"">+</p>","","","","","null","allTrialResponses","1500","1","-1","img_art/ins/2.jpg","23","rocks and hills","Allison,Jenna,Katie,Dora,Kara,Jen","I don't have strong feelings about this,10,20,20","One of my pet peevs,-48,140,20","too much color!,-28,180,20","looks too angry,-50,80,20","I like the blocks of color arrangements,30,160,20","It reminds me of a fireplace,36,120,20","Jen","It reminds me of a fireplace,36,120,20","Kara","I like the blocks of color arrangements,30,160,20","Katie","too much color!,-28,180,20","1"
"12798","","survey-text","35","412314","0.0-34.0-0.0","A1QC1K71RGKZBI","","","","{""Q0"":""ice cave""}","","","","","","","","","","","","","","","","","","","","","","",""
"11187.899999976158","","image-slider-response","36","423505","0.0-35.0","A1QC1K71RGKZBI","","","","","11","","","","","","","","","","","","","","","","","","","","","",""
"null","","image-button-response","37","428513","0.0-36.0","A1QC1K71RGKZBI","img_art/ins/3.jpg","null","","","","","","","","","","","","","","","","","","","","","","","","",""
"8034","","image-button-response","38","436554","0.0-37.0","A1QC1K71RGKZBI","img_art/ins/3.jpg","4","","","","","","","","","","","","","","","","","","","","","","","","",""
"1724","","image-button-response","39","438284","0.0-38.0-0.0","A1QC1K71RGKZBI","img_art/ins/3.jpg","5","","","","","","","","","","","","","","","","","","","","","","","","",""
"2193","","image-button-response","40","440482","0.0-39.0-0.0","A1QC1K71RGKZBI","img_art/ins/3.jpg","3","","","","","","","","","","","","","","","","","","","","","","","","",""
"null","","html-keyboard-response","41","440984","0.0-40.0","A1QC1K71RGKZBI","<p style=""font-size: 48px;"">+</p>","","","","","null","allTrialResponses","500","1","0","img_art/ins/3.jpg","11","ice cave","Rose,Mary,Katie,Leslie,Kara,Jen","My daily routine, it's depressing,-20,240,20","I like the overlapping of brushes,41,220,20","It looks depressing,-26,180,20","It's an alright work,15,200,20","calming blue is very nice,36,160,20","I can feel a rainy day from this painting,18,120,20","Kara","calming blue is very nice,36,160,20","Jen","I can feel a rainy day from this painting,18,120,20","Leslie","It's an alright work,15,200,20","1"
"10520","","image-button-response_instructions","42","451523","0.0-41.0","A1QC1K71RGKZBI","","0","instructions","","","","","","","","","","","","","","","","","","","","","","","",""
"21393","","survey-likert","43","472922","0.0-42.0-0.0","A1QC1K71RGKZBI","","","","{""Q0"":"""",""Q1"":0,""Q2"":1}","","","","","","","","","","","","","","","","","","","","","","",""
"9296","","survey-text","44","482229","0.0-43.0-0.0","A1QC1K71RGKZBI","","","","{""Q0"":""rock""}","","","","","","","","","","","","","","","","","","","","","","",""
"12515","","survey-text","45","494747","0.0-44.0-0.0","A1QC1K71RGKZBI","","","","{""Q0"":""a mess""}","","","","","","","","","","","","","","","","","","","","","","",""
"8016.699999988079","","image-slider-response","46","502769","0.0-45.0","A1QC1K71RGKZBI","","","","","-50","","","","","","","","","","","","","","","","","","","","","",""
"3251","","image-button-response","47","507845","0.0-46.0","A1QC1K71RGKZBI","img_art/3.jpg","0","","","","","","","","","","","","","","","","","","","","","","","","",""
"4701","","image-button-response","48","512558","0.0-47.0","A1QC1K71RGKZBI","img_art/3.jpg","2","","","","","","","","","","","","","","","","","","","","","","","","",""
"7657","","image-button-response","49","520221","0.0-48.0-0.0","A1QC1K71RGKZBI","img_art/3.jpg","5","","","","","","","","","","","","","","","","","","","","","","","","",""
"36279","","image-button-response","50","556505","0.0-49.0-0.0","A1QC1K71RGKZBI","img_art/3.jpg","0","","","","","","","","","","","","","","","","","","","","","","","","",""
"null","","html-keyboard-response","51","557019","0.0-50.0","A1QC1K71RGKZBI","<p style=""font-size: 48px;"">+</p>","","","","","null","allTrialResponses","500","1","1","img_art/3.jpg","-50","a mess","Gabriela,Mary,Rachel,Julia,Heather,Kaylee","It looks like a child drawing,-29,140,20","I usually don't like red. Red in this angry piece is very fitting.,19,180,20","Too red and chaotic. Not calming.,-41,80,20","this is a very nice emotion,27,40,20","Blood splatter and one black spot.,1,260,20","i really cant get it,-44,200,20","Rachel","Too red and chaotic. Not calming.,-41,80,20","Kaylee","i really cant get it,-44,200,20","Gabriela","It looks like a child drawing,-29,140,20","1"
"16041","","survey-text","52","573078","0.0-51.0-0.0","A1QC1K71RGKZBI","","","","{""Q0"":""illision""}","","","","","","","","","","","","","","","","","","","","","","",""
"8040.100000023842","","image-slider-response","53","581122","0.0-52.0","A1QC1K71RGKZBI","","","","","-28","","","","","","","","","","","","","","","","","","","","","",""
"null","","image-button-response","54","586131","0.0-53.0","A1QC1K71RGKZBI","img_art/22.jpg","null","","","","","","","","","","","","","","","","","","","","","","","","",""
"3918","","image-button-response","55","590056","0.0-54.0","A1QC1K71RGKZBI","img_art/22.jpg","1","","","","","","","","","","","","","","","","","","","","","","","","",""
"5073","","image-button-response","56","595134","0.0-55.0-0.0","A1QC1K71RGKZBI","img_art/22.jpg","2","","","","","","","","","","","","","","","","","","","","","","","","",""
"5797","","image-button-response","57","600937","0.0-56.0-0.0","A1QC1K71RGKZBI","img_art/22.jpg","3","","","","","","","","","","","","","","","","","","","","","","","","",""
"null","","html-keyboard-response","58","601443","0.0-57.0","A1QC1K71RGKZBI","<p style=""font-size: 48px;"">+</p>","","","","","null","allTrialResponses","500","1","2","img_art/22.jpg","-28","illision","Gabriela,Michaela,Rachel,Natalie,Meghan,Kaylee","Neither like nor dislike it. The red, yellow and blue colors are bright but I don't know what it's meant to be.,1,140,20","I like the use of primary colors in an interesting way,29,260,20","I like the vivid colors.,11,80,20","my reaction is that the picture is confusion,-9,400,20","really beautiful colors and contrast,30,220,20","its just ugly for me,-50,200,20","Michaela","I like the use of primary colors in an interesting way,29,260,20","Rachel","I like the vivid colors.,11,80,20","Natalie","my reaction is that the picture is confusion,-9,400,20","1"
"12982","","survey-text","59","614443","0.0-58.0-0.0","A1QC1K71RGKZBI","","","","{""Q0"":""trees""}","","","","","","","","","","","","","","","","","","","","","","",""
"26620","","survey-text","60","645123","0.0-58.1-0.1","A1QC1K71RGKZBI","","","","{""Q0"":""trees in a meadow""}","","","","","","","","","","","","","","","","","","","","","","",""
"4259.600000023842","","image-slider-response","61","649388","0.0-59.0","A1QC1K71RGKZBI","","","","","17","","","","","","","","","","","","","","","","","","","","","",""
"null","","image-button-response","62","654394","0.0-60.0","A1QC1K71RGKZBI","img_art/15.jpg","null","","","","","","","","","","","","","","","","","","","","","","","","",""
"3658","","image-button-response","63","658058","0.0-61.0","A1QC1K71RGKZBI","img_art/15.jpg","0","","","","","","","","","","","","","","","","","","","","","","","","",""
"6862","","image-button-response","64","664926","0.0-62.0-0.0","A1QC1K71RGKZBI","img_art/15.jpg","2","","","","","","","","","","","","","","","","","","","","","","","","",""
"1577","","image-button-response","65","666510","0.0-63.0-0.0","A1QC1K71RGKZBI","img_art/15.jpg","0","","","","","","","","","","","","","","","","","","","","","","","","",""
"12228","","image-button-response","66","682628","0.0-63.1-0.1","A1QC1K71RGKZBI","img_art/15.jpg","4","","","","","","","","","","","","","","","","","","","","","","","","",""
"null","","html-keyboard-response","67","684146","0.0-64.0","A1QC1K71RGKZBI","<p style=""font-size: 48px;"">+</p>","","","","","null","allTrialResponses","1500","1","3","img_art/15.jpg","17","trees in a meadow","Diana,Michaela,Rachel,Natalie,Leslie,Kelsey","There should be more space between the black marks. The black comes off harsh and the blue between the trees can barely be seen.,-21,380,20","Reminds me of lilacs,26,260,20","Reminds me of blue birds in a tree at night. I love nature.,40,80,20","my response to the picture is that I dont know what I am looking at,-25,400,20","This elicits no reaction in me.,0,380,20","i kinda like this one but wouldnt buy it for myself,17,240,20","Diana","There should be more space between the black marks. The black comes off harsh and the blue between the trees can barely be seen.,-21,380,20","Rachel","Reminds me of blue birds in a tree at night. I love nature.,40,80,20","Leslie","This elicits no reaction in me.,0,380,20","3"
"15390","","survey-text","68","699553","0.0-65.0-0.0","A1QC1K71RGKZBI","","","","{""Q0"":""busy city""}","","","","","","","","","","","","","","","","","","","","","","",""
"5350.699999988079","","image-slider-response","69","704907","0.0-66.0","A1QC1K71RGKZBI","","","","","13","","","","","","","","","","","","","","","","","","","","","",""
"null","","image-button-response","70","709937","0.0-67.0","A1QC1K71RGKZBI","img_art/19.jpg","null","","","","","","","","","","","","","","","","","","","","","","","","",""
"5317","","image-button-response","71","715260","0.0-68.0","A1QC1K71RGKZBI","img_art/19.jpg","0","","","","","","","","","","","","","","","","","","","","","","","","",""
"3683","","image-button-response","72","718948","0.0-69.0-0.0","A1QC1K71RGKZBI","img_art/19.jpg","2","","","","","","","","","","","","","","","","","","","","","","","","",""
"8230","","image-button-response","73","727184","0.0-70.0-0.0","A1QC1K71RGKZBI","img_art/19.jpg","4","","","","","","","","","","","","","","","","","","","","","","","","",""
"null","","html-keyboard-response","74","728188","0.0-71.0","A1QC1K71RGKZBI","<p style=""font-size: 48px;"">+</p>","","","","","null","allTrialResponses","1000","1","4","img_art/19.jpg","13","busy city","Diana,Shannon,Rachel,Jasmine,Leslie,Erika","I wasn't sure if I liked it or hated it. It oddly reminds me of a clothing store.,11,380,20","This looks like a bunch of weird blobs and the colors don't go great together.,-10,220,20","Reminds me of a busy town. Chaotic in nature.,-11,80,20","Just stirred a negative reaction. Don't really like it perhaps because of the structure?,-8,340,20","It's a cute city scene, but nothing special.,10,380,20","Very dreamlike,26,100,20","Diana","I wasn't sure if I liked it or hated it. It oddly reminds me of a clothing store.,11,380,20","Rachel","Reminds me of a busy town. Chaotic in nature.,-11,80,20","Leslie","It's a cute city scene, but nothing special.,10,380,20","3"
"25622","","survey-text","75","753829","0.0-72.0-0.0","A1QC1K71RGKZBI","","","","{""Q0"":""ocean town""}","","","","","","","","","","","","","","","","","","","","","","",""
"5795.899999976158","","image-slider-response","76","759628","0.0-73.0","A1QC1K71RGKZBI","","","","","19","","","","","","","","","","","","","","","","","","","","","",""
"null","","image-button-response","77","764649","0.0-74.0","A1QC1K71RGKZBI","img_art/20.jpg","null","","","","","","","","","","","","","","","","","","","","","","","","",""
"2657","","image-button-response","78","767312","0.0-75.0","A1QC1K71RGKZBI","img_art/20.jpg","1","","","","","","","","","","","","","","","","","","","","","","","","",""
"37929","","image-button-response","79","805245","0.0-76.0-0.0","A1QC1K71RGKZBI","img_art/20.jpg","0","","","","","","","","","","","","","","","","","","","","","","","","",""
"2299","","image-button-response","80","807551","0.0-77.0-0.0","A1QC1K71RGKZBI","img_art/20.jpg","2","","","","","","","","","","","","","","","","","","","","","","","","",""
"null","","html-keyboard-response","81","808556","0.0-78.0","A1QC1K71RGKZBI","<p style=""font-size: 48px;"">+</p>","","","","","null","allTrialResponses","1000","1","5","img_art/20.jpg","19","ocean town","Diana,Hannah,Rachel,Alexandra,Leslie,Monica","I'm not sure why this reminds me of surrealism. It might be the colors used.,16,380,20","Reminds me of the Southwest; i.e. New Mexico or Arizona. It's interesting.,12,240,20","While interesting in technique.. It looks like a blurry car wreck. Does not evoke great emotions.,-20,80,20","The white blob looks like a face and it's creepy,-30,60,20","This elicits no reaction in me.,0,380,20","It looks like a junkyard and isn't appealing,-22,360,20","Hannah","Reminds me of the Southwest; i.e. New Mexico or Arizona. It's interesting.,12,240,20","Diana","I'm not sure why this reminds me of surrealism. It might be the colors used.,16,380,20","Rachel","While interesting in technique.. It looks like a blurry car wreck. Does not evoke great emotions.,-20,80,20","3"
"8705","","survey-text","82","817291","0.0-79.0-0.0","A1QC1K71RGKZBI","","","","{""Q0"":""sky""}","","","","","","","","","","","","","","","","","","","","","","",""
"43246","","survey-text","83","860541","0.0-80.0-0.0","A1QC1K71RGKZBI","","","","{""Q0"":""playing a guitar""}","","","","","","","","","","","","","","","","","","","","","","",""
"6143.5","","image-slider-response","84","866688","0.0-81.0","A1QC1K71RGKZBI","","","","","34","","","","","","","","","","","","","","","","","","","","","",""
"null","","image-button-response","85","871694","0.0-82.0","A1QC1K71RGKZBI","img_art/10.jpg","null","","","","","","","","","","","","","","","","","","","","","","","","",""
"1719","","image-button-response","86","873420","0.0-83.0","A1QC1K71RGKZBI","img_art/10.jpg","1","","","","","","","","","","","","","","","","","","","","","","","","",""
"16619","","image-button-response","87","890044","0.0-84.0-0.0","A1QC1K71RGKZBI","img_art/10.jpg","0","","","","","","","","","","","","","","","","","","","","","","","","",""
"4373","","image-button-response","88","894423","0.0-85.0-0.0","A1QC1K71RGKZBI","img_art/10.jpg","3","","","","","","","","","","","","","","","","","","","","","","","","",""
"null","","html-keyboard-response","89","894927","0.0-86.0","A1QC1K71RGKZBI","<p style=""font-size: 48px;"">+</p>","","","","","null","allTrialResponses","500","1","6","img_art/10.jpg","34","playing a guitar","Diana,Hannah,Rachel,Catherine,Angela,Sierra","It reminds me of the ocean. Almost like a battlefield, but on the water.,19,380,20","This one is interesting. I like it.,11,240,20","Reminds me of a terrarium with cacti inside. It reminds me of home.,27,80,20","Circle of life, with highs and lows, good and bad. You always weather the storm and come out on top.,40,160,20","This makes me think of a city, specifically London.,20,260,20","it just doesnt appeal to me.,-10,260,20","Hannah","This one is interesting. I like it.,11,240,20","Diana","It reminds me of the ocean. Almost like a battlefield, but on the water.,19,380,20","Catherine","Circle of life, with highs and lows, good and bad. You always weather the storm and come out on top.,40,160,20","3"
"46416","","survey-text","90","941366","0.0-87.0-0.0","A1QC1K71RGKZBI","","","","{""Q0"":""people dancing to music""}","","","","","","","","","","","","","","","","","","","","","","",""
"4303.800000011921","","image-slider-response","91","945674","0.0-88.0","A1QC1K71RGKZBI","","","","","36","","","","","","","","","","","","","","","","","","","","","",""
"null","","image-button-response","92","950683","0.0-89.0","A1QC1K71RGKZBI","img_art/23.jpg","null","","","","","","","","","","","","","","","","","","","","","","","","",""
"1498","","image-button-response","93","952187","0.0-90.0","A1QC1K71RGKZBI","img_art/23.jpg","0","","","","","","","","","","","","","","","","","","","","","","","","",""
"4344","","image-button-response","94","956535","0.0-91.0-0.0","A1QC1K71RGKZBI","img_art/23.jpg","1","","","","","","","","","","","","","","","","","","","","","","","","",""
"15731","","image-button-response","95","972272","0.0-92.0-0.0","A1QC1K71RGKZBI","img_art/23.jpg","4","","","","","","","","","","","","","","","","","","","","","","","","",""
"null","","html-keyboard-response","96","973780","0.0-93.0","A1QC1K71RGKZBI","<p style=""font-size: 48px;"">+</p>","","","","","null","allTrialResponses","1500","1","7","img_art/23.jpg","36","people dancing to music","Diana,Hannah,Sabrina,Catherine,Alexa,Cassidy","I thought this art was exciting and it reminded me of dancing people.,12,380,20","This one is interesting. Looks like people with maybe musical instruments?,11,240,20","I dont like the chaos of this,-20,120,20","Partying, dancing, delusion, kaus.,10,160,20","Very colorful and wild. It's cool and I like it,32,40,20","I like the colors, the tiny dots, and the contrast between the white and background,28,140,20","Diana","I thought this art was exciting and it reminded me of dancing people.,12,380,20","Hannah","This one is interesting. Looks like people with maybe musical instruments?,11,240,20","Alexa","Very colorful and wild. It's cool and I like it,32,40,20","3"
"23940","","survey-text","97","997748","0.0-94.0-0.0","A1QC1K71RGKZBI","","","","{""Q0"":""autumn lake""}","","","","","","","","","","","","","","","","","","","","","","",""
"3644.800000011921","","image-slider-response","98","1001397","0.0-95.0","A1QC1K71RGKZBI","","","","","30","","","","","","","","","","","","","","","","","","","","","",""
"3529","","image-button-response","99","1006412","0.0-96.0","A1QC1K71RGKZBI","img_art/1.jpg","0","","","","","","","","","","","","","","","","","","","","","","","","",""
"753","","image-button-response","100","1007173","0.0-97.0","A1QC1K71RGKZBI","img_art/1.jpg","1","","","","","","","","","","","","","","","","","","","","","","","","",""
"13198","","image-button-response","101","1020375","0.0-98.0-0.0","A1QC1K71RGKZBI","img_art/1.jpg","5","","","","","","","","","","","","","","","","","","","","","","","","",""
"9895","","image-button-response","102","1030277","0.0-99.0-0.0","A1QC1K71RGKZBI","img_art/1.jpg","4","","","","","","","","","","","","","","","","","","","","","","","","",""
"null","","html-keyboard-response","103","1031800","0.0-100.0","A1QC1K71RGKZBI","<p style=""font-size: 48px;"">+</p>","","","","","null","allTrialResponses","1500","1","8","img_art/1.jpg","30","autumn lake","Diana,Hannah,Margaret,Mikayla,Alexa,Emma","Might be a person rowing their boat across the lake. Not sure if the background is trees or not.,12,380,20","Reminds me of fall.,7,240,20","basic reminds me of something a school would have on the wall,-7,100,20","Again kind a boring.,-38,300,20","The blend of colors are gorgeous and reminds me of fall,32,40,20","Pretty, nice use of color,40,60,20","Hannah","Reminds me of fall.,7,240,20","Emma","Pretty, nice use of color,40,60,20","Alexa","The blend of colors are gorgeous and reminds me of fall,32,40,20","3"
"28493","","survey-text","104","1060310","0.0-101.0-0.0","A1QC1K71RGKZBI","","","","{""Q0"":""sleeping beauty""}","","","","","","","","","","","","","","","","","","","","","","",""
"5148.400000035763","","image-slider-response","105","1065461","0.0-102.0","A1QC1K71RGKZBI","","","","","9","","","","","","","","","","","","","","","","","","","","","",""
"3854","","image-button-response","106","1070475","0.0-103.0","A1QC1K71RGKZBI","img_art/9.jpg","0","","","","","","","","","","","","","","","","","","","","","","","","",""
"9216","","image-button-response","107","1079703","0.0-104.0","A1QC1K71RGKZBI","img_art/9.jpg","2","","","","","","","","","","","","","","","","","","","","","","","","",""
"8899","","image-button-response","108","1088608","0.0-105.0-0.0","A1QC1K71RGKZBI","img_art/9.jpg","4","","","","","","","","","","","","","","","","","","","","","","","","",""
"9112","","image-button-response","109","1097725","0.0-106.0-0.0","A1QC1K71RGKZBI","img_art/9.jpg","0","","","","","","","","","","","","","","","","","","","","","","","","",""
"null","","html-keyboard-response","110","1099252","0.0-107.0","A1QC1K71RGKZBI","<p style=""font-size: 48px;"">+</p>","","","","","null","allTrialResponses","1500","1","9","img_art/9.jpg","9","sleeping beauty","Kylie,Hannah,Kathryn,Sophia,Alexa,Emma","Peaceful dreaming,40,300,20","Someone lying in bed?  Don't care for it.,-14,240,20","This feels dreamy. Like I'm seeing inside someone's head while they're sleeping.,20,140,20","Yikes. I'm not sure what to make of this one.,-14,280,20","It's wild and chaotic but also beautiful and has some kind of calming factor about it,20,40,20","Feels angry .....,-40,60,20","Kathryn","This feels dreamy. Like I'm seeing inside someone's head while they're sleeping.,20,140,20","Alexa","It's wild and chaotic but also beautiful and has some kind of calming factor about it,20,40,20","Kylie","Peaceful dreaming,40,300,20","3"
"25643","","survey-text","111","1124912","0.0-108.0-0.0","A1QC1K71RGKZBI","","","","{""Q0"":""insects on a branch""}","","","","","","","","","","","","","","","","","","","","","","",""
"5020.699999988079","","image-slider-response","112","1129938","0.0-109.0","A1QC1K71RGKZBI","","","","","-50","","","","","","","","","","","","","","","","","","","","","",""
"null","","image-button-response","113","1134956","0.0-110.0","A1QC1K71RGKZBI","img_art/18.jpg","null","","","","","","","","","","","","","","","","","","","","","","","","",""
"7132","","image-button-response","114","1142093","0.0-111.0","A1QC1K71RGKZBI","img_art/18.jpg","1","","","","","","","","","","","","","","","","","","","","","","","","",""
"13695","","image-button-response","115","1155794","0.0-112.0-0.0","A1QC1K71RGKZBI","img_art/18.jpg","4","","","","","","","","","","","","","","","","","","","","","","","","",""
"4518","","image-button-response","116","1160317","0.0-113.0-0.0","A1QC1K71RGKZBI","img_art/18.jpg","0","","","","","","","","","","","","","","","","","","","","","","","","",""
"null","","html-keyboard-response","117","1161321","0.0-114.0","A1QC1K71RGKZBI","<p style=""font-size: 48px;"">+</p>","","","","","null","allTrialResponses","1000","1","10","img_art/18.jpg","-50","insects on a branch","Kylie,Breanna,Kathryn,Kelly,Alexa,Mackenzie","Kind of weird in a confusing way,10,300,20","Makes me feel confused,16,380,20","Like riding into battle. A sense of confidence, but also trepidation for what's coming. Could be a personification of death.,-10,140,20","It's interesting. I'm not sure how I feel about it, but i enjoy the ghostly apparitions.,10,220,20","Very wild and abstract. I love it and would definitely hang this up in my home,50,40,20","The shapes are very fun to interpret,30,20,20","Breanna","Makes me feel confused,16,380,20","Alexa","Very wild and abstract. I love it and would definitely hang this up in my home,50,40,20","Kylie","Kind of weird in a confusing way,10,300,20","3"
"10202","","survey-text","118","1171551","0.0-115.0-0.0","A1QC1K71RGKZBI","","","","{""Q0"":""our""}","","","","","","","","","","","","","","","","","","","","","","",""
"19110","","survey-text","119","1190665","0.0-116.0-0.0","A1QC1K71RGKZBI","","","","{""Q0"":""city in Mexico""}","","","","","","","","","","","","","","","","","","","","","","",""
"5270.900000035763","","image-slider-response","120","1195940","0.0-117.0","A1QC1K71RGKZBI","","","","","25","","","","","","","","","","","","","","","","","","","","","",""
"null","","image-button-response","121","1200957","0.0-118.0","A1QC1K71RGKZBI","img_art/8.jpg","null","","","","","","","","","","","","","","","","","","","","","","","","",""
"6033","","image-button-response","122","1206996","0.0-119.0","A1QC1K71RGKZBI","img_art/8.jpg","2","","","","","","","","","","","","","","","","","","","","","","","","",""
"7895","","image-button-response","123","1214896","0.0-120.0-0.0","A1QC1K71RGKZBI","img_art/8.jpg","3","","","","","","","","","","","","","","","","","","","","","","","","",""
"9882","","image-button-response","124","1224786","0.0-121.0-0.0","A1QC1K71RGKZBI","img_art/8.jpg","5","","","","","","","","","","","","","","","","","","","","","","","","",""
"null","","html-keyboard-response","125","1225291","0.0-122.0","A1QC1K71RGKZBI","<p style=""font-size: 48px;"">+</p>","","","","","null","allTrialResponses","500","1","11","img_art/8.jpg","25","city in Mexico","Kylie,Breanna,Madison,Amber,Alexa,Savannah","Very abstract and seems symbolic,45,300,20","Makes me feel nice,23,380,20","The composition is striking, and some of the images are quite dramatic,11,60,20","Very colorful. Looks like the hustle and bustle of a city.,11,200,20","It's simply gorgeous. This artist is very talented,50,40,20","Despite the detail, this picture is very abstract!,31,200,20","Madison","The composition is striking, and some of the images are quite dramatic,11,60,20","Amber","Very colorful. Looks like the hustle and bustle of a city.,11,200,20","Savannah","Despite the detail, this picture is very abstract!,31,200,20","3"
"27855","","survey-text","126","1253161","0.0-123.0-0.0","A1QC1K71RGKZBI","","","","{""Q0"":""house in the country""}","","","","","","","","","","","","","","","","","","","","","","",""
"5004.100000023842","","image-slider-response","127","1258169","0.0-124.0","A1QC1K71RGKZBI","","","","","16","","","","","","","","","","","","","","","","","","","","","",""
"4012","","image-button-response","128","1263179","0.0-125.0","A1QC1K71RGKZBI","img_art/26.jpg","0","","","","","","","","","","","","","","","","","","","","","","","","",""
"4733","","image-button-response","129","1267922","0.0-126.0","A1QC1K71RGKZBI","img_art/26.jpg","0","","","","","","","","","","","","","","","","","","","","","","","","",""
"6655","","image-button-response","130","1274581","0.0-127.0-0.0","A1QC1K71RGKZBI","img_art/26.jpg","1","","","","","","","","","","","","","","","","","","","","","","","","",""
"7606","","image-button-response","131","1282192","0.0-128.0-0.0","A1QC1K71RGKZBI","img_art/26.jpg","4","","","","","","","","","","","","","","","","","","","","","","","","",""
"null","","html-keyboard-response","132","1282706","0.0-129.0","A1QC1K71RGKZBI","<p style=""font-size: 48px;"">+</p>","","","","","null","allTrialResponses","500","1","12","img_art/26.jpg","16","house in the country","Alexandria,Chelsea,Madison,Amber,Caitlin,Savannah","makes me happy and reminds me of a paris courtyard,29,80,20","I wish it were more pastel but I think it is relaxing to look at.,30,180,20","Colors look glum; photograph is not properly contrasted and does not reflect the appropriate amount of natural light.,-10,60,20","The colors are muted.,1,200,20","At least it is a bit of scenery.,10,80,20","Appears childish and unfinished.,-20,200,20","Alexandria","makes me happy and reminds me of a paris courtyard,29,80,20","Chelsea","I wish it were more pastel but I think it is relaxing to look at.,30,180,20","Caitlin","At least it is a bit of scenery.,10,80,20","3"
"28378","","survey-text","133","1311095","0.0-130.0-0.0","A1QC1K71RGKZBI","","","","{""Q0"":""gold award statue""}","","","","","","","","","","","","","","","","","","","","","","",""
"6963.099999964237","","image-slider-response","134","1318062","0.0-131.0","A1QC1K71RGKZBI","","","","","4","","","","","","","","","","","","","","","","","","","","","",""
"null","","image-button-response","135","1323074","0.0-132.0","A1QC1K71RGKZBI","img_art/4.jpg","null","","","","","","","","","","","","","","","","","","","","","","","","",""
"4737","","image-button-response","136","1327818","0.0-133.0","A1QC1K71RGKZBI","img_art/4.jpg","1","","","","","","","","","","","","","","","","","","","","","","","","",""
"12573","","image-button-response","137","1340397","0.0-134.0-0.0","A1QC1K71RGKZBI","img_art/4.jpg","4","","","","","","","","","","","","","","","","","","","","","","","","",""
"7535","","image-button-response","138","1347938","0.0-135.0-0.0","A1QC1K71RGKZBI","img_art/4.jpg","3","","","","","","","","","","","","","","","","","","","","","","","","",""
"null","","html-keyboard-response","139","1348443","0.0-136.0","A1QC1K71RGKZBI","<p style=""font-size: 48px;"">+</p>","","","","","null","allTrialResponses","500","1","13","img_art/4.jpg","4","gold award statue","Alexandria,Chelsea,Sara,Chloe,Caitlin,Sarah","it looks like a simple finger painting, yet i liked the color choices,-12,80,20","The colors remind me of McDonalds.,-41,180,20","Random swirls again,-30,160,20","Great movement but don't love the yellowy tones.,31,220,20","They give out trophies now for fighting with brass knuckles?,-20,80,20","too many red/yellow shades, its impact without a reason,-27,180,20","Chelsea","The colors remind me of McDonalds.,-41,180,20","Caitlin","They give out trophies now for fighting with brass knuckles?,-20,80,20","Chloe","Great movement but don't love the yellowy tones.,31,220,20","3"
"28585","","survey-text","140","1377050","0.0-137.0-0.0","A1QC1K71RGKZBI","","","","{""Q0"":""wind blowing in the ciry""}","","","","","","","","","","","","","","","","","","","","","","",""
"4616.599999964237","","image-slider-response","141","1381670","0.0-138.0","A1QC1K71RGKZBI","","","","","16","","","","","","","","","","","","","","","","","","","","","",""
"4513","","image-button-response","142","1386696","0.0-139.0","A1QC1K71RGKZBI","img_art/17.jpg","0","","","","","","","","","","","","","","","","","","","","","","","","",""
"5912","","image-button-response","143","1392617","0.0-140.0","A1QC1K71RGKZBI","img_art/17.jpg","2","","","","","","","","","","","","","","","","","","","","","","","","",""
"11607","","image-button-response","144","1404229","0.0-141.0-0.0","A1QC1K71RGKZBI","img_art/17.jpg","4","","","","","","","","","","","","","","","","","","","","","","","","",""
"2998","","image-button-response","145","1407233","0.0-142.0-0.0","A1QC1K71RGKZBI","img_art/17.jpg","5","","","","","","","","","","","","","","","","","","","","","","","","",""
"null","","html-keyboard-response","146","1408745","0.0-143.0","A1QC1K71RGKZBI","<p style=""font-size: 48px;"">+</p>","","","","","null","allTrialResponses","1500","1","14","img_art/17.jpg","16","wind blowing in the ciry","Erin,Chelsea,Jamie,Chloe,Caitlin,Kimberly","Windows indoor tree, weird palette,-11,120,20","The colors are soft.,32,180,20","Looks like some fantasy tree. Nice,30,320,20","Pretty but a little cheesy,-10,220,20","Somewhat should trim the tree branches at the shopping mall.,10,80,20","I like the trees, but the doors less so,19,260,20","Jamie","Looks like some fantasy tree. Nice,30,320,20","Caitlin","Somewhat should trim the tree branches at the shopping mall.,10,80,20","Kimberly","I like the trees, but the doors less so,19,260,20","3"
"19035","","survey-text","147","1427801","0.0-144.0-0.0","A1QC1K71RGKZBI","","","","{""Q0"":""water on my window""}","","","","","","","","","","","","","","","","","","","","","","",""
"4468.599999964237","","image-slider-response","148","1432274","0.0-145.0","A1QC1K71RGKZBI","","","","","16","","","","","","","","","","","","","","","","","","","","","",""
"null","","image-button-response","149","1437279","0.0-146.0","A1QC1K71RGKZBI","img_art/13.jpg","null","","","","","","","","","","","","","","","","","","","","","","","","",""
"2163","","image-button-response","150","1439447","0.0-147.0","A1QC1K71RGKZBI","img_art/13.jpg","0","","","","","","","","","","","","","","","","","","","","","","","","",""
"5464","","image-button-response","151","1444916","0.0-148.0-0.0","A1QC1K71RGKZBI","img_art/13.jpg","1","","","","","","","","","","","","","","","","","","","","","","","","",""
"9478","","image-button-response","152","1454399","0.0-149.0-0.0","A1QC1K71RGKZBI","img_art/13.jpg","2","","","","","","","","","","","","","","","","","","","","","","","","",""
"null","","html-keyboard-response","153","1455420","0.0-150.0","A1QC1K71RGKZBI","<p style=""font-size: 48px;"">+</p>","","","","","null","allTrialResponses","1000","1","15","img_art/13.jpg","16","water on my window","Miranda,Courtney,Jamie,Jenna,Caitlin,Kimberly","This looks like something that could be made off of windows paint, not a huge fan.,-30,320,20","Debree on top of a calm pond.,18,280,20","Cool colors and looks like rain on a window,45,320,20","exciting & chaotic. love the colors.,50,360,20","Simple and in my favorite color. I actually like this one.,40,80,20","It's like a pattern on a bus seat,10,260,20","Miranda","This looks like something that could be made off of windows paint, not a huge fan.,-30,320,20","Courtney","Debree on top of a calm pond.,18,280,20","Jamie","Cool colors and looks like rain on a window,45,320,20","3"
"9887","","survey-text","154","1465345","0.0-151.0-0.0","A1QC1K71RGKZBI","","","","{""Q0"":""course""}","","","","","","","","","","","","","","","","","","","","","","",""
"26938","","survey-text","155","1492287","0.0-152.0-0.0","A1QC1K71RGKZBI","","","","{""Q0"":""confusion""}","","","","","","","","","","","","","","","","","","","","","","",""
"5209.299999952316","","image-slider-response","156","1497500","0.0-153.0","A1QC1K71RGKZBI","","","","","-50","","","","","","","","","","","","","","","","","","","","","",""
"null","","image-button-response","157","1502516","0.0-154.0","A1QC1K71RGKZBI","img_art/2.jpg","null","","","","","","","","","","","","","","","","","","","","","","","","",""
"4490","","image-button-response","158","1507011","0.0-155.0","A1QC1K71RGKZBI","img_art/2.jpg","1","","","","","","","","","","","","","","","","","","","","","","","","",""
"10647","","image-button-response","159","1517663","0.0-156.0-0.0","A1QC1K71RGKZBI","img_art/2.jpg","4","","","","","","","","","","","","","","","","","","","","","","","","",""
"4119","","image-button-response","160","1521789","0.0-157.0-0.0","A1QC1K71RGKZBI","img_art/2.jpg","5","","","","","","","","","","","","","","","","","","","","","","","","",""
"null","","html-keyboard-response","161","1522316","0.0-158.0","A1QC1K71RGKZBI","<p style=""font-size: 48px;"">+</p>","","","","","null","allTrialResponses","500","1","16","img_art/2.jpg","-50","confusion","Miranda,Courtney,Jamie,Laura,Amanda,Leah","I don't really like this but at the same time it's cute. It looks like a little monster kid.,-9,320,20","That looks look a cartoon character of some kind.,11,280,20","Awful color coordination and design,-35,320,20","active and kinetic- simplified,14,320,20","Very simple and childish,40,180,20","Kind of looks upside down, I need a focal point,-29,360,20","Courtney","That looks look a cartoon character of some kind.,11,280,20","Amanda","Very simple and childish,40,180,20","Leah","Kind of looks upside down, I need a focal point,-29,360,20","3"
"29455","","survey-text","162","1551792","0.0-159.0-0.0","A1QC1K71RGKZBI","","","","{""Q0"":""teddy bear from Santa""}","","","","","","","","","","","","","","","","","","","","","","",""
"4475.700000047684","","image-slider-response","163","1556271","0.0-160.0","A1QC1K71RGKZBI","","","","","20","","","","","","","","","","","","","","","","","","","","","",""
"null","","image-button-response","164","1561311","0.0-161.0","A1QC1K71RGKZBI","img_art/16.jpg","null","","","","","","","","","","","","","","","","","","","","","","","","",""
"3353","","image-button-response","165","1564671","0.0-162.0","A1QC1K71RGKZBI","img_art/16.jpg","0","","","","","","","","","","","","","","","","","","","","","","","","",""
"18706","","image-button-response","166","1583383","0.0-163.0-0.0","A1QC1K71RGKZBI","img_art/16.jpg","5","","","","","","","","","","","","","","","","","","","","","","","","",""
"6484","","image-button-response","167","1589873","0.0-164.0-0.0","A1QC1K71RGKZBI","img_art/16.jpg","4","","","","","","","","","","","","","","","","","","","","","","","","",""
"null","","html-keyboard-response","168","1590885","0.0-165.0","A1QC1K71RGKZBI","<p style=""font-size: 48px;"">+</p>","","","","","null","allTrialResponses","1000","1","17","img_art/16.jpg","20","teddy bear from Santa","Cheyenne,Courtney,Destiny,Allison,Amanda,Leah","Cute but there's a lot going on.,7,200,20","Hmm i don't know what going on here.,1,280,20","what is this doing for anyone. If you connect with this you're literally lying to yourself. pretentious,-50,360,20","Hard contrast, but no emotions towards any of the objects.,-6,140,20","Very modern, reminds me of bansky,43,180,20","Know it is a piece relating to children and gun violence. Sad,-30,360,20","Cheyenne","Cute but there's a lot going on.,7,200,20","Leah","Know it is a piece relating to children and gun violence. Sad,-30,360,20","Amanda","Very modern, reminds me of bansky,43,180,20","3"
"25637","","survey-text","169","1616542","0.0-166.0-0.0","A1QC1K71RGKZBI","","","","{""Q0"":""flower pot in my window""}","","","","","","","","","","","","","","","","","","","","","","",""
"6330.399999976158","","image-slider-response","170","1622877","0.0-167.0","A1QC1K71RGKZBI","","","","","8","","","","","","","","","","","","","","","","","","","","","",""
"null","","image-button-response","171","1627881","0.0-168.0","A1QC1K71RGKZBI","img_art/14.jpg","null","","","","","","","","","","","","","","","","","","","","","","","","",""
"617","","image-button-response","172","1628503","0.0-169.0","A1QC1K71RGKZBI","img_art/14.jpg","0","","","","","","","","","","","","","","","","","","","","","","","","",""
"15705","","image-button-response","173","1644213","0.0-170.0-0.0","A1QC1K71RGKZBI","img_art/14.jpg","4","","","","","","","","","","","","","","","","","","","","","","","","",""
"3657","","image-button-response","174","1647877","0.0-171.0-0.0","A1QC1K71RGKZBI","img_art/14.jpg","5","","","","","","","","","","","","","","","","","","","","","","","","",""
"null","","html-keyboard-response","175","1648891","0.0-172.0","A1QC1K71RGKZBI","<p style=""font-size: 48px;"">+</p>","","","","","null","allTrialResponses","1000","1","18","img_art/14.jpg","8","flower pot in my window","Cheyenne,Erica,Dominique,Cynthia,Amanda,Leah","I'm a fan of the background.,13,200,20","positive colours, makes me to look at it and investigate what is going on,27,80,20","Reminds me of the old days with my family and my grandma,41,400,20","unsure and dull feeling,-1,320,20","Gorgeous use of water color,50,180,20","I like the simplicity along with the colors,27,360,20","Cheyenne","I'm a fan of the background.,13,200,20","Amanda","Gorgeous use of water color,50,180,20","Leah","I like the simplicity along with the colors,27,360,20","3"
"27104","","survey-text","176","1676019","0.0-173.0-0.0","A1QC1K71RGKZBI","","","","{""Q0"":""city with a train going through it""}","","","","","","","","","","","","","","","","","","","","","","",""
"3703.100000023842","","image-slider-response","177","1679726","0.0-174.0","A1QC1K71RGKZBI","","","","","25","","","","","","","","","","","","","","","","","","","","","",""
"null","","image-button-response","178","1684739","0.0-175.0","A1QC1K71RGKZBI","img_art/11.jpg","null","","","","","","","","","","","","","","","","","","","","","","","","",""
"3451","","image-button-response","179","1688197","0.0-176.0","A1QC1K71RGKZBI","img_art/11.jpg","1","","","","","","","","","","","","","","","","","","","","","","","","",""
"14442","","image-button-response","180","1702643","0.0-177.0-0.0","A1QC1K71RGKZBI","img_art/11.jpg","0","","","","","","","","","","","","","","","","","","","","","","","","",""
"10409","","image-button-response","181","1713058","0.0-178.0-0.0","A1QC1K71RGKZBI","img_art/11.jpg","2","","","","","","","","","","","","","","","","","","","","","","","","",""
"null","","html-keyboard-response","182","1714072","0.0-179.0","A1QC1K71RGKZBI","<p style=""font-size: 48px;"">+</p>","","","","","null","allTrialResponses","1000","1","19","img_art/11.jpg","25","city with a train going through it","Cheyenne,Anna,Alexis,Angelica,Amanda,Leah","Very good use of colors,44,200,20","It makes me think of a coastal sea town.,50,300,20","Don't like cityscapes, which this picture reminds me of,-29,100,20","This is very unappealing.,-11,280,20","It makes me feel angry and overwhelmed,-29,180,20","Even with the colors, it is dreary to me,-32,360,20","Anna","It makes me think of a coastal sea town.,50,300,20","Cheyenne","Very good use of colors,44,200,20","Alexis","Don't like cityscapes, which this picture reminds me of,-29,100,20","3"
"14617","","survey-text","183","1728709","0.0-180.0-0.0","A1QC1K71RGKZBI","","","","{""Q0"":""worms in the earth""}","","","","","","","","","","","","","","","","","","","","","","",""
"3842.599999964237","","image-slider-response","184","1732556","0.0-181.0","A1QC1K71RGKZBI","","","","","-50","","","","","","","","","","","","","","","","","","","","","",""
"null","","image-button-response","185","1737568","0.0-182.0","A1QC1K71RGKZBI","img_art/30.jpg","null","","","","","","","","","","","","","","","","","","","","","","","","",""
"7017","","image-button-response","186","1744591","0.0-183.0","A1QC1K71RGKZBI","img_art/30.jpg","2","","","","","","","","","","","","","","","","","","","","","","","","",""
"7764","","image-button-response","187","1752360","0.0-184.0-0.0","A1QC1K71RGKZBI","img_art/30.jpg","3","","","","","","","","","","","","","","","","","","","","","","","","",""
"4664","","image-button-response","188","1757029","0.0-185.0-0.0","A1QC1K71RGKZBI","img_art/30.jpg","5","","","","","","","","","","","","","","","","","","","","","","","","",""
"null","","html-keyboard-response","189","1758036","0.0-186.0","A1QC1K71RGKZBI","<p style=""font-size: 48px;"">+</p>","","","","","null","allTrialResponses","1000","1","20","img_art/30.jpg","-50","worms in the earth","Cheyenne,Anna,Alexis,Emily,Jessica,Victoria","A bit too dark for my liking,-10,200,20","It looks like a pretty but unremarkable painting in a doctors office,15,300,20","Too abstract, looks like something I could paint,-50,100,20","It looks like a child did it. There is nothing talented or special about it.,-16,40,20","Looks cool , but no meaning,1,400,20","to dark and dreary,-28,400,20","Alexis","Too abstract, looks like something I could paint,-50,100,20","Emily","It looks like a child did it. There is nothing talented or special about it.,-16,40,20","Victoria","to dark and dreary,-28,400,20","3"
"6479","","survey-text","190","1764559","0.0-187.0-0.0","A1QC1K71RGKZBI","","","","{""Q0"":""we""}","","","","","","","","","","","","","","","","","","","","","","",""
"18971","","survey-text","191","1783534","0.0-188.0-0.0","A1QC1K71RGKZBI","","","","{""Q0"":""elegant lady""}","","","","","","","","","","","","","","","","","","","","","","",""
"7282.800000011921","","image-slider-response","192","1790821","0.0-189.0","A1QC1K71RGKZBI","","","","","9","","","","","","","","","","","","","","","","","","","","","",""
"null","","image-button-response","193","1795841","0.0-190.0","A1QC1K71RGKZBI","img_art/25.jpg","null","","","","","","","","","","","","","","","","","","","","","","","","",""
"5664","","image-button-response","194","1801510","0.0-191.0","A1QC1K71RGKZBI","img_art/25.jpg","1","","","","","","","","","","","","","","","","","","","","","","","","",""
"3578","","image-button-response","195","1805094","0.0-192.0-0.0","A1QC1K71RGKZBI","img_art/25.jpg","2","","","","","","","","","","","","","","","","","","","","","","","","",""
"7069","","image-button-response","196","1812168","0.0-193.0-0.0","A1QC1K71RGKZBI","img_art/25.jpg","4","","","","","","","","","","","","","","","","","","","","","","","","",""
"null","","html-keyboard-response","197","1813687","0.0-194.0","A1QC1K71RGKZBI","<p style=""font-size: 48px;"">+</p>","","","","","null","allTrialResponses","1500","1","21","img_art/25.jpg","9","elegant lady","Sydney,Kayla,Alexis,Emily,Nicole,Victoria","This piece gives me a lot of questions which I kind of like.,10,320,20","Ghosts are NOT my thing.,-13,180,20","Reminds me of cave drawings,21,100,20","Low skill not impressed.,-14,40,20","This painting is cool but it gives off an evil vibe,-10,20,20","makes me think of a scary movie,-20,400,20","Kayla","Ghosts are NOT my thing.,-13,180,20","Alexis","Reminds me of cave drawings,21,100,20","Nicole","This painting is cool but it gives off an evil vibe,-10,20,20","3"
"23293","","survey-text","198","1837018","0.0-195.0-0.0","A1QC1K71RGKZBI","","","","{""Q0"":""autumn in the wind""}","","","","","","","","","","","","","","","","","","","","","","",""
"3496.399999976158","","image-slider-response","199","1840518","0.0-196.0","A1QC1K71RGKZBI","","","","","15","","","","","","","","","","","","","","","","","","","","","",""
"null","","image-button-response","200","1845526","0.0-197.0","A1QC1K71RGKZBI","img_art/27.jpg","null","","","","","","","","","","","","","","","","","","","","","","","","",""
"2910","","image-button-response","201","1848443","0.0-198.0","A1QC1K71RGKZBI","img_art/27.jpg","1","","","","","","","","","","","","","","","","","","","","","","","","",""
"13310","","image-button-response","202","1861759","0.0-199.0-0.0","A1QC1K71RGKZBI","img_art/27.jpg","4","","","","","","","","","","","","","","","","","","","","","","","","",""
"7580","","image-button-response","203","1869345","0.0-200.0-0.0","A1QC1K71RGKZBI","img_art/27.jpg","5","","","","","","","","","","","","","","","","","","","","","","","","",""
"null","","html-keyboard-response","204","1869863","0.0-201.0","A1QC1K71RGKZBI","<p style=""font-size: 48px;"">+</p>","","","","","null","allTrialResponses","500","1","22","img_art/27.jpg","15","autumn in the wind","Megan,Kayla,Alexis,Cassandra,Nicole,Gabrielle","Nice back ground with childish scribble on top,-30,200,20","Don't know what it is, but I do like it.,10,180,20","Too abstract, doesn't remind me of anything,-42,100,20","I don't like any of it...just scibbles.,-37,120,20","Very cool colors and I like the contrast of lights and darks,30,20,20","like the patterns and colors all but the orange blob on the right,32,160,20","Kayla","Don't know what it is, but I do like it.,10,180,20","Nicole","Very cool colors and I like the contrast of lights and darks,30,20,20","Gabrielle","like the patterns and colors all but the orange blob on the right,32,160,20","3"
"16023","","survey-text","205","1885910","0.0-202.0-0.0","A1QC1K71RGKZBI","","","","{""Q0"":""mixed up collage""}","","","","","","","","","","","","","","","","","","","","","","",""
"3182","","image-slider-response","206","1889096","0.0-203.0","A1QC1K71RGKZBI","","","","","-50","","","","","","","","","","","","","","","","","","","","","",""
"null","","image-button-response","207","1894113","0.0-204.0","A1QC1K71RGKZBI","img_art/12.jpg","null","","","","","","","","","","","","","","","","","","","","","","","","",""
"5324","","image-button-response","208","1899445","0.0-205.0","A1QC1K71RGKZBI","img_art/12.jpg","0","","","","","","","","","","","","","","","","","","","","","","","","",""
"8425","","image-button-response","209","1907875","0.0-206.0-0.0","A1QC1K71RGKZBI","img_art/12.jpg","3","","","","","","","","","","","","","","","","","","","","","","","","",""
"5530","","image-button-response","210","1913412","0.0-207.0-0.0","A1QC1K71RGKZBI","img_art/12.jpg","4","","","","","","","","","","","","","","","","","","","","","","","","",""
"null","","html-keyboard-response","211","1914421","0.0-208.0","A1QC1K71RGKZBI","<p style=""font-size: 48px;"">+</p>","","","","","null","allTrialResponses","1000","1","23","img_art/12.jpg","-50","mixed up collage","Tiffany,Kayla,Christina,Shelby,Nicole,Gabrielle","The painting makes me uncomfortable. The smears in the boxes feel like a giant mess.,-16,360,20","Yay! Lots of people, lots of lives.,25,180,20","way too 90s/80s for me,-9,240,20","The shapes make me feel a bit uncomfortable,-10,240,20","I like all the squares and the colors but it feels too cluttered to me,20,20,20","seems too dark on top and too common on the bottom,-19,160,20","Tiffany","The painting makes me uncomfortable. The smears in the boxes feel like a giant mess.,-16,360,20","Shelby","The shapes make me feel a bit uncomfortable,-10,240,20","Nicole","I like all the squares and the colors but it feels too cluttered to me,20,20,20","3"
"21715","","survey-text","212","1936160","0.0-209.0-0.0","A1QC1K71RGKZBI","","","","{""Q0"":""onion on a stick""}","","","","","","","","","","","","","","","","","","","","","","",""
"4948.5","","image-slider-response","213","1941113","0.0-210.0","A1QC1K71RGKZBI","","","","","-50","","","","","","","","","","","","","","","","","","","","","",""
"null","","image-button-response","214","1946141","0.0-211.0","A1QC1K71RGKZBI","img_art/5.jpg","null","","","","","","","","","","","","","","","","","","","","","","","","",""
"3081","","image-button-response","215","1949229","0.0-212.0","A1QC1K71RGKZBI","img_art/5.jpg","1","","","","","","","","","","","","","","","","","","","","","","","","",""
"18542","","image-button-response","216","1967776","0.0-213.0-0.0","A1QC1K71RGKZBI","img_art/5.jpg","0","","","","","","","","","","","","","","","","","","","","","","","","",""
"12033","","image-button-response","217","1979815","0.0-214.0-0.0","A1QC1K71RGKZBI","img_art/5.jpg","5","","","","","","","","","","","","","","","","","","","","","","","","",""
"null","","html-keyboard-response","218","1980319","0.0-215.0","A1QC1K71RGKZBI","<p style=""font-size: 48px;"">+</p>","","","","","null","allTrialResponses","500","1","24","img_art/5.jpg","-50","onion on a stick","Tiffany,Bailey,Brianna,Shelby,Nicole,Katherine","I feel nothing looking at this.,-5,360,20","Not sure what that even is. Looks like a 2-year old drawing,-40,360,20","Very bright and has colors you wouldn't think would go together,11,20,20","This feels joyful,39,240,20","I hate the shapes,-30,20,20","Don't love don't hate,8,120,20","Bailey","Not sure what that even is. Looks like a 2-year old drawing,-40,360,20","Tiffany","I feel nothing looking at this.,-5,360,20","Katherine","Don't love don't hate,8,120,20","3"
"16103","","survey-text","219","1996447","0.0-216.0-0.0","A1QC1K71RGKZBI","","","","{""Q0"":""a black hole""}","","","","","","","","","","","","","","","","","","","","","","",""
"3366.300000011921","","image-slider-response","220","1999818","0.0-217.0","A1QC1K71RGKZBI","","","","","-50","","","","","","","","","","","","","","","","","","","","","",""
"null","","image-button-response","221","2004844","0.0-218.0","A1QC1K71RGKZBI","img_art/29.jpg","null","","","","","","","","","","","","","","","","","","","","","","","","",""
"8653","","image-button-response","222","2013503","0.0-219.0","A1QC1K71RGKZBI","img_art/29.jpg","1","","","","","","","","","","","","","","","","","","","","","","","","",""
"17784","","image-button-response","223","2031292","0.0-220.0-0.0","A1QC1K71RGKZBI","img_art/29.jpg","4","","","","","","","","","","","","","","","","","","","","","","","","",""
"2345","","image-button-response","224","2033643","0.0-221.0-0.0","A1QC1K71RGKZBI","img_art/29.jpg","5","","","","","","","","","","","","","","","","","","","","","","","","",""
"null","","html-keyboard-response","225","2034157","0.0-222.0","A1QC1K71RGKZBI","<p style=""font-size: 48px;"">+</p>","","","","","null","allTrialResponses","500","1","25","img_art/29.jpg","-50","a black hole","Tiffany,Bailey,Rebecca,Alyssa,Olivia,Katherine","I feel a little disgust. There is something off-putting about the smooth shapes and dark colors.,-43,360,20","Giant messy blob. Looks like it tries to be edgy, but fails.,-40,360,20","love the texture, i don't know, i just really like it (and the paintbrush adds a nice touch),44,100,20","Its interesting although doesnt illicit any strong emotions from me,10,160,20","too challenging to comprehend,-28,40,20","I think the grey and red inspire negative feelings but it's not the worst thing.,13,120,20","Bailey","Giant messy blob. Looks like it tries to be edgy, but fails.,-40,360,20","Olivia","too challenging to comprehend,-28,40,20","Katherine","I think the grey and red inspire negative feelings but it's not the worst thing.,13,120,20","3"
"7470","","survey-text","226","2041675","0.0-223.0-0.0","A1QC1K71RGKZBI","","","","{""Q0"":""table""}","","","","","","","","","","","","","","","","","","","","","","",""
"29717","","survey-text","227","2071396","0.0-224.0-0.0","A1QC1K71RGKZBI","","","","{""Q0"":""waterfall in the forest""}","","","","","","","","","","","","","","","","","","","","","","",""
"5407.399999976158","","image-slider-response","228","2076808","0.0-225.0","A1QC1K71RGKZBI","","","","","22","","","","","","","","","","","","","","","","","","","","","",""
"3412","","image-button-response","229","2081816","0.0-226.0","A1QC1K71RGKZBI","img_art/24.jpg","0","","","","","","","","","","","","","","","","","","","","","","","","",""
"3451","","image-button-response","230","2085276","0.0-227.0","A1QC1K71RGKZBI","img_art/24.jpg","2","","","","","","","","","","","","","","","","","","","","","","","","",""
"6641","","image-button-response","231","2091923","0.0-228.0-0.0","A1QC1K71RGKZBI","img_art/24.jpg","4","","","","","","","","","","","","","","","","","","","","","","","","",""
"3986","","image-button-response","232","2095915","0.0-229.0-0.0","A1QC1K71RGKZBI","img_art/24.jpg","5","","","","","","","","","","","","","","","","","","","","","","","","",""
"null","","html-keyboard-response","233","2096422","0.0-230.0","A1QC1K71RGKZBI","<p style=""font-size: 48px;"">+</p>","","","","","null","allTrialResponses","500","1","26","img_art/24.jpg","22","waterfall in the forest","Haley,Bailey,Katie,Brittany,Olivia,Katherine","Beautiful colors and texture,20,220,20","Feels surreal, in a way, and vibrant,37,360,20","I see a waterfall, which is relaxing and peaceful!  I like the blue coloring,30,160,20","Nice colors, but doesn't do much for me.,1,40,20","tranquility in the stream,34,40,20","The combination of nature / realism with abstract colors is unique.,39,120,20","Katie","I see a waterfall, which is relaxing and peaceful!  I like the blue coloring,30,160,20","Olivia","tranquility in the stream,34,40,20","Katherine","The combination of nature / realism with abstract colors is unique.,39,120,20","3"
"18830","","survey-text","234","2115274","0.0-231.0-0.0","A1QC1K71RGKZBI","","","","{""Q0"":""black bird sitting on a wall""}","","","","","","","","","","","","","","","","","","","","","","",""
"3491.100000023842","","image-slider-response","235","2118770","0.0-232.0","A1QC1K71RGKZBI","","","","","13","","","","","","","","","","","","","","","","","","","","","",""
"null","","image-button-response","236","2123784","0.0-233.0","A1QC1K71RGKZBI","img_art/6.jpg","null","","","","","","","","","","","","","","","","","","","","","","","","",""
"10917","","image-button-response","237","2134707","0.0-234.0","A1QC1K71RGKZBI","img_art/6.jpg","3","","","","","","","","","","","","","","","","","","","","","","","","",""
"4364","","image-button-response","238","2139076","0.0-235.0-0.0","A1QC1K71RGKZBI","img_art/6.jpg","4","","","","","","","","","","","","","","","","","","","","","","","","",""
"6137","","image-button-response","239","2145218","0.0-236.0-0.0","A1QC1K71RGKZBI","img_art/6.jpg","5","","","","","","","","","","","","","","","","","","","","","","","","",""
"null","","html-keyboard-response","240","2146742","0.0-237.0","A1QC1K71RGKZBI","<p style=""font-size: 48px;"">+</p>","","","","","null","allTrialResponses","1500","1","27","img_art/6.jpg","13","black bird sitting on a wall","Grace,Kaitlyn,Katie,Taylor,Olivia,Katherine","Growth in the desert?  Don't care for it very much.,-26,180,20","I like the simplicity of the picture,30,80,20","I like the warmth of the orange. But, I feel like it's a partial view. I'm frustrated I can't see the entirety.,-20,160,20","Reminds me of my friend's bird,21,340,20","surviving the dryness of life,30,40,20","This could be so many different things. I saw a bird first but then it looks like a needle going into skin,34,120,20","Taylor","Reminds me of my friend's bird,21,340,20","Olivia","surviving the dryness of life,30,40,20","Katherine","This could be so many different things. I saw a bird first but then it looks like a needle going into skin,34,120,20","3"
"14007","","survey-text","241","2160770","0.0-238.0-0.0","A1QC1K71RGKZBI","","","","{""Q0"":""desert sand""}","","","","","","","","","","","","","","","","","","","","","","",""
"4833.800000011921","","image-slider-response","242","2165607","0.0-239.0","A1QC1K71RGKZBI","","","","","14","","","","","","","","","","","","","","","","","","","","","",""
"null","","image-button-response","243","2170625","0.0-240.0","A1QC1K71RGKZBI","img_art/7.jpg","null","","","","","","","","","","","","","","","","","","","","","","","","",""
"343","","image-button-response","244","2170975","0.0-241.0","A1QC1K71RGKZBI","img_art/7.jpg","1","","","","","","","","","","","","","","","","","","","","","","","","",""
"6641","","image-button-response","245","2177622","0.0-242.0-0.0","A1QC1K71RGKZBI","img_art/7.jpg","2","","","","","","","","","","","","","","","","","","","","","","","","",""
"9644","","image-button-response","246","2187271","0.0-243.0-0.0","A1QC1K71RGKZBI","img_art/7.jpg","4","","","","","","","","","","","","","","","","","","","","","","","","",""
"null","","html-keyboard-response","247","2188275","0.0-244.0","A1QC1K71RGKZBI","<p style=""font-size: 48px;"">+</p>","","","","","null","allTrialResponses","1000","1","28","img_art/7.jpg","14","desert sand","Claire,Morgan,Michelle,Taylor,Olivia,Katherine","reminds me of a cave wall,-21,260,20","Dead bugs on an insect battleground.,-10,380,20","Hmm interesting, looks like mars or something terrestrial. Too abstract for me and too much brown,4,280,20","It makes me think of new archaeology discoveries,15,340,20","looking down on earth,19,40,20","Reminds me of bugs, I hate bugs,-7,120,20","Morgan","Dead bugs on an insect battleground.,-10,380,20","Michelle","Hmm interesting, looks like mars or something terrestrial. Too abstract for me and too much brown,4,280,20","Olivia","looking down on earth,19,40,20","3"
"32598","","survey-text","248","2220898","0.0-245.0-0.0","A1QC1K71RGKZBI","","","","{""Q0"":""soliders planning an escape""}","","","","","","","","","","","","","","","","","","","","","","",""
"4347.399999976158","","image-slider-response","249","2225250","0.0-246.0","A1QC1K71RGKZBI","","","","","-31","","","","","","","","","","","","","","","","","","","","","",""
"null","","image-button-response","250","2230266","0.0-247.0","A1QC1K71RGKZBI","img_art/28.jpg","null","","","","","","","","","","","","","","","","","","","","","","","","",""
"8332","","image-button-response","251","2238604","0.0-248.0","A1QC1K71RGKZBI","img_art/28.jpg","2","","","","","","","","","","","","","","","","","","","","","","","","",""
"6091","","image-button-response","252","2244699","0.0-249.0-0.0","A1QC1K71RGKZBI","img_art/28.jpg","4","","","","","","","","","","","","","","","","","","","","","","","","",""
"4703","","image-button-response","253","2249410","0.0-250.0-0.0","A1QC1K71RGKZBI","img_art/28.jpg","5","","","","","","","","","","","","","","","","","","","","","","","","",""
"null","","html-keyboard-response","254","2250413","0.0-251.0","A1QC1K71RGKZBI","<p style=""font-size: 48px;"">+</p>","","","","","null","allTrialResponses","1000","1","29","img_art/28.jpg","-31","soliders planning an escape","Stephanie,Morgan,Michelle,Jennifer,Olivia,Kaitlin","The colors are neutral but I see a mother helping her child,31,300,20","Apartment throw up.,-5,380,20","This piece is depressing to me, reminds me of German paintings,-6,280,20","This picture doesn't really stand out to me,1,380,20","conversating means hope,15,40,20","i'm not too impressed with this one.,-10,60,20","Michelle","This piece is depressing to me, reminds me of German paintings,-6,280,20","Olivia","conversating means hope,15,40,20","Kaitlin","i'm not too impressed with this one.,-10,60,20","3"
"20465","","survey-text","255","2270910","0.0-252.0-0.0","A1QC1K71RGKZBI","","","","{""Q0"":""open sky with the ocean""}","","","","","","","","","","","","","","","","","","","","","","",""
"3618.699999988079","","image-slider-response","256","2274532","0.0-253.0","A1QC1K71RGKZBI","","","","","-13","","","","","","","","","","","","","","","","","","","","","",""
"null","","image-button-response","257","2279567","0.0-254.0","A1QC1K71RGKZBI","img_art/21.jpg","null","","","","","","","","","","","","","","","","","","","","","","","","",""
"5189","","image-button-response","258","2284759","0.0-255.0","A1QC1K71RGKZBI","img_art/21.jpg","1","","","","","","","","","","","","","","","","","","","","","","","","",""
"11306","","image-button-response","259","2296072","0.0-256.0-0.0","A1QC1K71RGKZBI","img_art/21.jpg","4","","","","","","","","","","","","","","","","","","","","","","","","",""
"4031","","image-button-response","260","2300109","0.0-257.0-0.0","A1QC1K71RGKZBI","img_art/21.jpg","5","","","","","","","","","","","","","","","","","","","","","","","","",""
"null","","html-keyboard-response","261","2301128","0.0-258.0","A1QC1K71RGKZBI","<p style=""font-size: 48px;"">+</p>","","","","","null","allTrialResponses","1000","1","30","img_art/21.jpg","-13","open sky with the ocean","Molly,Makayla,Michelle,Maria,Olivia,Kaitlin","Looks like a war. Many things happening on the painting, really enjoy it.,30,340,20","I like the two sides meeting, like a movie scene,15,80,20","The colors are very nice. I like the dots because they remind me of pearls,5,280,20","brings up imagery of the sea and clashing, though not in a negative way,31,120,20","feels like a wave coming into light,9,40,20","waterpaint is attractive,13,60,20","Makayla","I like the two sides meeting, like a movie scene,15,80,20","Olivia","feels like a wave coming into light,9,40,20","Kaitlin","waterpaint is attractive,13,60,20","3"
"12783","","image-button-response_instructions","262","2313938","0.0-259.0","A1QC1K71RGKZBI","","0","instructions","","","","","","","","","","","","","","","","","","","","","","","",""
"1602","","image-button-response","263","2315555","0.0-260.0","A1QC1K71RGKZBI","","0","","","","","","","","","","","","","","","","","","","","","","","","",""
