"rt","url","trial_type","trial_index","time_elapsed","internal_node_id","participant_id","stimulus","button_pressed","Name","responses","response","key_press","variableName","fixationTime","condition","trial","photo","subjectRating","subjectResponse","agentsNames","agent_1_Response","agent_2_Response","agent_3_Response","agent_4_Response","agent_5_Response","agent_6_Response","kept_1_name","kept_1_response","kept_2_name","kept_2_response","kept_3_name","kept_3_response","errorCounter"
"37022","external_page_harvard.html","external-html","0","37183","0.0-0.0","A1QIPM8NC37VAL","","","","","","","","","","","","","","","","","","","","","","","","","","",""
"3040","","image-button-response","1","40225","0.0-1.0","A1QIPM8NC37VAL","","0","","","","","","","","","","","","","","","","","","","","","","","","",""
"3360","","image-button-response","2","43593","0.0-2.0-0.0","A1QIPM8NC37VAL","","1","phone","","","","","","","","","","","","","","","","","","","","","","","",""
"33754","","survey-text","3","77350","0.0-3.0-0.0","A1QIPM8NC37VAL","","","","{""Q0"":""A1QIPM8NC37VAL""}","","","","","","","","","","","","","","","","","","","","","","",""
"15845","","image-button-response_instructions","4","93199","0.0-4.0","A1QIPM8NC37VAL","","0","instructions","","","","","","","","","","","","","","","","","","","","","","","",""
"34949","","image-button-response_instructions","5","128150","0.0-5.0","A1QIPM8NC37VAL","img_art/ins/popularity/ins1.png","0","instructions","","","","","","","","","","","","","","","","","","","","","","","",""
"662","","image-button-response_instructions","6","128815","0.0-6.0","A1QIPM8NC37VAL","img_art/ins/popularity/ins2.png","0","instructions","","","","","","","","","","","","","","","","","","","","","","","",""
"21742","","image-button-response_instructions","7","150559","0.0-7.0","A1QIPM8NC37VAL","img_art/ins/popularity/ins2Extreme.png","0","instructions","","","","","","","","","","","","","","","","","","","","","","","",""
"25499","","image-button-response_instructions","8","176060","0.0-8.0","A1QIPM8NC37VAL","img_art/ins/popularity/ins3KEEPpop.PNG","0","instructions","","","","","","","","","","","","","","","","","","","","","","","",""
"9899","","image-button-response_instructions","9","185963","0.0-9.0","A1QIPM8NC37VAL","img_art/ins/popularity/ins3ANamepop.PNG","0","instructions","","","","","","","","","","","","","","","","","","","","","","","",""
"8994","","image-button-response_instructions","10","194959","0.0-10.0","A1QIPM8NC37VAL","img_art/ins/popularity/ins3ARatingpop.png","0","instructions","","","","","","","","","","","","","","","","","","","","","","","",""
"4740","","image-button-response_instructions","11","199701","0.0-11.0","A1QIPM8NC37VAL","img_art/ins/popularity/ins3ATextpop.png","0","instructions","","","","","","","","","","","","","","","","","","","","","","","",""
"13066","","image-button-response_instructions","12","212769","0.0-12.0","A1QIPM8NC37VAL","img_art/ins/popularity/ins3ALikespop.png","0","instructions","","","","","","","","","","","","","","","","","","","","","","","",""
"26726","","image-button-response_instructions","13","239496","0.0-13.0","A1QIPM8NC37VAL","img_art/ins/popularity/ins3KEEPpop.PNG","0","instructions","","","","","","","","","","","","","","","","","","","","","","","",""
"10694","","image-button-response_instructions","14","250192","0.0-14.0","A1QIPM8NC37VAL","img_art/ins/popularity/ins3_5RED.png","0","instructions","","","","","","","","","","","","","","","","","","","","","","","",""
"7622","","image-button-response_instructions","15","257816","0.0-15.0","A1QIPM8NC37VAL","img_art/ins/popularity/ins3KEEPpop.PNG","0","instructions","","","","","","","","","","","","","","","","","","","","","","","",""
"10487","","image-button-response_instructions","16","268303","0.0-16.0","A1QIPM8NC37VAL","img_art/ins/popularity/ins4KEEPpop.PNG","0","instructions","","","","","","","","","","","","","","","","","","","","","","","",""
"8615","","image-button-response_instructions","17","276919","0.0-17.0","A1QIPM8NC37VAL","img_art/ins/popularity/ins5KEEPpop.PNG","0","instructions","","","","","","","","","","","","","","","","","","","","","","","",""
"2847","","image-button-response_instructions","18","279767","0.0-18.0","A1QIPM8NC37VAL","","0","instructions","","","","","","","","","","","","","","","","","","","","","","","",""
"10673","","survey-text","19","290471","0.0-19.0-0.0","A1QIPM8NC37VAL","","","","{""Q0"":""but""}","","","","","","","","","","","","","","","","","","","","","","",""
"58621","","survey-text","20","349095","0.0-20.0-0.0","A1QIPM8NC37VAL","","","","{""Q0"":""Not a fan of abstract painting but I really like this one""}","","","","","","","","","","","","","","","","","","","","","","",""
"8468","","image-slider-response","21","357567","0.0-21.0","A1QIPM8NC37VAL","","","","","50","","","","","","","","","","","","","","","","","","","","","",""
"null","","image-button-response","22","362572","0.0-22.0","A1QIPM8NC37VAL","img_art/ins/1.jpg","null","","","","","","","","","","","","","","","","","","","","","","","","",""
"13618","","image-button-response","23","376192","0.0-23.0","A1QIPM8NC37VAL","img_art/ins/1.jpg","5","","","","","","","","","","","","","","","","","","","","","","","","",""
"4197","","image-button-response","24","380392","0.0-24.0-0.0","A1QIPM8NC37VAL","img_art/ins/1.jpg","1","","","","","","","","","","","","","","","","","","","","","","","","",""
"7325","","image-button-response","25","387720","0.0-25.0-0.0","A1QIPM8NC37VAL","img_art/ins/1.jpg","3","","","","","","","","","","","","","","","","","","","","","","","","",""
"null","","html-keyboard-response","26","388723","0.0-26.0","A1QIPM8NC37VAL","<p style=""font-size: 48px;"">+</p>","","","","","null","allTrialResponses","1000","1","-2","img_art/ins/1.jpg","50","Not a fan of abstract painting but I really like this one","Adam,Alex,Ben,Carl,Daniel,Jack","Seems like doodles,-20,20,20","very creative work.,36,40,20","This color reminds me of poo,-46,60,20","very calming artwork,42,80,20","It looks like a murder scene.,-48,100,20","I like the sophisticated brushwork,40,120,20","Jack","I like the sophisticated brushwork,40,120,20","Alex","very creative work.,36,40,20","Carl","very calming artwork,42,80,20","0"
"52390","","survey-text","27","441119","0.0-27.0-0.0","A1QIPM8NC37VAL","","","","{""Q0"":""I see why people would like this but not for me""}","","","","","","","","","","","","","","","","","","","","","","",""
"11141.599999904633","","image-slider-response","28","452263","0.0-28.0","A1QIPM8NC37VAL","","","","","-1","","","","","","","","","","","","","","","","","","","","","",""
"null","","image-button-response","29","457267","0.0-29.0","A1QIPM8NC37VAL","img_art/ins/2.jpg","null","","","","","","","","","","","","","","","","","","","","","","","","",""
"602","","image-button-response","30","457871","0.0-30.0","A1QIPM8NC37VAL","img_art/ins/2.jpg","1","","","","","","","","","","","","","","","","","","","","","","","","",""
"8222","","image-button-response","31","466096","0.0-31.0-0.0","A1QIPM8NC37VAL","img_art/ins/2.jpg","4","","","","","","","","","","","","","","","","","","","","","","","","",""
"5324","","image-button-response","32","471423","0.0-32.0-0.0","A1QIPM8NC37VAL","img_art/ins/2.jpg","5","","","","","","","","","","","","","","","","","","","","","","","","",""
"null","","html-keyboard-response","33","472426","0.0-33.0","A1QIPM8NC37VAL","<p style=""font-size: 48px;"">+</p>","","","","","null","allTrialResponses","1000","1","-1","img_art/ins/2.jpg","-1","I see why people would like this but not for me","James,Alex,Kyle,Carl,John,Jack","looks too angry,-50,140,20","I like the blocks of color arrangements,30,40,20","Idk, it is just annoying,-32,180,20","I can feel the artist's passion in it,45,80,20","love the texture of paint,48,160,20","I would never be able to compose a sophisticated pallete like this,48,120,20","Alex","I like the blocks of color arrangements,30,40,20","John","love the texture of paint,48,160,20","Jack","I would never be able to compose a sophisticated pallete like this,48,120,20","0"
"41084","","survey-text","34","513518","0.0-34.0-0.0","A1QIPM8NC37VAL","","","","{""Q0"":""I really like the colors""}","","","","","","","","","","","","","","","","","","","","","","",""
"8069.400000095367","","image-slider-response","35","521590","0.0-35.0","A1QIPM8NC37VAL","","","","","40","","","","","","","","","","","","","","","","","","","","","",""
"null","","image-button-response","36","526592","0.0-36.0","A1QIPM8NC37VAL","img_art/ins/3.jpg","null","","","","","","","","","","","","","","","","","","","","","","","","",""
"675","","image-button-response","37","527270","0.0-37.0","A1QIPM8NC37VAL","img_art/ins/3.jpg","1","","","","","","","","","","","","","","","","","","","","","","","","",""
"6382","","image-button-response","38","533654","0.0-38.0-0.0","A1QIPM8NC37VAL","img_art/ins/3.jpg","3","","","","","","","","","","","","","","","","","","","","","","","","",""
"4317","","image-button-response","39","537974","0.0-39.0-0.0","A1QIPM8NC37VAL","img_art/ins/3.jpg","4","","","","","","","","","","","","","","","","","","","","","","","","",""
"null","","html-keyboard-response","40","539478","0.0-40.0","A1QIPM8NC37VAL","<p style=""font-size: 48px;"">+</p>","","","","","null","allTrialResponses","1500","1","0","img_art/ins/3.jpg","40","I really like the colors","Sam,Alex,Ron,Mike,John,Jack","I can feel a rainy day from this painting,18,240,20","calming blue is very nice,36,40,20","It looks depressing,-26,220,20","enjoy the different shades of blue,22,200,20","I like the overlapping of brushes,41,160,20","I feel connected to the artist,40,120,20","Alex","calming blue is very nice,36,40,20","Mike","enjoy the different shades of blue,22,200,20","John","I like the overlapping of brushes,41,160,20","0"
"12793","","image-button-response_instructions","41","552277","0.0-41.0","A1QIPM8NC37VAL","","0","instructions","","","","","","","","","","","","","","","","","","","","","","","",""
"19519","","survey-likert","42","571798","0.0-42.0-0.0","A1QIPM8NC37VAL","","","","{""Q0"":"""",""Q1"":0,""Q2"":1}","","","","","","","","","","","","","","","","","","","","","","",""
"9248","","survey-text","43","581053","0.0-43.0-0.0","A1QIPM8NC37VAL","","","","{""Q0"":""rock""}","","","","","","","","","","","","","","","","","","","","","","",""
"116105","","survey-text","44","697162","0.0-44.0-0.0","A1QIPM8NC37VAL","","","","{""Q0"":""It looks sad ""}","","","","","","","","","","","","","","","","","","","","","","",""
"13687.5","","image-slider-response","45","710852","0.0-45.0","A1QIPM8NC37VAL","","","","","-9","","","","","","","","","","","","","","","","","","","","","",""
"null","","image-button-response","46","715889","0.0-46.0","A1QIPM8NC37VAL","img_art/14.jpg","null","","","","","","","","","","","","","","","","","","","","","","","","",""
"241","","image-button-response","47","716132","0.0-47.0","A1QIPM8NC37VAL","img_art/14.jpg","0","","","","","","","","","","","","","","","","","","","","","","","","",""
"14301","","image-button-response","48","730436","0.0-48.0-0.0","A1QIPM8NC37VAL","img_art/14.jpg","4","","","","","","","","","","","","","","","","","","","","","","","","",""
"7477","","image-button-response","49","737916","0.0-49.0-0.0","A1QIPM8NC37VAL","img_art/14.jpg","1","","","","","","","","","","","","","","","","","","","","","","","","",""
"null","","html-keyboard-response","50","738419","0.0-50.0","A1QIPM8NC37VAL","<p style=""font-size: 48px;"">+</p>","","","","","null","allTrialResponses","500","1","1","img_art/14.jpg","-9","It looks sad ","Eric,Derek,Kevin,Connor,Ryan,Shane","I'm imagining a flower bouquet with pretty colors which I like.,35,100,20","Very abstract and colorful,40,360,20","The pirates ship is sinking.,27,320,20","Looks childish and basic,-42,240,20","Gorgeous use of water color,50,380,20","Feels like a camp fire among friends,22,80,20","Eric","I'm imagining a flower bouquet with pretty colors which I like.,35,100,20","Ryan","Gorgeous use of water color,50,380,20","Derek","Very abstract and colorful,40,360,20","0"
"30637","","survey-text","51","769068","0.0-51.0-0.0","A1QIPM8NC37VAL","","","","{""Q0"":""Its very angry""}","","","","","","","","","","","","","","","","","","","","","","",""
"6932.099999904633","","image-slider-response","52","776004","0.0-52.0","A1QIPM8NC37VAL","","","","","-21","","","","","","","","","","","","","","","","","","","","","",""
"null","","image-button-response","53","781008","0.0-53.0","A1QIPM8NC37VAL","img_art/26.jpg","null","","","","","","","","","","","","","","","","","","","","","","","","",""
"1410","","image-button-response","54","782420","0.0-54.0","A1QIPM8NC37VAL","img_art/26.jpg","0","","","","","","","","","","","","","","","","","","","","","","","","",""
"18813","","image-button-response","55","801237","0.0-55.0-0.0","A1QIPM8NC37VAL","img_art/26.jpg","5","","","","","","","","","","","","","","","","","","","","","","","","",""
"6348","","image-button-response","56","807588","0.0-56.0-0.0","A1QIPM8NC37VAL","img_art/26.jpg","2","","","","","","","","","","","","","","","","","","","","","","","","",""
"null","","html-keyboard-response","57","808091","0.0-57.0","A1QIPM8NC37VAL","<p style=""font-size: 48px;"">+</p>","","","","","null","allTrialResponses","500","1","2","img_art/26.jpg","-21","Its very angry","Eric,Derek,Brian,Scott,Ryan,Lucas","I wish there was more detail, but I really like this simple piece.,35,100,20","Looks messy and like it was painted by a small child,-48,360,20","I'm not really into landscapes unless I have a personal connection to them,-21,380,20","nothing really special, quite bland,1,20,20","Pleasant to look at,28,380,20","Nothing to say.,0,380,20","Eric","I wish there was more detail, but I really like this simple piece.,35,100,20","Lucas","Nothing to say.,0,380,20","Brian","I'm not really into landscapes unless I have a personal connection to them,-21,380,20","0"
"20274","","survey-text","58","828371","0.0-58.0-0.0","A1QIPM8NC37VAL","","","","{""Q0"":""Psychedelic""}","","","","","","","","","","","","","","","","","","","","","","",""
"7214","","image-slider-response","59","835587","0.0-59.0","A1QIPM8NC37VAL","","","","","50","","","","","","","","","","","","","","","","","","","","","",""
"null","","image-button-response","60","840590","0.0-60.0","A1QIPM8NC37VAL","img_art/11.jpg","null","","","","","","","","","","","","","","","","","","","","","","","","",""
"33899","","image-button-response","61","874491","0.0-61.0","A1QIPM8NC37VAL","img_art/11.jpg","2","","","","","","","","","","","","","","","","","","","","","","","","",""
"5709","","image-button-response","62","880203","0.0-62.0-0.0","A1QIPM8NC37VAL","img_art/11.jpg","3","","","","","","","","","","","","","","","","","","","","","","","","",""
"4413","","image-button-response","63","884620","0.0-63.0-0.0","A1QIPM8NC37VAL","img_art/11.jpg","5","","","","","","","","","","","","","","","","","","","","","","","","",""
"null","","html-keyboard-response","64","885623","0.0-64.0","A1QIPM8NC37VAL","<p style=""font-size: 48px;"">+</p>","","","","","null","allTrialResponses","1000","1","3","img_art/11.jpg","50","Psychedelic","Eric,Kyle,Brian,Alex,Christian,Lucas","I don't like the gloomy color, but it reminds me of a city which I like.,35,100,20","Reminds me of a city on a grey/rainy winter's day,25,340,20","this looks like a beautiful rainy day in a hellish urban mountain city,14,380,20","I think this is a city but I'm not sure, very abstract,18,100,20","to me, perfect reflection of the modern commute,32,140,20","Astounding, extraordinary.,25,380,20","Brian","this looks like a beautiful rainy day in a hellish urban mountain city,14,380,20","Alex","I think this is a city but I'm not sure, very abstract,18,100,20","Lucas","Astounding, extraordinary.,25,380,20","0"
"18294","","survey-text","65","903922","0.0-65.0-0.0","A1QIPM8NC37VAL","","","","{""Q0"":""I really like the colors""}","","","","","","","","","","","","","","","","","","","","","","",""
"11950.099999904633","","image-slider-response","66","915874","0.0-66.0","A1QIPM8NC37VAL","","","","","10","","","","","","","","","","","","","","","","","","","","","",""
"null","","image-button-response","67","920877","0.0-67.0","A1QIPM8NC37VAL","img_art/9.jpg","null","","","","","","","","","","","","","","","","","","","","","","","","",""
"9196","","image-button-response","68","930075","0.0-68.0","A1QIPM8NC37VAL","img_art/9.jpg","1","","","","","","","","","","","","","","","","","","","","","","","","",""
"2341","","image-button-response","69","932419","0.0-69.0-0.0","A1QIPM8NC37VAL","img_art/9.jpg","2","","","","","","","","","","","","","","","","","","","","","","","","",""
"12317","","image-button-response","70","944739","0.0-70.0-0.0","A1QIPM8NC37VAL","img_art/9.jpg","3","","","","","","","","","","","","","","","","","","","","","","","","",""
"null","","html-keyboard-response","71","945243","0.0-71.0","A1QIPM8NC37VAL","<p style=""font-size: 48px;"">+</p>","","","","","null","allTrialResponses","500","1","4","img_art/9.jpg","10","I really like the colors","Mason,David,Brian,Alex,Nathan,Lucas","Abstract titanic scene. It's nice though. I like how it makes me feel.,28,100,20","I like how design can be interpreted differently, I see a person sleeping or a mountainous region.,10,340,20","I don't like the framing of this one,-25,380,20","Alright, I can see a reclining lady, I'm just glad to be able to tell what's in the picture,5,100,20","Looks like a child's drawing,-40,200,20","I like the way the artist has painted his painting.,20,380,20","David","I like how design can be interpreted differently, I see a person sleeping or a mountainous region.,10,340,20","Brian","I don't like the framing of this one,-25,380,20","Alex","Alright, I can see a reclining lady, I'm just glad to be able to tell what's in the picture,5,100,20","0"
"588757","","survey-text","72","1534006","0.0-72.0-0.0","A1QIPM8NC37VAL","","","","{""Q0"":""I just dont get this""}","","","","","","","","","","","","","","","","","","","","","","",""
"4157.5","","image-slider-response","73","1538166","0.0-73.0","A1QIPM8NC37VAL","","","","","-15","","","","","","","","","","","","","","","","","","","","","",""
"null","","image-button-response","74","1543169","0.0-74.0","A1QIPM8NC37VAL","img_art/21.jpg","null","","","","","","","","","","","","","","","","","","","","","","","","",""
"1291","","image-button-response","75","1544462","0.0-75.0","A1QIPM8NC37VAL","img_art/21.jpg","0","","","","","","","","","","","","","","","","","","","","","","","","",""
"8181","","image-button-response","76","1552646","0.0-76.0-0.0","A1QIPM8NC37VAL","img_art/21.jpg","4","","","","","","","","","","","","","","","","","","","","","","","","",""
"9581","","image-button-response","77","1562230","0.0-77.0-0.0","A1QIPM8NC37VAL","img_art/21.jpg","1","","","","","","","","","","","","","","","","","","","","","","","","",""
"null","","html-keyboard-response","78","1563233","0.0-78.0","A1QIPM8NC37VAL","<p style=""font-size: 48px;"">+</p>","","","","","null","allTrialResponses","1000","1","5","img_art/21.jpg","-15","I just dont get this","Antonio,David,Brian,Alex,Justin,John","the colors are pretty but I did not feel any thing looking at it,33,220,20","I like how the piece has the possibility of depicting some type of story.,30,340,20","there's not enough fine detail in this one,-27,380,20","The colors are very nice. I like the dots because they remind me of pearls,5,100,20","Alright. I like the colors.,5,280,20","I like the colors that were used and the stark contrast between the two sides,25,120,20","Antonio","the colors are pretty but I did not feel any thing looking at it,33,220,20","Justin","Alright. I like the colors.,5,280,20","David","I like how the piece has the possibility of depicting some type of story.,30,340,20","0"
"7296","","survey-text","79","1570541","0.0-79.0-0.0","A1QIPM8NC37VAL","","","","{""Q0"":""sky""}","","","","","","","","","","","","","","","","","","","","","","",""
"52813","","survey-text","80","1623357","0.0-80.0-0.0","A1QIPM8NC37VAL","","","","{""Q0"":""A little Dali like""}","","","","","","","","","","","","","","","","","","","","","","",""
"13669.5","","image-slider-response","81","1637028","0.0-81.0","A1QIPM8NC37VAL","","","","","41","","","","","","","","","","","","","","","","","","","","","",""
"null","","image-button-response","82","1642033","0.0-82.0","A1QIPM8NC37VAL","img_art/20.jpg","null","","","","","","","","","","","","","","","","","","","","","","","","",""
"5010","","image-button-response","83","1647045","0.0-83.0","A1QIPM8NC37VAL","img_art/20.jpg","2","","","","","","","","","","","","","","","","","","","","","","","","",""
"4077","","image-button-response","84","1651126","0.0-84.0-0.0","A1QIPM8NC37VAL","img_art/20.jpg","3","","","","","","","","","","","","","","","","","","","","","","","","",""
"2683","","image-button-response","85","1653814","0.0-85.0-0.0","A1QIPM8NC37VAL","img_art/20.jpg","4","","","","","","","","","","","","","","","","","","","","","","","","",""
"null","","html-keyboard-response","86","1654316","0.0-86.0","A1QIPM8NC37VAL","<p style=""font-size: 48px;"">+</p>","","","","","null","allTrialResponses","500","1","6","img_art/20.jpg","41","A little Dali like","Antonio,David,Kenneth,Brandon,Justin,Jesus","Makes me feel weary,21,220,20","I like how the image is depicting a scene.,10,340,20","I want to like this more, but i wish it was more detailed. It's hard for me to see what it is.,5,300,20","I like the proportion of the car to the desert city, but too abstract for me,15,320,20","The colors and the scene depicted is interesting.,13,280,20","Shapes are fun to interpret,21,100,20","Kenneth","I want to like this more, but i wish it was more detailed. It's hard for me to see what it is.,5,300,20","Brandon","I like the proportion of the car to the desert city, but too abstract for me,15,320,20","Justin","The colors and the scene depicted is interesting.,13,280,20","0"
"40359","","survey-text","87","1694684","0.0-87.0-0.0","A1QIPM8NC37VAL","","","","{""Q0"":""It looks the man with really long fingernails, gross""}","","","","","","","","","","","","","","","","","","","","","","",""
"6565.5","","image-slider-response","88","1701252","0.0-88.0","A1QIPM8NC37VAL","","","","","-23","","","","","","","","","","","","","","","","","","","","","",""
"3350","","image-button-response","89","1706256","0.0-89.0","A1QIPM8NC37VAL","img_art/4.jpg","0","","","","","","","","","","","","","","","","","","","","","","","","",""
"1225","","image-button-response","90","1707485","0.0-90.0","A1QIPM8NC37VAL","img_art/4.jpg","1","","","","","","","","","","","","","","","","","","","","","","","","",""
"6798","","image-button-response","91","1714285","0.0-91.0-0.0","A1QIPM8NC37VAL","img_art/4.jpg","2","","","","","","","","","","","","","","","","","","","","","","","","",""
"11813","","image-button-response","92","1726101","0.0-92.0-0.0","A1QIPM8NC37VAL","img_art/4.jpg","0","","","","","","","","","","","","","","","","","","","","","","","","",""
"null","","html-keyboard-response","93","1727103","0.0-93.0","A1QIPM8NC37VAL","<p style=""font-size: 48px;"">+</p>","","","","","null","allTrialResponses","1000","1","7","img_art/4.jpg","-23","It looks the man with really long fingernails, gross","Thomas,Steven,Kenneth,Brandon,Justin,Christopher","This image doesn't invoke anything in me,-9,220,20","The colors remind me of mcdonalds,-33,160,20","The longer I stare at this the less I like it.,-19,300,20","Really don't like this. Kindergarten art, sorry.,-50,320,20","Rather boring design and colors.,-21,280,20","too many red/yellow shades, its impact without a reason,-27,160,20","Steven","The colors remind me of mcdonalds,-33,160,20","Kenneth","The longer I stare at this the less I like it.,-19,300,20","Thomas","This image doesn't invoke anything in me,-9,220,20","0"
"34364","","survey-text","94","1761476","0.0-94.0-0.0","A1QIPM8NC37VAL","","","","{""Q0"":""I love the red shades""}","","","","","","","","","","","","","","","","","","","","","","",""
"4789.700000286102","","image-slider-response","95","1766268","0.0-95.0","A1QIPM8NC37VAL","","","","","34","","","","","","","","","","","","","","","","","","","","","",""
"null","","image-button-response","96","1771272","0.0-96.0","A1QIPM8NC37VAL","img_art/3.jpg","null","","","","","","","","","","","","","","","","","","","","","","","","",""
"2362","","image-button-response","97","1773637","0.0-97.0","A1QIPM8NC37VAL","img_art/3.jpg","2","","","","","","","","","","","","","","","","","","","","","","","","",""
"3484","","image-button-response","98","1777125","0.0-98.0-0.0","A1QIPM8NC37VAL","img_art/3.jpg","4","","","","","","","","","","","","","","","","","","","","","","","","",""
"6278","","image-button-response","99","1783405","0.0-99.0-0.0","A1QIPM8NC37VAL","img_art/3.jpg","0","","","","","","","","","","","","","","","","","","","","","","","","",""
"null","","html-keyboard-response","100","1784408","0.0-100.0","A1QIPM8NC37VAL","<p style=""font-size: 48px;"">+</p>","","","","","null","allTrialResponses","1000","1","8","img_art/3.jpg","34","I love the red shades","Thomas,Steven,Kenneth,Adam,Dalton,Marcus","Too messy and structure-less,-10,220,20","i don't like this, just looks like scribbles,-50,160,20","Reminds me of blood.,-28,300,20","Reminds me of a hot mess,-10,40,20","Blood splatter and one black spot.,1,300,20","Like the colors and energy of this work.,10,60,20","Kenneth","Reminds me of blood.,-28,300,20","Dalton","Blood splatter and one black spot.,1,300,20","Thomas","Too messy and structure-less,-10,220,20","0"
"24821","","survey-text","101","1809235","0.0-101.0-0.0","A1QIPM8NC37VAL","","","","{""Q0"":""I like the trippy ones""}","","","","","","","","","","","","","","","","","","","","","","",""
"5589.300000190735","","image-slider-response","102","1814827","0.0-102.0","A1QIPM8NC37VAL","","","","","41","","","","","","","","","","","","","","","","","","","","","",""
"null","","image-button-response","103","1819830","0.0-103.0","A1QIPM8NC37VAL","img_art/13.jpg","null","","","","","","","","","","","","","","","","","","","","","","","","",""
"3108","","image-button-response","104","1822940","0.0-104.0","A1QIPM8NC37VAL","img_art/13.jpg","2","","","","","","","","","","","","","","","","","","","","","","","","",""
"3173","","image-button-response","105","1826116","0.0-105.0-0.0","A1QIPM8NC37VAL","img_art/13.jpg","4","","","","","","","","","","","","","","","","","","","","","","","","",""
"1396","","image-button-response","106","1827516","0.0-106.0-0.0","A1QIPM8NC37VAL","img_art/13.jpg","5","","","","","","","","","","","","","","","","","","","","","","","","",""
"null","","html-keyboard-response","107","1828517","0.0-107.0","A1QIPM8NC37VAL","<p style=""font-size: 48px;"">+</p>","","","","","null","allTrialResponses","1000","1","9","img_art/13.jpg","41","I like the trippy ones","Thomas,Alexis,Kenneth,Luke,Dalton,Corey","Nothing about this stands out to me,-10,220,20","It looks too common, is a bit boring,-41,140,20","I would hang this photo in my room.,21,300,20","the monochrome of blue with splatters makes me excited and happy,36,20,20","rain in blue black and white,1,300,20","i like the splatters and the colors,21,260,20","Kenneth","I would hang this photo in my room.,21,300,20","Dalton","rain in blue black and white,1,300,20","Corey","i like the splatters and the colors,21,260,20","0"
"18024","","survey-text","108","1846547","0.0-108.0-0.0","A1QIPM8NC37VAL","","","","{""Q0"":""very messy""}","","","","","","","","","","","","","","","","","","","","","","",""
"3717.699999809265","","image-slider-response","109","1850267","0.0-109.0","A1QIPM8NC37VAL","","","","","-29","","","","","","","","","","","","","","","","","","","","","",""
"2821","","image-button-response","110","1855269","0.0-110.0","A1QIPM8NC37VAL","img_art/2.jpg","1","","","","","","","","","","","","","","","","","","","","","","","","",""
"6139","","image-button-response","111","1861411","0.0-111.0","A1QIPM8NC37VAL","img_art/2.jpg","2","","","","","","","","","","","","","","","","","","","","","","","","",""
"8965","","image-button-response","112","1870379","0.0-112.0-0.0","A1QIPM8NC37VAL","img_art/2.jpg","3","","","","","","","","","","","","","","","","","","","","","","","","",""
"5229","","image-button-response","113","1875611","0.0-113.0-0.0","A1QIPM8NC37VAL","img_art/2.jpg","5","","","","","","","","","","","","","","","","","","","","","","","","",""
"null","","html-keyboard-response","114","1877113","0.0-114.0","A1QIPM8NC37VAL","<p style=""font-size: 48px;"">+</p>","","","","","null","allTrialResponses","1500","1","10","img_art/2.jpg","-29","very messy","Ian,Jake,Kenneth,Colton,Dalton,Corey","I don't really like this but at the same time it's cute. It looks like a little monster kid.,-9,260,20","These colors are ugly.,-40,360,20","I cant tell whats happening here and that shade of green is just not my thing.,-17,300,20","too blocky and don't like color combination,-32,220,20","i like the colors and again can make out my own picture,38,300,20","doesn't do anything for me,-7,260,20","Kenneth","I cant tell whats happening here and that shade of green is just not my thing.,-17,300,20","Colton","too blocky and don't like color combination,-32,220,20","Corey","doesn't do anything for me,-7,260,20","0"
"9587","","survey-text","115","1886714","0.0-115.0-0.0","A1QIPM8NC37VAL","","","","{""Q0"":""our""}","","","","","","","","","","","","","","","","","","","","","","",""
"12150","","survey-text","116","1898866","0.0-116.0-0.0","A1QIPM8NC37VAL","","","","{""Q0"":""very basic""}","","","","","","","","","","","","","","","","","","","","","","",""
"3293","","image-slider-response","117","1902163","0.0-117.0","A1QIPM8NC37VAL","","","","","-30","","","","","","","","","","","","","","","","","","","","","",""
"2918","","image-button-response","118","1907166","0.0-118.0","A1QIPM8NC37VAL","img_art/5.jpg","1","","","","","","","","","","","","","","","","","","","","","","","","",""
"1178","","image-button-response","119","1908346","0.0-119.0","A1QIPM8NC37VAL","img_art/5.jpg","0","","","","","","","","","","","","","","","","","","","","","","","","",""
"1726","","image-button-response","120","1910075","0.0-120.0-0.0","A1QIPM8NC37VAL","img_art/5.jpg","1","","","","","","","","","","","","","","","","","","","","","","","","",""
"6717","","image-button-response","121","1916795","0.0-121.0-0.0","A1QIPM8NC37VAL","img_art/5.jpg","2","","","","","","","","","","","","","","","","","","","","","","","","",""
"null","","html-keyboard-response","122","1918297","0.0-122.0","A1QIPM8NC37VAL","<p style=""font-size: 48px;"">+</p>","","","","","null","allTrialResponses","1500","1","11","img_art/5.jpg","-30","very basic","Jonathan,Malik,Kenneth,Colton,Stephen,Corey","I hate the shapes,-30,140,20","Not sure what I'm looking at,-16,40,20","It looks like daffy duck's leg with a random trail of pink.,-22,300,20","I like the strokes and colors used,20,220,20","Very little going on.,-4,140,20","simple. love the color scheme,27,260,20","Jonathan","I hate the shapes,-30,140,20","Malik","Not sure what I'm looking at,-16,40,20","Kenneth","It looks like daffy duck's leg with a random trail of pink.,-22,300,20","0"
"48995","","survey-text","123","1967298","0.0-123.0-0.0","A1QIPM8NC37VAL","","","","{""Q0"":""I love the scene and heads floating""}","","","","","","","","","","","","","","","","","","","","","","",""
"4101.900000095367","","image-slider-response","124","1971403","0.0-124.0","A1QIPM8NC37VAL","","","","","41","","","","","","","","","","","","","","","","","","","","","",""
"2325","","image-button-response","125","1976406","0.0-125.0","A1QIPM8NC37VAL","img_art/8.jpg","1","","","","","","","","","","","","","","","","","","","","","","","","",""
"554","","image-button-response","126","1976962","0.0-126.0","A1QIPM8NC37VAL","img_art/8.jpg","0","","","","","","","","","","","","","","","","","","","","","","","","",""
"877","","image-button-response","127","1977842","0.0-127.0-0.0","A1QIPM8NC37VAL","img_art/8.jpg","1","","","","","","","","","","","","","","","","","","","","","","","","",""
"4030","","image-button-response","128","1981875","0.0-128.0-0.0","A1QIPM8NC37VAL","img_art/8.jpg","3","","","","","","","","","","","","","","","","","","","","","","","","",""
"null","","html-keyboard-response","129","1982877","0.0-129.0","A1QIPM8NC37VAL","<p style=""font-size: 48px;"">+</p>","","","","","null","allTrialResponses","1000","1","12","img_art/8.jpg","41","I love the scene and heads floating","Jonathan,Malik,Kenneth,Austin,Mark,Dylan","It's very grand and ominous but I like it,25,140,20","Striking, but not my taste,20,40,20","Interesting, i really like the face and the moon. Realy detailed and you see something new with each look.,11,300,20","Very unique and different,31,240,20","The face makes me think its a statement of the almighty of big brother watching us. onfuCsion limits my enjoyment.,6,80,20","The colors are nice but the big face in the sky is creepy,-11,40,20","Jonathan","It's very grand and ominous but I like it,25,140,20","Malik","Striking, but not my taste,20,40,20","Austin","Very unique and different,31,240,20","0"
"29488","","survey-text","130","2012371","0.0-130.0-0.0","A1QIPM8NC37VAL","","","","{""Q0"":""Squares and a circle...bla""}","","","","","","","","","","","","","","","","","","","","","","",""
"6195.89999961853","","image-slider-response","131","2018570","0.0-131.0","A1QIPM8NC37VAL","","","","","-21","","","","","","","","","","","","","","","","","","","","","",""
"3341","","image-button-response","132","2023573","0.0-132.0","A1QIPM8NC37VAL","img_art/22.jpg","2","","","","","","","","","","","","","","","","","","","","","","","","",""
"8091","","image-button-response","133","2031666","0.0-133.0","A1QIPM8NC37VAL","img_art/22.jpg","2","","","","","","","","","","","","","","","","","","","","","","","","",""
"4405","","image-button-response","134","2036074","0.0-134.0-0.0","A1QIPM8NC37VAL","img_art/22.jpg","4","","","","","","","","","","","","","","","","","","","","","","","","",""
"1956","","image-button-response","135","2038034","0.0-135.0-0.0","A1QIPM8NC37VAL","img_art/22.jpg","5","","","","","","","","","","","","","","","","","","","","","","","","",""
"null","","html-keyboard-response","136","2038536","0.0-136.0","A1QIPM8NC37VAL","<p style=""font-size: 48px;"">+</p>","","","","","null","allTrialResponses","500","1","13","img_art/22.jpg","-21","Squares and a circle...bla","Jonathan,Malik,Nathaniel,Austin,Chase,Paul","The warm and color colors together in this way feels exciting,39,140,20","Beautiful forms, using color to define shape,14,40,20","Looks like a giant blob,-45,220,20","Great color palette,29,240,20","I feel like I've seen this one already.,-9,120,20","I really like the bright colors and sunset feel,31,300,20","Nathaniel","Looks like a giant blob,-45,220,20","Chase","I feel like I've seen this one already.,-9,120,20","Paul","I really like the bright colors and sunset feel,31,300,20","0"
"20266","","survey-text","137","2058808","0.0-137.0-0.0","A1QIPM8NC37VAL","","","","{""Q0"":""Very dark""}","","","","","","","","","","","","","","","","","","","","","","",""
"4933.700000286102","","image-slider-response","138","2063745","0.0-138.0","A1QIPM8NC37VAL","","","","","49","","","","","","","","","","","","","","","","","","","","","",""
"null","","image-button-response","139","2068748","0.0-139.0","A1QIPM8NC37VAL","img_art/16.jpg","null","","","","","","","","","","","","","","","","","","","","","","","","",""
"2875","","image-button-response","140","2071625","0.0-140.0","A1QIPM8NC37VAL","img_art/16.jpg","0","","","","","","","","","","","","","","","","","","","","","","","","",""
"2100","","image-button-response","141","2073729","0.0-141.0-0.0","A1QIPM8NC37VAL","img_art/16.jpg","1","","","","","","","","","","","","","","","","","","","","","","","","",""
"3685","","image-button-response","142","2077417","0.0-142.0-0.0","A1QIPM8NC37VAL","img_art/16.jpg","2","","","","","","","","","","","","","","","","","","","","","","","","",""
"null","","html-keyboard-response","143","2078920","0.0-143.0","A1QIPM8NC37VAL","<p style=""font-size: 48px;"">+</p>","","","","","null","allTrialResponses","1500","1","14","img_art/16.jpg","49","Very dark","Timothy,Jacob,Nathaniel,Peter,Chase,Paul","This feels like images of a painful childhood,-50,240,20","Cool but the bear creeps me out?,8,340,20","Creeps me out. Like..really creeps me out.,-48,220,20","It's a little unsettling,2,320,20","Seems very twisted and dark.,-35,120,20","Don't know if there's a meaning but I like how seemingly random objects were stuck together and called art,20,300,20","Timothy","This feels like images of a painful childhood,-50,240,20","Jacob","Cool but the bear creeps me out?,8,340,20","Nathaniel","Creeps me out. Like..really creeps me out.,-48,220,20","0"
"35282","","survey-text","144","2114208","0.0-144.0-0.0","A1QIPM8NC37VAL","","","","{""Q0"":""creepy with cool colors""}","","","","","","","","","","","","","","","","","","","","","","",""
"4245.5","","image-slider-response","145","2118456","0.0-145.0","A1QIPM8NC37VAL","","","","","50","","","","","","","","","","","","","","","","","","","","","",""
"null","","image-button-response","146","2123460","0.0-146.0","A1QIPM8NC37VAL","img_art/25.jpg","null","","","","","","","","","","","","","","","","","","","","","","","","",""
"4539","","image-button-response","147","2128001","0.0-147.0","A1QIPM8NC37VAL","img_art/25.jpg","0","","","","","","","","","","","","","","","","","","","","","","","","",""
"7086","","image-button-response","148","2135089","0.0-148.0-0.0","A1QIPM8NC37VAL","img_art/25.jpg","4","","","","","","","","","","","","","","","","","","","","","","","","",""
"4851","","image-button-response","149","2139945","0.0-149.0-0.0","A1QIPM8NC37VAL","img_art/25.jpg","5","","","","","","","","","","","","","","","","","","","","","","","","",""
"null","","html-keyboard-response","150","2141447","0.0-150.0","A1QIPM8NC37VAL","<p style=""font-size: 48px;"">+</p>","","","","","null","allTrialResponses","1500","1","15","img_art/25.jpg","50","creepy with cool colors","Timothy,Jacob,Nathaniel,Mitchell,Taylor,William","This makes me feel uneasy,-20,240,20","I really like how the lines form this piece.,8,340,20","I love the background color and it's creepy...but cool.,30,220,20","culture, tradition. Village people with an honored elder.,40,180,20","Wish I was that thin.,-5,200,20","makes me think of a scary movie,-20,380,20","Timothy","This makes me feel uneasy,-20,240,20","Taylor","Wish I was that thin.,-5,200,20","William","makes me think of a scary movie,-20,380,20","0"
"5929","","survey-text","151","2147392","0.0-151.0-0.0","A1QIPM8NC37VAL","","","","{""Q0"":""course""}","","","","","","","","","","","","","","","","","","","","","","",""
"25278","","survey-text","152","2172672","0.0-152.0-0.0","A1QIPM8NC37VAL","","","","{""Q0"":""cool colors, not for me""}","","","","","","","","","","","","","","","","","","","","","","",""
"2925.699999809265","","image-slider-response","153","2175601","0.0-153.0","A1QIPM8NC37VAL","","","","","-4","","","","","","","","","","","","","","","","","","","","","",""
"3446","","image-button-response","154","2180604","0.0-154.0","A1QIPM8NC37VAL","img_art/18.jpg","1","","","","","","","","","","","","","","","","","","","","","","","","",""
"931","","image-button-response","155","2181537","0.0-155.0","A1QIPM8NC37VAL","img_art/18.jpg","0","","","","","","","","","","","","","","","","","","","","","","","","",""
"653","","image-button-response","156","2182193","0.0-156.0-0.0","A1QIPM8NC37VAL","img_art/18.jpg","1","","","","","","","","","","","","","","","","","","","","","","","","",""
"5397","","image-button-response","157","2187593","0.0-157.0-0.0","A1QIPM8NC37VAL","img_art/18.jpg","4","","","","","","","","","","","","","","","","","","","","","","","","",""
"null","","html-keyboard-response","158","2188595","0.0-158.0","A1QIPM8NC37VAL","<p style=""font-size: 48px;"">+</p>","","","","","null","allTrialResponses","1000","1","16","img_art/18.jpg","-4","cool colors, not for me","Timothy,Victor,Zachary,Bryan,Taylor,William","This gives a very ominous feeling,-30,240,20","nice balance of color. The different sizes and types of strokes give a lot to look at,18,340,20","This one seems rather ghoulish to me.,-41,400,20","First saw sailing ship in bad weather but then saw woman in upper left - not sure what I'm seeing.,21,400,20","Bad guys are after the good guy.,-10,200,20","Makes me think of stormy oceans,20,380,20","Timothy","This gives a very ominous feeling,-30,240,20","Victor","nice balance of color. The different sizes and types of strokes give a lot to look at,18,340,20","Taylor","Bad guys are after the good guy.,-10,200,20","0"
"18743","","survey-text","159","2207344","0.0-159.0-0.0","A1QIPM8NC37VAL","","","","{""Q0"":""Very easy on the eyes""}","","","","","","","","","","","","","","","","","","","","","","",""
"6797.799999713898","","image-slider-response","160","2214144","0.0-160.0","A1QIPM8NC37VAL","","","","","8","","","","","","","","","","","","","","","","","","","","","",""
"null","","image-button-response","161","2219147","0.0-161.0","A1QIPM8NC37VAL","img_art/24.jpg","null","","","","","","","","","","","","","","","","","","","","","","","","",""
"1636","","image-button-response","162","2220785","0.0-162.0","A1QIPM8NC37VAL","img_art/24.jpg","2","","","","","","","","","","","","","","","","","","","","","","","","",""
"6590","","image-button-response","163","2227377","0.0-163.0-0.0","A1QIPM8NC37VAL","img_art/24.jpg","4","","","","","","","","","","","","","","","","","","","","","","","","",""
"2524","","image-button-response","164","2229905","0.0-164.0-0.0","A1QIPM8NC37VAL","img_art/24.jpg","5","","","","","","","","","","","","","","","","","","","","","","","","",""
"null","","html-keyboard-response","165","2230407","0.0-165.0","A1QIPM8NC37VAL","<p style=""font-size: 48px;"">+</p>","","","","","null","allTrialResponses","500","1","17","img_art/24.jpg","8","Very easy on the eyes","Timothy,Victor,Seth,Carlos,Taylor,Grant","Earthy wonderful, love everything about it,50,240,20","I don't even know. It's just kind of meh,1,340,20","This is stunning. I love how the brown, red and oranges are blended in together.,40,60,20","It is like a really bad impressionist painting.,-40,80,20","I actually like this one. You can tell what it is.,25,200,20","The colors look nice, but the painting bores me.,-20,200,20","Seth","This is stunning. I love how the brown, red and oranges are blended in together.,40,60,20","Taylor","I actually like this one. You can tell what it is.,25,200,20","Grant","The colors look nice, but the painting bores me.,-20,200,20","0"
"18232","","survey-text","166","2248648","0.0-166.0-0.0","A1QIPM8NC37VAL","","","","{""Q0"":""Does nothing to me""}","","","","","","","","","","","","","","","","","","","","","","",""
"2493.7000002861023","","image-slider-response","167","2251143","0.0-167.0","A1QIPM8NC37VAL","","","","","-4","","","","","","","","","","","","","","","","","","","","","",""
"3661","","image-button-response","168","2256147","0.0-168.0","A1QIPM8NC37VAL","img_art/1.jpg","3","","","","","","","","","","","","","","","","","","","","","","","","",""
"755","","image-button-response","169","2256904","0.0-169.0","A1QIPM8NC37VAL","img_art/1.jpg","4","","","","","","","","","","","","","","","","","","","","","","","","",""
"1125","","image-button-response","170","2258032","0.0-170.0-0.0","A1QIPM8NC37VAL","img_art/1.jpg","3","","","","","","","","","","","","","","","","","","","","","","","","",""
"3717","","image-button-response","171","2261752","0.0-171.0-0.0","A1QIPM8NC37VAL","img_art/1.jpg","0","","","","","","","","","","","","","","","","","","","","","","","","",""
"null","","html-keyboard-response","172","2262755","0.0-172.0","A1QIPM8NC37VAL","<p style=""font-size: 48px;"">+</p>","","","","","null","allTrialResponses","1000","1","18","img_art/1.jpg","-4","Does nothing to me","Cameron,Noah,Seth,Jesse,Taylor,Grant","It's okay, colors remind me of autumn.,10,60,20","the bright colours evoke the 90s, and not their best part,-10,260,20","Might be a person rowing their boat across the lake. Not sure if the background is trees or not.,12,60,20","Im not a fan of the bluriness,-18,80,20","Deja vu. Haven't I seen this one before? Not bad for those living in the backwoods.,10,200,20","The use of reds, blues, and yellows together reminds me of fire. Very interesting to look at.,40,200,20","Taylor","Deja vu. Haven't I seen this one before? Not bad for those living in the backwoods.,10,200,20","Jesse","Im not a fan of the bluriness,-18,80,20","Cameron","It's okay, colors remind me of autumn.,10,60,20","0"
"23453","","survey-text","173","2286216","0.0-173.0-0.0","A1QIPM8NC37VAL","","","","{""Q0"":""Dont like the bland colors""}","","","","","","","","","","","","","","","","","","","","","","",""
"7357.300000190735","","image-slider-response","174","2293575","0.0-174.0","A1QIPM8NC37VAL","","","","","-11","","","","","","","","","","","","","","","","","","","","","",""
"null","","image-button-response","175","2298578","0.0-175.0","A1QIPM8NC37VAL","img_art/28.jpg","null","","","","","","","","","","","","","","","","","","","","","","","","",""
"1595","","image-button-response","176","2300176","0.0-176.0","A1QIPM8NC37VAL","img_art/28.jpg","4","","","","","","","","","","","","","","","","","","","","","","","","",""
"3222","","image-button-response","177","2303399","0.0-177.0-0.0","A1QIPM8NC37VAL","img_art/28.jpg","0","","","","","","","","","","","","","","","","","","","","","","","","",""
"4398","","image-button-response","178","2307800","0.0-178.0-0.0","A1QIPM8NC37VAL","img_art/28.jpg","2","","","","","","","","","","","","","","","","","","","","","","","","",""
"null","","html-keyboard-response","179","2309302","0.0-179.0","A1QIPM8NC37VAL","<p style=""font-size: 48px;"">+</p>","","","","","null","allTrialResponses","1500","1","19","img_art/28.jpg","-11","Dont like the bland colors","Cameron,Miguel,Joshua,Jesse,Taylor,Gabriel","dislike the colors. it looks like a bike, but misshapen wheels like it was wrecked.,-10,60,20","Looks yucky and poor.,-33,160,20","The colors are drab and a little depressing.,-20,240,20","Just all blurs together for me. No substance.,-23,80,20","Bug meets bug in a dark alley.,-20,200,20","this one is rather disturbing,-22,160,20","Taylor","Bug meets bug in a dark alley.,-20,200,20","Cameron","dislike the colors. it looks like a bike, but misshapen wheels like it was wrecked.,-10,60,20","Joshua","The colors are drab and a little depressing.,-20,240,20","0"
"36193","","survey-text","180","2345503","0.0-180.0-0.0","A1QIPM8NC37VAL","","","","{""Q0"":""I like the colors and randomness""}","","","","","","","","","","","","","","","","","","","","","","",""
"4149.400000095367","","image-slider-response","181","2349655","0.0-181.0","A1QIPM8NC37VAL","","","","","14","","","","","","","","","","","","","","","","","","","","","",""
"4373","","image-button-response","182","2354658","0.0-182.0","A1QIPM8NC37VAL","img_art/7.jpg","0","","","","","","","","","","","","","","","","","","","","","","","","",""
"3186","","image-button-response","183","2357847","0.0-183.0","A1QIPM8NC37VAL","img_art/7.jpg","3","","","","","","","","","","","","","","","","","","","","","","","","",""
"1278","","image-button-response","184","2359127","0.0-184.0-0.0","A1QIPM8NC37VAL","img_art/7.jpg","0","","","","","","","","","","","","","","","","","","","","","","","","",""
"3894","","image-button-response","185","2363023","0.0-185.0-0.0","A1QIPM8NC37VAL","img_art/7.jpg","4","","","","","","","","","","","","","","","","","","","","","","","","",""
"null","","html-keyboard-response","186","2364525","0.0-186.0","A1QIPM8NC37VAL","<p style=""font-size: 48px;"">+</p>","","","","","null","allTrialResponses","1500","1","20","img_art/7.jpg","14","I like the colors and randomness","Cameron,Elijah,Joshua,Logan,Taylor,Tyler","tracks in dirt?,-15,60,20","Not highly impressed,-5,80,20","Looks almost like a photograph of nature.,11,240,20","mars also crunchy leaves maybe a beehive,32,360,20","Looks like a photo taken from the moon.,-6,200,20","Is this a painting, really? Very compelling if so, the texture work is incredible.,15,320,20","Logan","mars also crunchy leaves maybe a beehive,32,360,20","Cameron","tracks in dirt?,-15,60,20","Taylor","Looks like a photo taken from the moon.,-6,200,20","0"
"3202","","survey-text","187","2367742","0.0-187.0-0.0","A1QIPM8NC37VAL","","","","{""Q0"":""we""}","","","","","","","","","","","","","","","","","","","","","","",""
"31717","","survey-text","188","2399462","0.0-188.0-0.0","A1QIPM8NC37VAL","","","","{""Q0"":""I like the colors kind of graffiti""}","","","","","","","","","","","","","","","","","","","","","","",""
"3189.7999997138977","","image-slider-response","189","2402654","0.0-189.0","A1QIPM8NC37VAL","","","","","29","","","","","","","","","","","","","","","","","","","","","",""
"null","","image-button-response","190","2407658","0.0-190.0","A1QIPM8NC37VAL","img_art/29.jpg","null","","","","","","","","","","","","","","","","","","","","","","","","",""
"5443","","image-button-response","191","2413103","0.0-191.0","A1QIPM8NC37VAL","img_art/29.jpg","2","","","","","","","","","","","","","","","","","","","","","","","","",""
"4270","","image-button-response","192","2417375","0.0-192.0-0.0","A1QIPM8NC37VAL","img_art/29.jpg","5","","","","","","","","","","","","","","","","","","","","","","","","",""
"3925","","image-button-response","193","2421303","0.0-193.0-0.0","A1QIPM8NC37VAL","img_art/29.jpg","4","","","","","","","","","","","","","","","","","","","","","","","","",""
"null","","html-keyboard-response","194","2422806","0.0-194.0","A1QIPM8NC37VAL","<p style=""font-size: 48px;"">+</p>","","","","","null","allTrialResponses","1500","1","21","img_art/29.jpg","29","I like the colors kind of graffiti","Cameron,Angel,Luis,Logan,Taylor,Cole","Lines and light are clean but subject doesn't interest me,0,60,20","This piece feels gross. Makes me think of pollution/litter strewn across a dirty street.,-20,180,20","I love the representation of a mess,50,400,20","is this supposed to be edgy,-21,360,20","I would give up and give it a red X too.,-5,200,20","Looks like someone trying to make something they dont understand,-36,200,20","Luis","I love the representation of a mess,50,400,20","Cole","Looks like someone trying to make something they dont understand,-36,200,20","Taylor","I would give up and give it a red X too.,-5,200,20","0"
"12488","","survey-text","195","2435302","0.0-195.0-0.0","A1QIPM8NC37VAL","","","","{""Q0"":""Nothing here""}","","","","","","","","","","","","","","","","","","","","","","",""
"7533.599999904633","","image-slider-response","196","2442838","0.0-196.0","A1QIPM8NC37VAL","","","","","-39","","","","","","","","","","","","","","","","","","","","","",""
"null","","image-button-response","197","2447841","0.0-197.0","A1QIPM8NC37VAL","img_art/6.jpg","null","","","","","","","","","","","","","","","","","","","","","","","","",""
"12203","","image-button-response","198","2460046","0.0-198.0","A1QIPM8NC37VAL","img_art/6.jpg","3","","","","","","","","","","","","","","","","","","","","","","","","",""
"1157","","image-button-response","199","2461206","0.0-199.0-0.0","A1QIPM8NC37VAL","img_art/6.jpg","4","","","","","","","","","","","","","","","","","","","","","","","","",""
"2501","","image-button-response","200","2463711","0.0-200.0-0.0","A1QIPM8NC37VAL","img_art/6.jpg","5","","","","","","","","","","","","","","","","","","","","","","","","",""
"null","","html-keyboard-response","201","2464212","0.0-201.0","A1QIPM8NC37VAL","<p style=""font-size: 48px;"">+</p>","","","","","null","allTrialResponses","500","1","22","img_art/6.jpg","-39","Nothing here","Shawn,Caleb,Luis,Joseph,Taylor,Cole","Cute and evocative,11,100,20","Despite how simple it is, this piece has clear meaning.,34,40,20","I love the representation of death and life.,50,400,20","Little birdie in a desert. Seeking better frontiers.,13,220,20","A crow on one leg?,-10,200,20","Close up peach? Hate it,-16,200,20","Joseph","Little birdie in a desert. Seeking better frontiers.,13,220,20","Taylor","A crow on one leg?,-10,200,20","Cole","Close up peach? Hate it,-16,200,20","0"
"18874","","survey-text","202","2483094","0.0-202.0-0.0","A1QIPM8NC37VAL","","","","{""Q0"":""Its a mess""}","","","","","","","","","","","","","","","","","","","","","","",""
"4045.1000003814697","","image-slider-response","203","2487142","0.0-203.0","A1QIPM8NC37VAL","","","","","-41","","","","","","","","","","","","","","","","","","","","","",""
"4885","","image-button-response","204","2492145","0.0-204.0","A1QIPM8NC37VAL","img_art/19.jpg","2","","","","","","","","","","","","","","","","","","","","","","","","",""
"6978","","image-button-response","205","2499126","0.0-205.0","A1QIPM8NC37VAL","img_art/19.jpg","3","","","","","","","","","","","","","","","","","","","","","","","","",""
"957","","image-button-response","206","2500087","0.0-206.0-0.0","A1QIPM8NC37VAL","img_art/19.jpg","0","","","","","","","","","","","","","","","","","","","","","","","","",""
"21380","","image-button-response","207","2521470","0.0-207.0-0.0","A1QIPM8NC37VAL","img_art/19.jpg","4","","","","","","","","","","","","","","","","","","","","","","","","",""
"null","","html-keyboard-response","208","2521974","0.0-208.0","A1QIPM8NC37VAL","<p style=""font-size: 48px;"">+</p>","","","","","null","allTrialResponses","500","1","23","img_art/19.jpg","-41","Its a mess","Charles,Brendan,Jordan,Joseph,Taylor,Cole","The blue makes it look like it has depth,11,100,20","beautiful old town,37,340,20","I dont like the gray shadows, ruins it,-7,160,20","Too messy and busy. Too much going on there for me.,-12,220,20","Looks like a homeless man and this painting should be too.,-5,200,20","Its simple and the colors i like. It reminds me of chagall,34,200,20","Joseph","Too messy and busy. Too much going on there for me.,-12,220,20","Charles","The blue makes it look like it has depth,11,100,20","Taylor","Looks like a homeless man and this painting should be too.,-5,200,20","0"
"22976","","survey-text","209","2544958","0.0-209.0-0.0","A1QIPM8NC37VAL","","","","{""Q0"":""Is this a finger painting""}","","","","","","","","","","","","","","","","","","","","","","",""
"4852.300000190735","","image-slider-response","210","2549813","0.0-210.0","A1QIPM8NC37VAL","","","","","-47","","","","","","","","","","","","","","","","","","","","","",""
"2990","","image-button-response","211","2554817","0.0-211.0","A1QIPM8NC37VAL","img_art/27.jpg","0","","","","","","","","","","","","","","","","","","","","","","","","",""
"6753","","image-button-response","212","2561574","0.0-212.0","A1QIPM8NC37VAL","img_art/27.jpg","4","","","","","","","","","","","","","","","","","","","","","","","","",""
"1069","","image-button-response","213","2562645","0.0-213.0-0.0","A1QIPM8NC37VAL","img_art/27.jpg","0","","","","","","","","","","","","","","","","","","","","","","","","",""
"3029","","image-button-response","214","2565678","0.0-214.0-0.0","A1QIPM8NC37VAL","img_art/27.jpg","5","","","","","","","","","","","","","","","","","","","","","","","","",""
"null","","html-keyboard-response","215","2566180","0.0-215.0","A1QIPM8NC37VAL","<p style=""font-size: 48px;"">+</p>","","","","","null","allTrialResponses","500","1","24","img_art/27.jpg","-47","Is this a finger painting","Charles,Richard,James,Joseph,Taylor,Juan","Nothing stands out,-23,100,20","like the patterns and colors all but the orange blob on the right,32,340,20","This painting is very unique,21,380,20","Don't know what it is, but I do like it.,10,220,20","Looks like a child added his own interpretation with a black marker.,-5,200,20","Colors make me think of fall, but I don't like how the picture was done or the weird lines across the background,6,260,20","Taylor","Looks like a child added his own interpretation with a black marker.,-5,200,20","Charles","Nothing stands out,-23,100,20","Juan","Colors make me think of fall, but I don't like how the picture was done or the weird lines across the background,6,260,20","0"
"41136","","survey-text","216","2607325","0.0-216.0-0.0","A1QIPM8NC37VAL","","","","{""Q0"":""I love how this was put together""}","","","","","","","","","","","","","","","","","","","","","","",""
"4453.5","","image-slider-response","217","2611781","0.0-217.0","A1QIPM8NC37VAL","","","","","32","","","","","","","","","","","","","","","","","","","","","",""
"null","","image-button-response","218","2616785","0.0-218.0","A1QIPM8NC37VAL","img_art/23.jpg","null","","","","","","","","","","","","","","","","","","","","","","","","",""
"466","","image-button-response","219","2617253","0.0-219.0","A1QIPM8NC37VAL","img_art/23.jpg","0","","","","","","","","","","","","","","","","","","","","","","","","",""
"3526","","image-button-response","220","2620782","0.0-220.0-0.0","A1QIPM8NC37VAL","img_art/23.jpg","4","","","","","","","","","","","","","","","","","","","","","","","","",""
"1852","","image-button-response","221","2622637","0.0-221.0-0.0","A1QIPM8NC37VAL","img_art/23.jpg","3","","","","","","","","","","","","","","","","","","","","","","","","",""
"null","","html-keyboard-response","222","2623640","0.0-222.0","A1QIPM8NC37VAL","<p style=""font-size: 48px;"">+</p>","","","","","null","allTrialResponses","1000","1","25","img_art/23.jpg","32","I love how this was put together","Charles,Jeremy,Jared,Jose,Taylor,Juan","Look at all the dancers,26,100,20","Does not incite any emotional response,1,60,20","it makes me aggitated,-21,400,20","This one is awesome, kinda looks like a cake with sprinkles but in a different universe,50,200,20","SOME thought was put into this one.,5,200,20","This is ugly and weird.,-50,260,20","Charles","Look at all the dancers,26,100,20","Taylor","SOME thought was put into this one.,5,200,20","Jose","This one is awesome, kinda looks like a cake with sprinkles but in a different universe,50,200,20","0"
"6378","","survey-text","223","2630037","0.0-223.0-0.0","A1QIPM8NC37VAL","","","","{""Q0"":""table""}","","","","","","","","","","","","","","","","","","","","","","",""
"33109","","survey-text","224","2663148","0.0-224.0-0.0","A1QIPM8NC37VAL","","","","{""Q0"":""Would look great over  my white couch""}","","","","","","","","","","","","","","","","","","","","","","",""
"6189.5","","image-slider-response","225","2669340","0.0-225.0","A1QIPM8NC37VAL","","","","","23","","","","","","","","","","","","","","","","","","","","","",""
"3324","","image-button-response","226","2674344","0.0-226.0","A1QIPM8NC37VAL","img_art/17.jpg","1","","","","","","","","","","","","","","","","","","","","","","","","",""
"553","","image-button-response","227","2674900","0.0-227.0","A1QIPM8NC37VAL","img_art/17.jpg","2","","","","","","","","","","","","","","","","","","","","","","","","",""
"629","","image-button-response","228","2675533","0.0-228.0-0.0","A1QIPM8NC37VAL","img_art/17.jpg","1","","","","","","","","","","","","","","","","","","","","","","","","",""
"6764","","image-button-response","229","2682300","0.0-229.0-0.0","A1QIPM8NC37VAL","img_art/17.jpg","5","","","","","","","","","","","","","","","","","","","","","","","","",""
"null","","html-keyboard-response","230","2683805","0.0-230.0","A1QIPM8NC37VAL","<p style=""font-size: 48px;"">+</p>","","","","","null","allTrialResponses","1500","1","26","img_art/17.jpg","23","Would look great over  my white couch","Charles,Isaac,Alejandro,Jose,Taylor,Daniel","I like the trees, but the doors less so,19,100,20","The colors are soft.,32,280,20","Embodies beauty and complexity and in simplicity as well,50,80,20","Looks like a weird blurry heaven again! I dig,32,200,20","Somewhat should trim the tree branches at the shopping mall.,10,200,20","2 paintings in 1 with shared colors,5,320,20","Alejandro","Embodies beauty and complexity and in simplicity as well,50,80,20","Isaac","The colors are soft.,32,280,20","Daniel","2 paintings in 1 with shared colors,5,320,20","0"
"31902","","survey-text","231","2715716","0.0-231.0-0.0","A1QIPM8NC37VAL","","","","{""Q0"":""I love the black on soft blue""}","","","","","","","","","","","","","","","","","","","","","","",""
"5101.200000286102","","image-slider-response","232","2720820","0.0-232.0","A1QIPM8NC37VAL","","","","","47","","","","","","","","","","","","","","","","","","","","","",""
"3878","","image-button-response","233","2725823","0.0-233.0","A1QIPM8NC37VAL","img_art/10.jpg","1","","","","","","","","","","","","","","","","","","","","","","","","",""
"312192","","image-button-response","234","3038017","0.0-234.0","A1QIPM8NC37VAL","img_art/10.jpg","0","","","","","","","","","","","","","","","","","","","","","","","","",""
"821","","image-button-response","235","3038842","0.0-235.0-0.0","A1QIPM8NC37VAL","img_art/10.jpg","1","","","","","","","","","","","","","","","","","","","","","","","","",""
"4589","","image-button-response","236","3043434","0.0-236.0-0.0","A1QIPM8NC37VAL","img_art/10.jpg","3","","","","","","","","","","","","","","","","","","","","","","","","",""
"null","","html-keyboard-response","237","3044935","0.0-237.0","A1QIPM8NC37VAL","<p style=""font-size: 48px;"">+</p>","","","","","null","allTrialResponses","1500","1","27","img_art/10.jpg","47","I love the black on soft blue","Gregory,Isaac,Alejandro,Andrew,Jack,Daniel","Well done designs for being considered abstract,45,220,20","It looks intricate.,15,280,20","The contrast between the messy dots/dabs vs the straight affluent lines is unappealing,-20,80,20","Makes me think of the exhilaration of a roller coaster,31,160,20","this piece is okay. I wish it was more colorful, but it is certainly intriguing.,23,320,20","Music visualized with subtle color,17,320,20","Gregory","Well done designs for being considered abstract,45,220,20","Isaac","It looks intricate.,15,280,20","Andrew","Makes me think of the exhilaration of a roller coaster,31,160,20","0"
"8545","","survey-text","238","3053489","0.0-238.0-0.0","A1QIPM8NC37VAL","","","","{""Q0"":""I really like the colors""}","","","","","","","","","","","","","","","","","","","","","","",""
"3845.800000190735","","image-slider-response","239","3057337","0.0-239.0","A1QIPM8NC37VAL","","","","","8","","","","","","","","","","","","","","","","","","","","","",""
"2637","","image-button-response","240","3062340","0.0-240.0","A1QIPM8NC37VAL","img_art/30.jpg","0","","","","","","","","","","","","","","","","","","","","","","","","",""
"554","","image-button-response","241","3062897","0.0-241.0","A1QIPM8NC37VAL","img_art/30.jpg","0","","","","","","","","","","","","","","","","","","","","","","","","",""
"1077","","image-button-response","242","3063978","0.0-242.0-0.0","A1QIPM8NC37VAL","img_art/30.jpg","5","","","","","","","","","","","","","","","","","","","","","","","","",""
"1013","","image-button-response","243","3064994","0.0-243.0-0.0","A1QIPM8NC37VAL","img_art/30.jpg","4","","","","","","","","","","","","","","","","","","","","","","","","",""
"null","","html-keyboard-response","244","3065996","0.0-244.0","A1QIPM8NC37VAL","<p style=""font-size: 48px;"">+</p>","","","","","null","allTrialResponses","1000","1","28","img_art/30.jpg","8","I really like the colors","Gregory,Isaac,Matthew,Andrew,Sean,Jeffrey","Cool design and contrast of colors,30,220,20","It looks like it was painted in 5 minutes.,-32,280,20","Decent abstract art, ncie colors.,23,120,20","It's a really interesting piece,20,160,20","the colors look nice,19,40,20","calming and relaxing,14,40,20","Gregory","Cool design and contrast of colors,30,220,20","Jeffrey","calming and relaxing,14,40,20","Sean","the colors look nice,19,40,20","0"
"11284","","survey-text","245","3077288","0.0-245.0-0.0","A1QIPM8NC37VAL","","","","{""Q0"":""I like the dots""}","","","","","","","","","","","","","","","","","","","","","","",""
"3397.9000000953674","","image-slider-response","246","3080689","0.0-246.0","A1QIPM8NC37VAL","","","","","29","","","","","","","","","","","","","","","","","","","","","",""
"null","","image-button-response","247","3085692","0.0-247.0","A1QIPM8NC37VAL","img_art/15.jpg","null","","","","","","","","","","","","","","","","","","","","","","","","",""
"28571","","image-button-response","248","3114265","0.0-248.0","A1QIPM8NC37VAL","img_art/15.jpg","5","","","","","","","","","","","","","","","","","","","","","","","","",""
"1893","","image-button-response","249","3116161","0.0-249.0-0.0","A1QIPM8NC37VAL","img_art/15.jpg","3","","","","","","","","","","","","","","","","","","","","","","","","",""
"2317","","image-button-response","250","3118481","0.0-250.0-0.0","A1QIPM8NC37VAL","img_art/15.jpg","0","","","","","","","","","","","","","","","","","","","","","","","","",""
"null","","html-keyboard-response","251","3119983","0.0-251.0","A1QIPM8NC37VAL","<p style=""font-size: 48px;"">+</p>","","","","","null","allTrialResponses","1500","1","29","img_art/15.jpg","29","I like the dots","Gregory,Tanner,Brett,Edward,Sean,Jeffrey","Black and blue is my favorite color combination,35,220,20","darkness, hatred, fear,-29,180,20","I don't know how I feel about this,31,360,20","Reminds me of lilacs,26,60,20","my response to the picture is that I dont know what I am looking at,-25,40,20","dark and I can not see a meaning behind it,-31,40,20","Jeffrey","dark and I can not see a meaning behind it,-31,40,20","Edward","Reminds me of lilacs,26,60,20","Gregory","Black and blue is my favorite color combination,35,220,20","0"
"39831","","survey-text","252","3159824","0.0-252.0-0.0","A1QIPM8NC37VAL","","","","{""Q0"":""looke a puzzle put together radomly""}","","","","","","","","","","","","","","","","","","","","","","",""
"3597.800000190735","","image-slider-response","253","3163424","0.0-253.0","A1QIPM8NC37VAL","","","","","-26","","","","","","","","","","","","","","","","","","","","","",""
"null","","image-button-response","254","3168427","0.0-254.0","A1QIPM8NC37VAL","img_art/12.jpg","null","","","","","","","","","","","","","","","","","","","","","","","","",""
"22195","","image-button-response","255","3190625","0.0-255.0","A1QIPM8NC37VAL","img_art/12.jpg","4","","","","","","","","","","","","","","","","","","","","","","","","",""
"5476","","image-button-response","256","3196104","0.0-256.0-0.0","A1QIPM8NC37VAL","img_art/12.jpg","1","","","","","","","","","","","","","","","","","","","","","","","","",""
"5685","","image-button-response","257","3201792","0.0-257.0-0.0","A1QIPM8NC37VAL","img_art/12.jpg","3","","","","","","","","","","","","","","","","","","","","","","","","",""
"null","","html-keyboard-response","258","3202795","0.0-258.0","A1QIPM8NC37VAL","<p style=""font-size: 48px;"">+</p>","","","","","null","allTrialResponses","1000","1","30","img_art/12.jpg","-26","looke a puzzle put together radomly","Gregory,Dustin,Garrett,Edward,Michael,Jeffrey","Black and white contrast with color looks nice,15,220,20","Squares are rigid. I'm ambivalent.,1,20,20","This image doesn't have anything going on. The top half is really ugly, I kind of like the bottom a little.,-20,180,20","It looks like old lady upholstery,12,60,20","Not quite my style but there more of a pattern and it is interesting to look at.,15,140,20","good colours scheme; organised,17,40,20","Michael","Not quite my style but there more of a pattern and it is interesting to look at.,15,140,20","Dustin","Squares are rigid. I'm ambivalent.,1,20,20","Edward","It looks like old lady upholstery,12,60,20","0"
"4644","","image-button-response_instructions","259","3207448","0.0-259.0","A1QIPM8NC37VAL","","0","instructions","","","","","","","","","","","","","","","","","","","","","","","",""
"1769","","image-button-response","260","3209224","0.0-260.0","A1QIPM8NC37VAL","","0","","","","","","","","","","","","","","","","","","","","","","","","",""
