"rt","url","trial_type","trial_index","time_elapsed","internal_node_id","participant_id","stimulus","button_pressed","Name","responses","response","key_press","variableName","fixationTime","condition","trial","photo","subjectRating","subjectResponse","agentsNames","agent_1_Response","agent_2_Response","agent_3_Response","agent_4_Response","agent_5_Response","agent_6_Response","kept_1_name","kept_1_response","kept_2_name","kept_2_response","kept_3_name","kept_3_response","errorCounter"
"27658","external_page_harvard.html","external-html","0","27776","0.0-0.0","A1S26U10C10581","","","","","","","","","","","","","","","","","","","","","","","","","","",""
"2462","","image-button-response","1","30240","0.0-1.0","A1S26U10C10581","","1","","","","","","","","","","","","","","","","","","","","","","","","",""
"2737","","image-button-response","2","32984","0.0-2.0-0.0","A1S26U10C10581","","1","phone","","","","","","","","","","","","","","","","","","","","","","","",""
"6598","","survey-text","3","39584","0.0-3.0-0.0","A1S26U10C10581","","","","{""Q0"":""A1S26U10C10581""}","","","","","","","","","","","","","","","","","","","","","","",""
"4325","","image-button-response_instructions","4","43911","0.0-4.0","A1S26U10C10581","","0","instructions","","","","","","","","","","","","","","","","","","","","","","","",""
"8015","","image-button-response_instructions","5","51928","0.0-5.0","A1S26U10C10581","img_art/ins/popularity/ins1.png","0","instructions","","","","","","","","","","","","","","","","","","","","","","","",""
"4227","","image-button-response_instructions","6","56157","0.0-6.0","A1S26U10C10581","img_art/ins/popularity/ins2.png","0","instructions","","","","","","","","","","","","","","","","","","","","","","","",""
"4896","","image-button-response_instructions","7","61055","0.0-7.0","A1S26U10C10581","img_art/ins/popularity/ins2Extreme.png","0","instructions","","","","","","","","","","","","","","","","","","","","","","","",""
"20734","","image-button-response_instructions","8","81790","0.0-8.0","A1S26U10C10581","img_art/ins/popularity/ins3KEEPpop.PNG","0","instructions","","","","","","","","","","","","","","","","","","","","","","","",""
"3303","","image-button-response_instructions","9","85094","0.0-9.0","A1S26U10C10581","img_art/ins/popularity/ins3ANamepop.PNG","0","instructions","","","","","","","","","","","","","","","","","","","","","","","",""
"3221","","image-button-response_instructions","10","88316","0.0-10.0","A1S26U10C10581","img_art/ins/popularity/ins3ARatingpop.png","0","instructions","","","","","","","","","","","","","","","","","","","","","","","",""
"3221","","image-button-response_instructions","11","91538","0.0-11.0","A1S26U10C10581","img_art/ins/popularity/ins3ATextpop.png","0","instructions","","","","","","","","","","","","","","","","","","","","","","","",""
"5715","","image-button-response_instructions","12","97254","0.0-12.0","A1S26U10C10581","img_art/ins/popularity/ins3ALikespop.png","0","instructions","","","","","","","","","","","","","","","","","","","","","","","",""
"7703","","image-button-response_instructions","13","104959","0.0-13.0","A1S26U10C10581","img_art/ins/popularity/ins3KEEPpop.PNG","0","instructions","","","","","","","","","","","","","","","","","","","","","","","",""
"7063","","image-button-response_instructions","14","112023","0.0-14.0","A1S26U10C10581","img_art/ins/popularity/ins3_5RED.png","0","instructions","","","","","","","","","","","","","","","","","","","","","","","",""
"3882","","image-button-response_instructions","15","115907","0.0-15.0","A1S26U10C10581","img_art/ins/popularity/ins3KEEPpop.PNG","0","instructions","","","","","","","","","","","","","","","","","","","","","","","",""
"11140","","image-button-response_instructions","16","127048","0.0-16.0","A1S26U10C10581","img_art/ins/popularity/ins4KEEPpop.PNG","0","instructions","","","","","","","","","","","","","","","","","","","","","","","",""
"3948","","image-button-response_instructions","17","130998","0.0-17.0","A1S26U10C10581","img_art/ins/popularity/ins5KEEPpop.PNG","0","instructions","","","","","","","","","","","","","","","","","","","","","","","",""
"1397","","image-button-response_instructions","18","132397","0.0-18.0","A1S26U10C10581","","0","instructions","","","","","","","","","","","","","","","","","","","","","","","",""
"5591","","survey-text","19","138016","0.0-19.0-0.0","A1S26U10C10581","","","","{""Q0"":""but""}","","","","","","","","","","","","","","","","","","","","","","",""
"16701","","survey-text","20","154718","0.0-20.0-0.0","A1S26U10C10581","","","","{""Q0"":""I don't really like the brown in this art piece""}","","","","","","","","","","","","","","","","","","","","","","",""
"3612.300000011921","","image-slider-response","21","158333","0.0-21.0","A1S26U10C10581","","","","","-23","","","","","","","","","","","","","","","","","","","","","",""
"null","","image-button-response","22","163339","0.0-22.0","A1S26U10C10581","img_art/ins/1.jpg","null","","","","","","","","","","","","","","","","","","","","","","","","",""
"3799","","image-button-response","23","167141","0.0-23.0","A1S26U10C10581","img_art/ins/1.jpg","0","","","","","","","","","","","","","","","","","","","","","","","","",""
"3808","","image-button-response","24","170953","0.0-24.0-0.0","A1S26U10C10581","img_art/ins/1.jpg","4","","","","","","","","","","","","","","","","","","","","","","","","",""
"1175","","image-button-response","25","172131","0.0-25.0-0.0","A1S26U10C10581","img_art/ins/1.jpg","5","","","","","","","","","","","","","","","","","","","","","","","","",""
"null","","html-keyboard-response","26","173138","0.0-26.0","A1S26U10C10581","<p style=""font-size: 48px;"">+</p>","","","","","null","allTrialResponses","1000","1","-2","img_art/ins/1.jpg","-23","I don't really like the brown in this art piece","Allison,Ashley,Beth,Dora,Erika,Jen","looks like a lot of things going on in the mist,20,20,20","I just don't get why these type of art would be popular,-32,40,20","This color reminds me of poo,-46,60,20","looks like what my niece in 3rd grade did this afternoon,-50,80,20","I like the sophisticated brushwork,40,100,20","It reminds me of a candy land dream I had,36,120,20","Allison","looks like a lot of things going on in the mist,20,20,20","Erika","I like the sophisticated brushwork,40,100,20","Jen","It reminds me of a candy land dream I had,36,120,20","0"
"11856","","survey-text","27","185000","0.0-27.0-0.0","A1S26U10C10581","","","","{""Q0"":""I love the combination of colors and texures""}","","","","","","","","","","","","","","","","","","","","","","",""
"4496.800000011921","","image-slider-response","28","189499","0.0-28.0","A1S26U10C10581","","","","","35","","","","","","","","","","","","","","","","","","","","","",""
"null","","image-button-response","29","194505","0.0-29.0","A1S26U10C10581","img_art/ins/2.jpg","null","","","","","","","","","","","","","","","","","","","","","","","","",""
"4582","","image-button-response","30","199089","0.0-30.0","A1S26U10C10581","img_art/ins/2.jpg","1","","","","","","","","","","","","","","","","","","","","","","","","",""
"4644","","image-button-response","31","203736","0.0-31.0-0.0","A1S26U10C10581","img_art/ins/2.jpg","5","","","","","","","","","","","","","","","","","","","","","","","","",""
"2223","","image-button-response","32","205963","0.0-32.0-0.0","A1S26U10C10581","img_art/ins/2.jpg","4","","","","","","","","","","","","","","","","","","","","","","","","",""
"null","","html-keyboard-response","33","207464","0.0-33.0","A1S26U10C10581","<p style=""font-size: 48px;"">+</p>","","","","","null","allTrialResponses","1500","1","-1","img_art/ins/2.jpg","35","I love the combination of colors and texures","Allison,Kara,Katie,Jenna,Erika,Jen","I don't have strong feelings about this,10,20,20","I like the blocks of color arrangements,30,160,20","too much color!,-28,180,20","One of my pet peevs,-48,140,20","I would never be able to compose a sophisticated pallete like this,48,100,20","It reminds me of a fireplace,36,120,20","Kara","I like the blocks of color arrangements,30,160,20","Jen","It reminds me of a fireplace,36,120,20","Erika","I would never be able to compose a sophisticated pallete like this,48,100,20","0"
"20361","","survey-text","34","227829","0.0-34.0-0.0","A1S26U10C10581","","","","{""Q0"":""The sparse collection of strokes in the middle reminds me of ice""}","","","","","","","","","","","","","","","","","","","","","","",""
"4405.70000000298","","image-slider-response","35","232238","0.0-35.0","A1S26U10C10581","","","","","13","","","","","","","","","","","","","","","","","","","","","",""
"null","","image-button-response","36","237247","0.0-36.0","A1S26U10C10581","img_art/ins/3.jpg","null","","","","","","","","","","","","","","","","","","","","","","","","",""
"2089","","image-button-response","37","239338","0.0-37.0","A1S26U10C10581","img_art/ins/3.jpg","5","","","","","","","","","","","","","","","","","","","","","","","","",""
"3349","","image-button-response","38","242689","0.0-38.0-0.0","A1S26U10C10581","img_art/ins/3.jpg","0","","","","","","","","","","","","","","","","","","","","","","","","",""
"4513","","image-button-response","39","247205","0.0-39.0-0.0","A1S26U10C10581","img_art/ins/3.jpg","1","","","","","","","","","","","","","","","","","","","","","","","","",""
"null","","html-keyboard-response","40","248210","0.0-40.0","A1S26U10C10581","<p style=""font-size: 48px;"">+</p>","","","","","null","allTrialResponses","1000","1","0","img_art/ins/3.jpg","13","The sparse collection of strokes in the middle reminds me of ice","Mary,Kara,Rose,Leslie,Erika,Jen","I like the overlapping of brushes,41,220,20","calming blue is very nice,36,160,20","My daily routine, it's depressing,-20,240,20","It's an alright work,15,200,20","I feel connected to the artist,40,100,20","I can feel a rainy day from this painting,18,120,20","Jen","I can feel a rainy day from this painting,18,120,20","Mary","I like the overlapping of brushes,41,220,20","Kara","calming blue is very nice,36,160,20","0"
"4747","","image-button-response_instructions","41","252962","0.0-41.0","A1S26U10C10581","","0","instructions","","","","","","","","","","","","","","","","","","","","","","","",""
"8978","","survey-likert","42","261942","0.0-42.0-0.0","A1S26U10C10581","","","","{""Q0"":"""",""Q1"":0,""Q2"":1}","","","","","","","","","","","","","","","","","","","","","","",""
"3065","","survey-text","43","265017","0.0-43.0-0.0","A1S26U10C10581","","","","{""Q0"":""rock""}","","","","","","","","","","","","","","","","","","","","","","",""
"12318","","survey-text","44","277338","0.0-44.0-0.0","A1S26U10C10581","","","","{""Q0"":""The water looks kind of fuzzy.""}","","","","","","","","","","","","","","","","","","","","","","",""
"3294.2999999970198","","image-slider-response","45","280635","0.0-45.0","A1S26U10C10581","","","","","-12","","","","","","","","","","","","","","","","","","","","","",""
"null","","image-button-response","46","285659","0.0-46.0","A1S26U10C10581","img_art/24.jpg","null","","","","","","","","","","","","","","","","","","","","","","","","",""
"6127","","image-button-response","47","291789","0.0-47.0","A1S26U10C10581","img_art/24.jpg","4","","","","","","","","","","","","","","","","","","","","","","","","",""
"2361","","image-button-response","48","294152","0.0-48.0-0.0","A1S26U10C10581","img_art/24.jpg","0","","","","","","","","","","","","","","","","","","","","","","","","",""
"3803","","image-button-response","49","297958","0.0-49.0-0.0","A1S26U10C10581","img_art/24.jpg","5","","","","","","","","","","","","","","","","","","","","","","","","",""
"null","","html-keyboard-response","50","298461","0.0-50.0","A1S26U10C10581","<p style=""font-size: 48px;"">+</p>","","","","","null","allTrialResponses","500","1","1","img_art/24.jpg","-12","The water looks kind of fuzzy.","Madison,Ashley,Mackenzie,Shannon,Amy,Stephanie","Exceedingly garish,-19,60,20","NOt quite Bob Ross, but still good.,30,320,20","I like the vivid colors and different textures,32,20,20","I like the way the colors are put together, and I can imagine this picture in real life.,40,220,20","The contorted angles of the flowing water upset the harmony,-20,220,20","A beautiful waterfall in the springtime.,40,300,20","Amy","The contorted angles of the flowing water upset the harmony,-20,220,20","Madison","Exceedingly garish,-19,60,20","Stephanie","A beautiful waterfall in the springtime.,40,300,20","0"
"12713","","survey-text","51","311180","0.0-51.0-0.0","A1S26U10C10581","","","","{""Q0"":""This looks like a pile of trash.""}","","","","","","","","","","","","","","","","","","","","","","",""
"2925.7999999970198","","image-slider-response","52","314108","0.0-52.0","A1S26U10C10581","","","","","-41","","","","","","","","","","","","","","","","","","","","","",""
"null","","image-button-response","53","319113","0.0-53.0","A1S26U10C10581","img_art/29.jpg","null","","","","","","","","","","","","","","","","","","","","","","","","",""
"2874","","image-button-response","54","321988","0.0-54.0","A1S26U10C10581","img_art/29.jpg","1","","","","","","","","","","","","","","","","","","","","","","","","",""
"6693","","image-button-response","55","328684","0.0-55.0-0.0","A1S26U10C10581","img_art/29.jpg","4","","","","","","","","","","","","","","","","","","","","","","","","",""
"6369","","image-button-response","56","335056","0.0-56.0-0.0","A1S26U10C10581","img_art/29.jpg","5","","","","","","","","","","","","","","","","","","","","","","","","",""
"null","","html-keyboard-response","57","335559","0.0-57.0","A1S26U10C10581","<p style=""font-size: 48px;"">+</p>","","","","","null","allTrialResponses","500","1","2","img_art/29.jpg","-41","This looks like a pile of trash.","Madison,Diana,Maria,Courtney,Amy,Stephanie","Well if the artist themself is crossing it out, why should I pay any mind?,-30,60,20","I rated it lower because it looked like a crime scene. It didn't make me feel good.,-44,380,20","the mixed medium / collage annoys me,-19,120,20","Thats a pretty wierd picture.,6,280,20","The textures bring this painting alive. A window to another existence with infinite possibility.,25,220,20","Looks like a murder,-50,300,20","Diana","I rated it lower because it looked like a crime scene. It didn't make me feel good.,-44,380,20","Amy","The textures bring this painting alive. A window to another existence with infinite possibility.,25,220,20","Stephanie","Looks like a murder,-50,300,20","0"
"12785","","survey-text","58","348349","0.0-58.0-0.0","A1S26U10C10581","","","","{""Q0"":""The blending of all the colors into browns is ugly to me.""}","","","","","","","","","","","","","","","","","","","","","","",""
"3549.2999999970198","","image-slider-response","59","351901","0.0-59.0","A1S26U10C10581","","","","","-46","","","","","","","","","","","","","","","","","","","","","",""
"null","","image-button-response","60","356904","0.0-60.0","A1S26U10C10581","img_art/30.jpg","null","","","","","","","","","","","","","","","","","","","","","","","","",""
"2228","","image-button-response","61","359135","0.0-61.0","A1S26U10C10581","img_art/30.jpg","4","","","","","","","","","","","","","","","","","","","","","","","","",""
"1000","","image-button-response","62","360137","0.0-62.0-0.0","A1S26U10C10581","img_art/30.jpg","3","","","","","","","","","","","","","","","","","","","","","","","","",""
"4348","","image-button-response","63","364488","0.0-63.0-0.0","A1S26U10C10581","img_art/30.jpg","1","","","","","","","","","","","","","","","","","","","","","","","","",""
"null","","html-keyboard-response","64","364990","0.0-64.0","A1S26U10C10581","<p style=""font-size: 48px;"">+</p>","","","","","null","allTrialResponses","500","1","3","img_art/30.jpg","-46","The blending of all the colors into browns is ugly to me.","Breanna,Diana,Autumn,Mariah,Amy,Stephanie","Paint scribbled on canvas,-25,380,20","I love the color contrast of the red against the blue.,9,380,20","Absolutely messy,-31,340,20","It just feels hasty and not well composed. Has an angsty teen feel,-31,140,20","Too much abstraction for me, leaving my focus mainly on color. I like the texture.,-20,220,20","My kindergarten class could do this,-50,300,20","Amy","Too much abstraction for me, leaving my focus mainly on color. I like the texture.,-20,220,20","Mariah","It just feels hasty and not well composed. Has an angsty teen feel,-31,140,20","Diana","I love the color contrast of the red against the blue.,9,380,20","0"
"13406","","survey-text","65","378402","0.0-65.0-0.0","A1S26U10C10581","","","","{""Q0"":""I just don't like the mixture of everything.""}","","","","","","","","","","","","","","","","","","","","","","",""
"3872","","image-slider-response","66","382276","0.0-66.0","A1S26U10C10581","","","","","-39","","","","","","","","","","","","","","","","","","","","","",""
"null","","image-button-response","67","387283","0.0-67.0","A1S26U10C10581","img_art/16.jpg","null","","","","","","","","","","","","","","","","","","","","","","","","",""
"3437","","image-button-response","68","390722","0.0-68.0","A1S26U10C10581","img_art/16.jpg","3","","","","","","","","","","","","","","","","","","","","","","","","",""
"5734","","image-button-response","69","396460","0.0-69.0-0.0","A1S26U10C10581","img_art/16.jpg","5","","","","","","","","","","","","","","","","","","","","","","","","",""
"6340","","image-button-response","70","402803","0.0-70.0-0.0","A1S26U10C10581","img_art/16.jpg","1","","","","","","","","","","","","","","","","","","","","","","","","",""
"null","","html-keyboard-response","71","403305","0.0-71.0","A1S26U10C10581","<p style=""font-size: 48px;"">+</p>","","","","","null","allTrialResponses","500","1","4","img_art/16.jpg","-39","I just don't like the mixture of everything.","Alexis,Diana,Gabrielle,Mariah,Amy,Leah","Don't like this technique. Too serial killer.,-50,100,20","This one isn't for me. It came off as strange but not in a good way.,-44,380,20","nonsense art, not really art,-44,160,20","Why is that bear there? It looks like it would be gross to touch. The texture bothers me.,-20,140,20","visceral and a little disturbing.,10,220,20","Know it is a piece relating to children and gun violence. Sad,-30,360,20","Mariah","Why is that bear there? It looks like it would be gross to touch. The texture bothers me.,-20,140,20","Leah","Know it is a piece relating to children and gun violence. Sad,-30,360,20","Diana","This one isn't for me. It came off as strange but not in a good way.,-44,380,20","0"
"10132","","survey-text","72","413442","0.0-72.0-0.0","A1S26U10C10581","","","","{""Q0"":""The white in the middle looks like teeth.""}","","","","","","","","","","","","","","","","","","","","","","",""
"3711.199999988079","","image-slider-response","73","417155","0.0-73.0","A1S26U10C10581","","","","","-12","","","","","","","","","","","","","","","","","","","","","",""
"null","","image-button-response","74","422160","0.0-74.0","A1S26U10C10581","img_art/23.jpg","null","","","","","","","","","","","","","","","","","","","","","","","","",""
"2408","","image-button-response","75","424572","0.0-75.0","A1S26U10C10581","img_art/23.jpg","4","","","","","","","","","","","","","","","","","","","","","","","","",""
"5734","","image-button-response","76","430308","0.0-76.0-0.0","A1S26U10C10581","img_art/23.jpg","1","","","","","","","","","","","","","","","","","","","","","","","","",""
"1401","","image-button-response","77","431712","0.0-77.0-0.0","A1S26U10C10581","img_art/23.jpg","5","","","","","","","","","","","","","","","","","","","","","","","","",""
"null","","html-keyboard-response","78","432717","0.0-78.0","A1S26U10C10581","<p style=""font-size: 48px;"">+</p>","","","","","null","allTrialResponses","1000","1","5","img_art/23.jpg","-12","The white in the middle looks like teeth.","Chloe,Diana,Victoria,Mariah,Jennifer,Leah","Poster shop camp.,-40,220,20","I thought this art was exciting and it reminded me of dancing people.,12,380,20","enjoy the colors,23,400,20","It feels active and vibrant.,20,140,20","The cluster of white silhouettes against the colorful background makes me feel uneasy for some reason,-36,380,20","Interesting, want to look at it more to identify,25,360,20","Jennifer","The cluster of white silhouettes against the colorful background makes me feel uneasy for some reason,-36,380,20","Diana","I thought this art was exciting and it reminded me of dancing people.,12,380,20","Leah","Interesting, want to look at it more to identify,25,360,20","0"
"2649","","survey-text","79","435375","0.0-79.0-0.0","A1S26U10C10581","","","","{""Q0"":""sky""}","","","","","","","","","","","","","","","","","","","","","","",""
"10129","","survey-text","80","445506","0.0-80.0-0.0","A1S26U10C10581","","","","{""Q0"":""I don't like the combination of colors.""}","","","","","","","","","","","","","","","","","","","","","","",""
"3187","","image-slider-response","81","448694","0.0-81.0","A1S26U10C10581","","","","","-27","","","","","","","","","","","","","","","","","","","","","",""
"null","","image-button-response","82","453699","0.0-82.0","A1S26U10C10581","img_art/1.jpg","null","","","","","","","","","","","","","","","","","","","","","","","","",""
"7678","","image-button-response","83","461379","0.0-83.0","A1S26U10C10581","img_art/1.jpg","0","","","","","","","","","","","","","","","","","","","","","","","","",""
"13160","","image-button-response","84","474543","0.0-84.0-0.0","A1S26U10C10581","img_art/1.jpg","1","","","","","","","","","","","","","","","","","","","","","","","","",""
"5799","","image-button-response","85","480345","0.0-85.0-0.0","A1S26U10C10581","img_art/1.jpg","5","","","","","","","","","","","","","","","","","","","","","","","","",""
"null","","html-keyboard-response","86","481351","0.0-86.0","A1S26U10C10581","<p style=""font-size: 48px;"">+</p>","","","","","null","allTrialResponses","1000","1","6","img_art/1.jpg","-27","I don't like the combination of colors.","Katherine,Diana,Briana,Heather,Jennifer,Leah","Blurry but that's how emotions are a lot of the time.,27,120,20","Might be a person rowing their boat across the lake. Not sure if the background is trees or not.,12,380,20","I like the colors. But it doesnt look like anything,27,400,20","the colors are vibrant and beautiful,1,260,20","Bright and colorful without being overpowering,32,380,20","Pretty intermeshing of colors, happy,32,360,20","Katherine","Blurry but that's how emotions are a lot of the time.,27,120,20","Diana","Might be a person rowing their boat across the lake. Not sure if the background is trees or not.,12,380,20","Leah","Pretty intermeshing of colors, happy,32,360,20","0"
"12774","","survey-text","87","494130","0.0-87.0-0.0","A1S26U10C10581","","","","{""Q0"":""For some reason this looks like flowers to me.""}","","","","","","","","","","","","","","","","","","","","","","",""
"4301","","image-slider-response","88","498434","0.0-88.0","A1S26U10C10581","","","","","11","","","","","","","","","","","","","","","","","","","","","",""
"null","","image-button-response","89","503438","0.0-89.0","A1S26U10C10581","img_art/27.jpg","null","","","","","","","","","","","","","","","","","","","","","","","","",""
"1188","","image-button-response","90","504630","0.0-90.0","A1S26U10C10581","img_art/27.jpg","1","","","","","","","","","","","","","","","","","","","","","","","","",""
"6228","","image-button-response","91","510860","0.0-91.0-0.0","A1S26U10C10581","img_art/27.jpg","2","","","","","","","","","","","","","","","","","","","","","","","","",""
"2691","","image-button-response","92","513554","0.0-92.0-0.0","A1S26U10C10581","img_art/27.jpg","0","","","","","","","","","","","","","","","","","","","","","","","","",""
"null","","html-keyboard-response","93","514056","0.0-93.0","A1S26U10C10581","<p style=""font-size: 48px;"">+</p>","","","","","null","allTrialResponses","500","1","7","img_art/27.jpg","11","For some reason this looks like flowers to me.","Katherine,Diana,Michelle,Bailey,Alyssa,Leah","it's like a weird version of heaven,16,120,20","I don't care for the green scribbles; not sure what they are. But I adore the colors in the background.,24,380,20","very abstract, I don't understand it, but I like the bright, cheerful colors,14,280,20","Looks like a splash of different colors and designs without purpose,-44,360,20","Looks as if a toddler painted it,-20,160,20","An attractive assortment of squiggles and colors,22,360,20","Diana","I don't care for the green scribbles; not sure what they are. But I adore the colors in the background.,24,380,20","Michelle","very abstract, I don't understand it, but I like the bright, cheerful colors,14,280,20","Katherine","it's like a weird version of heaven,16,120,20","0"
"12674","","survey-text","94","526736","0.0-94.0-0.0","A1S26U10C10581","","","","{""Q0"":""I don't like how scribbly it is.""}","","","","","","","","","","","","","","","","","","","","","","",""
"2314.699999988079","","image-slider-response","95","529053","0.0-95.0","A1S26U10C10581","","","","","-19","","","","","","","","","","","","","","","","","","","","","",""
"null","","image-button-response","96","534060","0.0-96.0","A1S26U10C10581","img_art/9.jpg","null","","","","","","","","","","","","","","","","","","","","","","","","",""
"7676","","image-button-response","97","541740","0.0-97.0","A1S26U10C10581","img_art/9.jpg","4","","","","","","","","","","","","","","","","","","","","","","","","",""
"3427","","image-button-response","98","545171","0.0-98.0-0.0","A1S26U10C10581","img_art/9.jpg","5","","","","","","","","","","","","","","","","","","","","","","","","",""
"7221","","image-button-response","99","552395","0.0-99.0-0.0","A1S26U10C10581","img_art/9.jpg","1","","","","","","","","","","","","","","","","","","","","","","","","",""
"null","","html-keyboard-response","100","553899","0.0-100.0","A1S26U10C10581","<p style=""font-size: 48px;"">+</p>","","","","","null","allTrialResponses","1500","1","8","img_art/9.jpg","-19","I don't like how scribbly it is.","Katherine,Diana,Michelle,Kimberly,Katie,Lauren","Idk what is in the middle but the blurry image makes it seem like the subject is of the painters interest,22,120,20","I think it's sleeping beauty but I'm not sure. I didn't care for this piece.,-30,380,20","Alright, I can see a reclining lady, I'm just glad to be able to tell what's in the picture,5,280,20","It's too all over the place,-37,260,20","I like the blues and pinks. The woman lying down communicates relaxation. It is a serene, calming scene,30,160,20","I like how design can be interpreted differently, I see a person sleeping or a mountainous region.,10,340,20","Katie","I like the blues and pinks. The woman lying down communicates relaxation. It is a serene, calming scene,30,160,20","Lauren","I like how design can be interpreted differently, I see a person sleeping or a mountainous region.,10,340,20","Diana","I think it's sleeping beauty but I'm not sure. I didn't care for this piece.,-30,380,20","0"
"14879","","survey-text","101","568785","0.0-101.0-0.0","A1S26U10C10581","","","","{""Q0"":""It looks like a shipwreck by way of sea monster.""}","","","","","","","","","","","","","","","","","","","","","","",""
"3885.9000000059605","","image-slider-response","102","572674","0.0-102.0","A1S26U10C10581","","","","","31","","","","","","","","","","","","","","","","","","","","","",""
"null","","image-button-response","103","577678","0.0-103.0","A1S26U10C10581","img_art/10.jpg","null","","","","","","","","","","","","","","","","","","","","","","","","",""
"4052","","image-button-response","104","581734","0.0-104.0","A1S26U10C10581","img_art/10.jpg","1","","","","","","","","","","","","","","","","","","","","","","","","",""
"4548","","image-button-response","105","586284","0.0-105.0-0.0","A1S26U10C10581","img_art/10.jpg","0","","","","","","","","","","","","","","","","","","","","","","","","",""
"1144","","image-button-response","106","587430","0.0-106.0-0.0","A1S26U10C10581","img_art/10.jpg","2","","","","","","","","","","","","","","","","","","","","","","","","",""
"null","","html-keyboard-response","107","587931","0.0-107.0","A1S26U10C10581","<p style=""font-size: 48px;"">+</p>","","","","","null","allTrialResponses","500","1","9","img_art/10.jpg","31","It looks like a shipwreck by way of sea monster.","Rebecca,Diana,Jacqueline,Melissa,Katie,Lauren","gives a sense of a roller coaster unit splashed in water. it's not but i love it nevertheless,44,100,20","It reminds me of the ocean. Almost like a battlefield, but on the water.,19,380,20","Seems more harmonic with the strokes and colors.,31,300,20","shapes are appealing/relationship between the beige square and the black lines,24,240,20","Dark and weird. Unidentifiable shape. I can't tell what it is, so I don't like it.,-50,160,20","I can't really tell what this is suppose to represent, but overall I don't like the design.,-20,340,20","Diana","It reminds me of the ocean. Almost like a battlefield, but on the water.,19,380,20","Rebecca","gives a sense of a roller coaster unit splashed in water. it's not but i love it nevertheless,44,100,20","Jacqueline","Seems more harmonic with the strokes and colors.,31,300,20","0"
"9036","","survey-text","108","596972","0.0-108.0-0.0","A1S26U10C10581","","","","{""Q0"":""This reminds me of hotel curtains.""}","","","","","","","","","","","","","","","","","","","","","","",""
"3047.9000000059605","","image-slider-response","109","600022","0.0-109.0","A1S26U10C10581","","","","","-12","","","","","","","","","","","","","","","","","","","","","",""
"null","","image-button-response","110","605026","0.0-110.0","A1S26U10C10581","img_art/12.jpg","null","","","","","","","","","","","","","","","","","","","","","","","","",""
"8266","","image-button-response","111","613294","0.0-111.0","A1S26U10C10581","img_art/12.jpg","5","","","","","","","","","","","","","","","","","","","","","","","","",""
"2372","","image-button-response","112","615669","0.0-112.0-0.0","A1S26U10C10581","img_art/12.jpg","2","","","","","","","","","","","","","","","","","","","","","","","","",""
"8608","","image-button-response","113","624280","0.0-113.0-0.0","A1S26U10C10581","img_art/12.jpg","4","","","","","","","","","","","","","","","","","","","","","","","","",""
"null","","html-keyboard-response","114","624782","0.0-114.0","A1S26U10C10581","<p style=""font-size: 48px;"">+</p>","","","","","null","allTrialResponses","500","1","10","img_art/12.jpg","-12","This reminds me of hotel curtains.","Rebecca,Diana,Jacqueline,Alexa,Destiny,Sabrina","so many different available interpretations for this, would love to closer.,24,100,20","This is beautiful. It looks like 1,000 different sunrises and sunsets.,44,380,20","It's not particularly interesting or ugly.,-7,300,20","I love the pattern and this looks like it took a good deal of effort,35,40,20","giving me major endless summer vibes,26,360,20","I like the fact it shares both light and edgy,32,120,20","Sabrina","I like the fact it shares both light and edgy,32,120,20","Jacqueline","It's not particularly interesting or ugly.,-7,300,20","Destiny","giving me major endless summer vibes,26,360,20","0"
"2572","","survey-text","115","627362","0.0-115.0-0.0","A1S26U10C10581","","","","{""Q0"":""our""}","","","","","","","","","","","","","","","","","","","","","","",""
"16570","","survey-text","116","643934","0.0-116.0-0.0","A1S26U10C10581","","","","{""Q0"":""It looks like a plant or a bird. It's distinct yet abstract. I like it.""}","","","","","","","","","","","","","","","","","","","","","","",""
"3750.2999999970198","","image-slider-response","117","647686","0.0-117.0","A1S26U10C10581","","","","","39","","","","","","","","","","","","","","","","","","","","","",""
"null","","image-button-response","118","652690","0.0-118.0","A1S26U10C10581","img_art/6.jpg","null","","","","","","","","","","","","","","","","","","","","","","","","",""
"5096","","image-button-response","119","657789","0.0-119.0","A1S26U10C10581","img_art/6.jpg","3","","","","","","","","","","","","","","","","","","","","","","","","",""
"5766","","image-button-response","120","663557","0.0-120.0-0.0","A1S26U10C10581","img_art/6.jpg","5","","","","","","","","","","","","","","","","","","","","","","","","",""
"4799","","image-button-response","121","668358","0.0-121.0-0.0","A1S26U10C10581","img_art/6.jpg","1","","","","","","","","","","","","","","","","","","","","","","","","",""
"null","","html-keyboard-response","122","669364","0.0-122.0","A1S26U10C10581","<p style=""font-size: 48px;"">+</p>","","","","","null","allTrialResponses","1000","1","11","img_art/6.jpg","39","It looks like a plant or a bird. It's distinct yet abstract. I like it.","Elizabeth,Savannah,Jacqueline,Angela,Destiny,Sabrina","Love the simplicity of it,41,20,20","Despite how simple it is, this piece has clear meaning.,34,200,20","It's a bit bland, but looks like a bird standing.,11,300,20","I like the orange color, and I don't know why but I like this piece.,22,260,20","boring. don't really like birds,1,360,20","I love the representation of death and life.,50,120,20","Angela","I like the orange color, and I don't know why but I like this piece.,22,260,20","Sabrina","I love the representation of death and life.,50,120,20","Savannah","Despite how simple it is, this piece has clear meaning.,34,200,20","0"
"11281","","survey-text","123","680650","0.0-123.0-0.0","A1S26U10C10581","","","","{""Q0"":""It's just paint spatters.""}","","","","","","","","","","","","","","","","","","","","","","",""
"4316","","image-slider-response","124","684968","0.0-124.0","A1S26U10C10581","","","","","-2","","","","","","","","","","","","","","","","","","","","","",""
"null","","image-button-response","125","689972","0.0-125.0","A1S26U10C10581","img_art/13.jpg","null","","","","","","","","","","","","","","","","","","","","","","","","",""
"5311","","image-button-response","126","695286","0.0-126.0","A1S26U10C10581","img_art/13.jpg","2","","","","","","","","","","","","","","","","","","","","","","","","",""
"3430","","image-button-response","127","698719","0.0-127.0-0.0","A1S26U10C10581","img_art/13.jpg","3","","","","","","","","","","","","","","","","","","","","","","","","",""
"3404","","image-button-response","128","702126","0.0-128.0-0.0","A1S26U10C10581","img_art/13.jpg","0","","","","","","","","","","","","","","","","","","","","","","","","",""
"null","","html-keyboard-response","129","702628","0.0-129.0","A1S26U10C10581","<p style=""font-size: 48px;"">+</p>","","","","","null","allTrialResponses","500","1","12","img_art/13.jpg","-2","It's just paint spatters.","Emily,Savannah,Sierra,Angela,Danielle,Sabrina","I don't car for it but it does seem organized and like it took considereably more skill that others.,9,40,20","Lots of depth and character.,30,200,20","the blues are soothing but the splatters are too much,-3,260,20","It's okay. Feels like a blander take on a Jackson Pollack,11,260,20","While it is a bit basic and doesn't speak to me much, I like the feeling it gives,40,340,20","I love the edgy nature,50,120,20","Sierra","the blues are soothing but the splatters are too much,-3,260,20","Angela","It's okay. Feels like a blander take on a Jackson Pollack,11,260,20","Emily","I don't car for it but it does seem organized and like it took considereably more skill that others.,9,40,20","0"
"16513","","survey-text","130","719150","0.0-130.0-0.0","A1S26U10C10581","","","","{""Q0"":""I can almost make out what the painting is depicting, but not quite.""}","","","","","","","","","","","","","","","","","","","","","","",""
"5336.5999999940395","","image-slider-response","131","724489","0.0-131.0","A1S26U10C10581","","","","","1","","","","","","","","","","","","","","","","","","","","","",""
"null","","image-button-response","132","729495","0.0-132.0","A1S26U10C10581","img_art/18.jpg","null","","","","","","","","","","","","","","","","","","","","","","","","",""
"5577","","image-button-response","133","735076","0.0-133.0","A1S26U10C10581","img_art/18.jpg","4","","","","","","","","","","","","","","","","","","","","","","","","",""
"3854","","image-button-response","134","738932","0.0-134.0-0.0","A1S26U10C10581","img_art/18.jpg","1","","","","","","","","","","","","","","","","","","","","","","","","",""
"4439","","image-button-response","135","743374","0.0-135.0-0.0","A1S26U10C10581","img_art/18.jpg","0","","","","","","","","","","","","","","","","","","","","","","","","",""
"null","","html-keyboard-response","136","744879","0.0-136.0","A1S26U10C10581","<p style=""font-size: 48px;"">+</p>","","","","","null","allTrialResponses","1500","1","13","img_art/18.jpg","1","I can almost make out what the painting is depicting, but not quite.","Emily,Olivia,Sierra,Angela,Jenna,Monica","Not my style but I can see some serious skill went int it.,21,40,20","death rides in life,-25,40,20","it looks like people,9,260,20","like the grays and contrast of the yellow. This piece feels a bit angry,10,260,20","hauntingly beautiful. more things revealed the longer you look. love the spirit-like figure in the top left.,47,360,20","It doesn't look like much, the colors are dark and it doesn't really make me feel anything.,-2,360,20","Jenna","hauntingly beautiful. more things revealed the longer you look. love the spirit-like figure in the top left.,47,360,20","Olivia","death rides in life,-25,40,20","Emily","Not my style but I can see some serious skill went int it.,21,40,20","0"
"9427","","survey-text","137","754314","0.0-137.0-0.0","A1S26U10C10581","","","","{""Q0"":""The colors are very child-friendly.""}","","","","","","","","","","","","","","","","","","","","","","",""
"4033.7999999970198","","image-slider-response","138","758350","0.0-138.0","A1S26U10C10581","","","","","12","","","","","","","","","","","","","","","","","","","","","",""
"null","","image-button-response","139","763352","0.0-139.0","A1S26U10C10581","img_art/22.jpg","null","","","","","","","","","","","","","","","","","","","","","","","","",""
"1727","","image-button-response","140","765082","0.0-140.0","A1S26U10C10581","img_art/22.jpg","4","","","","","","","","","","","","","","","","","","","","","","","","",""
"1201","","image-button-response","141","766286","0.0-141.0-0.0","A1S26U10C10581","img_art/22.jpg","5","","","","","","","","","","","","","","","","","","","","","","","","",""
"4930","","image-button-response","142","771219","0.0-142.0-0.0","A1S26U10C10581","img_art/22.jpg","0","","","","","","","","","","","","","","","","","","","","","","","","",""
"null","","html-keyboard-response","143","772224","0.0-143.0","A1S26U10C10581","<p style=""font-size: 48px;"">+</p>","","","","","null","allTrialResponses","1000","1","14","img_art/22.jpg","12","The colors are very child-friendly.","Emily,Olivia,Catherine,Natalie,Jenna,Shelby","There is some flow and organization.,10,40,20","ball of light in 90s,8,40,20","Scary monsters lurking causing confusion.,-40,160,20","my reaction is that the picture is confusion,-9,400,20","beautiful. love the bright colors & soft brush strokes, and the imprint of the key is genius.,50,360,20","This painting has a very nostalgic feel,20,240,20","Jenna","beautiful. love the bright colors & soft brush strokes, and the imprint of the key is genius.,50,360,20","Shelby","This painting has a very nostalgic feel,20,240,20","Emily","There is some flow and organization.,10,40,20","0"
"11193","","survey-text","144","783424","0.0-144.0-0.0","A1S26U10C10581","","","","{""Q0"":""It just looks kind of like dirty french fries.""}","","","","","","","","","","","","","","","","","","","","","","",""
"3807.5","","image-slider-response","145","787234","0.0-145.0","A1S26U10C10581","","","","","-9","","","","","","","","","","","","","","","","","","","","","",""
"null","","image-button-response","146","792240","0.0-146.0","A1S26U10C10581","img_art/4.jpg","null","","","","","","","","","","","","","","","","","","","","","","","","",""
"11454","","image-button-response","147","803696","0.0-147.0","A1S26U10C10581","img_art/4.jpg","1","","","","","","","","","","","","","","","","","","","","","","","","",""
"1679","","image-button-response","148","805379","0.0-148.0-0.0","A1S26U10C10581","img_art/4.jpg","4","","","","","","","","","","","","","","","","","","","","","","","","",""
"955","","image-button-response","149","806336","0.0-149.0-0.0","A1S26U10C10581","img_art/4.jpg","3","","","","","","","","","","","","","","","","","","","","","","","","",""
"null","","html-keyboard-response","150","806838","0.0-150.0","A1S26U10C10581","<p style=""font-size: 48px;"">+</p>","","","","","null","allTrialResponses","500","1","15","img_art/4.jpg","-9","It just looks kind of like dirty french fries.","Emily,Marissa,Amber,Alexandria,Jenna,Shelby","Looks like a child did it.,-42,40,20","I'm disappointed that such a simple piece, with very little effort spent, could be grouped with other detailed pieces,-31,160,20","I like the bold style.,10,200,20","it looks like a simple finger painting, yet i liked the color choices,-12,80,20","creepy, looks like a deformed hand, but the background is pretty,5,360,20","The colors feel a bit off to me,-10,240,20","Marissa","I'm disappointed that such a simple piece, with very little effort spent, could be grouped with other detailed pieces,-31,160,20","Jenna","creepy, looks like a deformed hand, but the background is pretty,5,360,20","Alexandria","it looks like a simple finger painting, yet i liked the color choices,-12,80,20","0"
"3332","","survey-text","151","810180","0.0-151.0-0.0","A1S26U10C10581","","","","{""Q0"":""course""}","","","","","","","","","","","","","","","","","","","","","","",""
"9639","","survey-text","152","819822","0.0-152.0-0.0","A1S26U10C10581","","","","{""Q0"":""It looks like dry skin.""}","","","","","","","","","","","","","","","","","","","","","","",""
"2711.9000000059605","","image-slider-response","153","822536","0.0-153.0","A1S26U10C10581","","","","","-3","","","","","","","","","","","","","","","","","","","","","",""
"null","","image-button-response","154","827540","0.0-154.0","A1S26U10C10581","img_art/7.jpg","null","","","","","","","","","","","","","","","","","","","","","","","","",""
"3742","","image-button-response","155","831286","0.0-155.0","A1S26U10C10581","img_art/7.jpg","4","","","","","","","","","","","","","","","","","","","","","","","","",""
"8753","","image-button-response","156","840041","0.0-156.0-0.0","A1S26U10C10581","img_art/7.jpg","5","","","","","","","","","","","","","","","","","","","","","","","","",""
"2317","","image-button-response","157","842362","0.0-157.0-0.0","A1S26U10C10581","img_art/7.jpg","2","","","","","","","","","","","","","","","","","","","","","","","","",""
"null","","html-keyboard-response","158","843365","0.0-158.0","A1S26U10C10581","<p style=""font-size: 48px;"">+</p>","","","","","null","allTrialResponses","1000","1","16","img_art/7.jpg","-3","It looks like dry skin.","Kylie,Marissa,Megan,Alexandria,Jenna,Crystal","No particular reaction to this,10,300,20","I feel confused, am I looking at a painting or a close up picture of some sort of fly stone?,-19,160,20","Great portrayal of solid surface,19,200,20","reminds me of the desert,-20,80,20","reminds me of a desert from far above,23,360,20","I thought I was looking at a satellite image of mars.,21,300,20","Jenna","reminds me of a desert from far above,23,360,20","Crystal","I thought I was looking at a satellite image of mars.,21,300,20","Megan","Great portrayal of solid surface,19,200,20","0"
"12917","","survey-text","159","856288","0.0-159.0-0.0","A1S26U10C10581","","","","{""Q0"":""It's like looking at a storm approaching a city.""}","","","","","","","","","","","","","","","","","","","","","","",""
"3387.6000000089407","","image-slider-response","160","859678","0.0-160.0","A1S26U10C10581","","","","","6","","","","","","","","","","","","","","","","","","","","","",""
"null","","image-button-response","161","864682","0.0-161.0","A1S26U10C10581","img_art/21.jpg","null","","","","","","","","","","","","","","","","","","","","","","","","",""
"1100","","image-button-response","162","865785","0.0-162.0","A1S26U10C10581","img_art/21.jpg","2","","","","","","","","","","","","","","","","","","","","","","","","",""
"4062","","image-button-response","163","869850","0.0-163.0-0.0","A1S26U10C10581","img_art/21.jpg","4","","","","","","","","","","","","","","","","","","","","","","","","",""
"937","","image-button-response","164","870790","0.0-164.0-0.0","A1S26U10C10581","img_art/21.jpg","5","","","","","","","","","","","","","","","","","","","","","","","","",""
"null","","html-keyboard-response","165","871293","0.0-165.0","A1S26U10C10581","<p style=""font-size: 48px;"">+</p>","","","","","null","allTrialResponses","500","1","17","img_art/21.jpg","6","It's like looking at a storm approaching a city.","Caroline,Kaitlyn,Megan,Jessica,Jenna,Crystal","the colors are pretty but I did not feel any thing looking at it,33,100,20","The division in the picture is pleasing but the random white dots are distracting,12,80,20","Nice asymmetry with maritime colors city meets the sea,34,200,20","I like how the colors blend together like a beautiful sunset.,25,400,20","beautiful. reminds me of a storm brewing over sea. i love the white dots.,45,360,20","Feels like a clash between land and sea,31,300,20","Megan","Nice asymmetry with maritime colors city meets the sea,34,200,20","Jenna","beautiful. reminds me of a storm brewing over sea. i love the white dots.,45,360,20","Crystal","Feels like a clash between land and sea,31,300,20","0"
"13650","","survey-text","166","884949","0.0-166.0-0.0","A1S26U10C10581","","","","{""Q0"":""I love the movement here.""}","","","","","","","","","","","","","","","","","","","","","","",""
"3348.8999999910593","","image-slider-response","167","888300","0.0-167.0","A1S26U10C10581","","","","","42","","","","","","","","","","","","","","","","","","","","","",""
"null","","image-button-response","168","893307","0.0-168.0","A1S26U10C10581","img_art/11.jpg","null","","","","","","","","","","","","","","","","","","","","","","","","",""
"1656","","image-button-response","169","894964","0.0-169.0","A1S26U10C10581","img_art/11.jpg","4","","","","","","","","","","","","","","","","","","","","","","","","",""
"3395","","image-button-response","170","898363","0.0-170.0-0.0","A1S26U10C10581","img_art/11.jpg","5","","","","","","","","","","","","","","","","","","","","","","","","",""
"1185","","image-button-response","171","899551","0.0-171.0-0.0","A1S26U10C10581","img_art/11.jpg","0","","","","","","","","","","","","","","","","","","","","","","","","",""
"null","","html-keyboard-response","172","900557","0.0-172.0","A1S26U10C10581","<p style=""font-size: 48px;"">+</p>","","","","","null","allTrialResponses","1000","1","18","img_art/11.jpg","42","I love the movement here.","Jasmine,Cheyenne,Megan,Katelyn,Jenna,Crystal","Reminds me of a city on a grey/rainy winter's day,25,340,20","Very good use of colors,44,200,20","Some interesting color but scratchy train mess.,-14,200,20","I like the dark lines and it interests me,13,100,20","makes me think of city highways & bridges on a rainy, foggy day. I like the melancholy it evokes.,43,360,20","Enjoyed the lines representing different paths that encompass different entities,20,300,20","Jenna","makes me think of city highways & bridges on a rainy, foggy day. I like the melancholy it evokes.,43,360,20","Crystal","Enjoyed the lines representing different paths that encompass different entities,20,300,20","Jasmine","Reminds me of a city on a grey/rainy winter's day,25,340,20","0"
"9172","","survey-text","173","909737","0.0-173.0-0.0","A1S26U10C10581","","","","{""Q0"":""I don't like the combination of colors.""}","","","","","","","","","","","","","","","","","","","","","","",""
"3693.199999988079","","image-slider-response","174","913433","0.0-174.0","A1S26U10C10581","","","","","-15","","","","","","","","","","","","","","","","","","","","","",""
"null","","image-button-response","175","918440","0.0-175.0","A1S26U10C10581","img_art/2.jpg","null","","","","","","","","","","","","","","","","","","","","","","","","",""
"4765","","image-button-response","176","923207","0.0-176.0","A1S26U10C10581","img_art/2.jpg","5","","","","","","","","","","","","","","","","","","","","","","","","",""
"1094","","image-button-response","177","924305","0.0-177.0-0.0","A1S26U10C10581","img_art/2.jpg","0","","","","","","","","","","","","","","","","","","","","","","","","",""
"3073","","image-button-response","178","927380","0.0-178.0-0.0","A1S26U10C10581","img_art/2.jpg","3","","","","","","","","","","","","","","","","","","","","","","","","",""
"null","","html-keyboard-response","179","928884","0.0-179.0","A1S26U10C10581","<p style=""font-size: 48px;"">+</p>","","","","","null","allTrialResponses","1500","1","19","img_art/2.jpg","-15","I don't like the combination of colors.","Jasmine,Molly,Kaitlin,Kaylee,Jenna,Crystal","Color picks are a bad mesh with each other,-17,340,20","Colorful, curious.,20,340,20","another confusing piece of art,-12,60,20","its ugly af to be honest,-50,200,20","the colors are a bit odd, and the squiggly line at the top is distracting,0,360,20","Looks contrived and like someone tried to hard to make it abstract,-31,300,20","Crystal","Looks contrived and like someone tried to hard to make it abstract,-31,300,20","Jasmine","Color picks are a bad mesh with each other,-17,340,20","Kaylee","its ugly af to be honest,-50,200,20","0"
"12655","","survey-text","180","941545","0.0-180.0-0.0","A1S26U10C10581","","","","{""Q0"":""It's simple yet I don't know what to make of it.""}","","","","","","","","","","","","","","","","","","","","","","",""
"4389.4000000059605","","image-slider-response","181","945937","0.0-181.0","A1S26U10C10581","","","","","-20","","","","","","","","","","","","","","","","","","","","","",""
"null","","image-button-response","182","950941","0.0-182.0","A1S26U10C10581","img_art/5.jpg","null","","","","","","","","","","","","","","","","","","","","","","","","",""
"3379","","image-button-response","183","954324","0.0-183.0","A1S26U10C10581","img_art/5.jpg","4","","","","","","","","","","","","","","","","","","","","","","","","",""
"1663","","image-button-response","184","955990","0.0-184.0-0.0","A1S26U10C10581","img_art/5.jpg","5","","","","","","","","","","","","","","","","","","","","","","","","",""
"1936","","image-button-response","185","957929","0.0-185.0-0.0","A1S26U10C10581","img_art/5.jpg","1","","","","","","","","","","","","","","","","","","","","","","","","",""
"null","","html-keyboard-response","186","959432","0.0-186.0","A1S26U10C10581","<p style=""font-size: 48px;"">+</p>","","","","","null","allTrialResponses","1500","1","20","img_art/5.jpg","-20","It's simple yet I don't know what to make of it.","Jasmine,Kelly,Chelsea,Kaylee,Erica,Crystal","Not sure what to say about this piece honestly. It's okay I guess.,0,340,20","It looks like daffy duck's leg with a random trail of pink.,-22,220,20","I'm not sure what is going on here.,-46,180,20","a volcano erruption,21,200,20","positive colours; yellow calls attention,6,80,20","Confused as to what the artist is attempting to do.,-50,300,20","Erica","positive colours; yellow calls attention,6,80,20","Crystal","Confused as to what the artist is attempting to do.,-50,300,20","Kelly","It looks like daffy duck's leg with a random trail of pink.,-22,220,20","0"
"2344","","survey-text","187","961788","0.0-187.0-0.0","A1S26U10C10581","","","","{""Q0"":""we""}","","","","","","","","","","","","","","","","","","","","","","",""
"22872","","survey-text","188","984662","0.0-188.0-0.0","A1S26U10C10581","","","","{""Q0"":""I love everything that's going on here. There are clear forms, and yet it's abstract.""}","","","","","","","","","","","","","","","","","","","","","","",""
"2952.7000000029802","","image-slider-response","189","987616","0.0-189.0","A1S26U10C10581","","","","","35","","","","","","","","","","","","","","","","","","","","","",""
"null","","image-button-response","190","992620","0.0-190.0","A1S26U10C10581","img_art/8.jpg","null","","","","","","","","","","","","","","","","","","","","","","","","",""
"3945","","image-button-response","191","996569","0.0-191.0","A1S26U10C10581","img_art/8.jpg","5","","","","","","","","","","","","","","","","","","","","","","","","",""
"1414","","image-button-response","192","997985","0.0-192.0-0.0","A1S26U10C10581","img_art/8.jpg","4","","","","","","","","","","","","","","","","","","","","","","","","",""
"2383","","image-button-response","193","1000371","0.0-193.0-0.0","A1S26U10C10581","img_art/8.jpg","1","","","","","","","","","","","","","","","","","","","","","","","","",""
"null","","html-keyboard-response","194","1001875","0.0-194.0","A1S26U10C10581","<p style=""font-size: 48px;"">+</p>","","","","","null","allTrialResponses","1500","1","21","img_art/8.jpg","35","I love everything that's going on here. There are clear forms, and yet it's abstract.","Rachel,Kelly,Julia,Jamie,Erica,Crystal","I like all of the faces that can be found in this piece. Interesting.,35,80,20","Interesting, i really like the face and the moon. Realy detailed and you see something new with each look.,11,220,20","it's a little too classical for my tastes,-25,40,20","Cool designs and color schemes,44,320,20","Very busy, I want to look at it and investigate,23,80,20","i like the abstract nature of a birds eye view of the city. The hard shapes and squares present with a softness rather than rigidity.,26,300,20","Crystal","i like the abstract nature of a birds eye view of the city. The hard shapes and squares present with a softness rather than rigidity.,26,300,20","Erica","Very busy, I want to look at it and investigate,23,80,20","Kelly","Interesting, i really like the face and the moon. Realy detailed and you see something new with each look.,11,220,20","0"
"16702","","survey-text","195","1018582","0.0-195.0-0.0","A1S26U10C10581","","","","{""Q0"":""I like the minimalist design of the tree blending with the indoors.""}","","","","","","","","","","","","","","","","","","","","","","",""
"3670.5999999940395","","image-slider-response","196","1022255","0.0-196.0","A1S26U10C10581","","","","","16","","","","","","","","","","","","","","","","","","","","","",""
"null","","image-button-response","197","1027262","0.0-197.0","A1S26U10C10581","img_art/17.jpg","null","","","","","","","","","","","","","","","","","","","","","","","","",""
"2905","","image-button-response","198","1030170","0.0-198.0","A1S26U10C10581","img_art/17.jpg","2","","","","","","","","","","","","","","","","","","","","","","","","",""
"2915","","image-button-response","199","1033087","0.0-199.0-0.0","A1S26U10C10581","img_art/17.jpg","5","","","","","","","","","","","","","","","","","","","","","","","","",""
"3373","","image-button-response","200","1036464","0.0-200.0-0.0","A1S26U10C10581","img_art/17.jpg","3","","","","","","","","","","","","","","","","","","","","","","","","",""
"null","","html-keyboard-response","201","1036966","0.0-201.0","A1S26U10C10581","<p style=""font-size: 48px;"">+</p>","","","","","null","allTrialResponses","500","1","22","img_art/17.jpg","16","I like the minimalist design of the tree blending with the indoors.","Paige,Kelly,Kathryn,Hailey,Erica,Crystal","very pretty. Makes me happy,45,60,20","I really like this, especially the tree.,23,220,20","Reminds me of the modern art museum in Rome. I didn't ""get"" many pieces, but had a positive cultural experience overall.,20,140,20","soft and warm light colors are relaxing,12,200,20","Makes me warm and cozy just by looking at it,29,80,20","Embodies beauty and complexity and in simplicity as well,50,300,20","Kathryn","Reminds me of the modern art museum in Rome. I didn't ""get"" many pieces, but had a positive cultural experience overall.,20,140,20","Crystal","Embodies beauty and complexity and in simplicity as well,50,300,20","Hailey","soft and warm light colors are relaxing,12,200,20","0"
"7060","","survey-text","202","1044035","0.0-202.0-0.0","A1S26U10C10581","","","","{""Q0"":""The red scribbles look angry.""}","","","","","","","","","","","","","","","","","","","","","","",""
"4006.1000000089407","","image-slider-response","203","1048043","0.0-203.0","A1S26U10C10581","","","","","-2","","","","","","","","","","","","","","","","","","","","","",""
"null","","image-button-response","204","1053048","0.0-204.0","A1S26U10C10581","img_art/3.jpg","null","","","","","","","","","","","","","","","","","","","","","","","","",""
"3441","","image-button-response","205","1056492","0.0-205.0","A1S26U10C10581","img_art/3.jpg","2","","","","","","","","","","","","","","","","","","","","","","","","",""
"3692","","image-button-response","206","1060186","0.0-206.0-0.0","A1S26U10C10581","img_art/3.jpg","5","","","","","","","","","","","","","","","","","","","","","","","","",""
"5581","","image-button-response","207","1065770","0.0-207.0-0.0","A1S26U10C10581","img_art/3.jpg","1","","","","","","","","","","","","","","","","","","","","","","","","",""
"null","","html-keyboard-response","208","1066776","0.0-208.0","A1S26U10C10581","<p style=""font-size: 48px;"">+</p>","","","","","null","allTrialResponses","1000","1","23","img_art/3.jpg","-2","The red scribbles look angry.","Sarah,Grace,Kathryn,Hailey,Samantha,Crystal","the red is impactful but the work overall doesn't say anything to me,-8,180,20","Just no. I love red but this looks like blood splatter on a wall from a horrific killing.,-45,180,20","This gives me a negative feeling, like someone trying to scratch out their flaws. I see low self-esteem.,-20,140,20","painted by a 2 year old. cold and boring,-30,200,20","Too angry and scribbly,-43,140,20","I like the abstract flowing lines. It lacks hard rigid marks and flow nicely into a piece of calamity.,32,300,20","Kathryn","This gives me a negative feeling, like someone trying to scratch out their flaws. I see low self-esteem.,-20,140,20","Crystal","I like the abstract flowing lines. It lacks hard rigid marks and flow nicely into a piece of calamity.,32,300,20","Grace","Just no. I love red but this looks like blood splatter on a wall from a horrific killing.,-45,180,20","0"
"8831","","survey-text","209","1075614","0.0-209.0-0.0","A1S26U10C10581","","","","{""Q0"":""I don't like all the browns used here.""}","","","","","","","","","","","","","","","","","","","","","","",""
"3791.6000000089407","","image-slider-response","210","1079407","0.0-210.0","A1S26U10C10581","","","","","-14","","","","","","","","","","","","","","","","","","","","","",""
"null","","image-button-response","211","1084411","0.0-211.0","A1S26U10C10581","img_art/19.jpg","null","","","","","","","","","","","","","","","","","","","","","","","","",""
"323","","image-button-response","212","1084736","0.0-212.0","A1S26U10C10581","img_art/19.jpg","2","","","","","","","","","","","","","","","","","","","","","","","","",""
"2425","","image-button-response","213","1087164","0.0-213.0-0.0","A1S26U10C10581","img_art/19.jpg","5","","","","","","","","","","","","","","","","","","","","","","","","",""
"5157","","image-button-response","214","1092324","0.0-214.0-0.0","A1S26U10C10581","img_art/19.jpg","0","","","","","","","","","","","","","","","","","","","","","","","","",""
"null","","html-keyboard-response","215","1093329","0.0-215.0","A1S26U10C10581","<p style=""font-size: 48px;"">+</p>","","","","","null","allTrialResponses","1000","1","24","img_art/19.jpg","-14","I don't like all the browns used here.","Erika,Grace,Kathryn,Amanda,Makayla,Crystal","Very dreamlike,26,100,20","Looks like a child's rendering of a city street but not too sure.,0,180,20","This one feels pretty neutral. Like a window into someone's life, one person in a bustling metropolis.,0,140,20","Its just a nice painting, nothing too special but nothing negative,25,180,20","Looks like hustle and bustle ,,3,80,20","It is an interesting piece but there are too many muted tones,22,300,20","Kathryn","This one feels pretty neutral. Like a window into someone's life, one person in a bustling metropolis.,0,140,20","Crystal","It is an interesting piece but there are too many muted tones,22,300,20","Erika","Very dreamlike,26,100,20","0"
"12286","","survey-text","216","1105622","0.0-216.0-0.0","A1S26U10C10581","","","","{""Q0"":""I feel like I can almost tell what's going on.""}","","","","","","","","","","","","","","","","","","","","","","",""
"2973.5","","image-slider-response","217","1108598","0.0-217.0","A1S26U10C10581","","","","","4","","","","","","","","","","","","","","","","","","","","","",""
"null","","image-button-response","218","1113605","0.0-218.0","A1S26U10C10581","img_art/20.jpg","null","","","","","","","","","","","","","","","","","","","","","","","","",""
"4625","","image-button-response","219","1118232","0.0-219.0","A1S26U10C10581","img_art/20.jpg","1","","","","","","","","","","","","","","","","","","","","","","","","",""
"3822","","image-button-response","220","1122057","0.0-220.0-0.0","A1S26U10C10581","img_art/20.jpg","5","","","","","","","","","","","","","","","","","","","","","","","","",""
"7296","","image-button-response","221","1129356","0.0-221.0-0.0","A1S26U10C10581","img_art/20.jpg","3","","","","","","","","","","","","","","","","","","","","","","","","",""
"null","","html-keyboard-response","222","1129858","0.0-222.0","A1S26U10C10581","<p style=""font-size: 48px;"">+</p>","","","","","null","allTrialResponses","500","1","25","img_art/20.jpg","4","I feel like I can almost tell what's going on.","Erika,Miranda,Kathryn,Morgan,Laura,Crystal","The artist had very strong feelings, bold colors,28,100,20","A painting within a painting, the inner painting looks like a car crash with a semi truck.,21,320,20","This looks like a ruin of what was once a thriving city.,-9,140,20","The beach and industry.,12,380,20","very fluid and mysterious,37,320,20","The pulling and sagging nature is very beautiful.,30,300,20","Miranda","A painting within a painting, the inner painting looks like a car crash with a semi truck.,21,320,20","Crystal","The pulling and sagging nature is very beautiful.,30,300,20","Morgan","The beach and industry.,12,380,20","0"
"3135","","survey-text","223","1133004","0.0-223.0-0.0","A1S26U10C10581","","","","{""Q0"":""table""}","","","","","","","","","","","","","","","","","","","","","","",""
"12832","","survey-text","224","1145838","0.0-224.0-0.0","A1S26U10C10581","","","","{""Q0"":""The cluster of so many black dots freaks me out.""}","","","","","","","","","","","","","","","","","","","","","","",""
"2906.9000000059605","","image-slider-response","225","1148747","0.0-225.0","A1S26U10C10581","","","","","-27","","","","","","","","","","","","","","","","","","","","","",""
"null","","image-button-response","226","1153751","0.0-226.0","A1S26U10C10581","img_art/15.jpg","null","","","","","","","","","","","","","","","","","","","","","","","","",""
"560","","image-button-response","227","1154314","0.0-227.0","A1S26U10C10581","img_art/15.jpg","1","","","","","","","","","","","","","","","","","","","","","","","","",""
"3199","","image-button-response","228","1157516","0.0-228.0-0.0","A1S26U10C10581","img_art/15.jpg","5","","","","","","","","","","","","","","","","","","","","","","","","",""
"2417","","image-button-response","229","1159935","0.0-229.0-0.0","A1S26U10C10581","img_art/15.jpg","3","","","","","","","","","","","","","","","","","","","","","","","","",""
"null","","html-keyboard-response","230","1160437","0.0-230.0","A1S26U10C10581","<p style=""font-size: 48px;"">+</p>","","","","","null","allTrialResponses","500","1","26","img_art/15.jpg","-27","The cluster of so many black dots freaks me out.","Alexandra,Miranda,Vanessa,Morgan,Kayla,Crystal","This is sort of ugly, but I do like the design.,10,60,20","This gives a skin crawling feeling. Like something that you could see under a mircoscope,10,320,20","I don't even know what's going on here. Again, this is too abstract.,-21,380,20","Leafs spread on the ground.,27,380,20","Bushes, good! Life, good!,12,180,20","The blotted black spots create a nice contrast between the brush strokes within the center and sides. I like it.,41,300,20","Miranda","This gives a skin crawling feeling. Like something that you could see under a mircoscope,10,320,20","Crystal","The blotted black spots create a nice contrast between the brush strokes within the center and sides. I like it.,41,300,20","Morgan","Leafs spread on the ground.,27,380,20","0"
"9867","","survey-text","231","1170312","0.0-231.0-0.0","A1S26U10C10581","","","","{""Q0"":""It reminds me of The Wicker Man.""}","","","","","","","","","","","","","","","","","","","","","","",""
"5291.29999999702","","image-slider-response","232","1175605","0.0-232.0","A1S26U10C10581","","","","","-3","","","","","","","","","","","","","","","","","","","","","",""
"null","","image-button-response","233","1180610","0.0-233.0","A1S26U10C10581","img_art/25.jpg","null","","","","","","","","","","","","","","","","","","","","","","","","",""
"3034","","image-button-response","234","1183646","0.0-234.0","A1S26U10C10581","img_art/25.jpg","3","","","","","","","","","","","","","","","","","","","","","","","","",""
"1228","","image-button-response","235","1184877","0.0-235.0-0.0","A1S26U10C10581","img_art/25.jpg","5","","","","","","","","","","","","","","","","","","","","","","","","",""
"4160","","image-button-response","236","1189039","0.0-236.0-0.0","A1S26U10C10581","img_art/25.jpg","0","","","","","","","","","","","","","","","","","","","","","","","","",""
"null","","html-keyboard-response","237","1190042","0.0-237.0","A1S26U10C10581","<p style=""font-size: 48px;"">+</p>","","","","","null","allTrialResponses","1000","1","27","img_art/25.jpg","-3","It reminds me of The Wicker Man.","Christina,Miranda,Sara,Morgan,Madeline,Crystal","nice colors and it looks like a native work,32,240,20","This looks cool but I don't really care for it. Some sort or religious figure?,16,320,20","Green color is not my thing,-29,160,20","Ancient gods above you.,20,380,20","It looks a bit strange to me, neck too long,-19,40,20","Seems ritualistic and nativist,50,300,20","Morgan","Ancient gods above you.,20,380,20","Crystal","Seems ritualistic and nativist,50,300,20","Christina","nice colors and it looks like a native work,32,240,20","0"
"9397","","survey-text","238","1199447","0.0-238.0-0.0","A1S26U10C10581","","","","{""Q0"":""It looks like hotel room art.""}","","","","","","","","","","","","","","","","","","","","","","",""
"3084.300000011921","","image-slider-response","239","1202533","0.0-239.0","A1S26U10C10581","","","","","-4","","","","","","","","","","","","","","","","","","","","","",""
"4570","","image-button-response","240","1207538","0.0-240.0","A1S26U10C10581","img_art/28.jpg","3","","","","","","","","","","","","","","","","","","","","","","","","",""
"1728","","image-button-response","241","1209269","0.0-241.0","A1S26U10C10581","img_art/28.jpg","5","","","","","","","","","","","","","","","","","","","","","","","","",""
"814","","image-button-response","242","1210085","0.0-242.0-0.0","A1S26U10C10581","img_art/28.jpg","0","","","","","","","","","","","","","","","","","","","","","","","","",""
"2074","","image-button-response","243","1212162","0.0-243.0-0.0","A1S26U10C10581","img_art/28.jpg","0","","","","","","","","","","","","","","","","","","","","","","","","",""
"3319","","image-button-response","244","1218546","0.0-243.1-0.1","A1S26U10C10581","img_art/28.jpg","0","","","","","","","","","","","","","","","","","","","","","","","","",""
"472","","image-button-response","245","1222242","0.0-243.2-0.2","A1S26U10C10581","img_art/28.jpg","3","","","","","","","","","","","","","","","","","","","","","","","","",""
"null","","html-keyboard-response","246","1223244","0.0-244.0","A1S26U10C10581","<p style=""font-size: 48px;"">+</p>","","","","","null","allTrialResponses","1000","1","28","img_art/28.jpg","-4","It looks like hotel room art.","Christina,Allison,Kelsey,Morgan,Mikayla,Crystal","very blah colors and it's not fun,-27,240,20","Dislike the colors.,-20,140,20","this one is rather disturbing,-22,240,20","Apartment throw up.,-5,380,20","It gives me weird vibes.,-25,300,20","I like the flow and abstract nature of what seems to be humans,40,300,20","Crystal","I like the flow and abstract nature of what seems to be humans,40,300,20","Christina","very blah colors and it's not fun,-27,240,20","Morgan","Apartment throw up.,-5,380,20","4"
"13132","","survey-text","247","1236383","0.0-245.0-0.0","A1S26U10C10581","","","","{""Q0"":""It looks like a tree with a car parked nearby.""}","","","","","","","","","","","","","","","","","","","","","","",""
"2787.699999988079","","image-slider-response","248","1239173","0.0-246.0","A1S26U10C10581","","","","","3","","","","","","","","","","","","","","","","","","","","","",""
"3591","","image-button-response","249","1244178","0.0-247.0","A1S26U10C10581","img_art/14.jpg","2","","","","","","","","","","","","","","","","","","","","","","","","",""
"1610","","image-button-response","250","1245791","0.0-248.0","A1S26U10C10581","img_art/14.jpg","5","","","","","","","","","","","","","","","","","","","","","","","","",""
"3956","","image-button-response","251","1249750","0.0-249.0-0.0","A1S26U10C10581","img_art/14.jpg","3","","","","","","","","","","","","","","","","","","","","","","","","",""
"2211","","image-button-response","252","1251965","0.0-250.0-0.0","A1S26U10C10581","img_art/14.jpg","2","","","","","","","","","","","","","","","","","","","","","","","","",""
"null","","html-keyboard-response","253","1252968","0.0-251.0","A1S26U10C10581","<p style=""font-size: 48px;"">+</p>","","","","","null","allTrialResponses","1000","1","29","img_art/14.jpg","3","It looks like a tree with a car parked nearby.","Christina,Margaret,Anna,Morgan,Cynthia,Crystal","has a tree look to it and it's colors are happy,9,240,20","its okay. pretty bland but looks like nature,8,100,20","It reminds me of a tree in the desert.,15,300,20","Angled, colored, boxy.,10,380,20","unsure and dull feeling,-1,320,20","It looks like a tree but the bleeding water colors lack borders and makes it hard to appreciate the message.,-41,300,20","Crystal","It looks like a tree but the bleeding water colors lack borders and makes it hard to appreciate the message.,-41,300,20","Morgan","Angled, colored, boxy.,10,380,20","Anna","It reminds me of a tree in the desert.,15,300,20","4"
"10376","","survey-text","254","1263353","0.0-252.0-0.0","A1S26U10C10581","","","","{""Q0"":""I see trees along a city sidewalk.""}","","","","","","","","","","","","","","","","","","","","","","",""
"3122.2999999970198","","image-slider-response","255","1266477","0.0-253.0","A1S26U10C10581","","","","","2","","","","","","","","","","","","","","","","","","","","","",""
"3251","","image-button-response","256","1271481","0.0-254.0","A1S26U10C10581","img_art/26.jpg","1","","","","","","","","","","","","","","","","","","","","","","","","",""
"1063","","image-button-response","257","1272547","0.0-255.0","A1S26U10C10581","img_art/26.jpg","1","","","","","","","","","","","","","","","","","","","","","","","","",""
"4514","","image-button-response","258","1277065","0.0-256.0-0.0","A1S26U10C10581","img_art/26.jpg","4","","","","","","","","","","","","","","","","","","","","","","","","",""
"1893","","image-button-response","259","1278960","0.0-257.0-0.0","A1S26U10C10581","img_art/26.jpg","3","","","","","","","","","","","","","","","","","","","","","","","","",""
"null","","html-keyboard-response","260","1279462","0.0-258.0","A1S26U10C10581","<p style=""font-size: 48px;"">+</p>","","","","","null","allTrialResponses","500","1","30","img_art/26.jpg","2","I see trees along a city sidewalk.","Meghan,Sophia,Anna,Morgan,Caitlin,Crystal","nothing really special, quite bland,1,220,20","I like this. Looks like a city street and I can use my imagination to make it come alive.,15,280,20","It looks like a watercolor I did when I was 6.,-30,300,20","Confusing park picture.,8,380,20","At least it is a bit of scenery.,10,80,20","Do not like water colors at all,-50,300,20","Sophia","I like this. Looks like a city street and I can use my imagination to make it come alive.,15,280,20","Caitlin","At least it is a bit of scenery.,10,80,20","Morgan","Confusing park picture.,8,380,20","4"
"3423","","image-button-response_instructions","261","1282894","0.0-259.0","A1S26U10C10581","","0","instructions","","","","","","","","","","","","","","","","","","","","","","","",""
"1541","","image-button-response","262","1284442","0.0-260.0","A1S26U10C10581","","0","","","","","","","","","","","","","","","","","","","","","","","","",""
