"rt","url","trial_type","trial_index","time_elapsed","internal_node_id","participant_id","stimulus","button_pressed","Name","responses","response","key_press","variableName","fixationTime","condition","trial","photo","subjectRating","subjectResponse","agentsNames","agent_1_Response","agent_2_Response","agent_3_Response","agent_4_Response","agent_5_Response","agent_6_Response","kept_1_name","kept_1_response","kept_2_name","kept_2_response","kept_3_name","kept_3_response","errorCounter"
"12064","external_page_harvard.html","external-html","0","12262","0.0-0.0","A1SDO44E0SBQ2C","","","","","","","","","","","","","","","","","","","","","","","","","","",""
"1421","","image-button-response","1","13688","0.0-1.0","A1SDO44E0SBQ2C","","0","","","","","","","","","","","","","","","","","","","","","","","","",""
"1384","","image-button-response","2","15094","0.0-2.0-0.0","A1SDO44E0SBQ2C","","1","phone","","","","","","","","","","","","","","","","","","","","","","","",""
"5684","","survey-text","3","20781","0.0-3.0-0.0","A1SDO44E0SBQ2C","","","","{""Q0"":""A1SDO44E0SBQ2C""}","","","","","","","","","","","","","","","","","","","","","","",""
"2201","","image-button-response_instructions","4","22984","0.0-4.0","A1SDO44E0SBQ2C","","0","instructions","","","","","","","","","","","","","","","","","","","","","","","",""
"8049","","image-button-response_instructions","5","31036","0.0-5.0","A1SDO44E0SBQ2C","img_art/ins/popularity/ins1.png","0","instructions","","","","","","","","","","","","","","","","","","","","","","","",""
"8270","","image-button-response_instructions","6","39307","0.0-6.0","A1SDO44E0SBQ2C","img_art/ins/popularity/ins2.png","0","instructions","","","","","","","","","","","","","","","","","","","","","","","",""
"3582","","image-button-response_instructions","7","42891","0.0-7.0","A1SDO44E0SBQ2C","img_art/ins/popularity/ins2Extreme.png","0","instructions","","","","","","","","","","","","","","","","","","","","","","","",""
"6860","","image-button-response_instructions","8","49755","0.0-8.0","A1SDO44E0SBQ2C","img_art/ins/popularity/ins3KEEPpop.PNG","0","instructions","","","","","","","","","","","","","","","","","","","","","","","",""
"2789","","image-button-response_instructions","9","52546","0.0-9.0","A1SDO44E0SBQ2C","img_art/ins/popularity/ins3ANamepop.PNG","0","instructions","","","","","","","","","","","","","","","","","","","","","","","",""
"2752","","image-button-response_instructions","10","55298","0.0-10.0","A1SDO44E0SBQ2C","img_art/ins/popularity/ins3ARatingpop.png","0","instructions","","","","","","","","","","","","","","","","","","","","","","","",""
"2942","","image-button-response_instructions","11","58241","0.0-11.0","A1SDO44E0SBQ2C","img_art/ins/popularity/ins3ATextpop.png","0","instructions","","","","","","","","","","","","","","","","","","","","","","","",""
"3120","","image-button-response_instructions","12","61363","0.0-12.0","A1SDO44E0SBQ2C","img_art/ins/popularity/ins3ALikespop.png","0","instructions","","","","","","","","","","","","","","","","","","","","","","","",""
"141056","","image-button-response_instructions","13","202421","0.0-13.0","A1SDO44E0SBQ2C","img_art/ins/popularity/ins3KEEPpop.PNG","0","instructions","","","","","","","","","","","","","","","","","","","","","","","",""
"289695","","image-button-response_instructions","14","492117","0.0-14.0","A1SDO44E0SBQ2C","img_art/ins/popularity/ins3_5RED.png","0","instructions","","","","","","","","","","","","","","","","","","","","","","","",""
"2064","","image-button-response_instructions","15","494181","0.0-15.0","A1SDO44E0SBQ2C","img_art/ins/popularity/ins3KEEPpop.PNG","0","instructions","","","","","","","","","","","","","","","","","","","","","","","",""
"5455","","image-button-response_instructions","16","499637","0.0-16.0","A1SDO44E0SBQ2C","img_art/ins/popularity/ins4KEEPpop.PNG","0","instructions","","","","","","","","","","","","","","","","","","","","","","","",""
"3501","","image-button-response_instructions","17","503139","0.0-17.0","A1SDO44E0SBQ2C","img_art/ins/popularity/ins5KEEPpop.PNG","0","instructions","","","","","","","","","","","","","","","","","","","","","","","",""
"1421","","image-button-response_instructions","18","504561","0.0-18.0","A1SDO44E0SBQ2C","","0","instructions","","","","","","","","","","","","","","","","","","","","","","","",""
"7058","","survey-text","19","511671","0.0-19.0-0.0","A1SDO44E0SBQ2C","","","","{""Q0"":""but""}","","","","","","","","","","","","","","","","","","","","","","",""
"9345","","survey-text","20","521017","0.0-20.0-0.0","A1SDO44E0SBQ2C","","","","{""Q0"":""Looks like candy""}","","","","","","","","","","","","","","","","","","","","","","",""
"2447.300000011921","","image-slider-response","21","523467","0.0-21.0","A1SDO44E0SBQ2C","","","","","50","","","","","","","","","","","","","","","","","","","","","",""
"1959","","image-button-response","22","528475","0.0-22.0","A1SDO44E0SBQ2C","img_art/ins/1.jpg","0","","","","","","","","","","","","","","","","","","","","","","","","",""
"3568","","image-button-response","23","532048","0.0-23.0","A1SDO44E0SBQ2C","img_art/ins/1.jpg","5","","","","","","","","","","","","","","","","","","","","","","","","",""
"2483","","image-button-response","24","534536","0.0-24.0-0.0","A1SDO44E0SBQ2C","img_art/ins/1.jpg","2","","","","","","","","","","","","","","","","","","","","","","","","",""
"5309","","image-button-response","25","539847","0.0-25.0-0.0","A1SDO44E0SBQ2C","img_art/ins/1.jpg","1","","","","","","","","","","","","","","","","","","","","","","","","",""
"null","","html-keyboard-response","26","541360","0.0-26.0","A1SDO44E0SBQ2C","<p style=""font-size: 48px;"">+</p>","","","","","null","allTrialResponses","1500","1","-2","img_art/ins/1.jpg","50","Looks like candy","Adam,Alex,Ben,Carl,Daniel,Jack","Seems like doodles,-20,20,20","very creative work.,36,40,20","This color reminds me of poo,-46,60,20","very calming artwork,42,80,20","It looks like a murder scene.,-48,100,20","I like the sophisticated brushwork,40,120,20","Jack","I like the sophisticated brushwork,40,120,20","Ben","This color reminds me of poo,-46,60,20","Alex","very creative work.,36,40,20","0"
"9362","","survey-text","27","550755","0.0-27.0-0.0","A1SDO44E0SBQ2C","","","","{""Q0"":""Very cool""}","","","","","","","","","","","","","","","","","","","","","","",""
"2229.800000011921","","image-slider-response","28","552987","0.0-28.0","A1SDO44E0SBQ2C","","","","","50","","","","","","","","","","","","","","","","","","","","","",""
"3204","","image-button-response","29","557991","0.0-29.0","A1SDO44E0SBQ2C","img_art/ins/2.jpg","1","","","","","","","","","","","","","","","","","","","","","","","","",""
"869","","image-button-response","30","558861","0.0-30.0","A1SDO44E0SBQ2C","img_art/ins/2.jpg","1","","","","","","","","","","","","","","","","","","","","","","","","",""
"2132","","image-button-response","31","560995","0.0-31.0-0.0","A1SDO44E0SBQ2C","img_art/ins/2.jpg","4","","","","","","","","","","","","","","","","","","","","","","","","",""
"1900","","image-button-response","32","562897","0.0-32.0-0.0","A1SDO44E0SBQ2C","img_art/ins/2.jpg","5","","","","","","","","","","","","","","","","","","","","","","","","",""
"null","","html-keyboard-response","33","563899","0.0-33.0","A1SDO44E0SBQ2C","<p style=""font-size: 48px;"">+</p>","","","","","null","allTrialResponses","1000","1","-1","img_art/ins/2.jpg","50","Very cool","Kyle,Alex,Ben,James,John,Jack","Idk, it is just annoying,-32,180,20","I like the blocks of color arrangements,30,40,20","meaningless painting,-45,60,20","looks too angry,-50,140,20","love the texture of paint,48,160,20","I would never be able to compose a sophisticated pallete like this,48,120,20","Alex","I like the blocks of color arrangements,30,40,20","John","love the texture of paint,48,160,20","Jack","I would never be able to compose a sophisticated pallete like this,48,120,20","0"
"8890","","survey-text","34","572823","0.0-34.0-0.0","A1SDO44E0SBQ2C","","","","{""Q0"":""Looks like cloudy skies""}","","","","","","","","","","","","","","","","","","","","","","",""
"2455.5","","image-slider-response","35","575280","0.0-35.0","A1SDO44E0SBQ2C","","","","","50","","","","","","","","","","","","","","","","","","","","","",""
"3159","","image-button-response","36","580283","0.0-36.0","A1SDO44E0SBQ2C","img_art/ins/3.jpg","0","","","","","","","","","","","","","","","","","","","","","","","","",""
"545","","image-button-response","37","580831","0.0-37.0","A1SDO44E0SBQ2C","img_art/ins/3.jpg","0","","","","","","","","","","","","","","","","","","","","","","","","",""
"1366","","image-button-response","38","582199","0.0-38.0-0.0","A1SDO44E0SBQ2C","img_art/ins/3.jpg","0","","","","","","","","","","","","","","","","","","","","","","","","",""
"1874","","image-button-response","39","586705","0.0-38.1-0.1","A1SDO44E0SBQ2C","img_art/ins/3.jpg","3","","","","","","","","","","","","","","","","","","","","","","","","",""
"1838","","image-button-response","40","588545","0.0-39.0-0.0","A1SDO44E0SBQ2C","img_art/ins/3.jpg","4","","","","","","","","","","","","","","","","","","","","","","","","",""
"null","","html-keyboard-response","41","589547","0.0-40.0","A1SDO44E0SBQ2C","<p style=""font-size: 48px;"">+</p>","","","","","null","allTrialResponses","1000","1","0","img_art/ins/3.jpg","50","Looks like cloudy skies","Sam,Alex,Ron,Mike,John,Jack","I can feel a rainy day from this painting,18,240,20","calming blue is very nice,36,40,20","It looks depressing,-26,220,20","enjoy the different shades of blue,22,200,20","I like the overlapping of brushes,41,160,20","I feel connected to the artist,40,120,20","Sam","I can feel a rainy day from this painting,18,240,20","Mike","enjoy the different shades of blue,22,200,20","John","I like the overlapping of brushes,41,160,20","2"
"4471","","image-button-response_instructions","42","594039","0.0-41.0","A1SDO44E0SBQ2C","","0","instructions","","","","","","","","","","","","","","","","","","","","","","","",""
"5083","","survey-likert","43","599125","0.0-42.0-0.0","A1SDO44E0SBQ2C","","","","{""Q0"":"""",""Q1"":"""",""Q2"":""""}","","","","","","","","","","","","","","","","","","","","","","",""
"12244","","survey-likert","44","612715","0.0-42.1-0.1","A1SDO44E0SBQ2C","","","","{""Q0"":"""",""Q1"":0,""Q2"":1}","","","","","","","","","","","","","","","","","","","","","","",""
"3784","","survey-text","45","616516","0.0-43.0-0.0","A1SDO44E0SBQ2C","","","","{""Q0"":""rock""}","","","","","","","","","","","","","","","","","","","","","","",""
"14729","","survey-text","46","631246","0.0-44.0-0.0","A1SDO44E0SBQ2C","","","","{""Q0"":""Its like a murder scene. Scary!""}","","","","","","","","","","","","","","","","","","","","","","",""
"1715","","image-slider-response","47","632963","0.0-45.0","A1SDO44E0SBQ2C","","","","","32","","","","","","","","","","","","","","","","","","","","","",""
"3460","","image-button-response","48","637997","0.0-46.0","A1SDO44E0SBQ2C","img_art/3.jpg","1","","","","","","","","","","","","","","","","","","","","","","","","",""
"747","","image-button-response","49","638745","0.0-47.0","A1SDO44E0SBQ2C","img_art/3.jpg","2","","","","","","","","","","","","","","","","","","","","","","","","",""
"1088","","image-button-response","50","639836","0.0-48.0-0.0","A1SDO44E0SBQ2C","img_art/3.jpg","1","","","","","","","","","","","","","","","","","","","","","","","","",""
"6768","","image-button-response","51","646606","0.0-49.0-0.0","A1SDO44E0SBQ2C","img_art/3.jpg","5","","","","","","","","","","","","","","","","","","","","","","","","",""
"null","","html-keyboard-response","52","648109","0.0-50.0","A1SDO44E0SBQ2C","<p style=""font-size: 48px;"">+</p>","","","","","null","allTrialResponses","1500","1","1","img_art/3.jpg","32","Its like a murder scene. Scary!","Blake,Marcus,Bryce,Jacob,Jeremy,Steven","painted by a 2 year old. cold and boring,-30,280,20","Like the colors and energy of this work.,10,60,20","Scary. Looks like blood.,-45,20,20","Don't get the scribbles.,-13,340,20","seems too angry,-50,60,20","i don't like this, just looks like scribbles,-50,160,20","Bryce","Scary. Looks like blood.,-45,20,20","Marcus","Like the colors and energy of this work.,10,60,20","Steven","i don't like this, just looks like scribbles,-50,160,20","3"
"12598","","survey-text","53","660738","0.0-51.0-0.0","A1SDO44E0SBQ2C","","","","{""Q0"":""It shows the emotion of anger""}","","","","","","","","","","","","","","","","","","","","","","",""
"1784","","image-slider-response","54","662524","0.0-52.0","A1SDO44E0SBQ2C","","","","","19","","","","","","","","","","","","","","","","","","","","","",""
"4975","","image-button-response","55","667528","0.0-53.0","A1SDO44E0SBQ2C","img_art/27.jpg","2","","","","","","","","","","","","","","","","","","","","","","","","",""
"1149","","image-button-response","56","668678","0.0-54.0","A1SDO44E0SBQ2C","img_art/27.jpg","2","","","","","","","","","","","","","","","","","","","","","","","","",""
"2503","","image-button-response","57","671183","0.0-55.0-0.0","A1SDO44E0SBQ2C","img_art/27.jpg","4","","","","","","","","","","","","","","","","","","","","","","","","",""
"1340","","image-button-response","58","672526","0.0-56.0-0.0","A1SDO44E0SBQ2C","img_art/27.jpg","5","","","","","","","","","","","","","","","","","","","","","","","","",""
"null","","html-keyboard-response","59","673028","0.0-57.0","A1SDO44E0SBQ2C","<p style=""font-size: 48px;"">+</p>","","","","","null","allTrialResponses","500","1","2","img_art/27.jpg","19","It shows the emotion of anger","Nathaniel,Marcus,Bryce,Christopher,Hunter,Steven","Looks like a splash of different colors and designs without purpose,-44,220,20","It's okay. Not really interesting to me.,-10,60,20","It kinda reminds me of sushi.,16,20,20","i don't think i should like this one because it's a little chaotic and simple but I do,6,160,20","reminds me of kandinsky,10,240,20","two warring cities, separated by a small desert,50,160,20","Bryce","It kinda reminds me of sushi.,16,20,20","Hunter","reminds me of kandinsky,10,240,20","Steven","two warring cities, separated by a small desert,50,160,20","3"
"17614","","survey-text","60","690664","0.0-58.0-0.0","A1SDO44E0SBQ2C","","","","{""Q0"":""I like this as an abstract representation of a conflict.""}","","","","","","","","","","","","","","","","","","","","","","",""
"2233.2000000476837","","image-slider-response","61","692899","0.0-59.0","A1SDO44E0SBQ2C","","","","","35","","","","","","","","","","","","","","","","","","","","","",""
"1395","","image-button-response","62","697902","0.0-60.0","A1SDO44E0SBQ2C","img_art/28.jpg","0","","","","","","","","","","","","","","","","","","","","","","","","",""
"3153","","image-button-response","63","701060","0.0-61.0","A1SDO44E0SBQ2C","img_art/28.jpg","1","","","","","","","","","","","","","","","","","","","","","","","","",""
"640","","image-button-response","64","701702","0.0-62.0-0.0","A1SDO44E0SBQ2C","img_art/28.jpg","0","","","","","","","","","","","","","","","","","","","","","","","","",""
"692","","image-button-response","65","702398","0.0-63.0-0.0","A1SDO44E0SBQ2C","img_art/28.jpg","2","","","","","","","","","","","","","","","","","","","","","","","","",""
"null","","html-keyboard-response","66","703402","0.0-64.0","A1SDO44E0SBQ2C","<p style=""font-size: 48px;"">+</p>","","","","","null","allTrialResponses","1000","1","3","img_art/28.jpg","35","I like this as an abstract representation of a conflict.","Seth,Ian,Bryce,Devin,Hunter,Steven","I think this piece is interesting. I love the faces drawn into it.,29,60,20","This one looks very dark and seems like it has a lot of depth to it.,31,260,20","It gives me weird vibes.,-25,20,20","It is a bit drab,-10,380,20","reminds me of kandinsky,14,240,20","It's a bike that was left abandoned by someone who doesnt care for it,1,160,20","Ian","This one looks very dark and seems like it has a lot of depth to it.,31,260,20","Seth","I think this piece is interesting. I love the faces drawn into it.,29,60,20","Bryce","It gives me weird vibes.,-25,20,20","3"
"13184","","survey-text","67","716614","0.0-65.0-0.0","A1SDO44E0SBQ2C","","","","{""Q0"":""Reminds me a of lovely beach""}","","","","","","","","","","","","","","","","","","","","","","",""
"3160.400000035763","","image-slider-response","68","719776","0.0-66.0","A1SDO44E0SBQ2C","","","","","50","","","","","","","","","","","","","","","","","","","","","",""
"4408","","image-button-response","69","724778","0.0-67.0","A1SDO44E0SBQ2C","img_art/7.jpg","4","","","","","","","","","","","","","","","","","","","","","","","","",""
"714","","image-button-response","70","725496","0.0-68.0","A1SDO44E0SBQ2C","img_art/7.jpg","4","","","","","","","","","","","","","","","","","","","","","","","","",""
"562","","image-button-response","71","726061","0.0-69.0-0.0","A1SDO44E0SBQ2C","img_art/7.jpg","5","","","","","","","","","","","","","","","","","","","","","","","","",""
"623","","image-button-response","72","726686","0.0-70.0-0.0","A1SDO44E0SBQ2C","img_art/7.jpg","2","","","","","","","","","","","","","","","","","","","","","","","","",""
"null","","html-keyboard-response","73","727188","0.0-71.0","A1SDO44E0SBQ2C","<p style=""font-size: 48px;"">+</p>","","","","","null","allTrialResponses","500","1","4","img_art/7.jpg","50","Reminds me a of lovely beach","Seth,Ian,Bryce,Alexis,Daniel,Timothy","This piece reminds me of ants and it makes my skin crawl.,-37,60,20","This looks like a literal picture of the ground so I'm really not too sure about this one.,-42,260,20","I love the texture.,20,20,20","it looks like an ant farm,12,140,20","Great portrayal of solid surface,19,320,20","This feels very earthy and grounded,20,240,20","Daniel","Great portrayal of solid surface,19,320,20","Timothy","This feels very earthy and grounded,20,240,20","Bryce","I love the texture.,20,20,20","3"
"14810","","survey-text","74","742046","0.0-72.0-0.0","A1SDO44E0SBQ2C","","","","{""Q0"":""This is anger. I love love it""}","","","","","","","","","","","","","","","","","","","","","","",""
"1776.6000000238419","","image-slider-response","75","743825","0.0-73.0","A1SDO44E0SBQ2C","","","","","43","","","","","","","","","","","","","","","","","","","","","",""
"1568","","image-button-response","76","748829","0.0-74.0","A1SDO44E0SBQ2C","img_art/9.jpg","1","","","","","","","","","","","","","","","","","","","","","","","","",""
"1169","","image-button-response","77","750000","0.0-75.0","A1SDO44E0SBQ2C","img_art/9.jpg","1","","","","","","","","","","","","","","","","","","","","","","","","",""
"1018","","image-button-response","78","751021","0.0-76.0-0.0","A1SDO44E0SBQ2C","img_art/9.jpg","4","","","","","","","","","","","","","","","","","","","","","","","","",""
"1551","","image-button-response","79","752575","0.0-77.0-0.0","A1SDO44E0SBQ2C","img_art/9.jpg","3","","","","","","","","","","","","","","","","","","","","","","","","",""
"null","","html-keyboard-response","80","754083","0.0-78.0","A1SDO44E0SBQ2C","<p style=""font-size: 48px;"">+</p>","","","","","null","allTrialResponses","1500","1","5","img_art/9.jpg","43","This is anger. I love love it","David,William,Bryce,Sean,Daniel,Timothy","I like how design can be interpreted differently, I see a person sleeping or a mountainous region.,10,340,20","reminds me of a story book,18,380,20","Looks like a crayon drawing.,21,20,20","Gives me anxiety,-23,40,20","A troubled painter was influenced by anger and mad at the woman in the middle, color not bad,-32,320,20","A little too weird for me,-30,240,20","William","reminds me of a story book,18,380,20","Daniel","A troubled painter was influenced by anger and mad at the woman in the middle, color not bad,-32,320,20","Sean","Gives me anxiety,-23,40,20","3"
"19499","","survey-text","81","773599","0.0-79.0-0.0","A1SDO44E0SBQ2C","","","","{""Q0"":""sky""}","","","","","","","","","","","","","","","","","","","","","","",""
"8740","","survey-text","82","782341","0.0-80.0-0.0","A1SDO44E0SBQ2C","","","","{""Q0"":""Cookie monster maybe?""}","","","","","","","","","","","","","","","","","","","","","","",""
"2176.400000035763","","image-slider-response","83","784522","0.0-81.0","A1SDO44E0SBQ2C","","","","","50","","","","","","","","","","","","","","","","","","","","","",""
"3128","","image-button-response","84","789531","0.0-82.0","A1SDO44E0SBQ2C","img_art/2.jpg","1","","","","","","","","","","","","","","","","","","","","","","","","",""
"760","","image-button-response","85","790296","0.0-83.0","A1SDO44E0SBQ2C","img_art/2.jpg","1","","","","","","","","","","","","","","","","","","","","","","","","",""
"1629","","image-button-response","86","791926","0.0-84.0-0.0","A1SDO44E0SBQ2C","img_art/2.jpg","4","","","","","","","","","","","","","","","","","","","","","","","","",""
"1072","","image-button-response","87","793000","0.0-85.0-0.0","A1SDO44E0SBQ2C","img_art/2.jpg","3","","","","","","","","","","","","","","","","","","","","","","","","",""
"null","","html-keyboard-response","88","794516","0.0-86.0","A1SDO44E0SBQ2C","<p style=""font-size: 48px;"">+</p>","","","","","null","allTrialResponses","1500","1","6","img_art/2.jpg","50","Cookie monster maybe?","Alejandro,William,Vincent,Sean,Daniel,Mason","Looks contrived and like someone tried to hard to make it abstract,-31,80,20","I like the colors,22,380,20","This reminds me of a peaceful day out alone shopping and spending some me time,41,360,20","looks like a bunch of gibberish,-39,40,20","Colors and space work but the top scribbled killed it.,11,320,20","retro, amateurish, not a fan of the colors together.,-10,100,20","William","I like the colors,22,380,20","Daniel","Colors and space work but the top scribbled killed it.,11,320,20","Sean","looks like a bunch of gibberish,-39,40,20","3"
"19637","","survey-text","89","814156","0.0-87.0-0.0","A1SDO44E0SBQ2C","","","","{""Q0"":""I really feel this. I want to go here.""}","","","","","","","","","","","","","","","","","","","","","","",""
"2447.7999999523163","","image-slider-response","90","816606","0.0-88.0","A1SDO44E0SBQ2C","","","","","49","","","","","","","","","","","","","","","","","","","","","",""
"null","","image-button-response","91","821609","0.0-89.0","A1SDO44E0SBQ2C","img_art/17.jpg","null","","","","","","","","","","","","","","","","","","","","","","","","",""
"386","","image-button-response","92","821999","0.0-90.0","A1SDO44E0SBQ2C","img_art/17.jpg","0","","","","","","","","","","","","","","","","","","","","","","","","",""
"1686","","image-button-response","93","823687","0.0-91.0-0.0","A1SDO44E0SBQ2C","img_art/17.jpg","3","","","","","","","","","","","","","","","","","","","","","","","","",""
"1813","","image-button-response","94","825502","0.0-92.0-0.0","A1SDO44E0SBQ2C","img_art/17.jpg","4","","","","","","","","","","","","","","","","","","","","","","","","",""
"null","","html-keyboard-response","95","826504","0.0-93.0","A1SDO44E0SBQ2C","<p style=""font-size: 48px;"">+</p>","","","","","null","allTrialResponses","1000","1","7","img_art/17.jpg","49","I really feel this. I want to go here.","Eric,William,Thomas,Sean,Daniel,Ethan","This picture is calming to me, and I love the colors.,45,100,20","love the wispyness of it,34,380,20","Colors and composition are beautiful. I would hang this in my home.,50,220,20","my response to the picture is that it looks beautiful,27,40,20","2 paintings in 1 with shared colors,5,320,20","The colors are nice and soft but not very complimentary.,7,120,20","Eric","This picture is calming to me, and I love the colors.,45,100,20","Sean","my response to the picture is that it looks beautiful,27,40,20","Daniel","2 paintings in 1 with shared colors,5,320,20","3"
"24196","","survey-text","96","850715","0.0-94.0-0.0","A1SDO44E0SBQ2C","","","","{""Q0"":""I love the texture. What a surprise of color""}","","","","","","","","","","","","","","","","","","","","","","",""
"1868.1000000238419","","image-slider-response","97","852585","0.0-95.0","A1SDO44E0SBQ2C","","","","","45","","","","","","","","","","","","","","","","","","","","","",""
"4650","","image-button-response","98","857590","0.0-96.0","A1SDO44E0SBQ2C","img_art/4.jpg","3","","","","","","","","","","","","","","","","","","","","","","","","",""
"2906","","image-button-response","99","860499","0.0-97.0","A1SDO44E0SBQ2C","img_art/4.jpg","2","","","","","","","","","","","","","","","","","","","","","","","","",""
"1810","","image-button-response","100","862310","0.0-98.0-0.0","A1SDO44E0SBQ2C","img_art/4.jpg","0","","","","","","","","","","","","","","","","","","","","","","","","",""
"1276","","image-button-response","101","863591","0.0-99.0-0.0","A1SDO44E0SBQ2C","img_art/4.jpg","4","","","","","","","","","","","","","","","","","","","","","","","","",""
"null","","html-keyboard-response","102","865097","0.0-100.0","A1SDO44E0SBQ2C","<p style=""font-size: 48px;"">+</p>","","","","","null","allTrialResponses","1500","1","8","img_art/4.jpg","45","I love the texture. What a surprise of color","Eric,Brandon,Malik,Sean,Daniel,Joseph","This piece catches my eye, but it's strange to me.,10,100,20","Really don't like this. Kindergarten art, sorry.,-50,320,20","Reminds me of late night frustrated paintings of my own made of coffee,12,40,20","dont know what im looking at,1,40,20","Better version of a 7 year old who got lucky,-23,320,20","It's okay, I guess. Nothing much either way.,5,220,20","Malik","Reminds me of late night frustrated paintings of my own made of coffee,12,40,20","Eric","This piece catches my eye, but it's strange to me.,10,100,20","Daniel","Better version of a 7 year old who got lucky,-23,320,20","3"
"9862","","survey-text","103","874977","0.0-101.0-0.0","A1SDO44E0SBQ2C","","","","{""Q0"":""Is this an instrument. Like strings""}","","","","","","","","","","","","","","","","","","","","","","",""
"1976.1000000238419","","image-slider-response","104","876955","0.0-102.0","A1SDO44E0SBQ2C","","","","","43","","","","","","","","","","","","","","","","","","","","","",""
"2317","","image-button-response","105","881958","0.0-103.0","A1SDO44E0SBQ2C","img_art/10.jpg","1","","","","","","","","","","","","","","","","","","","","","","","","",""
"692","","image-button-response","106","882654","0.0-104.0","A1SDO44E0SBQ2C","img_art/10.jpg","1","","","","","","","","","","","","","","","","","","","","","","","","",""
"1288","","image-button-response","107","883943","0.0-105.0-0.0","A1SDO44E0SBQ2C","img_art/10.jpg","2","","","","","","","","","","","","","","","","","","","","","","","","",""
"802","","image-button-response","108","884747","0.0-106.0-0.0","A1SDO44E0SBQ2C","img_art/10.jpg","4","","","","","","","","","","","","","","","","","","","","","","","","",""
"null","","html-keyboard-response","109","885751","0.0-107.0","A1SDO44E0SBQ2C","<p style=""font-size: 48px;"">+</p>","","","","","null","allTrialResponses","1000","1","9","img_art/10.jpg","43","Is this an instrument. Like strings","Eric,Alexander,Malik,Corey,Daniel,Bryan","This piece is unusual in a way that makes me uncomfortable.,-5,100,20","Roller coaster on an island.,9,120,20","Good texture, expressive,18,40,20","I think this was going to be a guitar but then the artist got mad and gave up,-4,260,20","Music visualized with subtle color,17,320,20","First impression was musical instrument then, because of the gray colors, death.,5,400,20","Alexander","Roller coaster on an island.,9,120,20","Malik","Good texture, expressive,18,40,20","Daniel","Music visualized with subtle color,17,320,20","3"
"10271","","survey-text","110","896033","0.0-108.0-0.0","A1SDO44E0SBQ2C","","","","{""Q0"":""What a cool knight. ""}","","","","","","","","","","","","","","","","","","","","","","",""
"2225","","image-slider-response","111","898260","0.0-109.0","A1SDO44E0SBQ2C","","","","","50","","","","","","","","","","","","","","","","","","","","","",""
"1598","","image-button-response","112","903262","0.0-110.0","A1SDO44E0SBQ2C","img_art/18.jpg","1","","","","","","","","","","","","","","","","","","","","","","","","",""
"605","","image-button-response","113","903872","0.0-111.0","A1SDO44E0SBQ2C","img_art/18.jpg","1","","","","","","","","","","","","","","","","","","","","","","","","",""
"392","","image-button-response","114","904265","0.0-112.0-0.0","A1SDO44E0SBQ2C","img_art/18.jpg","2","","","","","","","","","","","","","","","","","","","","","","","","",""
"656","","image-button-response","115","904924","0.0-113.0-0.0","A1SDO44E0SBQ2C","img_art/18.jpg","5","","","","","","","","","","","","","","","","","","","","","","","","",""
"null","","html-keyboard-response","116","905927","0.0-114.0","A1SDO44E0SBQ2C","<p style=""font-size: 48px;"">+</p>","","","","","null","allTrialResponses","1000","1","10","img_art/18.jpg","50","What a cool knight. ","Dakota,Alexander,Malik,Anthony,Daniel,Miguel","afraid and anxious,21,280,20","Ghostly sea adventure.,20,120,20","Gently chaotic and beautiful,40,40,20","I have no strong feelings about this image,1,200,20","Nice palette with complexity becoming nice at the center,34,320,20","This looks amazing.,40,160,20","Alexander","Ghostly sea adventure.,20,120,20","Malik","Gently chaotic and beautiful,40,40,20","Miguel","This looks amazing.,40,160,20","3"
"3093","","survey-text","117","909060","0.0-115.0-0.0","A1SDO44E0SBQ2C","","","","{""Q0"":""our""}","","","","","","","","","","","","","","","","","","","","","","",""
"18473","","survey-text","118","927535","0.0-116.0-0.0","A1SDO44E0SBQ2C","","","","{""Q0"":""I love the mixed media. Watercolors and pen maybe?""}","","","","","","","","","","","","","","","","","","","","","","",""
"3413.199999988079","","image-slider-response","119","930951","0.0-117.0","A1SDO44E0SBQ2C","","","","","50","","","","","","","","","","","","","","","","","","","","","",""
"1460","","image-button-response","120","935955","0.0-118.0","A1SDO44E0SBQ2C","img_art/19.jpg","1","","","","","","","","","","","","","","","","","","","","","","","","",""
"636","","image-button-response","121","936593","0.0-119.0","A1SDO44E0SBQ2C","img_art/19.jpg","4","","","","","","","","","","","","","","","","","","","","","","","","",""
"987","","image-button-response","122","937583","0.0-120.0-0.0","A1SDO44E0SBQ2C","img_art/19.jpg","5","","","","","","","","","","","","","","","","","","","","","","","","",""
"1141","","image-button-response","123","938727","0.0-121.0-0.0","A1SDO44E0SBQ2C","img_art/19.jpg","2","","","","","","","","","","","","","","","","","","","","","","","","",""
"null","","html-keyboard-response","124","939228","0.0-122.0","A1SDO44E0SBQ2C","<p style=""font-size: 48px;"">+</p>","","","","","null","allTrialResponses","500","1","11","img_art/19.jpg","50","I love the mixed media. Watercolors and pen maybe?","Adam,Alexander,Malik,Cole,Jake,Miguel","Messy mix of colors.,-5,40,20","Messy pantry full of food.,5,120,20","Very dreamlike,26,40,20","Its simple and the colors i like. It reminds me of chagall,34,200,20","This is like an ugly version of a Basquiat.,-24,360,20","Messy and kid like.,-36,160,20","Jake","This is like an ugly version of a Basquiat.,-24,360,20","Miguel","Messy and kid like.,-36,160,20","Malik","Very dreamlike,26,40,20","3"
"12829","","survey-text","125","952077","0.0-123.0-0.0","A1SDO44E0SBQ2C","","","","{""Q0"":""I love that bear. So dreamy""}","","","","","","","","","","","","","","","","","","","","","","",""
"2348.5","","image-slider-response","126","954428","0.0-124.0","A1SDO44E0SBQ2C","","","","","50","","","","","","","","","","","","","","","","","","","","","",""
"1914","","image-button-response","127","959432","0.0-125.0","A1SDO44E0SBQ2C","img_art/16.jpg","0","","","","","","","","","","","","","","","","","","","","","","","","",""
"1197","","image-button-response","128","960634","0.0-126.0","A1SDO44E0SBQ2C","img_art/16.jpg","5","","","","","","","","","","","","","","","","","","","","","","","","",""
"685","","image-button-response","129","961321","0.0-127.0-0.0","A1SDO44E0SBQ2C","img_art/16.jpg","2","","","","","","","","","","","","","","","","","","","","","","","","",""
"547","","image-button-response","130","961870","0.0-128.0-0.0","A1SDO44E0SBQ2C","img_art/16.jpg","1","","","","","","","","","","","","","","","","","","","","","","","","",""
"null","","html-keyboard-response","131","963372","0.0-129.0","A1SDO44E0SBQ2C","<p style=""font-size: 48px;"">+</p>","","","","","null","allTrialResponses","1500","1","12","img_art/16.jpg","50","I love that bear. So dreamy","Jason,Isaiah,Malik,Jordan,Jake,Miguel","The bear is a weird choice,-22,20,20","I feel irked, like somehow the items in this painting just happened to fall on the page together.,-44,300,20","Very emotional,23,40,20","The bear makes me very uncomfortable,-50,160,20","This is creepy and puerile.,-45,360,20","Very cool abstraction.,19,160,20","Miguel","Very cool abstraction.,19,160,20","Malik","Very emotional,23,40,20","Isaiah","I feel irked, like somehow the items in this painting just happened to fall on the page together.,-44,300,20","3"
"13924","","survey-text","132","977313","0.0-130.0-0.0","A1SDO44E0SBQ2C","","","","{""Q0"":""I want to touch the textures here. I love it""}","","","","","","","","","","","","","","","","","","","","","","",""
"2054.399999976158","","image-slider-response","133","979369","0.0-131.0","A1SDO44E0SBQ2C","","","","","49","","","","","","","","","","","","","","","","","","","","","",""
"null","","image-button-response","134","984388","0.0-132.0","A1SDO44E0SBQ2C","img_art/29.jpg","null","","","","","","","","","","","","","","","","","","","","","","","","",""
"20874","","image-button-response","135","1005267","0.0-133.0","A1SDO44E0SBQ2C","img_art/29.jpg","2","","","","","","","","","","","","","","","","","","","","","","","","",""
"2200","","image-button-response","136","1007471","0.0-134.0-0.0","A1SDO44E0SBQ2C","img_art/29.jpg","3","","","","","","","","","","","","","","","","","","","","","","","","",""
"1118","","image-button-response","137","1008592","0.0-135.0-0.0","A1SDO44E0SBQ2C","img_art/29.jpg","0","","","","","","","","","","","","","","","","","","","","","","","","",""
"null","","html-keyboard-response","138","1009094","0.0-136.0","A1SDO44E0SBQ2C","<p style=""font-size: 48px;"">+</p>","","","","","null","allTrialResponses","500","1","13","img_art/29.jpg","49","I want to touch the textures here. I love it","Nicholas,Isaiah,Malik,Jesse,Antonio,Miguel","I love this things almost hidden in it like paint brush and other details,50,240,20","I feel a little disgust. There is something off-putting about the smooth shapes and dark colors.,-43,300,20","Feels like an abandoned dream,13,40,20","Grabs interest but then confuses me,6,80,20","Depressing and with that big red x on it just makes me not like it.,-33,220,20","It's too messy.,-25,160,20","Malik","Feels like an abandoned dream,13,40,20","Jesse","Grabs interest but then confuses me,6,80,20","Nicholas","I love this things almost hidden in it like paint brush and other details,50,240,20","3"
"18044","","survey-text","139","1027143","0.0-137.0-0.0","A1SDO44E0SBQ2C","","","","{""Q0"":""I think I see some happy here.""}","","","","","","","","","","","","","","","","","","","","","","",""
"1706.199999988079","","image-slider-response","140","1028852","0.0-138.0","A1SDO44E0SBQ2C","","","","","44","","","","","","","","","","","","","","","","","","","","","",""
"1428","","image-button-response","141","1033855","0.0-139.0","A1SDO44E0SBQ2C","img_art/5.jpg","1","","","","","","","","","","","","","","","","","","","","","","","","",""
"573","","image-button-response","142","1034432","0.0-140.0","A1SDO44E0SBQ2C","img_art/5.jpg","0","","","","","","","","","","","","","","","","","","","","","","","","",""
"562","","image-button-response","143","1034996","0.0-141.0-0.0","A1SDO44E0SBQ2C","img_art/5.jpg","2","","","","","","","","","","","","","","","","","","","","","","","","",""
"623","","image-button-response","144","1035621","0.0-142.0-0.0","A1SDO44E0SBQ2C","img_art/5.jpg","4","","","","","","","","","","","","","","","","","","","","","","","","",""
"null","","html-keyboard-response","145","1036623","0.0-143.0","A1SDO44E0SBQ2C","<p style=""font-size: 48px;"">+</p>","","","","","null","allTrialResponses","1000","1","14","img_art/5.jpg","44","I think I see some happy here.","Nicholas,Trevor,Malik,Jesse,Garrett,Jose","I cant explain why i like this so much but it really calls out to me,50,240,20","looks like a little kids painting,-50,280,20","Not sure what I'm looking at,-16,40,20","I just dont get it. Means very little to me,-22,80,20","I don't know what it's supposed to be and it looks ugly the way the colors are on the yellow cube.,-50,180,20","Don't love don't hate,8,200,20","Nicholas","I cant explain why i like this so much but it really calls out to me,50,240,20","Malik","Not sure what I'm looking at,-16,40,20","Garrett","I don't know what it's supposed to be and it looks ugly the way the colors are on the yellow cube.,-50,180,20","3"
"10103","","survey-text","146","1046751","0.0-144.0-0.0","A1SDO44E0SBQ2C","","","","{""Q0"":""Cool bird maybe. So lonely""}","","","","","","","","","","","","","","","","","","","","","","",""
"2010.699999988079","","image-slider-response","147","1048764","0.0-145.0","A1SDO44E0SBQ2C","","","","","50","","","","","","","","","","","","","","","","","","","","","",""
"1982","","image-button-response","148","1053767","0.0-146.0","A1SDO44E0SBQ2C","img_art/6.jpg","1","","","","","","","","","","","","","","","","","","","","","","","","",""
"589","","image-button-response","149","1054357","0.0-147.0","A1SDO44E0SBQ2C","img_art/6.jpg","2","","","","","","","","","","","","","","","","","","","","","","","","",""
"532","","image-button-response","150","1054892","0.0-148.0-0.0","A1SDO44E0SBQ2C","img_art/6.jpg","1","","","","","","","","","","","","","","","","","","","","","","","","",""
"825","","image-button-response","151","1055720","0.0-149.0-0.0","A1SDO44E0SBQ2C","img_art/6.jpg","0","","","","","","","","","","","","","","","","","","","","","","","","",""
"null","","html-keyboard-response","152","1057230","0.0-150.0","A1SDO44E0SBQ2C","<p style=""font-size: 48px;"">+</p>","","","","","null","allTrialResponses","1500","1","15","img_art/6.jpg","50","Cool bird maybe. So lonely","Nicholas,Brett,Malik,Cody,Garrett,Logan","It isnt bad but sort of too bland,0,240,20","Reminds me of feeling incomplete,1,360,20","Lonesome in nature,13,40,20","Birds are cool but I don't love it,10,180,20","I can't tell what this image is, but it's boring because of lack of color variety and nothing in it,-41,180,20","boring. don't really like birds,1,360,20","Malik","Lonesome in nature,13,40,20","Brett","Reminds me of feeling incomplete,1,360,20","Nicholas","It isnt bad but sort of too bland,0,240,20","3"
"15967","","survey-text","153","1073237","0.0-151.0-0.0","A1SDO44E0SBQ2C","","","","{""Q0"":""course""}","","","","","","","","","","","","","","","","","","","","","","",""
"9700","","survey-text","154","1082939","0.0-152.0-0.0","A1SDO44E0SBQ2C","","","","{""Q0"":""A battle of wizards""}","","","","","","","","","","","","","","","","","","","","","","",""
"2061.300000011921","","image-slider-response","155","1085003","0.0-153.0","A1SDO44E0SBQ2C","","","","","50","","","","","","","","","","","","","","","","","","","","","",""
"null","","image-button-response","156","1090020","0.0-154.0","A1SDO44E0SBQ2C","img_art/21.jpg","null","","","","","","","","","","","","","","","","","","","","","","","","",""
"1103","","image-button-response","157","1091125","0.0-155.0","A1SDO44E0SBQ2C","img_art/21.jpg","5","","","","","","","","","","","","","","","","","","","","","","","","",""
"934","","image-button-response","158","1092061","0.0-156.0-0.0","A1SDO44E0SBQ2C","img_art/21.jpg","1","","","","","","","","","","","","","","","","","","","","","","","","",""
"856","","image-button-response","159","1092918","0.0-157.0-0.0","A1SDO44E0SBQ2C","img_art/21.jpg","0","","","","","","","","","","","","","","","","","","","","","","","","",""
"null","","html-keyboard-response","160","1094428","0.0-158.0","A1SDO44E0SBQ2C","<p style=""font-size: 48px;"">+</p>","","","","","null","allTrialResponses","1500","1","16","img_art/21.jpg","50","A battle of wizards","Nicholas,Brett,Malik,Angel,Tyler,Ryan","Love the colors and the relationship between the light and storm,50,240,20","Makes me think of a battleship targeting a beautiful mountainside,0,360,20","Indistinct, but beautiful hues,10,40,20","This feels chaotic, like a battle or a storm.,-20,180,20","War! But then, what? And then, what of it? Intention seems incomplete, or not fully committed to.,-19,320,20","Very calming and nice to look at,30,380,20","Ryan","Very calming and nice to look at,30,380,20","Brett","Makes me think of a battleship targeting a beautiful mountainside,0,360,20","Nicholas","Love the colors and the relationship between the light and storm,50,240,20","3"
"128297","","survey-text","161","1222740","0.0-159.0-0.0","A1SDO44E0SBQ2C","","","","{""Q0"":""This looks like desert""}","","","","","","","","","","","","","","","","","","","","","","",""
"18819.80000001192","","image-slider-response","162","1241561","0.0-160.0","A1SDO44E0SBQ2C","","","","","50","","","","","","","","","","","","","","","","","","","","","",""
"2385","","image-button-response","163","1246578","0.0-161.0","A1SDO44E0SBQ2C","img_art/20.jpg","1","","","","","","","","","","","","","","","","","","","","","","","","",""
"546","","image-button-response","164","1247128","0.0-162.0","A1SDO44E0SBQ2C","img_art/20.jpg","3","","","","","","","","","","","","","","","","","","","","","","","","",""
"702","","image-button-response","165","1247832","0.0-163.0-0.0","A1SDO44E0SBQ2C","img_art/20.jpg","1","","","","","","","","","","","","","","","","","","","","","","","","",""
"2030","","image-button-response","166","1249864","0.0-164.0-0.0","A1SDO44E0SBQ2C","img_art/20.jpg","4","","","","","","","","","","","","","","","","","","","","","","","","",""
"null","","html-keyboard-response","167","1250868","0.0-165.0","A1SDO44E0SBQ2C","<p style=""font-size: 48px;"">+</p>","","","","","null","allTrialResponses","1000","1","17","img_art/20.jpg","50","This looks like desert","Nicholas,Brett,Adrian,Shawn,Caleb,Ryan","Use of white on foreground is too big and steals eyes away from rest of painting,2,240,20","City life vs shore life,40,360,20","Not sure what it is. The colors are pleasant; makes me want to figure it out. An animal skull in the desert?,10,60,20","Mood setting if a little dreary,20,100,20","Lovely composition, colors, and message.,35,40,20","Too negative looks like a car and plane crash,-50,380,20","Shawn","Mood setting if a little dreary,20,100,20","Brett","City life vs shore life,40,360,20","Caleb","Lovely composition, colors, and message.,35,40,20","3"
"17465","","survey-text","168","1268353","0.0-166.0-0.0","A1SDO44E0SBQ2C","","","","{""Q0"":""Textures of a dreamlike substance""}","","","","","","","","","","","","","","","","","","","","","","",""
"1976.199999988079","","image-slider-response","169","1270331","0.0-167.0","A1SDO44E0SBQ2C","","","","","49","","","","","","","","","","","","","","","","","","","","","",""
"2936","","image-button-response","170","1275335","0.0-168.0","A1SDO44E0SBQ2C","img_art/1.jpg","3","","","","","","","","","","","","","","","","","","","","","","","","",""
"765","","image-button-response","171","1276105","0.0-169.0","A1SDO44E0SBQ2C","img_art/1.jpg","3","","","","","","","","","","","","","","","","","","","","","","","","",""
"617","","image-button-response","172","1276724","0.0-170.0-0.0","A1SDO44E0SBQ2C","img_art/1.jpg","4","","","","","","","","","","","","","","","","","","","","","","","","",""
"516","","image-button-response","173","1277242","0.0-171.0-0.0","A1SDO44E0SBQ2C","img_art/1.jpg","5","","","","","","","","","","","","","","","","","","","","","","","","",""
"null","","html-keyboard-response","174","1277743","0.0-172.0","A1SDO44E0SBQ2C","<p style=""font-size: 48px;"">+</p>","","","","","null","allTrialResponses","500","1","18","img_art/1.jpg","49","Textures of a dreamlike substance","Elijah,Brett,Justin,Shawn,Caleb,Dalton","Makes me feel confused,-6,80,20","I don't know how I feel about this,1,360,20","It reminds me of a sunset I once saw.,16,280,20","Powerful colors.,31,100,20","Its simply okay.,3,40,20","the colors are vibrant and beautiful,1,300,20","Shawn","Powerful colors.,31,100,20","Caleb","Its simply okay.,3,40,20","Dalton","the colors are vibrant and beautiful,1,300,20","3"
"41578","","survey-text","175","1319325","0.0-173.0-0.0","A1SDO44E0SBQ2C","","","","{""Q0"":""What a lovely tree""}","","","","","","","","","","","","","","","","","","","","","","",""
"1768.6000000238419","","image-slider-response","176","1321096","0.0-174.0","A1SDO44E0SBQ2C","","","","","43","","","","","","","","","","","","","","","","","","","","","",""
"2464","","image-button-response","177","1326099","0.0-175.0","A1SDO44E0SBQ2C","img_art/14.jpg","5","","","","","","","","","","","","","","","","","","","","","","","","",""
"1096","","image-button-response","178","1327202","0.0-176.0","A1SDO44E0SBQ2C","img_art/14.jpg","5","","","","","","","","","","","","","","","","","","","","","","","","",""
"1428","","image-button-response","179","1328633","0.0-177.0-0.0","A1SDO44E0SBQ2C","img_art/14.jpg","0","","","","","","","","","","","","","","","","","","","","","","","","",""
"686","","image-button-response","180","1329320","0.0-178.0-0.0","A1SDO44E0SBQ2C","img_art/14.jpg","2","","","","","","","","","","","","","","","","","","","","","","","","",""
"null","","html-keyboard-response","181","1329822","0.0-179.0","A1SDO44E0SBQ2C","<p style=""font-size: 48px;"">+</p>","","","","","null","allTrialResponses","500","1","19","img_art/14.jpg","43","What a lovely tree","Benjamin,Tanner,Spencer,Shawn,Caleb,Dalton","Reminds me of the outdoors.,12,260,20","somewhat stressful, crazy,-3,180,20","I like the simplicity along with the colors,27,120,20","Like the brushstrokes but not the composition,9,100,20","Again. This is pretty neutral, leaning dislike.,-18,40,20","nice simple art piece,2,300,20","Dalton","nice simple art piece,2,300,20","Benjamin","Reminds me of the outdoors.,12,260,20","Spencer","I like the simplicity along with the colors,27,120,20","3"
"10779","","survey-text","182","1340612","0.0-180.0-0.0","A1SDO44E0SBQ2C","","","","{""Q0"":""Haunted and beautiful""}","","","","","","","","","","","","","","","","","","","","","","",""
"2286","","image-slider-response","183","1342900","0.0-181.0","A1SDO44E0SBQ2C","","","","","38","","","","","","","","","","","","","","","","","","","","","",""
"2990","","image-button-response","184","1347902","0.0-182.0","A1SDO44E0SBQ2C","img_art/8.jpg","1","","","","","","","","","","","","","","","","","","","","","","","","",""
"460","","image-button-response","185","1348364","0.0-183.0","A1SDO44E0SBQ2C","img_art/8.jpg","1","","","","","","","","","","","","","","","","","","","","","","","","",""
"1082","","image-button-response","186","1349448","0.0-184.0-0.0","A1SDO44E0SBQ2C","img_art/8.jpg","0","","","","","","","","","","","","","","","","","","","","","","","","",""
"863","","image-button-response","187","1350312","0.0-185.0-0.0","A1SDO44E0SBQ2C","img_art/8.jpg","3","","","","","","","","","","","","","","","","","","","","","","","","",""
"null","","html-keyboard-response","188","1351323","0.0-186.0","A1SDO44E0SBQ2C","<p style=""font-size: 48px;"">+</p>","","","","","null","allTrialResponses","1000","1","20","img_art/8.jpg","38","Haunted and beautiful","Benjamin,Carlos,Spencer,Taylor,John,Dalton","Very colorful. Looks like the hustle and bustle of a city.,11,260,20","Clean and stark. The colors are pleasant.,15,80,20","Nice formats, I just don't like it much,-16,120,20","And I'll huff and I'll puff and I'll blow your town down!!,20,200,20","I like how the more you like at it there are more things to discover.Very creative.,33,120,20","woman looking over a the community,1,300,20","Carlos","Clean and stark. The colors are pleasant.,15,80,20","Benjamin","Very colorful. Looks like the hustle and bustle of a city.,11,260,20","Taylor","And I'll huff and I'll puff and I'll blow your town down!!,20,200,20","3"
"2270","","survey-text","189","1353628","0.0-187.0-0.0","A1SDO44E0SBQ2C","","","","{""Q0"":""we""}","","","","","","","","","","","","","","","","","","","","","","",""
"8454","","survey-text","190","1362083","0.0-188.0-0.0","A1SDO44E0SBQ2C","","","","{""Q0"":""Dia de los muertos""}","","","","","","","","","","","","","","","","","","","","","","",""
"1917.1000000238419","","image-slider-response","191","1364002","0.0-189.0","A1SDO44E0SBQ2C","","","","","46","","","","","","","","","","","","","","","","","","","","","",""
"null","","image-button-response","192","1369005","0.0-190.0","A1SDO44E0SBQ2C","img_art/25.jpg","null","","","","","","","","","","","","","","","","","","","","","","","","",""
"2567","","image-button-response","193","1371576","0.0-191.0","A1SDO44E0SBQ2C","img_art/25.jpg","5","","","","","","","","","","","","","","","","","","","","","","","","",""
"1366","","image-button-response","194","1372944","0.0-192.0-0.0","A1SDO44E0SBQ2C","img_art/25.jpg","2","","","","","","","","","","","","","","","","","","","","","","","","",""
"881","","image-button-response","195","1373827","0.0-193.0-0.0","A1SDO44E0SBQ2C","img_art/25.jpg","0","","","","","","","","","","","","","","","","","","","","","","","","",""
"null","","html-keyboard-response","196","1374329","0.0-194.0","A1SDO44E0SBQ2C","<p style=""font-size: 48px;"">+</p>","","","","","null","allTrialResponses","500","1","21","img_art/25.jpg","46","Dia de los muertos","Benjamin,Carlos,Peter,Taylor,Patrick,Bradley","Regal. Reminds me of Egyptian art.,11,260,20","The proportions are unpleasant.,-30,80,20","It's very mystical.,5,320,20","Wish I was that thin.,-5,200,20","Green color is not my thing,-29,280,20","This one just has a dark feeling to me.,-50,300,20","Bradley","This one just has a dark feeling to me.,-50,300,20","Peter","It's very mystical.,5,320,20","Benjamin","Regal. Reminds me of Egyptian art.,11,260,20","3"
"8755","","survey-text","197","1383102","0.0-195.0-0.0","A1SDO44E0SBQ2C","","","","{""Q0"":""Very light and fluffy""}","","","","","","","","","","","","","","","","","","","","","","",""
"1743.300000011921","","image-slider-response","198","1384848","0.0-196.0","A1SDO44E0SBQ2C","","","","","50","","","","","","","","","","","","","","","","","","","","","",""
"4814","","image-button-response","199","1389852","0.0-197.0","A1SDO44E0SBQ2C","img_art/26.jpg","1","","","","","","","","","","","","","","","","","","","","","","","","",""
"1015","","image-button-response","200","1390871","0.0-198.0","A1SDO44E0SBQ2C","img_art/26.jpg","2","","","","","","","","","","","","","","","","","","","","","","","","",""
"476","","image-button-response","201","1391348","0.0-199.0-0.0","A1SDO44E0SBQ2C","img_art/26.jpg","1","","","","","","","","","","","","","","","","","","","","","","","","",""
"1429","","image-button-response","202","1392779","0.0-200.0-0.0","A1SDO44E0SBQ2C","img_art/26.jpg","4","","","","","","","","","","","","","","","","","","","","","","","","",""
"null","","html-keyboard-response","203","1393781","0.0-201.0","A1SDO44E0SBQ2C","<p style=""font-size: 48px;"">+</p>","","","","","null","allTrialResponses","1000","1","22","img_art/26.jpg","50","Very light and fluffy","Benjamin,Devon,Peter,Mark,Matthew,Bradley","The colors are muted.,1,260,20","i can feel the warmth,12,400,20","Reminds me of a European street, I desire to walk in this picture,28,320,20","I get the feeling of a small old world street.,24,80,20","Telented watercolor artist or second grader.,18,120,20","I like this. Looks like a city street and I can use my imagination to make it come alive.,15,300,20","Peter","Reminds me of a European street, I desire to walk in this picture,28,320,20","Devon","i can feel the warmth,12,400,20","Matthew","Telented watercolor artist or second grader.,18,120,20","3"
"9439","","survey-text","204","1403239","0.0-202.0-0.0","A1SDO44E0SBQ2C","","","","{""Q0"":""I love the texture and feel. ""}","","","","","","","","","","","","","","","","","","","","","","",""
"2308","","image-slider-response","205","1405548","0.0-203.0","A1SDO44E0SBQ2C","","","","","46","","","","","","","","","","","","","","","","","","","","","",""
"4009","","image-button-response","206","1410551","0.0-204.0","A1SDO44E0SBQ2C","img_art/30.jpg","1","","","","","","","","","","","","","","","","","","","","","","","","",""
"1930","","image-button-response","207","1412483","0.0-205.0","A1SDO44E0SBQ2C","img_art/30.jpg","4","","","","","","","","","","","","","","","","","","","","","","","","",""
"872","","image-button-response","208","1413356","0.0-206.0-0.0","A1SDO44E0SBQ2C","img_art/30.jpg","5","","","","","","","","","","","","","","","","","","","","","","","","",""
"592","","image-button-response","209","1413950","0.0-207.0-0.0","A1SDO44E0SBQ2C","img_art/30.jpg","1","","","","","","","","","","","","","","","","","","","","","","","","",""
"null","","html-keyboard-response","210","1414453","0.0-208.0","A1SDO44E0SBQ2C","<p style=""font-size: 48px;"">+</p>","","","","","null","allTrialResponses","500","1","23","img_art/30.jpg","46","I love the texture and feel. ","Nathan,Devon,Peter,Richard,Matthew,James","It's okay. It should either have stuck to the grey-blue, or added more red. Seems unorganized (maybe that's the point?),-9,200,20","the different roads to take in life,10,400,20","I feel nothing towards,-1,320,20","looks very childish, like your kid did it,-33,340,20","Decent abstract art, ncie colors.,23,120,20","I like the fact that it's a painting.,21,380,20","Matthew","Decent abstract art, ncie colors.,23,120,20","James","I like the fact that it's a painting.,21,380,20","Devon","the different roads to take in life,10,400,20","3"
"10551","","survey-text","211","1425028","0.0-209.0-0.0","A1SDO44E0SBQ2C","","","","{""Q0"":""What a fun scene. Very spooky""}","","","","","","","","","","","","","","","","","","","","","","",""
"1962.699999988079","","image-slider-response","212","1426993","0.0-210.0","A1SDO44E0SBQ2C","","","","","50","","","","","","","","","","","","","","","","","","","","","",""
"3708","","image-button-response","213","1431995","0.0-211.0","A1SDO44E0SBQ2C","img_art/15.jpg","2","","","","","","","","","","","","","","","","","","","","","","","","",""
"544","","image-button-response","214","1432540","0.0-212.0","A1SDO44E0SBQ2C","img_art/15.jpg","2","","","","","","","","","","","","","","","","","","","","","","","","",""
"1515","","image-button-response","215","1434057","0.0-213.0-0.0","A1SDO44E0SBQ2C","img_art/15.jpg","4","","","","","","","","","","","","","","","","","","","","","","","","",""
"547","","image-button-response","216","1434605","0.0-214.0-0.0","A1SDO44E0SBQ2C","img_art/15.jpg","5","","","","","","","","","","","","","","","","","","","","","","","","",""
"null","","html-keyboard-response","217","1435108","0.0-215.0","A1SDO44E0SBQ2C","<p style=""font-size: 48px;"">+</p>","","","","","null","allTrialResponses","500","1","24","img_art/15.jpg","50","What a fun scene. Very spooky","Jeffrey,Devon,Zachary,Dustin,Matthew,James","dark and I can not see a meaning behind it,-31,40,20","This one seems a bit frightening,-19,400,20","Reminds me of blue birds in a tree at night. I love nature.,40,400,20","Too much black. I see weeds or dead/dying flowers.,-40,20,20","I think of birds, nature, levels of space.,18,120,20","No opinion truthfully,1,380,20","Zachary","Reminds me of blue birds in a tree at night. I love nature.,40,400,20","Matthew","I think of birds, nature, levels of space.,18,120,20","James","No opinion truthfully,1,380,20","3"
"9735","","survey-text","218","1444847","0.0-216.0-0.0","A1SDO44E0SBQ2C","","","","{""Q0"":""What a lot of water action here""}","","","","","","","","","","","","","","","","","","","","","","",""
"1674.199999988079","","image-slider-response","219","1446523","0.0-217.0","A1SDO44E0SBQ2C","","","","","47","","","","","","","","","","","","","","","","","","","","","",""
"1930","","image-button-response","220","1451526","0.0-218.0","A1SDO44E0SBQ2C","img_art/24.jpg","2","","","","","","","","","","","","","","","","","","","","","","","","",""
"591","","image-button-response","221","1452119","0.0-219.0","A1SDO44E0SBQ2C","img_art/24.jpg","1","","","","","","","","","","","","","","","","","","","","","","","","",""
"438","","image-button-response","222","1452559","0.0-220.0-0.0","A1SDO44E0SBQ2C","img_art/24.jpg","2","","","","","","","","","","","","","","","","","","","","","","","","",""
"701","","image-button-response","223","1453261","0.0-221.0-0.0","A1SDO44E0SBQ2C","img_art/24.jpg","3","","","","","","","","","","","","","","","","","","","","","","","","",""
"null","","html-keyboard-response","224","1454765","0.0-222.0","A1SDO44E0SBQ2C","<p style=""font-size: 48px;"">+</p>","","","","","null","allTrialResponses","1500","1","25","img_art/24.jpg","47","What a lot of water action here","Jack,Colton,Zachary,Scott,Matthew,James","colors are a bit cramped together. really unique take on a waterfall though.,32,320,20","reminds me of a beautiful waterfall,50,220,20","Looks like a beautiful stream rolling through terrain of rocks and flowers.,43,400,20","pretty like a waterfall,22,20,20","NOt quite Bob Ross, but still good.,30,120,20","The waterfall looks peaceful,11,380,20","Colton","reminds me of a beautiful waterfall,50,220,20","Zachary","Looks like a beautiful stream rolling through terrain of rocks and flowers.,43,400,20","Scott","pretty like a waterfall,22,20,20","3"
"3118","","survey-text","225","1457915","0.0-223.0-0.0","A1SDO44E0SBQ2C","","","","{""Q0"":""table""}","","","","","","","","","","","","","","","","","","","","","","",""
"14624","","survey-text","226","1472540","0.0-224.0-0.0","A1SDO44E0SBQ2C","","","","{""Q0"":""What a cool wave pattern""}","","","","","","","","","","","","","","","","","","","","","","",""
"2324.199999988079","","image-slider-response","227","1474866","0.0-225.0","A1SDO44E0SBQ2C","","","","","50","","","","","","","","","","","","","","","","","","","","","",""
"3391","","image-button-response","228","1479869","0.0-226.0","A1SDO44E0SBQ2C","img_art/11.jpg","1","","","","","","","","","","","","","","","","","","","","","","","","",""
"646","","image-button-response","229","1480517","0.0-227.0","A1SDO44E0SBQ2C","img_art/11.jpg","1","","","","","","","","","","","","","","","","","","","","","","","","",""
"3081","","image-button-response","230","1483601","0.0-228.0-0.0","A1SDO44E0SBQ2C","img_art/11.jpg","2","","","","","","","","","","","","","","","","","","","","","","","","",""
"1636","","image-button-response","231","1485240","0.0-229.0-0.0","A1SDO44E0SBQ2C","img_art/11.jpg","5","","","","","","","","","","","","","","","","","","","","","","","","",""
"null","","html-keyboard-response","232","1486242","0.0-230.0","A1SDO44E0SBQ2C","<p style=""font-size: 48px;"">+</p>","","","","","null","allTrialResponses","1000","1","26","img_art/11.jpg","50","What a cool wave pattern","Noah,Colton,Zachary,Scott,Evan,Jorge","I enjoy the kandinsky-like general vibe, but the grey brings me down a bit,27,260,20","the wavy lines are nice and pleasing,13,220,20","Makes me think of a futuristic scene of vehicles flying in the sky in a city.,36,400,20","makes me feel dizzy,-37,20,20","I dislike how dark this is,-21,140,20","Sad but hopeful,43,180,20","Colton","the wavy lines are nice and pleasing,13,220,20","Zachary","Makes me think of a futuristic scene of vehicles flying in the sky in a city.,36,400,20","Jorge","Sad but hopeful,43,180,20","3"
"16018","","survey-text","233","1502276","0.0-231.0-0.0","A1SDO44E0SBQ2C","","","","{""Q0"":""I like this like a quilt and clothes""}","","","","","","","","","","","","","","","","","","","","","","",""
"57380.60000002384","","image-slider-response","234","1559659","0.0-232.0","A1SDO44E0SBQ2C","","","","","47","","","","","","","","","","","","","","","","","","","","","",""
"null","","image-button-response","235","1564666","0.0-233.0","A1SDO44E0SBQ2C","img_art/12.jpg","null","","","","","","","","","","","","","","","","","","","","","","","","",""
"16587","","image-button-response","236","1581254","0.0-234.0","A1SDO44E0SBQ2C","img_art/12.jpg","0","","","","","","","","","","","","","","","","","","","","","","","","",""
"1970","","image-button-response","237","1583226","0.0-235.0-0.0","A1SDO44E0SBQ2C","img_art/12.jpg","5","","","","","","","","","","","","","","","","","","","","","","","","",""
"1202","","image-button-response","238","1584430","0.0-236.0-0.0","A1SDO44E0SBQ2C","img_art/12.jpg","3","","","","","","","","","","","","","","","","","","","","","","","","",""
"null","","html-keyboard-response","239","1585431","0.0-237.0","A1SDO44E0SBQ2C","<p style=""font-size: 48px;"">+</p>","","","","","null","allTrialResponses","1000","1","27","img_art/12.jpg","47","I like this like a quilt and clothes","Paul,Colton,Zachary,Lucas,Isaac,Jorge","Reminds me of collages we made in elementary school. I like the contrast of the colors from top to bottom,43,300,20","i like the repetition,30,220,20","I like how it's split into tiny squares, but otherwise, not very intriguing.,-18,400,20","Seems to be puzzles.,25,380,20","I like the gradient of little color on the top to colorful on the bottom.,24,280,20","Windows to a different story,6,180,20","Paul","Reminds me of collages we made in elementary school. I like the contrast of the colors from top to bottom,43,300,20","Jorge","Windows to a different story,6,180,20","Lucas","Seems to be puzzles.,25,380,20","3"
"8644","","survey-text","240","1594086","0.0-238.0-0.0","A1SDO44E0SBQ2C","","","","{""Q0"":""Splashes on a window pane""}","","","","","","","","","","","","","","","","","","","","","","",""
"2702.5","","image-slider-response","241","1596790","0.0-239.0","A1SDO44E0SBQ2C","","","","","47","","","","","","","","","","","","","","","","","","","","","",""
"2641","","image-button-response","242","1601794","0.0-240.0","A1SDO44E0SBQ2C","img_art/13.jpg","1","","","","","","","","","","","","","","","","","","","","","","","","",""
"380","","image-button-response","243","1602178","0.0-241.0","A1SDO44E0SBQ2C","img_art/13.jpg","4","","","","","","","","","","","","","","","","","","","","","","","","",""
"703","","image-button-response","244","1602882","0.0-242.0-0.0","A1SDO44E0SBQ2C","img_art/13.jpg","1","","","","","","","","","","","","","","","","","","","","","","","","",""
"653","","image-button-response","245","1603538","0.0-243.0-0.0","A1SDO44E0SBQ2C","img_art/13.jpg","5","","","","","","","","","","","","","","","","","","","","","","","","",""
"null","","html-keyboard-response","246","1604041","0.0-244.0","A1SDO44E0SBQ2C","<p style=""font-size: 48px;"">+</p>","","","","","null","allTrialResponses","500","1","28","img_art/13.jpg","47","Splashes on a window pane","Paul,Stephen,Michael,Lucas,Travis,Jorge","It's like any other splatter paint art piece, nothing special,1,300,20","Like how realistic it looks.,33,140,20","I don't car for it but it does seem organized and like it took considereably more skill that others.,9,140,20","Incredible, curious.,20,380,20","I love the colors and the texture,37,260,20","It reminds me of rain,11,180,20","Travis","I love the colors and the texture,37,260,20","Stephen","Like how realistic it looks.,33,140,20","Jorge","It reminds me of rain,11,180,20","3"
"12319","","survey-text","247","1616392","0.0-245.0-0.0","A1SDO44E0SBQ2C","","","","{""Q0"":""I see a dance here. ""}","","","","","","","","","","","","","","","","","","","","","","",""
"2215.599999964237","","image-slider-response","248","1618609","0.0-246.0","A1SDO44E0SBQ2C","","","","","50","","","","","","","","","","","","","","","","","","","","","",""
"2649","","image-button-response","249","1623614","0.0-247.0","A1SDO44E0SBQ2C","img_art/23.jpg","0","","","","","","","","","","","","","","","","","","","","","","","","",""
"957","","image-button-response","250","1624575","0.0-248.0","A1SDO44E0SBQ2C","img_art/23.jpg","0","","","","","","","","","","","","","","","","","","","","","","","","",""
"634","","image-button-response","251","1625211","0.0-249.0-0.0","A1SDO44E0SBQ2C","img_art/23.jpg","5","","","","","","","","","","","","","","","","","","","","","","","","",""
"918","","image-button-response","252","1626131","0.0-250.0-0.0","A1SDO44E0SBQ2C","img_art/23.jpg","2","","","","","","","","","","","","","","","","","","","","","","","","",""
"null","","html-keyboard-response","253","1626634","0.0-251.0","A1SDO44E0SBQ2C","<p style=""font-size: 48px;"">+</p>","","","","","null","allTrialResponses","500","1","29","img_art/23.jpg","50","I see a dance here. ","Robert,Stephen,Joshua,Victor,Travis,Jorge","This makes me think of an orchestra playing a forth of july song,12,360,20","Solid colors but the white throws it off for me.,4,140,20","This one is interesting. Looks like people with maybe musical instruments?,11,240,20","I like the colors, the tiny dots, and the contrast between the white and background,28,340,20","I had a very neutral feeling to this,no feelings at all.,1,260,20","puzzled with curiosity,31,180,20","Robert","This makes me think of an orchestra playing a forth of july song,12,360,20","Jorge","puzzled with curiosity,31,180,20","Joshua","This one is interesting. Looks like people with maybe musical instruments?,11,240,20","3"
"9961","","survey-text","254","1636612","0.0-252.0-0.0","A1SDO44E0SBQ2C","","","","{""Q0"":""This seems outer planetary""}","","","","","","","","","","","","","","","","","","","","","","",""
"2146.199999988079","","image-slider-response","255","1638760","0.0-253.0","A1SDO44E0SBQ2C","","","","","46","","","","","","","","","","","","","","","","","","","","","",""
"3490","","image-button-response","256","1643763","0.0-254.0","A1SDO44E0SBQ2C","img_art/22.jpg","3","","","","","","","","","","","","","","","","","","","","","","","","",""
"904","","image-button-response","257","1644671","0.0-255.0","A1SDO44E0SBQ2C","img_art/22.jpg","5","","","","","","","","","","","","","","","","","","","","","","","","",""
"617","","image-button-response","258","1645291","0.0-256.0-0.0","A1SDO44E0SBQ2C","img_art/22.jpg","3","","","","","","","","","","","","","","","","","","","","","","","","",""
"2277","","image-button-response","259","1647570","0.0-257.0-0.0","A1SDO44E0SBQ2C","img_art/22.jpg","2","","","","","","","","","","","","","","","","","","","","","","","","",""
"null","","html-keyboard-response","260","1648572","0.0-258.0","A1SDO44E0SBQ2C","<p style=""font-size: 48px;"">+</p>","","","","","null","allTrialResponses","1000","1","30","img_art/22.jpg","46","This seems outer planetary","Robert,Mitchell,Joshua,Derek,Jesus,Jorge","I don't get much of a reaction.,11,360,20","Scary monsters lurking causing confusion.,-40,180,20","This one would work in the right frame. It's nice.,20,240,20","Really pretty. Love the colors.,30,360,20","Different shapes within the image make it interesting to look at,20,100,20","A key to the unknown,15,180,20","Jorge","A key to the unknown,15,180,20","Derek","Really pretty. Love the colors.,30,360,20","Joshua","This one would work in the right frame. It's nice.,20,240,20","3"
"1695","","image-button-response_instructions","261","1650290","0.0-259.0","A1SDO44E0SBQ2C","","0","instructions","","","","","","","","","","","","","","","","","","","","","","","",""
"1028","","image-button-response","262","1651325","0.0-260.0","A1SDO44E0SBQ2C","","0","","","","","","","","","","","","","","","","","","","","","","","","",""
