"rt","url","trial_type","trial_index","time_elapsed","internal_node_id","participant_id","stimulus","button_pressed","Name","responses","response","key_press","variableName","fixationTime","condition","trial","photo","subjectRating","subjectResponse","agentsNames","agent_1_Response","agent_2_Response","agent_3_Response","agent_4_Response","agent_5_Response","agent_6_Response","kept_1_name","kept_1_response","kept_2_name","kept_2_response","kept_3_name","kept_3_response","errorCounter"
"9954","external_page_harvard.html","external-html","0","10052","0.0-0.0","A1SOWFKMH0QYUB","","","","","","","","","","","","","","","","","","","","","","","","","","",""
"1917","","image-button-response","1","11971","0.0-1.0","A1SOWFKMH0QYUB","","1","","","","","","","","","","","","","","","","","","","","","","","","",""
"1261","","image-button-response","2","13235","0.0-2.0-0.0","A1SOWFKMH0QYUB","","1","phone","","","","","","","","","","","","","","","","","","","","","","","",""
"7407","","survey-text","3","20643","0.0-3.0-0.0","A1SOWFKMH0QYUB","","","","{""Q0"":""A1SOWFKMH0QYUB""}","","","","","","","","","","","","","","","","","","","","","","",""
"4639","","image-button-response_instructions","4","25283","0.0-4.0","A1SOWFKMH0QYUB","","0","instructions","","","","","","","","","","","","","","","","","","","","","","","",""
"23295","","image-button-response_instructions","5","48579","0.0-5.0","A1SOWFKMH0QYUB","img_art/ins/popularity/ins1.png","0","instructions","","","","","","","","","","","","","","","","","","","","","","","",""
"7058","","image-button-response_instructions","6","55637","0.0-6.0","A1SOWFKMH0QYUB","img_art/ins/popularity/ins2.png","0","instructions","","","","","","","","","","","","","","","","","","","","","","","",""
"5934","","image-button-response_instructions","7","61572","0.0-7.0","A1SOWFKMH0QYUB","img_art/ins/popularity/ins2Extreme.png","0","instructions","","","","","","","","","","","","","","","","","","","","","","","",""
"7255","","image-button-response_instructions","8","68828","0.0-8.0","A1SOWFKMH0QYUB","img_art/ins/popularity/ins3KEEPpop.PNG","0","instructions","","","","","","","","","","","","","","","","","","","","","","","",""
"5175","","image-button-response_instructions","9","74004","0.0-9.0","A1SOWFKMH0QYUB","img_art/ins/popularity/ins3ANamepop.PNG","0","instructions","","","","","","","","","","","","","","","","","","","","","","","",""
"5319","","image-button-response_instructions","10","79325","0.0-10.0","A1SOWFKMH0QYUB","img_art/ins/popularity/ins3ARatingpop.png","0","instructions","","","","","","","","","","","","","","","","","","","","","","","",""
"3391","","image-button-response_instructions","11","82716","0.0-11.0","A1SOWFKMH0QYUB","img_art/ins/popularity/ins3ATextpop.png","0","instructions","","","","","","","","","","","","","","","","","","","","","","","",""
"4831","","image-button-response_instructions","12","87548","0.0-12.0","A1SOWFKMH0QYUB","img_art/ins/popularity/ins3ALikespop.png","0","instructions","","","","","","","","","","","","","","","","","","","","","","","",""
"24767","","image-button-response_instructions","13","112316","0.0-13.0","A1SOWFKMH0QYUB","img_art/ins/popularity/ins3KEEPpop.PNG","0","instructions","","","","","","","","","","","","","","","","","","","","","","","",""
"28342","","image-button-response_instructions","14","140659","0.0-14.0","A1SOWFKMH0QYUB","img_art/ins/popularity/ins3_5RED.png","0","instructions","","","","","","","","","","","","","","","","","","","","","","","",""
"8934","","image-button-response_instructions","15","149595","0.0-15.0","A1SOWFKMH0QYUB","img_art/ins/popularity/ins3KEEPpop.PNG","0","instructions","","","","","","","","","","","","","","","","","","","","","","","",""
"18488","","image-button-response_instructions","16","168083","0.0-16.0","A1SOWFKMH0QYUB","img_art/ins/popularity/ins4KEEPpop.PNG","0","instructions","","","","","","","","","","","","","","","","","","","","","","","",""
"12471","","image-button-response_instructions","17","180554","0.0-17.0","A1SOWFKMH0QYUB","img_art/ins/popularity/ins5KEEPpop.PNG","0","instructions","","","","","","","","","","","","","","","","","","","","","","","",""
"3687","","image-button-response_instructions","18","184243","0.0-18.0","A1SOWFKMH0QYUB","","0","instructions","","","","","","","","","","","","","","","","","","","","","","","",""
"7430","","survey-text","19","191691","0.0-19.0-0.0","A1SOWFKMH0QYUB","","","","{""Q0"":""but""}","","","","","","","","","","","","","","","","","","","","","","",""
"11294","","survey-text","20","202986","0.0-20.0-0.0","A1SOWFKMH0QYUB","","","","{""Q0"":""reminds me of a field on a sunny day""}","","","","","","","","","","","","","","","","","","","","","","",""
"9398.799999952316","","image-slider-response","21","212387","0.0-21.0","A1SOWFKMH0QYUB","","","","","22","","","","","","","","","","","","","","","","","","","","","",""
"null","","image-button-response","22","217395","0.0-22.0","A1SOWFKMH0QYUB","img_art/ins/1.jpg","null","","","","","","","","","","","","","","","","","","","","","","","","",""
"15103","","image-button-response","23","232499","0.0-23.0","A1SOWFKMH0QYUB","img_art/ins/1.jpg","0","","","","","","","","","","","","","","","","","","","","","","","","",""
"6551","","image-button-response","24","239051","0.0-24.0-0.0","A1SOWFKMH0QYUB","img_art/ins/1.jpg","5","","","","","","","","","","","","","","","","","","","","","","","","",""
"7183","","image-button-response","25","246235","0.0-25.0-0.0","A1SOWFKMH0QYUB","img_art/ins/1.jpg","4","","","","","","","","","","","","","","","","","","","","","","","","",""
"null","","html-keyboard-response","26","246740","0.0-26.0","A1SOWFKMH0QYUB","<p style=""font-size: 48px;"">+</p>","","","","","null","allTrialResponses","500","1","-2","img_art/ins/1.jpg","22","reminds me of a field on a sunny day","Allison,Ashley,Beth,Dora,Erika,Jen","looks like a lot of things going on in the mist,20,20,20","I just don't get why these type of art would be popular,-32,40,20","This color reminds me of poo,-46,60,20","looks like what my niece in 3rd grade did this afternoon,-50,80,20","I like the sophisticated brushwork,40,100,20","It reminds me of a candy land dream I had,36,120,20","Allison","looks like a lot of things going on in the mist,20,20,20","Jen","It reminds me of a candy land dream I had,36,120,20","Erika","I like the sophisticated brushwork,40,100,20","0"
"28212","","survey-text","27","274955","0.0-27.0-0.0","A1SOWFKMH0QYUB","","","","{""Q0"":""bold colors - dramatic""}","","","","","","","","","","","","","","","","","","","","","","",""
"4590.600000023842","","image-slider-response","28","279547","0.0-28.0","A1SOWFKMH0QYUB","","","","","23","","","","","","","","","","","","","","","","","","","","","",""
"null","","image-button-response","29","284549","0.0-29.0","A1SOWFKMH0QYUB","img_art/ins/2.jpg","null","","","","","","","","","","","","","","","","","","","","","","","","",""
"541","","image-button-response","30","285091","0.0-30.0","A1SOWFKMH0QYUB","img_art/ins/2.jpg","1","","","","","","","","","","","","","","","","","","","","","","","","",""
"4167","","image-button-response","31","289259","0.0-31.0-0.0","A1SOWFKMH0QYUB","img_art/ins/2.jpg","4","","","","","","","","","","","","","","","","","","","","","","","","",""
"1702","","image-button-response","32","290964","0.0-32.0-0.0","A1SOWFKMH0QYUB","img_art/ins/2.jpg","5","","","","","","","","","","","","","","","","","","","","","","","","",""
"null","","html-keyboard-response","33","291967","0.0-33.0","A1SOWFKMH0QYUB","<p style=""font-size: 48px;"">+</p>","","","","","null","allTrialResponses","1000","1","-1","img_art/ins/2.jpg","23","bold colors - dramatic","Allison,Kara,Katie,Jenna,Erika,Jen","I don't have strong feelings about this,10,20,20","I like the blocks of color arrangements,30,160,20","too much color!,-28,180,20","One of my pet peevs,-48,140,20","I would never be able to compose a sophisticated pallete like this,48,100,20","It reminds me of a fireplace,36,120,20","Kara","I like the blocks of color arrangements,30,160,20","Erika","I would never be able to compose a sophisticated pallete like this,48,100,20","Jen","It reminds me of a fireplace,36,120,20","0"
"8086","","survey-text","34","300059","0.0-34.0-0.0","A1SOWFKMH0QYUB","","","","{""Q0"":""Icy cold and lovely""}","","","","","","","","","","","","","","","","","","","","","","",""
"6318.5","","image-slider-response","35","306379","0.0-35.0","A1SOWFKMH0QYUB","","","","","29","","","","","","","","","","","","","","","","","","","","","",""
"4167","","image-button-response","36","311390","0.0-36.0","A1SOWFKMH0QYUB","img_art/ins/3.jpg","1","","","","","","","","","","","","","","","","","","","","","","","","",""
"1810","","image-button-response","37","313203","0.0-37.0","A1SOWFKMH0QYUB","img_art/ins/3.jpg","4","","","","","","","","","","","","","","","","","","","","","","","","",""
"3231","","image-button-response","38","316435","0.0-38.0-0.0","A1SOWFKMH0QYUB","img_art/ins/3.jpg","0","","","","","","","","","","","","","","","","","","","","","","","","",""
"6895","","image-button-response","39","323331","0.0-39.0-0.0","A1SOWFKMH0QYUB","img_art/ins/3.jpg","0","","","","","","","","","","","","","","","","","","","","","","","","",""
"2695","","image-button-response","40","330523","0.0-39.1-0.1","A1SOWFKMH0QYUB","img_art/ins/3.jpg","1","","","","","","","","","","","","","","","","","","","","","","","","",""
"null","","html-keyboard-response","41","332031","0.0-40.0","A1SOWFKMH0QYUB","<p style=""font-size: 48px;"">+</p>","","","","","null","allTrialResponses","1500","1","0","img_art/ins/3.jpg","29","Icy cold and lovely","Mary,Kara,Rose,Leslie,Erika,Jen","I like the overlapping of brushes,41,220,20","calming blue is very nice,36,160,20","My daily routine, it's depressing,-20,240,20","It's an alright work,15,200,20","I feel connected to the artist,40,100,20","I can feel a rainy day from this painting,18,120,20","Erika","I feel connected to the artist,40,100,20","Mary","I like the overlapping of brushes,41,220,20","Kara","calming blue is very nice,36,160,20","2"
"12889","","image-button-response_instructions","42","344923","0.0-41.0","A1SOWFKMH0QYUB","","0","instructions","","","","","","","","","","","","","","","","","","","","","","","",""
"23479","","survey-likert","43","368404","0.0-42.0-0.0","A1SOWFKMH0QYUB","","","","{""Q0"":"""",""Q1"":0,""Q2"":1}","","","","","","","","","","","","","","","","","","","","","","",""
"4675","","survey-text","44","373083","0.0-43.0-0.0","A1SOWFKMH0QYUB","","","","{""Q0"":""rock""}","","","","","","","","","","","","","","","","","","","","","","",""
"37591","","survey-text","45","410674","0.0-44.0-0.0","A1SOWFKMH0QYUB","","","","{""Q0"":""interesting  work that seems like a magazine collage""}","","","","","","","","","","","","","","","","","","","","","","",""
"5878.800000011921","","image-slider-response","46","416554","0.0-45.0","A1SOWFKMH0QYUB","","","","","6","","","","","","","","","","","","","","","","","","","","","",""
"4911","","image-button-response","47","421586","0.0-46.0","A1SOWFKMH0QYUB","img_art/12.jpg","3","","","","","","","","","","","","","","","","","","","","","","","","",""
"1069","","image-button-response","48","422659","0.0-47.0","A1SOWFKMH0QYUB","img_art/12.jpg","3","","","","","","","","","","","","","","","","","","","","","","","","",""
"2320","","image-button-response","49","424979","0.0-48.0-0.0","A1SOWFKMH0QYUB","img_art/12.jpg","4","","","","","","","","","","","","","","","","","","","","","","","","",""
"4438","","image-button-response","50","429419","0.0-49.0-0.0","A1SOWFKMH0QYUB","img_art/12.jpg","2","","","","","","","","","","","","","","","","","","","","","","","","",""
"null","","html-keyboard-response","51","430922","0.0-50.0","A1SOWFKMH0QYUB","<p style=""font-size: 48px;"">+</p>","","","","","null","allTrialResponses","1500","1","1","img_art/12.jpg","6","interesting  work that seems like a magazine collage","Brooke,Kimberly,Allison,Sabrina,Nicole,Kaylee","Dislike the style, the sharp rectangular pattern very jarring.,-20,60,20","Just not a fan, I can't figure out why,-17,260,20","Minimalist colors and shapes.,-5,140,20","I like the fact it shares both light and edgy,32,120,20","I like all the squares and the colors but it feels too cluttered to me,20,20,20","wtf is that i dont get it,-50,200,20","Sabrina","I like the fact it shares both light and edgy,32,120,20","Nicole","I like all the squares and the colors but it feels too cluttered to me,20,20,20","Allison","Minimalist colors and shapes.,-5,140,20","2"
"19686","","survey-text","52","450611","0.0-51.0-0.0","A1SOWFKMH0QYUB","","","","{""Q0"":""not much here to like or dislike- I don't care for orange so not my favorite piece""}","","","","","","","","","","","","","","","","","","","","","","",""
"5686.899999976158","","image-slider-response","53","456299","0.0-52.0","A1SOWFKMH0QYUB","","","","","-23","","","","","","","","","","","","","","","","","","","","","",""
"null","","image-button-response","54","461325","0.0-53.0","A1SOWFKMH0QYUB","img_art/6.jpg","null","","","","","","","","","","","","","","","","","","","","","","","","",""
"2181","","image-button-response","55","463507","0.0-54.0","A1SOWFKMH0QYUB","img_art/6.jpg","4","","","","","","","","","","","","","","","","","","","","","","","","",""
"2135","","image-button-response","56","465643","0.0-55.0-0.0","A1SOWFKMH0QYUB","img_art/6.jpg","5","","","","","","","","","","","","","","","","","","","","","","","","",""
"3181","","image-button-response","57","468827","0.0-56.0-0.0","A1SOWFKMH0QYUB","img_art/6.jpg","2","","","","","","","","","","","","","","","","","","","","","","","","",""
"null","","html-keyboard-response","58","469328","0.0-57.0","A1SOWFKMH0QYUB","<p style=""font-size: 48px;"">+</p>","","","","","null","allTrialResponses","500","1","2","img_art/6.jpg","-23","not much here to like or dislike- I don't care for orange so not my favorite piece","Alexis,Kaitlyn,Allison,Sabrina,Nicole,Ashley","The feeling of isolation with so little objects. Great,20,100,20","I like the simplicity of the picture,30,80,20","Simple desert scene.,5,140,20","I love the representation of death and life.,50,120,20","The colors and rough brush strokes make me nervous,-10,20,20","A lot of people will lvoe this, I do not.,1,320,20","Nicole","The colors and rough brush strokes make me nervous,-10,20,20","Ashley","A lot of people will lvoe this, I do not.,1,320,20","Allison","Simple desert scene.,5,140,20","2"
"24065","","survey-text","59","493395","0.0-58.0-0.0","A1SOWFKMH0QYUB","","","","{""Q0"":""seems like a happy face in there, interesting and colorful""}","","","","","","","","","","","","","","","","","","","","","","",""
"5758.299999952316","","image-slider-response","60","499154","0.0-59.0","A1SOWFKMH0QYUB","","","","","14","","","","","","","","","","","","","","","","","","","","","",""
"3959","","image-button-response","61","504157","0.0-60.0","A1SOWFKMH0QYUB","img_art/2.jpg","5","","","","","","","","","","","","","","","","","","","","","","","","",""
"739","","image-button-response","62","504899","0.0-61.0","A1SOWFKMH0QYUB","img_art/2.jpg","5","","","","","","","","","","","","","","","","","","","","","","","","",""
"7023","","image-button-response","63","511923","0.0-62.0-0.0","A1SOWFKMH0QYUB","img_art/2.jpg","1","","","","","","","","","","","","","","","","","","","","","","","","",""
"6143","","image-button-response","64","518067","0.0-63.0-0.0","A1SOWFKMH0QYUB","img_art/2.jpg","4","","","","","","","","","","","","","","","","","","","","","","","","",""
"null","","html-keyboard-response","65","519574","0.0-64.0","A1SOWFKMH0QYUB","<p style=""font-size: 48px;"">+</p>","","","","","null","allTrialResponses","1500","1","3","img_art/2.jpg","14","seems like a happy face in there, interesting and colorful","Michelle,Catherine,Allison,Vanessa,Nicole,Ashley","Don't like the puke green color and also too abstact,-14,280,20","Dependence. Things relying on each other. Caring,-4,160,20","Hate the vomit green.,-31,140,20","I don't like the abstract nature of this painting or the colors used.,-50,380,20","It's a cool piece but honestly these color choices are the worst thing in the world,-31,20,20","I think I can make out a face in there.,25,320,20","Ashley","I think I can make out a face in there.,25,320,20","Catherine","Dependence. Things relying on each other. Caring,-4,160,20","Nicole","It's a cool piece but honestly these color choices are the worst thing in the world,-31,20,20","2"
"20001","","survey-text","66","539579","0.0-65.0-0.0","A1SOWFKMH0QYUB","","","","{""Q0"":""dramatic, beautiful.  Like the storm god up in the heavens""}","","","","","","","","","","","","","","","","","","","","","","",""
"8494.199999988079","","image-slider-response","67","548075","0.0-66.0","A1SOWFKMH0QYUB","","","","","40","","","","","","","","","","","","","","","","","","","","","",""
"null","","image-button-response","68","553080","0.0-67.0","A1SOWFKMH0QYUB","img_art/8.jpg","null","","","","","","","","","","","","","","","","","","","","","","","","",""
"6003","","image-button-response","69","559083","0.0-68.0","A1SOWFKMH0QYUB","img_art/8.jpg","4","","","","","","","","","","","","","","","","","","","","","","","","",""
"2511","","image-button-response","70","561596","0.0-69.0-0.0","A1SOWFKMH0QYUB","img_art/8.jpg","5","","","","","","","","","","","","","","","","","","","","","","","","",""
"3030","","image-button-response","71","564628","0.0-70.0-0.0","A1SOWFKMH0QYUB","img_art/8.jpg","2","","","","","","","","","","","","","","","","","","","","","","","","",""
"null","","html-keyboard-response","72","566134","0.0-71.0","A1SOWFKMH0QYUB","<p style=""font-size: 48px;"">+</p>","","","","","null","allTrialResponses","1500","1","4","img_art/8.jpg","40","dramatic, beautiful.  Like the storm god up in the heavens","Chloe,Catherine,Cheyenne,Hannah,Nicole,Ashley","Cheesy. A little too knock you over the dead with its message without making it emotional,-31,220,20","Lost in a big city confuse as to where to go to next. No matter if you live in a mansion or homeless. Being bigger than what is going on around you,30,160,20","Has nice depth to it.,12,200,20","I don't understand it. Makes no sense to me.,5,240,20","It's very grand and ominous but I like it,25,20,20","Escher? Dali? Could be their lovechild?,50,320,20","Nicole","It's very grand and ominous but I like it,25,20,20","Ashley","Escher? Dali? Could be their lovechild?,50,320,20","Cheyenne","Has nice depth to it.,12,200,20","2"
"18819","","survey-text","73","584963","0.0-72.0-0.0","A1SOWFKMH0QYUB","","","","{""Q0"":""Seems to me like scribbles.  Not interested in this one.""}","","","","","","","","","","","","","","","","","","","","","","",""
"5231.199999988079","","image-slider-response","74","590195","0.0-73.0","A1SOWFKMH0QYUB","","","","","-32","","","","","","","","","","","","","","","","","","","","","",""
"3559","","image-button-response","75","595198","0.0-74.0","A1SOWFKMH0QYUB","img_art/4.jpg","2","","","","","","","","","","","","","","","","","","","","","","","","",""
"809","","image-button-response","76","596011","0.0-75.0","A1SOWFKMH0QYUB","img_art/4.jpg","2","","","","","","","","","","","","","","","","","","","","","","","","",""
"2454","","image-button-response","77","598467","0.0-76.0-0.0","A1SOWFKMH0QYUB","img_art/4.jpg","5","","","","","","","","","","","","","","","","","","","","","","","","",""
"4782","","image-button-response","78","603251","0.0-77.0-0.0","A1SOWFKMH0QYUB","img_art/4.jpg","4","","","","","","","","","","","","","","","","","","","","","","","","",""
"null","","html-keyboard-response","79","604252","0.0-78.0","A1SOWFKMH0QYUB","<p style=""font-size: 48px;"">+</p>","","","","","null","allTrialResponses","1000","1","5","img_art/4.jpg","-32","Seems to me like scribbles.  Not interested in this one.","Paige,Jasmine,Cheyenne,Gabrielle,Nicole,Ashley","the colors are calming,31,60,20","It's quite meh to me,0,340,20","Just doesn't look nice.,-40,200,20","too childish, not really art in my world,-50,160,20","Mcdonald's french fries :(,-40,20,20","It looks like a hand.,25,320,20","Cheyenne","Just doesn't look nice.,-40,200,20","Ashley","It looks like a hand.,25,320,20","Nicole","Mcdonald's french fries :(,-40,20,20","2"
"4696","","survey-text","80","608963","0.0-79.0-0.0","A1SOWFKMH0QYUB","","","","{""Q0"":""sky""}","","","","","","","","","","","","","","","","","","","","","","",""
"25382","","survey-text","81","634347","0.0-80.0-0.0","A1SOWFKMH0QYUB","","","","{""Q0"":""Party - New Years - a line of musicians   Looks like a fun ad""}","","","","","","","","","","","","","","","","","","","","","","",""
"6175.400000035763","","image-slider-response","82","640524","0.0-81.0","A1SOWFKMH0QYUB","","","","","16","","","","","","","","","","","","","","","","","","","","","",""
"null","","image-button-response","83","645539","0.0-82.0","A1SOWFKMH0QYUB","img_art/23.jpg","null","","","","","","","","","","","","","","","","","","","","","","","","",""
"16062","","image-button-response","84","661603","0.0-83.0","A1SOWFKMH0QYUB","img_art/23.jpg","1","","","","","","","","","","","","","","","","","","","","","","","","",""
"4246","","image-button-response","85","665851","0.0-84.0-0.0","A1SOWFKMH0QYUB","img_art/23.jpg","5","","","","","","","","","","","","","","","","","","","","","","","","",""
"2615","","image-button-response","86","668467","0.0-85.0-0.0","A1SOWFKMH0QYUB","img_art/23.jpg","3","","","","","","","","","","","","","","","","","","","","","","","","",""
"null","","html-keyboard-response","87","669474","0.0-86.0","A1SOWFKMH0QYUB","<p style=""font-size: 48px;"">+</p>","","","","","null","allTrialResponses","1000","1","6","img_art/23.jpg","16","Party - New Years - a line of musicians   Looks like a fun ad","Maria,Christina,Cheyenne,Alexandria,Nicole,Ashley","the pattern of colours imbues in me a sense of infinity, which I find soothing,10,120,20","nice bright colors but looks like it's from the 90's,6,240,20","Solid colors but the white throws it off for me.,4,200,20","makes me happy and want to dance,43,80,20","Those colors are awesome! And I love the strip of negative space that almost looks like a line of people,50,20,20","A line dance, it's really strinkingly beautiful.,50,320,20","Christina","nice bright colors but looks like it's from the 90's,6,240,20","Ashley","A line dance, it's really strinkingly beautiful.,50,320,20","Alexandria","makes me happy and want to dance,43,80,20","2"
"17694","","survey-text","88","687171","0.0-87.0-0.0","A1SOWFKMH0QYUB","","","","{""Q0"":""Soothing, beautiful and calming   ""}","","","","","","","","","","","","","","","","","","","","","","",""
"3670.800000011921","","image-slider-response","89","690843","0.0-88.0","A1SOWFKMH0QYUB","","","","","28","","","","","","","","","","","","","","","","","","","","","",""
"null","","image-button-response","90","695848","0.0-89.0","A1SOWFKMH0QYUB","img_art/14.jpg","null","","","","","","","","","","","","","","","","","","","","","","","","",""
"8384","","image-button-response","91","704235","0.0-90.0","A1SOWFKMH0QYUB","img_art/14.jpg","0","","","","","","","","","","","","","","","","","","","","","","","","",""
"3126","","image-button-response","92","707363","0.0-91.0-0.0","A1SOWFKMH0QYUB","img_art/14.jpg","3","","","","","","","","","","","","","","","","","","","","","","","","",""
"10631","","image-button-response","93","717995","0.0-92.0-0.0","A1SOWFKMH0QYUB","img_art/14.jpg","1","","","","","","","","","","","","","","","","","","","","","","","","",""
"null","","html-keyboard-response","94","718497","0.0-93.0","A1SOWFKMH0QYUB","<p style=""font-size: 48px;"">+</p>","","","","","null","allTrialResponses","500","1","7","img_art/14.jpg","28","Soothing, beautiful and calming   ","Alexa,Christina,Emma,Alexandria,Makayla,Ashley","Very abstract and colorful,40,40,20","has a tree look to it and it's colors are happy,9,240,20","Don't love it.,-10,60,20","looks like it's symbolizing rebirth which is hopeful,22,80,20","I like that it's like a snippet of a field in the desert,21,80,20","I like the color tone, it's kind of disturbing.,35,320,20","Alexa","Very abstract and colorful,40,40,20","Alexandria","looks like it's symbolizing rebirth which is hopeful,22,80,20","Christina","has a tree look to it and it's colors are happy,9,240,20","2"
"22615","","survey-text","95","741115","0.0-94.0-0.0","A1SOWFKMH0QYUB","","","","{""Q0"":""Abstract city street scene.  Looks urban and like a student painting.""}","","","","","","","","","","","","","","","","","","","","","","",""
"5678.599999964237","","image-slider-response","96","746795","0.0-95.0","A1SOWFKMH0QYUB","","","","","17","","","","","","","","","","","","","","","","","","","","","",""
"null","","image-button-response","97","751798","0.0-96.0","A1SOWFKMH0QYUB","img_art/26.jpg","null","","","","","","","","","","","","","","","","","","","","","","","","",""
"1881","","image-button-response","98","753683","0.0-97.0","A1SOWFKMH0QYUB","img_art/26.jpg","5","","","","","","","","","","","","","","","","","","","","","","","","",""
"2743","","image-button-response","99","756427","0.0-98.0-0.0","A1SOWFKMH0QYUB","img_art/26.jpg","3","","","","","","","","","","","","","","","","","","","","","","","","",""
"7574","","image-button-response","100","764003","0.0-99.0-0.0","A1SOWFKMH0QYUB","img_art/26.jpg","1","","","","","","","","","","","","","","","","","","","","","","","","",""
"null","","html-keyboard-response","101","765019","0.0-100.0","A1SOWFKMH0QYUB","<p style=""font-size: 48px;"">+</p>","","","","","null","allTrialResponses","1000","1","8","img_art/26.jpg","17","Abstract city street scene.  Looks urban and like a student painting.","Alexa,Christina,Lindsey,Alexandria,Autumn,Chelsea","Looks messy and like it was painted by a small child,-48,40,20","looks like a little kids painting,-17,240,20","I see a suburban neighborhood with townhouses and trees. Not a fan of the colors or style.,-16,400,20","makes me happy and reminds me of a paris courtyard,29,80,20","Murky, messy, kid like.,-45,340,20","I wish it were more pastel but I think it is relaxing to look at.,30,180,20","Chelsea","I wish it were more pastel but I think it is relaxing to look at.,30,180,20","Alexandria","makes me happy and reminds me of a paris courtyard,29,80,20","Christina","looks like a little kids painting,-17,240,20","2"
"21741","","survey-text","102","786762","0.0-101.0-0.0","A1SOWFKMH0QYUB","","","","{""Q0"":""Feels angry somehow.  A bit disturbing.""}","","","","","","","","","","","","","","","","","","","","","","",""
"4791","","image-slider-response","103","791555","0.0-102.0","A1SOWFKMH0QYUB","","","","","-27","","","","","","","","","","","","","","","","","","","","","",""
"null","","image-button-response","104","796573","0.0-103.0","A1SOWFKMH0QYUB","img_art/9.jpg","null","","","","","","","","","","","","","","","","","","","","","","","","",""
"1404","","image-button-response","105","797979","0.0-104.0","A1SOWFKMH0QYUB","img_art/9.jpg","4","","","","","","","","","","","","","","","","","","","","","","","","",""
"4432","","image-button-response","106","802411","0.0-105.0-0.0","A1SOWFKMH0QYUB","img_art/9.jpg","5","","","","","","","","","","","","","","","","","","","","","","","","",""
"1390","","image-button-response","107","803803","0.0-106.0-0.0","A1SOWFKMH0QYUB","img_art/9.jpg","2","","","","","","","","","","","","","","","","","","","","","","","","",""
"null","","html-keyboard-response","108","804805","0.0-107.0","A1SOWFKMH0QYUB","<p style=""font-size: 48px;"">+</p>","","","","","null","allTrialResponses","1000","1","9","img_art/9.jpg","-27","Feels angry somehow.  A bit disturbing.","Kathryn,Christina,Amy,Alexandria,Leah,Chelsea","This feels dreamy. Like I'm seeing inside someone's head while they're sleeping.,20,140,20","nice colors but it looks like it's from the 80s,10,240,20","The busyness and harsh nature of the lines in this painting  mute my emotional response.,-10,220,20","it makes me feel excited and draws my eye around,24,80,20","Depressing to me, like a dark dream,-11,360,20","I don't like the obvious lines of colored pencil on the border.,-24,180,20","Leah","Depressing to me, like a dark dream,-11,360,20","Chelsea","I don't like the obvious lines of colored pencil on the border.,-24,180,20","Amy","The busyness and harsh nature of the lines in this painting  mute my emotional response.,-10,220,20","2"
"25828","","survey-text","109","830635","0.0-108.0-0.0","A1SOWFKMH0QYUB","","","","{""Q0"":""Flowing and gorgeous - this is a lovely technique. ""}","","","","","","","","","","","","","","","","","","","","","","",""
"3966.399999976158","","image-slider-response","110","834603","0.0-109.0","A1SOWFKMH0QYUB","","","","","37","","","","","","","","","","","","","","","","","","","","","",""
"3023","","image-button-response","111","839607","0.0-110.0","A1SOWFKMH0QYUB","img_art/17.jpg","0","","","","","","","","","","","","","","","","","","","","","","","","",""
"1778","","image-button-response","112","841387","0.0-111.0","A1SOWFKMH0QYUB","img_art/17.jpg","4","","","","","","","","","","","","","","","","","","","","","","","","",""
"3040","","image-button-response","113","844427","0.0-112.0-0.0","A1SOWFKMH0QYUB","img_art/17.jpg","3","","","","","","","","","","","","","","","","","","","","","","","","",""
"6358","","image-button-response","114","850787","0.0-113.0-0.0","A1SOWFKMH0QYUB","img_art/17.jpg","0","","","","","","","","","","","","","","","","","","","","","","","","",""
"null","","html-keyboard-response","115","852290","0.0-114.0","A1SOWFKMH0QYUB","<p style=""font-size: 48px;"">+</p>","","","","","null","allTrialResponses","1500","1","10","img_art/17.jpg","37","Flowing and gorgeous - this is a lovely technique. ","Heather,Katelyn,Amy,Erika,Leah,Chelsea","Beautiful simply beautiful. i would love this,,50,260,20","Doesnt completely turn me off but wouldnt look twice,-3,100,20","peaceful. contemplative. balanced. old,10,220,20","I love vague, dreamlike styles,50,100,20","Love the colors, the flow, like a strange storm or tree off the balcony,50,360,20","The colors are soft.,32,180,20","Leah","Love the colors, the flow, like a strange storm or tree off the balcony,50,360,20","Erika","I love vague, dreamlike styles,50,100,20","Heather","Beautiful simply beautiful. i would love this,,50,260,20","2"
"4738","","survey-text","116","857035","0.0-115.0-0.0","A1SOWFKMH0QYUB","","","","{""Q0"":""our""}","","","","","","","","","","","","","","","","","","","","","","",""
"30919","","survey-text","117","887955","0.0-116.0-0.0","A1SOWFKMH0QYUB","","","","{""Q0"":""Lots to interpret here, a smoke stack?  A musical instrument?  Very nice""}","","","","","","","","","","","","","","","","","","","","","","",""
"5726.699999988079","","image-slider-response","118","893683","0.0-117.0","A1SOWFKMH0QYUB","","","","","28","","","","","","","","","","","","","","","","","","","","","",""
"null","","image-button-response","119","898685","0.0-118.0","A1SOWFKMH0QYUB","img_art/10.jpg","null","","","","","","","","","","","","","","","","","","","","","","","","",""
"1028","","image-button-response","120","899715","0.0-119.0","A1SOWFKMH0QYUB","img_art/10.jpg","3","","","","","","","","","","","","","","","","","","","","","","","","",""
"3871","","image-button-response","121","903587","0.0-120.0-0.0","A1SOWFKMH0QYUB","img_art/10.jpg","5","","","","","","","","","","","","","","","","","","","","","","","","",""
"3903","","image-button-response","122","907491","0.0-121.0-0.0","A1SOWFKMH0QYUB","img_art/10.jpg","2","","","","","","","","","","","","","","","","","","","","","","","","",""
"null","","html-keyboard-response","123","908997","0.0-122.0","A1SOWFKMH0QYUB","<p style=""font-size: 48px;"">+</p>","","","","","null","allTrialResponses","1500","1","11","img_art/10.jpg","28","Lots to interpret here, a smoke stack?  A musical instrument?  Very nice","Heather,Meghan,Rebecca,Erika,Leah,Taylor","for some reason reminds me of music,2,260,20","kind of reminds me of a map,1,220,20","gives a sense of a roller coaster unit splashed in water. it's not but i love it nevertheless,44,100,20","Good texture, expressive,18,100,20","Dark with no object, looks like experimentation, slightly like a storm on the ocean,-21,360,20","Makes me think of the exhilaration of a roller coaster,31,340,20","Erika","Good texture, expressive,18,100,20","Taylor","Makes me think of the exhilaration of a roller coaster,31,340,20","Rebecca","gives a sense of a roller coaster unit splashed in water. it's not but i love it nevertheless,44,100,20","2"
"24127","","survey-text","124","933131","0.0-123.0-0.0","A1SOWFKMH0QYUB","","","","{""Q0"":""Intensity of the colors are wonderful.  Not sure what I'm looking at though""}","","","","","","","","","","","","","","","","","","","","","","",""
"4007.099999964237","","image-slider-response","125","937139","0.0-124.0","A1SOWFKMH0QYUB","","","","","4","","","","","","","","","","","","","","","","","","","","","",""
"null","","image-button-response","126","942156","0.0-125.0","A1SOWFKMH0QYUB","img_art/20.jpg","null","","","","","","","","","","","","","","","","","","","","","","","","",""
"2701","","image-button-response","127","944859","0.0-126.0","A1SOWFKMH0QYUB","img_art/20.jpg","3","","","","","","","","","","","","","","","","","","","","","","","","",""
"5134","","image-button-response","128","949995","0.0-127.0-0.0","A1SOWFKMH0QYUB","img_art/20.jpg","4","","","","","","","","","","","","","","","","","","","","","","","","",""
"1255","","image-button-response","129","951251","0.0-128.0-0.0","A1SOWFKMH0QYUB","img_art/20.jpg","1","","","","","","","","","","","","","","","","","","","","","","","","",""
"null","","html-keyboard-response","130","951752","0.0-129.0","A1SOWFKMH0QYUB","<p style=""font-size: 48px;"">+</p>","","","","","null","allTrialResponses","500","1","12","img_art/20.jpg","4","Intensity of the colors are wonderful.  Not sure what I'm looking at though","Briana,Morgan,Rebecca,Erika,Isabella,Taylor","Someone trying to be dali,-15,400,20","The beach and industry.,12,380,20","reminds me of georgia o'keeffe's skull,22,100,20","The artist had very strong feelings, bold colors,28,100,20","Feels like a town destroyed,-19,280,20","I just love this painting,47,340,20","Erika","The artist had very strong feelings, bold colors,28,100,20","Isabella","Feels like a town destroyed,-19,280,20","Morgan","The beach and industry.,12,380,20","2"
"25015","","survey-text","131","976770","0.0-130.0-0.0","A1SOWFKMH0QYUB","","","","{""Q0"":""This looks like scribbles.  I don't see much in it.  Red is a violent color for this.""}","","","","","","","","","","","","","","","","","","","","","","",""
"4391.200000047684","","image-slider-response","132","981162","0.0-131.0","A1SOWFKMH0QYUB","","","","","-45","","","","","","","","","","","","","","","","","","","","","",""
"4727","","image-button-response","133","986165","0.0-132.0","A1SOWFKMH0QYUB","img_art/3.jpg","4","","","","","","","","","","","","","","","","","","","","","","","","",""
"1812","","image-button-response","134","987979","0.0-133.0","A1SOWFKMH0QYUB","img_art/3.jpg","4","","","","","","","","","","","","","","","","","","","","","","","","",""
"1912","","image-button-response","135","989891","0.0-134.0-0.0","A1SOWFKMH0QYUB","img_art/3.jpg","5","","","","","","","","","","","","","","","","","","","","","","","","",""
"3342","","image-button-response","136","993234","0.0-135.0-0.0","A1SOWFKMH0QYUB","img_art/3.jpg","0","","","","","","","","","","","","","","","","","","","","","","","","",""
"null","","html-keyboard-response","137","994243","0.0-136.0","A1SOWFKMH0QYUB","<p style=""font-size: 48px;"">+</p>","","","","","null","allTrialResponses","1000","1","13","img_art/3.jpg","-45","This looks like scribbles.  I don't see much in it.  Red is a violent color for this.","Elizabeth,Morgan,Dominique,Erika,Isabella,Jamie","It doesn't invoke any excitement,-21,20,20","Somewhere between a child's art and a poorly drawn battle map.,8,380,20","Iike this one it's a piece that I need to spend more time with to understand how i feel about it,20,400,20","Unaure what the artist  was doing, needs context,11,100,20","Too much red or blood,-28,280,20","Looks like somebody squirted ketchup everywhere,-40,320,20","Isabella","Too much red or blood,-28,280,20","Jamie","Looks like somebody squirted ketchup everywhere,-40,320,20","Elizabeth","It doesn't invoke any excitement,-21,20,20","2"
"40075","","survey-text","138","1034323","0.0-137.0-0.0","A1SOWFKMH0QYUB","","","","{""Q0"":""Beautiful - color is great and it appears to be a god or goddess standing tall amongst mortals""}","","","","","","","","","","","","","","","","","","","","","","",""
"4590.700000047684","","image-slider-response","139","1038915","0.0-138.0","A1SOWFKMH0QYUB","","","","","30","","","","","","","","","","","","","","","","","","","","","",""
"null","","image-button-response","140","1043920","0.0-139.0","A1SOWFKMH0QYUB","img_art/25.jpg","null","","","","","","","","","","","","","","","","","","","","","","","","",""
"8856","","image-button-response","141","1052779","0.0-140.0","A1SOWFKMH0QYUB","img_art/25.jpg","2","","","","","","","","","","","","","","","","","","","","","","","","",""
"2230","","image-button-response","142","1055011","0.0-141.0-0.0","A1SOWFKMH0QYUB","img_art/25.jpg","5","","","","","","","","","","","","","","","","","","","","","","","","",""
"4254","","image-button-response","143","1059267","0.0-142.0-0.0","A1SOWFKMH0QYUB","img_art/25.jpg","4","","","","","","","","","","","","","","","","","","","","","","","","",""
"null","","html-keyboard-response","144","1059779","0.0-143.0","A1SOWFKMH0QYUB","<p style=""font-size: 48px;"">+</p>","","","","","null","allTrialResponses","500","1","14","img_art/25.jpg","30","Beautiful - color is great and it appears to be a god or goddess standing tall amongst mortals","Elizabeth,Sarah,Molly,Danielle,Isabella,Jamie","Love the color hues and the texture it creates,50,20,20","green is really cool, and the pieces in black fit together and are interesting,20,180,20","Well-designed, interesting.,30,340,20","I like it, a bit cryptic and obscene, I enjoy that,30,340,20","I love the green and the figure is black but the green makes it pop,29,280,20","Cool color scheme and appears to be a statue of some type of revered god,40,320,20","Molly","Well-designed, interesting.,30,340,20","Jamie","Cool color scheme and appears to be a statue of some type of revered god,40,320,20","Isabella","I love the green and the figure is black but the green makes it pop,29,280,20","2"
"20892","","survey-text","145","1080674","0.0-144.0-0.0","A1SOWFKMH0QYUB","","","","{""Q0"":""A child's bedroom floor?  I don't see art here.""}","","","","","","","","","","","","","","","","","","","","","","",""
"4799.100000023842","","image-slider-response","146","1085475","0.0-145.0","A1SOWFKMH0QYUB","","","","","-18","","","","","","","","","","","","","","","","","","","","","",""
"null","","image-button-response","147","1090500","0.0-146.0","A1SOWFKMH0QYUB","img_art/16.jpg","null","","","","","","","","","","","","","","","","","","","","","","","","",""
"2879","","image-button-response","148","1093379","0.0-147.0","A1SOWFKMH0QYUB","img_art/16.jpg","4","","","","","","","","","","","","","","","","","","","","","","","","",""
"6239","","image-button-response","149","1099619","0.0-148.0-0.0","A1SOWFKMH0QYUB","img_art/16.jpg","0","","","","","","","","","","","","","","","","","","","","","","","","",""
"3678","","image-button-response","150","1103299","0.0-149.0-0.0","A1SOWFKMH0QYUB","img_art/16.jpg","3","","","","","","","","","","","","","","","","","","","","","","","","",""
"null","","html-keyboard-response","151","1104301","0.0-150.0","A1SOWFKMH0QYUB","<p style=""font-size: 48px;"">+</p>","","","","","null","allTrialResponses","1000","1","15","img_art/16.jpg","-18","A child's bedroom floor?  I don't see art here.","Megan,Mary,Molly,Angelica,Isabella,Jamie","Ugly, broken up and mismatched,-50,200,20","This is a neat piece. Sort of shocking. I think it's too monochromatic though.,19,180,20","It's frightening.,30,340,20","This is creepy and puerile.,-45,280,20","This looks chaotic,-25,280,20","Weird and funny,40,320,20","Isabella","This looks chaotic,-25,280,20","Megan","Ugly, broken up and mismatched,-50,200,20","Angelica","This is creepy and puerile.,-45,280,20","2"
"4551","","survey-text","152","1108859","0.0-151.0-0.0","A1SOWFKMH0QYUB","","","","{""Q0"":""course""}","","","","","","","","","","","","","","","","","","","","","","",""
"31294","","survey-text","153","1140155","0.0-152.0-0.0","A1SOWFKMH0QYUB","","","","{""Q0"":""Nice colors but I have no idea what it represents. A bit dark and random""}","","","","","","","","","","","","","","","","","","","","","","",""
"3822.699999988079","","image-slider-response","154","1143979","0.0-153.0","A1SOWFKMH0QYUB","","","","","-17","","","","","","","","","","","","","","","","","","","","","",""
"3742","","image-button-response","155","1148988","0.0-154.0","A1SOWFKMH0QYUB","img_art/15.jpg","1","","","","","","","","","","","","","","","","","","","","","","","","",""
"1421","","image-button-response","156","1150411","0.0-155.0","A1SOWFKMH0QYUB","img_art/15.jpg","1","","","","","","","","","","","","","","","","","","","","","","","","",""
"9736","","image-button-response","157","1160147","0.0-156.0-0.0","A1SOWFKMH0QYUB","img_art/15.jpg","4","","","","","","","","","","","","","","","","","","","","","","","","",""
"2486","","image-button-response","158","1162635","0.0-157.0-0.0","A1SOWFKMH0QYUB","img_art/15.jpg","0","","","","","","","","","","","","","","","","","","","","","","","","",""
"null","","html-keyboard-response","159","1163643","0.0-158.0","A1SOWFKMH0QYUB","<p style=""font-size: 48px;"">+</p>","","","","","null","allTrialResponses","1000","1","16","img_art/15.jpg","-17","Nice colors but I have no idea what it represents. A bit dark and random","Megan,Katie,Rachel,Angelica,Isabella,Diana","Dark, drab asymmetrical floral piece,-26,200,20","Too much black. I see weeds or dead/dying flowers.,-40,160,20","Reminds me of blue birds in a tree at night. I love nature.,40,80,20","This looks odd and was not well executed.,-3,280,20","Too intense with the black dotting,-22,280,20","There should be more space between the black marks. The black comes off harsh and the blue between the trees can barely be seen.,-21,380,20","Katie","Too much black. I see weeds or dead/dying flowers.,-40,160,20","Isabella","Too intense with the black dotting,-22,280,20","Megan","Dark, drab asymmetrical floral piece,-26,200,20","2"
"26009","","survey-text","160","1189659","0.0-159.0-0.0","A1SOWFKMH0QYUB","","","","{""Q0"":""This looks like a crime scene. Violent and dramatic""}","","","","","","","","","","","","","","","","","","","","","","",""
"3174.199999988079","","image-slider-response","161","1192835","0.0-160.0","A1SOWFKMH0QYUB","","","","","21","","","","","","","","","","","","","","","","","","","","","",""
"null","","image-button-response","162","1197852","0.0-161.0","A1SOWFKMH0QYUB","img_art/29.jpg","null","","","","","","","","","","","","","","","","","","","","","","","","",""
"16061","","image-button-response","163","1213915","0.0-162.0","A1SOWFKMH0QYUB","img_art/29.jpg","4","","","","","","","","","","","","","","","","","","","","","","","","",""
"5198","","image-button-response","164","1219115","0.0-163.0-0.0","A1SOWFKMH0QYUB","img_art/29.jpg","3","","","","","","","","","","","","","","","","","","","","","","","","",""
"2038","","image-button-response","165","1221155","0.0-164.0-0.0","A1SOWFKMH0QYUB","img_art/29.jpg","5","","","","","","","","","","","","","","","","","","","","","","","","",""
"null","","html-keyboard-response","166","1222172","0.0-165.0","A1SOWFKMH0QYUB","<p style=""font-size: 48px;"">+</p>","","","","","null","allTrialResponses","1000","1","17","img_art/29.jpg","21","This looks like a crime scene. Violent and dramatic","Megan,Katie,Alicia,Kayla,Isabella,Marissa","Pinball meets a dark dream meets whale alien, drab,13,200,20","Don't get it! Too dark and random. Perhaps it was the start of something but the artist stopped and cancelled out the work.,-50,160,20","easy, too abstract for me, don't get it.,-25,120,20","It looks like graffiti in a subway tunnel- destruction.,-20,180,20","Darkness and torment,-50,280,20","It makes me feel as though the artist put in a lot of time and effort and then gave up,10,160,20","Isabella","Darkness and torment,-50,280,20","Kayla","It looks like graffiti in a subway tunnel- destruction.,-20,180,20","Marissa","It makes me feel as though the artist put in a lot of time and effort and then gave up,10,160,20","2"
"26801","","survey-text","167","1248979","0.0-166.0-0.0","A1SOWFKMH0QYUB","","","","{""Q0"":""Dark, like a bad dream with ghosts on a ship of some kind""}","","","","","","","","","","","","","","","","","","","","","","",""
"2966.899999976158","","image-slider-response","168","1251947","0.0-167.0","A1SOWFKMH0QYUB","","","","","-12","","","","","","","","","","","","","","","","","","","","","",""
"null","","image-button-response","169","1256961","0.0-168.0","A1SOWFKMH0QYUB","img_art/18.jpg","null","","","","","","","","","","","","","","","","","","","","","","","","",""
"3721","","image-button-response","170","1260683","0.0-169.0","A1SOWFKMH0QYUB","img_art/18.jpg","3","","","","","","","","","","","","","","","","","","","","","","","","",""
"2264","","image-button-response","171","1262947","0.0-170.0-0.0","A1SOWFKMH0QYUB","img_art/18.jpg","4","","","","","","","","","","","","","","","","","","","","","","","","",""
"1870","","image-button-response","172","1264819","0.0-171.0-0.0","A1SOWFKMH0QYUB","img_art/18.jpg","5","","","","","","","","","","","","","","","","","","","","","","","","",""
"null","","html-keyboard-response","173","1265832","0.0-172.0","A1SOWFKMH0QYUB","<p style=""font-size: 48px;"">+</p>","","","","","null","allTrialResponses","1000","1","18","img_art/18.jpg","-12","Dark, like a bad dream with ghosts on a ship of some kind","Anna,Savannah,Angela,Kayla,Isabella,Marissa","I could spend a long time looking at it and see different things in the shapes.,21,300,20","Accents make this piece.,21,200,20","like the grays and contrast of the yellow. This piece feels a bit angry,10,260,20","It's like a ship, but a freaky ship.,-11,180,20","Feels like a story of ancient war of the gods,26,280,20","This brings to mind the four horsemen of the apocalypse,8,160,20","Kayla","It's like a ship, but a freaky ship.,-11,180,20","Isabella","Feels like a story of ancient war of the gods,26,280,20","Marissa","This brings to mind the four horsemen of the apocalypse,8,160,20","2"
"23799","","survey-text","174","1289634","0.0-173.0-0.0","A1SOWFKMH0QYUB","","","","{""Q0"":""Bright and pretty - flowing waterfalls - great color""}","","","","","","","","","","","","","","","","","","","","","","",""
"4094.899999976158","","image-slider-response","175","1293730","0.0-174.0","A1SOWFKMH0QYUB","","","","","26","","","","","","","","","","","","","","","","","","","","","",""
"null","","image-button-response","176","1298751","0.0-175.0","A1SOWFKMH0QYUB","img_art/24.jpg","null","","","","","","","","","","","","","","","","","","","","","","","","",""
"3138","","image-button-response","177","1301890","0.0-176.0","A1SOWFKMH0QYUB","img_art/24.jpg","4","","","","","","","","","","","","","","","","","","","","","","","","",""
"1519","","image-button-response","178","1303410","0.0-177.0-0.0","A1SOWFKMH0QYUB","img_art/24.jpg","5","","","","","","","","","","","","","","","","","","","","","","","","",""
"1647","","image-button-response","179","1305058","0.0-178.0-0.0","A1SOWFKMH0QYUB","img_art/24.jpg","1","","","","","","","","","","","","","","","","","","","","","","","","",""
"null","","html-keyboard-response","180","1306060","0.0-179.0","A1SOWFKMH0QYUB","<p style=""font-size: 48px;"">+</p>","","","","","null","allTrialResponses","1000","1","19","img_art/24.jpg","26","Bright and pretty - flowing waterfalls - great color","Madison,Brianna,Kelsey,Kayla,Isabella,Marissa","Exceedingly garish,-19,60,20","The waterfall looks peaceful,11,20,20","this one is just a bit too harsh,-13,240,20","It looks like a poor dead bunny in a field of flowers. I don't want the bunny to be dead.,-37,180,20","A peaceful day by the river,42,280,20","It feels very serene,19,160,20","Isabella","A peaceful day by the river,42,280,20","Marissa","It feels very serene,19,160,20","Brianna","The waterfall looks peaceful,11,20,20","2"
"26499","","survey-text","181","1332562","0.0-180.0-0.0","A1SOWFKMH0QYUB","","","","{""Q0"":""A shore facing the ocean in a storm - dramatic""}","","","","","","","","","","","","","","","","","","","","","","",""
"4126.699999988079","","image-slider-response","182","1336690","0.0-181.0","A1SOWFKMH0QYUB","","","","","28","","","","","","","","","","","","","","","","","","","","","",""
"null","","image-button-response","183","1341710","0.0-182.0","A1SOWFKMH0QYUB","img_art/21.jpg","null","","","","","","","","","","","","","","","","","","","","","","","","",""
"8595","","image-button-response","184","1350306","0.0-183.0","A1SOWFKMH0QYUB","img_art/21.jpg","0","","","","","","","","","","","","","","","","","","","","","","","","",""
"2470","","image-button-response","185","1352778","0.0-184.0-0.0","A1SOWFKMH0QYUB","img_art/21.jpg","2","","","","","","","","","","","","","","","","","","","","","","","","",""
"2223","","image-button-response","186","1355002","0.0-185.0-0.0","A1SOWFKMH0QYUB","img_art/21.jpg","3","","","","","","","","","","","","","","","","","","","","","","","","",""
"null","","html-keyboard-response","187","1356009","0.0-186.0","A1SOWFKMH0QYUB","<p style=""font-size: 48px;"">+</p>","","","","","null","allTrialResponses","1000","1","20","img_art/21.jpg","28","A shore facing the ocean in a storm - dramatic","Andrea,Brianna,Caitlin,Shannon,Isabella,Marissa","It feels like a day at sea but the pink is slightly jarring and holding my eye.,26,240,20","Don't really lean either way.,1,20,20","Remove the rocks(?) on the lower right.,5,80,20","I like the sky a little bit the way the colors look for the sky, the cliff side looks a little weird though.,10,220,20","It reminds me of war, red blood and dark blue reminds me of an army,-20,280,20","I feel confused,-18,160,20","Andrea","It feels like a day at sea but the pink is slightly jarring and holding my eye.,26,240,20","Caitlin","Remove the rocks(?) on the lower right.,5,80,20","Shannon","I like the sky a little bit the way the colors look for the sky, the cliff side looks a little weird though.,10,220,20","2"
"4571","","survey-text","188","1360586","0.0-187.0-0.0","A1SOWFKMH0QYUB","","","","{""Q0"":""we""}","","","","","","","","","","","","","","","","","","","","","","",""
"21478","","survey-text","189","1382066","0.0-188.0-0.0","A1SOWFKMH0QYUB","","","","{""Q0"":""Love this - a person in a cityscape, lovely colors""}","","","","","","","","","","","","","","","","","","","","","","",""
"6943.5","","image-slider-response","190","1389011","0.0-189.0","A1SOWFKMH0QYUB","","","","","41","","","","","","","","","","","","","","","","","","","","","",""
"4174","","image-button-response","191","1394013","0.0-190.0","A1SOWFKMH0QYUB","img_art/19.jpg","0","","","","","","","","","","","","","","","","","","","","","","","","",""
"874","","image-button-response","192","1394891","0.0-191.0","A1SOWFKMH0QYUB","img_art/19.jpg","0","","","","","","","","","","","","","","","","","","","","","","","","",""
"8575","","image-button-response","193","1403467","0.0-192.0-0.0","A1SOWFKMH0QYUB","img_art/19.jpg","1","","","","","","","","","","","","","","","","","","","","","","","","",""
"1238","","image-button-response","194","1404707","0.0-193.0-0.0","A1SOWFKMH0QYUB","img_art/19.jpg","0","","","","","","","","","","","","","","","","","","","","","","","","",""
"2703","","image-button-response","195","1411907","0.0-193.1-0.1","A1SOWFKMH0QYUB","img_art/19.jpg","5","","","","","","","","","","","","","","","","","","","","","","","","",""
"null","","html-keyboard-response","196","1412408","0.0-194.0","A1SOWFKMH0QYUB","<p style=""font-size: 48px;"">+</p>","","","","","null","allTrialResponses","500","1","21","img_art/19.jpg","41","Love this - a person in a cityscape, lovely colors","Andrea,Kristen,Caitlin,Shannon,Bailey,Stephanie","Feels like a cafe in Paris.,35,240,20","city, stress of urbanism, slightly panicked,2,280,20","Looks like a homeless man and this painting should be too.,-5,80,20","This looks like a bunch of weird blobs and the colors don't go great together.,-10,220,20","Horrible. Squiggly lines everywhere.,-50,360,20","A dreary town in the fall.,-4,300,20","Andrea","Feels like a cafe in Paris.,35,240,20","Kristen","city, stress of urbanism, slightly panicked,2,280,20","Stephanie","A dreary town in the fall.,-4,300,20","4"
"16598","","survey-text","197","1429018","0.0-195.0-0.0","A1SOWFKMH0QYUB","","","","{""Q0"":""Love these colors but not a fan of splatter art""}","","","","","","","","","","","","","","","","","","","","","","",""
"5150.699999988079","","image-slider-response","198","1434171","0.0-196.0","A1SOWFKMH0QYUB","","","","","8","","","","","","","","","","","","","","","","","","","","","",""
"null","","image-button-response","199","1439187","0.0-197.0","A1SOWFKMH0QYUB","img_art/13.jpg","null","","","","","","","","","","","","","","","","","","","","","","","","",""
"6254","","image-button-response","200","1445443","0.0-198.0","A1SOWFKMH0QYUB","img_art/13.jpg","0","","","","","","","","","","","","","","","","","","","","","","","","",""
"4126","","image-button-response","201","1449571","0.0-199.0-0.0","A1SOWFKMH0QYUB","img_art/13.jpg","2","","","","","","","","","","","","","","","","","","","","","","","","",""
"7734","","image-button-response","202","1457307","0.0-200.0-0.0","A1SOWFKMH0QYUB","img_art/13.jpg","3","","","","","","","","","","","","","","","","","","","","","","","","",""
"null","","html-keyboard-response","203","1458810","0.0-201.0","A1SOWFKMH0QYUB","<p style=""font-size: 48px;"">+</p>","","","","","null","allTrialResponses","1500","1","22","img_art/13.jpg","8","Love these colors but not a fan of splatter art","Andrea,Kristen,Sierra,Grace,Courtney,Stephanie","Raindrops on a window. Makes me feel like traveling.,31,240,20","happy, serenity,30,280,20","the blues are soothing but the splatters are too much,-3,260,20","Love the colors, love the abstractness, love this Jackson Pollock type painting.,48,180,20","Debree on top of a calm pond.,18,280,20","Raindrops splashing on the window.,50,300,20","Andrea","Raindrops on a window. Makes me feel like traveling.,31,240,20","Sierra","the blues are soothing but the splatters are too much,-3,260,20","Grace","Love the colors, love the abstractness, love this Jackson Pollock type painting.,48,180,20","4"
"17657","","survey-text","204","1476475","0.0-202.0-0.0","A1SOWFKMH0QYUB","","","","{""Q0"":""I would not call this art, it looks like nothing to me""}","","","","","","","","","","","","","","","","","","","","","","",""
"4822.399999976158","","image-slider-response","205","1481298","0.0-203.0","A1SOWFKMH0QYUB","","","","","-39","","","","","","","","","","","","","","","","","","","","","",""
"null","","image-button-response","206","1486304","0.0-204.0","A1SOWFKMH0QYUB","img_art/5.jpg","null","","","","","","","","","","","","","","","","","","","","","","","","",""
"4352","","image-button-response","207","1490659","0.0-205.0","A1SOWFKMH0QYUB","img_art/5.jpg","2","","","","","","","","","","","","","","","","","","","","","","","","",""
"1079","","image-button-response","208","1491739","0.0-206.0-0.0","A1SOWFKMH0QYUB","img_art/5.jpg","5","","","","","","","","","","","","","","","","","","","","","","","","",""
"1678","","image-button-response","209","1493418","0.0-207.0-0.0","A1SOWFKMH0QYUB","img_art/5.jpg","3","","","","","","","","","","","","","","","","","","","","","","","","",""
"null","","html-keyboard-response","210","1494420","0.0-208.0","A1SOWFKMH0QYUB","<p style=""font-size: 48px;"">+</p>","","","","","null","allTrialResponses","1000","1","23","img_art/5.jpg","-39","I would not call this art, it looks like nothing to me","Andrea,Breanna,Sierra,Grace,Natalie,Alexandra","Perfume bottle, reminds of fancy nights out.,11,240,20","Makes me feel weird,-16,380,20","i dont like the yellow or the shape,-26,260,20","Looks like a yellow plastic trash bag.,-42,180,20","the picture looks ok,8,400,20","This looks like a twelve year old did it,-40,60,20","Sierra","i dont like the yellow or the shape,-26,260,20","Alexandra","This looks like a twelve year old did it,-40,60,20","Grace","Looks like a yellow plastic trash bag.,-42,180,20","4"
"19820","","survey-text","211","1514243","0.0-209.0-0.0","A1SOWFKMH0QYUB","","","","{""Q0"":""Nice colors, childish painting""}","","","","","","","","","","","","","","","","","","","","","","",""
"3005.800000011921","","image-slider-response","212","1517250","0.0-210.0","A1SOWFKMH0QYUB","","","","","-14","","","","","","","","","","","","","","","","","","","","","",""
"null","","image-button-response","213","1522261","0.0-211.0","A1SOWFKMH0QYUB","img_art/27.jpg","null","","","","","","","","","","","","","","","","","","","","","","","","",""
"2444","","image-button-response","214","1524706","0.0-212.0","A1SOWFKMH0QYUB","img_art/27.jpg","5","","","","","","","","","","","","","","","","","","","","","","","","",""
"1231","","image-button-response","215","1525938","0.0-213.0-0.0","A1SOWFKMH0QYUB","img_art/27.jpg","3","","","","","","","","","","","","","","","","","","","","","","","","",""
"1431","","image-button-response","216","1527370","0.0-214.0-0.0","A1SOWFKMH0QYUB","img_art/27.jpg","0","","","","","","","","","","","","","","","","","","","","","","","","",""
"null","","html-keyboard-response","217","1528372","0.0-215.0","A1SOWFKMH0QYUB","<p style=""font-size: 48px;"">+</p>","","","","","null","allTrialResponses","1000","1","24","img_art/27.jpg","-14","Nice colors, childish painting","Sara,Sydney,Sierra,Grace,Victoria,Alexandra","Not cohesive design,-31,160,20","This piece reminds me of a summer day.,30,320,20","meh. it is neutral to me.,1,260,20","Not fond of the bad pencil drawing mixed with the drab colors.,-21,180,20","reminds me of fall,33,400,20","This is ugly and looks like a child did this,-36,60,20","Alexandra","This is ugly and looks like a child did this,-36,60,20","Grace","Not fond of the bad pencil drawing mixed with the drab colors.,-21,180,20","Sara","Not cohesive design,-31,160,20","4"
"22537","","survey-text","218","1550922","0.0-216.0-0.0","A1SOWFKMH0QYUB","","","","{""Q0"":""Not sure this is art.  Looks like a floor.""}","","","","","","","","","","","","","","","","","","","","","","",""
"4799.100000023842","","image-slider-response","219","1555722","0.0-217.0","A1SOWFKMH0QYUB","","","","","-39","","","","","","","","","","","","","","","","","","","","","",""
"null","","image-button-response","220","1560740","0.0-218.0","A1SOWFKMH0QYUB","img_art/7.jpg","null","","","","","","","","","","","","","","","","","","","","","","","","",""
"4132","","image-button-response","221","1564874","0.0-219.0","A1SOWFKMH0QYUB","img_art/7.jpg","4","","","","","","","","","","","","","","","","","","","","","","","","",""
"911","","image-button-response","222","1565787","0.0-220.0-0.0","A1SOWFKMH0QYUB","img_art/7.jpg","5","","","","","","","","","","","","","","","","","","","","","","","","",""
"1326","","image-button-response","223","1567115","0.0-221.0-0.0","A1SOWFKMH0QYUB","img_art/7.jpg","0","","","","","","","","","","","","","","","","","","","","","","","","",""
"null","","html-keyboard-response","224","1568634","0.0-222.0","A1SOWFKMH0QYUB","<p style=""font-size: 48px;"">+</p>","","","","","null","allTrialResponses","1500","1","25","img_art/7.jpg","-39","Not sure this is art.  Looks like a floor.","Sara,Mackenzie,Katherine,Grace,Mariah,Alexandra","It feels cold and hard,-40,160,20","Is simple in color and texture,11,20,20","Reminds me of bugs, I hate bugs,-7,120,20","Makes me itch - looks like a closeup of an ant colony or something.,-1,180,20","The dried bottom of a puddle in July.,-41,140,20","I do not like the boring colors in this.,-20,60,20","Mariah","The dried bottom of a puddle in July.,-41,140,20","Alexandra","I do not like the boring colors in this.,-20,60,20","Sara","It feels cold and hard,-40,160,20","4"
"4834","","survey-text","225","1573474","0.0-223.0-0.0","A1SOWFKMH0QYUB","","","","{""Q0"":""table""}","","","","","","","","","","","","","","","","","","","","","","",""
"27254","","survey-text","226","1600730","0.0-224.0-0.0","A1SOWFKMH0QYUB","","","","{""Q0"":""Lots to see in this, Very interesting but drab colors""}","","","","","","","","","","","","","","","","","","","","","","",""
"4631.099999964237","","image-slider-response","227","1605362","0.0-225.0","A1SOWFKMH0QYUB","","","","","15","","","","","","","","","","","","","","","","","","","","","",""
"null","","image-button-response","228","1610373","0.0-226.0","A1SOWFKMH0QYUB","img_art/28.jpg","null","","","","","","","","","","","","","","","","","","","","","","","","",""
"9372","","image-button-response","229","1619746","0.0-227.0","A1SOWFKMH0QYUB","img_art/28.jpg","2","","","","","","","","","","","","","","","","","","","","","","","","",""
"8335","","image-button-response","230","1628082","0.0-228.0-0.0","A1SOWFKMH0QYUB","img_art/28.jpg","3","","","","","","","","","","","","","","","","","","","","","","","","",""
"1367","","image-button-response","231","1629451","0.0-229.0-0.0","A1SOWFKMH0QYUB","img_art/28.jpg","5","","","","","","","","","","","","","","","","","","","","","","","","",""
"null","","html-keyboard-response","232","1630956","0.0-230.0","A1SOWFKMH0QYUB","<p style=""font-size: 48px;"">+</p>","","","","","null","allTrialResponses","1500","1","26","img_art/28.jpg","15","Lots to see in this, Very interesting but drab colors","Sara,Tiffany,Brittany,Caroline,Mariah,Alexandra","This swirly drawing i snot my type I get confused and dizzy,-20,160,20","It makes me feel happy, and a little anxious.,50,360,20","I don't like the colors or the design.,-20,40,20","Colors are pleasing. Made me think of two people kneeling and talking. A curious feeling.,15,100,20","Colors are pleasing, shapes are vaguely unpleasant. Kidneys at a smoky bar.,5,140,20","Boring, looks like it belongs in a coffee shop,-20,60,20","Brittany","I don't like the colors or the design.,-20,40,20","Caroline","Colors are pleasing. Made me think of two people kneeling and talking. A curious feeling.,15,100,20","Alexandra","Boring, looks like it belongs in a coffee shop,-20,60,20","4"
"26633","","survey-text","233","1657594","0.0-231.0-0.0","A1SOWFKMH0QYUB","","","","{""Q0"":""I see a lake in the autumn. Abstract but beautiful""}","","","","","","","","","","","","","","","","","","","","","","",""
"3759.300000011921","","image-slider-response","234","1661355","0.0-232.0","A1SOWFKMH0QYUB","","","","","40","","","","","","","","","","","","","","","","","","","","","",""
"null","","image-button-response","235","1666365","0.0-233.0","A1SOWFKMH0QYUB","img_art/1.jpg","null","","","","","","","","","","","","","","","","","","","","","","","","",""
"3115","","image-button-response","236","1669482","0.0-234.0","A1SOWFKMH0QYUB","img_art/1.jpg","5","","","","","","","","","","","","","","","","","","","","","","","","",""
"2543","","image-button-response","237","1672027","0.0-235.0-0.0","A1SOWFKMH0QYUB","img_art/1.jpg","0","","","","","","","","","","","","","","","","","","","","","","","","",""
"758","","image-button-response","238","1672786","0.0-236.0-0.0","A1SOWFKMH0QYUB","img_art/1.jpg","1","","","","","","","","","","","","","","","","","","","","","","","","",""
"null","","html-keyboard-response","239","1674294","0.0-237.0","A1SOWFKMH0QYUB","<p style=""font-size: 48px;"">+</p>","","","","","null","allTrialResponses","1500","1","27","img_art/1.jpg","40","I see a lake in the autumn. Abstract but beautiful","Jennifer,Abigail,Brittany,Caroline,Lauren,Alexandra","Bright and colorful without being overpowering,32,380,20","I like the warmth of the picture,21,20,20","It reminds me of a sunset I once saw.,16,40,20","Felt nothing in response to this painting,3,100,20","This image doesn't invoke much in me.,0,340,20","I love the warm colors of the art,32,60,20","Alexandra","I love the warm colors of the art,32,60,20","Jennifer","Bright and colorful without being overpowering,32,380,20","Abigail","I like the warmth of the picture,21,20,20","4"
"22039","","survey-text","240","1696338","0.0-238.0-0.0","A1SOWFKMH0QYUB","","","","{""Q0"":""Nothing.  Just swirls of paint, childish.""}","","","","","","","","","","","","","","","","","","","","","","",""
"3983.300000011921","","image-slider-response","241","1700323","0.0-239.0","A1SOWFKMH0QYUB","","","","","-43","","","","","","","","","","","","","","","","","","","","","",""
"null","","image-button-response","242","1705332","0.0-240.0","A1SOWFKMH0QYUB","img_art/30.jpg","null","","","","","","","","","","","","","","","","","","","","","","","","",""
"5078","","image-button-response","243","1710410","0.0-241.0","A1SOWFKMH0QYUB","img_art/30.jpg","2","","","","","","","","","","","","","","","","","","","","","","","","",""
"2503","","image-button-response","244","1712915","0.0-242.0-0.0","A1SOWFKMH0QYUB","img_art/30.jpg","0","","","","","","","","","","","","","","","","","","","","","","","","",""
"6638","","image-button-response","245","1719554","0.0-243.0-0.0","A1SOWFKMH0QYUB","img_art/30.jpg","1","","","","","","","","","","","","","","","","","","","","","","","","",""
"null","","html-keyboard-response","246","1721064","0.0-244.0","A1SOWFKMH0QYUB","<p style=""font-size: 48px;"">+</p>","","","","","null","allTrialResponses","1500","1","28","img_art/30.jpg","-43","Nothing.  Just swirls of paint, childish.","Jennifer,Abigail,Miranda,Shelby,Hailey,Alexandra","The color scheme used in this piece is very ugly.,-50,380,20","Combination of colors arent good,-6,20,20","It looks like it was made by pre-k students.,-30,320,20","It's pleasent but otherwise unprovoking,8,240,20","snakes in the grass, I don't like it,-17,200,20","I really love the pastel colors and the 3D design in this,43,60,20","Miranda","It looks like it was made by pre-k students.,-30,320,20","Jennifer","The color scheme used in this piece is very ugly.,-50,380,20","Abigail","Combination of colors arent good,-6,20,20","4"
"29622","","survey-text","247","1750690","0.0-245.0-0.0","A1SOWFKMH0QYUB","","","","{""Q0"":""Beautiful city  - traffic - many layers here.  Great colors""}","","","","","","","","","","","","","","","","","","","","","","",""
"4078.5","","image-slider-response","248","1754770","0.0-246.0","A1SOWFKMH0QYUB","","","","","36","","","","","","","","","","","","","","","","","","","","","",""
"null","","image-button-response","249","1759781","0.0-247.0","A1SOWFKMH0QYUB","img_art/11.jpg","null","","","","","","","","","","","","","","","","","","","","","","","","",""
"5324","","image-button-response","250","1765106","0.0-248.0","A1SOWFKMH0QYUB","img_art/11.jpg","4","","","","","","","","","","","","","","","","","","","","","","","","",""
"4895","","image-button-response","251","1770002","0.0-249.0-0.0","A1SOWFKMH0QYUB","img_art/11.jpg","1","","","","","","","","","","","","","","","","","","","","","","","","",""
"1806","","image-button-response","252","1771810","0.0-250.0-0.0","A1SOWFKMH0QYUB","img_art/11.jpg","2","","","","","","","","","","","","","","","","","","","","","","","","",""
"null","","html-keyboard-response","253","1772815","0.0-251.0","A1SOWFKMH0QYUB","<p style=""font-size: 48px;"">+</p>","","","","","null","allTrialResponses","1000","1","29","img_art/11.jpg","36","Beautiful city  - traffic - many layers here.  Great colors","Jennifer,Abigail,Miranda,Gabriela,Samantha,Margaret","The narrow groups of lines in the center make me feel uneasy for some reason,-31,380,20","Rainy highways in RI,20,20,20","This one is a little erie, gives me post-apocalyptic feeling,27,320,20","This photo makes me feel bleak,-16,140,20","Love the colors and flow,50,140,20","dont like the colors. Its a gloomy day in london and this is the transit system,-26,100,20","Samantha","Love the colors and flow,50,140,20","Abigail","Rainy highways in RI,20,20,20","Miranda","This one is a little erie, gives me post-apocalyptic feeling,27,320,20","4"
"28916","","survey-text","254","1801738","0.0-252.0-0.0","A1SOWFKMH0QYUB","","","","{""Q0"":""Colors are great but it's puzzling.  Two keys?  A City?  ""}","","","","","","","","","","","","","","","","","","","","","","",""
"6030.5","","image-slider-response","255","1807770","0.0-253.0","A1SOWFKMH0QYUB","","","","","23","","","","","","","","","","","","","","","","","","","","","",""
"null","","image-button-response","256","1812779","0.0-254.0","A1SOWFKMH0QYUB","img_art/22.jpg","null","","","","","","","","","","","","","","","","","","","","","","","","",""
"4486","","image-button-response","257","1817267","0.0-255.0","A1SOWFKMH0QYUB","img_art/22.jpg","4","","","","","","","","","","","","","","","","","","","","","","","","",""
"1366","","image-button-response","258","1818634","0.0-256.0-0.0","A1SOWFKMH0QYUB","img_art/22.jpg","5","","","","","","","","","","","","","","","","","","","","","","","","",""
"951","","image-button-response","259","1819586","0.0-257.0-0.0","A1SOWFKMH0QYUB","img_art/22.jpg","3","","","","","","","","","","","","","","","","","","","","","","","","",""
"null","","html-keyboard-response","260","1820087","0.0-258.0","A1SOWFKMH0QYUB","<p style=""font-size: 48px;"">+</p>","","","","","null","allTrialResponses","500","1","30","img_art/22.jpg","23","Colors are great but it's puzzling.  Two keys?  A City?  ","Kylie,Abigail,Miranda,Madeline,Samantha,Kelly","Climate change in a big city,35,300,20","The colors are too dark, too much red,2,20,20","Its very warm, it reminds of someone not liking their painting so they destoryed it,26,320,20","I really like the colors here,3,40,20","Pretty colors but something seems sinister about it,25,140,20","I really enjoy the blended colors.,20,220,20","Samantha","Pretty colors but something seems sinister about it,25,140,20","Kelly","I really enjoy the blended colors.,20,220,20","Madeline","I really like the colors here,3,40,20","4"
"4673","","image-button-response_instructions","261","1824771","0.0-259.0","A1SOWFKMH0QYUB","","0","instructions","","","","","","","","","","","","","","","","","","","","","","","",""
"1627","","image-button-response","262","1826402","0.0-260.0","A1SOWFKMH0QYUB","","0","","","","","","","","","","","","","","","","","","","","","","","","",""
