"rt","url","trial_type","trial_index","time_elapsed","internal_node_id","participant_id","stimulus","button_pressed","Name","responses","response","key_press","variableName","fixationTime","condition","trial","photo","subjectRating","subjectResponse","agentsNames","agent_1_Response","agent_2_Response","agent_3_Response","agent_4_Response","agent_5_Response","agent_6_Response","kept_1_name","kept_1_response","kept_2_name","kept_2_response","kept_3_name","kept_3_response","errorCounter"
"532680","external_page_harvard.html","external-html","0","532792","0.0-0.0","A1SRQ63M2VV6QP","","","","","","","","","","","","","","","","","","","","","","","","","","",""
"2060","","image-button-response","1","534858","0.0-1.0","A1SRQ63M2VV6QP","","0","","","","","","","","","","","","","","","","","","","","","","","","",""
"4432","","image-button-response","2","539303","0.0-2.0-0.0","A1SRQ63M2VV6QP","","1","phone","","","","","","","","","","","","","","","","","","","","","","","",""
"8884","","survey-text","3","548191","0.0-3.0-0.0","A1SRQ63M2VV6QP","","","","{""Q0"":""A1SRQ63M2VV6QP""}","","","","","","","","","","","","","","","","","","","","","","",""
"73566","","image-button-response_instructions","4","621761","0.0-4.0","A1SRQ63M2VV6QP","","0","instructions","","","","","","","","","","","","","","","","","","","","","","","",""
"61222","","image-button-response_instructions","5","682986","0.0-5.0","A1SRQ63M2VV6QP","img_art/ins/popularity/ins1.png","0","instructions","","","","","","","","","","","","","","","","","","","","","","","",""
"10652","","image-button-response_instructions","6","693642","0.0-6.0","A1SRQ63M2VV6QP","img_art/ins/popularity/ins2.png","0","instructions","","","","","","","","","","","","","","","","","","","","","","","",""
"12514","","image-button-response_instructions","7","706159","0.0-7.0","A1SRQ63M2VV6QP","img_art/ins/popularity/ins2Extreme.png","0","instructions","","","","","","","","","","","","","","","","","","","","","","","",""
"13102","","image-button-response_instructions","8","719263","0.0-8.0","A1SRQ63M2VV6QP","img_art/ins/popularity/ins3KEEPpop.PNG","0","instructions","","","","","","","","","","","","","","","","","","","","","","","",""
"402923","","image-button-response_instructions","9","1122189","0.0-9.0","A1SRQ63M2VV6QP","img_art/ins/popularity/ins3ANamepop.PNG","0","instructions","","","","","","","","","","","","","","","","","","","","","","","",""
"5926","","image-button-response_instructions","10","1128117","0.0-10.0","A1SRQ63M2VV6QP","img_art/ins/popularity/ins3ARatingpop.png","0","instructions","","","","","","","","","","","","","","","","","","","","","","","",""
"5901","","image-button-response_instructions","11","1134022","0.0-11.0","A1SRQ63M2VV6QP","img_art/ins/popularity/ins3ATextpop.png","0","instructions","","","","","","","","","","","","","","","","","","","","","","","",""
"21577","","image-button-response_instructions","12","1155603","0.0-12.0","A1SRQ63M2VV6QP","img_art/ins/popularity/ins3ALikespop.png","0","instructions","","","","","","","","","","","","","","","","","","","","","","","",""
"13050","","image-button-response_instructions","13","1168657","0.0-13.0","A1SRQ63M2VV6QP","img_art/ins/popularity/ins3KEEPpop.PNG","0","instructions","","","","","","","","","","","","","","","","","","","","","","","",""
"13340","","image-button-response_instructions","14","1182000","0.0-14.0","A1SRQ63M2VV6QP","img_art/ins/popularity/ins3_5RED.png","0","instructions","","","","","","","","","","","","","","","","","","","","","","","",""
"14597","","image-button-response_instructions","15","1196599","0.0-15.0","A1SRQ63M2VV6QP","img_art/ins/popularity/ins3KEEPpop.PNG","0","instructions","","","","","","","","","","","","","","","","","","","","","","","",""
"11797","","image-button-response_instructions","16","1208398","0.0-16.0","A1SRQ63M2VV6QP","img_art/ins/popularity/ins4KEEPpop.PNG","0","instructions","","","","","","","","","","","","","","","","","","","","","","","",""
"8996","","image-button-response_instructions","17","1217397","0.0-17.0","A1SRQ63M2VV6QP","img_art/ins/popularity/ins5KEEPpop.PNG","0","instructions","","","","","","","","","","","","","","","","","","","","","","","",""
"2406","","image-button-response_instructions","18","1219805","0.0-18.0","A1SRQ63M2VV6QP","","0","instructions","","","","","","","","","","","","","","","","","","","","","","","",""
"11567","","survey-text","19","1231443","0.0-19.0-0.0","A1SRQ63M2VV6QP","","","","{""Q0"":""but""}","","","","","","","","","","","","","","","","","","","","","","",""
"76862","","survey-text","20","1308310","0.0-20.0-0.0","A1SRQ63M2VV6QP","","","","{""Q0"":""It is difficult to know what it means. It must express some kind of feeling or mood of the painter. It looks like joy and calm.""}","","","","","","","","","","","","","","","","","","","","","","",""
"5480","","image-slider-response","21","1313797","0.0-21.0","A1SRQ63M2VV6QP","","","","","7","","","","","","","","","","","","","","","","","","","","","",""
"null","","image-button-response","22","1318806","0.0-22.0","A1SRQ63M2VV6QP","img_art/ins/1.jpg","null","","","","","","","","","","","","","","","","","","","","","","","","",""
"10185","","image-button-response","23","1328998","0.0-23.0","A1SRQ63M2VV6QP","img_art/ins/1.jpg","2","","","","","","","","","","","","","","","","","","","","","","","","",""
"1833","","image-button-response","24","1330837","0.0-24.0-0.0","A1SRQ63M2VV6QP","img_art/ins/1.jpg","2","","","","","","","","","","","","","","","","","","","","","","","","",""
"5046","","image-button-response","25","1341476","0.0-24.1-0.1","A1SRQ63M2VV6QP","img_art/ins/1.jpg","1","","","","","","","","","","","","","","","","","","","","","","","","",""
"3634","","image-button-response","26","1345117","0.0-25.0-0.0","A1SRQ63M2VV6QP","img_art/ins/1.jpg","3","","","","","","","","","","","","","","","","","","","","","","","","",""
"null","","html-keyboard-response","27","1346122","0.0-26.0","A1SRQ63M2VV6QP","<p style=""font-size: 48px;"">+</p>","","","","","null","allTrialResponses","1000","1","-2","img_art/ins/1.jpg","7","It is difficult to know what it means. It must express some kind of feeling or mood of the painter. It looks like joy and calm.","Adam,Alex,Ben,Carl,Daniel,Jack","Seems like doodles,-20,20,20","very creative work.,36,40,20","This color reminds me of poo,-46,60,20","very calming artwork,42,80,20","It looks like a murder scene.,-48,100,20","I like the sophisticated brushwork,40,120,20","Ben","This color reminds me of poo,-46,60,20","Alex","very creative work.,36,40,20","Carl","very calming artwork,42,80,20","2"
"41570","","survey-text","28","1387703","0.0-27.0-0.0","A1SRQ63M2VV6QP","","","","{""Q0"":""Transmits desolation and fury""}","","","","","","","","","","","","","","","","","","","","","","",""
"4243","","image-slider-response","29","1391951","0.0-28.0","A1SRQ63M2VV6QP","","","","","17","","","","","","","","","","","","","","","","","","","","","",""
"null","","image-button-response","30","1396957","0.0-29.0","A1SRQ63M2VV6QP","img_art/ins/2.jpg","null","","","","","","","","","","","","","","","","","","","","","","","","",""
"519","","image-button-response","31","1397480","0.0-30.0","A1SRQ63M2VV6QP","img_art/ins/2.jpg","0","","","","","","","","","","","","","","","","","","","","","","","","",""
"8658","","image-button-response","32","1406143","0.0-31.0-0.0","A1SRQ63M2VV6QP","img_art/ins/2.jpg","5","","","","","","","","","","","","","","","","","","","","","","","","",""
"2945","","image-button-response","33","1409093","0.0-32.0-0.0","A1SRQ63M2VV6QP","img_art/ins/2.jpg","0","","","","","","","","","","","","","","","","","","","","","","","","",""
"3107","","image-button-response","34","1415982","0.0-32.1-0.1","A1SRQ63M2VV6QP","img_art/ins/2.jpg","4","","","","","","","","","","","","","","","","","","","","","","","","",""
"null","","html-keyboard-response","35","1417485","0.0-33.0","A1SRQ63M2VV6QP","<p style=""font-size: 48px;"">+</p>","","","","","null","allTrialResponses","1500","1","-1","img_art/ins/2.jpg","17","Transmits desolation and fury","James,Alex,Ben,Carl,John,Kyle","looks too angry,-50,140,20","I like the blocks of color arrangements,30,40,20","meaningless painting,-45,60,20","I can feel the artist's passion in it,45,80,20","love the texture of paint,48,160,20","Idk, it is just annoying,-32,180,20","James","looks too angry,-50,140,20","Kyle","Idk, it is just annoying,-32,180,20","John","love the texture of paint,48,160,20","4"
"70225","","survey-text","36","1487719","0.0-34.0-0.0","A1SRQ63M2VV6QP","","","","{""Q0"":""It transports me to a gelid place""}","","","","","","","","","","","","","","","","","","","","","","",""
"2925","","image-slider-response","37","1490648","0.0-35.0","A1SRQ63M2VV6QP","","","","","14","","","","","","","","","","","","","","","","","","","","","",""
"null","","image-button-response","38","1495653","0.0-36.0","A1SRQ63M2VV6QP","img_art/ins/3.jpg","null","","","","","","","","","","","","","","","","","","","","","","","","",""
"575","","image-button-response","39","1496231","0.0-37.0","A1SRQ63M2VV6QP","img_art/ins/3.jpg","2","","","","","","","","","","","","","","","","","","","","","","","","",""
"6380","","image-button-response","40","1502616","0.0-38.0-0.0","A1SRQ63M2VV6QP","img_art/ins/3.jpg","3","","","","","","","","","","","","","","","","","","","","","","","","",""
"3194","","image-button-response","41","1505815","0.0-39.0-0.0","A1SRQ63M2VV6QP","img_art/ins/3.jpg","1","","","","","","","","","","","","","","","","","","","","","","","","",""
"null","","html-keyboard-response","42","1506819","0.0-40.0","A1SRQ63M2VV6QP","<p style=""font-size: 48px;"">+</p>","","","","","null","allTrialResponses","1000","1","0","img_art/ins/3.jpg","14","It transports me to a gelid place","James,Ron,Sam,Mike,John,Kyle","My worst nightmare,-42,140,20","It looks depressing,-26,220,20","I can feel a rainy day from this painting,18,240,20","enjoy the different shades of blue,22,200,20","I like the overlapping of brushes,41,160,20","It looks like a playground for bats,-36,180,20","Sam","I can feel a rainy day from this painting,18,240,20","Mike","enjoy the different shades of blue,22,200,20","Ron","It looks depressing,-26,220,20","4"
"11756","","image-button-response_instructions","43","1518589","0.0-41.0","A1SRQ63M2VV6QP","","0","instructions","","","","","","","","","","","","","","","","","","","","","","","",""
"24242","","survey-likert","44","1542836","0.0-42.0-0.0","A1SRQ63M2VV6QP","","","","{""Q0"":"""",""Q1"":0,""Q2"":1}","","","","","","","","","","","","","","","","","","","","","","",""
"5474","","survey-text","45","1548323","0.0-43.0-0.0","A1SRQ63M2VV6QP","","","","{""Q0"":""rock""}","","","","","","","","","","","","","","","","","","","","","","",""
"25402","","survey-text","46","1573730","0.0-44.0-0.0","A1SRQ63M2VV6QP","","","","{""Q0"":""Looks like war smoke""}","","","","","","","","","","","","","","","","","","","","","","",""
"3147","","image-slider-response","47","1576881","0.0-45.0","A1SRQ63M2VV6QP","","","","","14","","","","","","","","","","","","","","","","","","","","","",""
"null","","image-button-response","48","1581948","0.0-46.0","A1SRQ63M2VV6QP","img_art/21.jpg","null","","","","","","","","","","","","","","","","","","","","","","","","",""
"11215","","image-button-response","49","1593168","0.0-47.0","A1SRQ63M2VV6QP","img_art/21.jpg","3","","","","","","","","","","","","","","","","","","","","","","","","",""
"7729","","image-button-response","50","1600904","0.0-48.0-0.0","A1SRQ63M2VV6QP","img_art/21.jpg","2","","","","","","","","","","","","","","","","","","","","","","","","",""
"4376","","image-button-response","51","1605286","0.0-49.0-0.0","A1SRQ63M2VV6QP","img_art/21.jpg","1","","","","","","","","","","","","","","","","","","","","","","","","",""
"null","","html-keyboard-response","52","1605790","0.0-50.0","A1SRQ63M2VV6QP","<p style=""font-size: 48px;"">+</p>","","","","","null","allTrialResponses","500","1","1","img_art/21.jpg","14","Looks like war smoke","Sean,Mason,Vincent,Austin,Antonio,Victor","my response to the picture is what is going on?,-13,40,20","Don't know why I like it, cant describe, maybe many landscapes?,47,100,20","Love the colors have to say this is my favorite above all,37,360,20","Touches the heart,50,240,20","the colors are pretty but I did not feel any thing looking at it,33,220,20","I really like these colors together and their placement. The dabs of white are a nice contrast to the soft blending,10,340,20","Austin","Touches the heart,50,240,20","Vincent","Love the colors have to say this is my favorite above all,37,360,20","Mason","Don't know why I like it, cant describe, maybe many landscapes?,47,100,20","4"
"31956","","survey-text","53","1637755","0.0-51.0-0.0","A1SRQ63M2VV6QP","","","","{""Q0"":""It refers me to a drawing made by a child.""}","","","","","","","","","","","","","","","","","","","","","","",""
"2011","","image-slider-response","54","1639771","0.0-52.0","A1SRQ63M2VV6QP","","","","","12","","","","","","","","","","","","","","","","","","","","","",""
"2955","","image-button-response","55","1644776","0.0-53.0","A1SRQ63M2VV6QP","img_art/9.jpg","0","","","","","","","","","","","","","","","","","","","","","","","","",""
"7551","","image-button-response","56","1652333","0.0-54.0","A1SRQ63M2VV6QP","img_art/9.jpg","5","","","","","","","","","","","","","","","","","","","","","","","","",""
"2842","","image-button-response","57","1655180","0.0-55.0-0.0","A1SRQ63M2VV6QP","img_art/9.jpg","0","","","","","","","","","","","","","","","","","","","","","","","","",""
"18849","","image-button-response","58","1674035","0.0-56.0-0.0","A1SRQ63M2VV6QP","img_art/9.jpg","1","","","","","","","","","","","","","","","","","","","","","","","","",""
"null","","html-keyboard-response","59","1675038","0.0-57.0","A1SRQ63M2VV6QP","<p style=""font-size: 48px;"">+</p>","","","","","null","allTrialResponses","1000","1","2","img_art/9.jpg","12","It refers me to a drawing made by a child.","William,Mason,Vincent,Austin,Elijah,Aaron","reminds me of a story book,18,380,20","Abstract titanic scene. It's nice though. I like how it makes me feel.,28,100,20","This speaks to me like a personalities and sides and not all are nice,19,360,20","Love the uniqueness,21,240,20","It's a mix of paint splash and scribbling,-33,80,20","It looks like a child's crayon drawing.,-10,20,20","Aaron","It looks like a child's crayon drawing.,-10,20,20","William","reminds me of a story book,18,380,20","Mason","Abstract titanic scene. It's nice though. I like how it makes me feel.,28,100,20","4"
"29982","","survey-text","60","1705031","0.0-58.0-0.0","A1SRQ63M2VV6QP","","","","{""Q0"":""It looks like the silhouette of a city""}","","","","","","","","","","","","","","","","","","","","","","",""
"3796","","image-slider-response","61","1708830","0.0-59.0","A1SRQ63M2VV6QP","","","","","13","","","","","","","","","","","","","","","","","","","","","",""
"null","","image-button-response","62","1713834","0.0-60.0","A1SRQ63M2VV6QP","img_art/22.jpg","null","","","","","","","","","","","","","","","","","","","","","","","","",""
"328","","image-button-response","63","1714166","0.0-61.0","A1SRQ63M2VV6QP","img_art/22.jpg","1","","","","","","","","","","","","","","","","","","","","","","","","",""
"9145","","image-button-response","64","1723316","0.0-62.0-0.0","A1SRQ63M2VV6QP","img_art/22.jpg","0","","","","","","","","","","","","","","","","","","","","","","","","",""
"3275","","image-button-response","65","1726597","0.0-63.0-0.0","A1SRQ63M2VV6QP","img_art/22.jpg","3","","","","","","","","","","","","","","","","","","","","","","","","",""
"null","","html-keyboard-response","66","1728863","0.0-64.0","A1SRQ63M2VV6QP","<p style=""font-size: 48px;"">+</p>","","","","","null","allTrialResponses","1500","1","3","img_art/22.jpg","13","It looks like the silhouette of a city","William,Mason,David,Richard,Brian,Aaron","love how the colors blend,42,380,20","Could be interpreted so many ways, bold. I like it.,29,100,20","This doesn't invoke anything, since I can't tell what the piece represents.,0,340,20","another OK work, mostly because of the blend of colors,12,340,20","this is too generic,-27,380,20","Boring, typical abstract art,-30,20,20","Mason","Could be interpreted so many ways, bold. I like it.,29,100,20","William","love how the colors blend,42,380,20","Richard","another OK work, mostly because of the blend of colors,12,340,20","4"
"156067","","survey-text","67","1884945","0.0-65.0-0.0","A1SRQ63M2VV6QP","","","","{""Q0"":""I see it and I think of a character from antiquity.""}","","","","","","","","","","","","","","","","","","","","","","",""
"10408","","image-slider-response","68","1895358","0.0-66.0","A1SRQ63M2VV6QP","","","","","0","","","","","","","","","","","","","","","","","","","","","",""
"null","","image-button-response","69","1900367","0.0-67.0","A1SRQ63M2VV6QP","img_art/25.jpg","null","","","","","","","","","","","","","","","","","","","","","","","","",""
"1420","","image-button-response","70","1901792","0.0-68.0","A1SRQ63M2VV6QP","img_art/25.jpg","2","","","","","","","","","","","","","","","","","","","","","","","","",""
"7354","","image-button-response","71","1909151","0.0-69.0-0.0","A1SRQ63M2VV6QP","img_art/25.jpg","4","","","","","","","","","","","","","","","","","","","","","","","","",""
"4737","","image-button-response","72","1913895","0.0-70.0-0.0","A1SRQ63M2VV6QP","img_art/25.jpg","3","","","","","","","","","","","","","","","","","","","","","","","","",""
"null","","html-keyboard-response","73","1914897","0.0-71.0","A1SRQ63M2VV6QP","<p style=""font-size: 48px;"">+</p>","","","","","null","allTrialResponses","1000","1","4","img_art/25.jpg","0","I see it and I think of a character from antiquity.","William,Mason,Malik,Richard,Jorge,Joseph","makes me think of a scary movie,-20,380,20","death. childish nightmare.,-29,100,20","Very cryptic and ancient,36,40,20","interesting pattern and color choice, kind of unusual,2,340,20","Somewhat feel protected by a messenger,33,180,20","Ghosts are NOT my thing.,-13,220,20","Malik","Very cryptic and ancient,36,40,20","Jorge","Somewhat feel protected by a messenger,33,180,20","Richard","interesting pattern and color choice, kind of unusual,2,340,20","4"
"36617","","survey-text","74","1951522","0.0-72.0-0.0","A1SRQ63M2VV6QP","","","","{""Q0"":""Gives the feeling of energy and joy.""}","","","","","","","","","","","","","","","","","","","","","","",""
"3779","","image-slider-response","75","1955306","0.0-73.0","A1SRQ63M2VV6QP","","","","","28","","","","","","","","","","","","","","","","","","","","","",""
"null","","image-button-response","76","1960312","0.0-74.0","A1SRQ63M2VV6QP","img_art/13.jpg","null","","","","","","","","","","","","","","","","","","","","","","","","",""
"6175","","image-button-response","77","1966491","0.0-75.0","A1SRQ63M2VV6QP","img_art/13.jpg","4","","","","","","","","","","","","","","","","","","","","","","","","",""
"3641","","image-button-response","78","1970138","0.0-76.0-0.0","A1SRQ63M2VV6QP","img_art/13.jpg","0","","","","","","","","","","","","","","","","","","","","","","","","",""
"1178","","image-button-response","79","1971323","0.0-77.0-0.0","A1SRQ63M2VV6QP","img_art/13.jpg","2","","","","","","","","","","","","","","","","","","","","","","","","",""
"null","","html-keyboard-response","80","1972325","0.0-78.0","A1SRQ63M2VV6QP","<p style=""font-size: 48px;"">+</p>","","","","","null","allTrialResponses","1000","1","5","img_art/13.jpg","28","Gives the feeling of energy and joy.","Patrick,Brandon,Malik,Richard,Jorge,Seth","I love the different blue shades,31,280,20","Simple, but pleasing. The blue gradient is a favorite of mine,32,320,20","Gorgeous contrast and color choice, very pleasing,50,40,20","kind of like the pattern and colors but don't love it,13,340,20","It reminds me of rain,11,180,20","I really loved the color contrast. Having the white stripe in the center makes the it appear 3D.,11,60,20","Jorge","It reminds me of rain,11,180,20","Patrick","I love the different blue shades,31,280,20","Malik","Gorgeous contrast and color choice, very pleasing,50,40,20","4"
"4482","","survey-text","81","1976825","0.0-79.0-0.0","A1SRQ63M2VV6QP","","","","{""Q0"":""sky""}","","","","","","","","","","","","","","","","","","","","","","",""
"20851","","survey-text","82","1997679","0.0-80.0-0.0","A1SRQ63M2VV6QP","","","","{""Q0"":""It doesn't make sense to me.""}","","","","","","","","","","","","","","","","","","","","","","",""
"2515","","image-slider-response","83","2000197","0.0-81.0","A1SRQ63M2VV6QP","","","","","-21","","","","","","","","","","","","","","","","","","","","","",""
"null","","image-button-response","84","2005203","0.0-82.0","A1SRQ63M2VV6QP","img_art/16.jpg","null","","","","","","","","","","","","","","","","","","","","","","","","",""
"3168","","image-button-response","85","2008375","0.0-83.0","A1SRQ63M2VV6QP","img_art/16.jpg","1","","","","","","","","","","","","","","","","","","","","","","","","",""
"3409","","image-button-response","86","2011791","0.0-84.0-0.0","A1SRQ63M2VV6QP","img_art/16.jpg","5","","","","","","","","","","","","","","","","","","","","","","","","",""
"3183","","image-button-response","87","2014982","0.0-85.0-0.0","A1SRQ63M2VV6QP","img_art/16.jpg","4","","","","","","","","","","","","","","","","","","","","","","","","",""
"null","","html-keyboard-response","88","2016484","0.0-86.0","A1SRQ63M2VV6QP","<p style=""font-size: 48px;"">+</p>","","","","","null","allTrialResponses","1500","1","6","img_art/16.jpg","-21","It doesn't make sense to me.","Patrick,Ryan,Malik,Paul,Jorge,Cody","This painting is too random,-30,280,20","Very modern, reminds me of bansky,43,380,20","Very emotional,23,40,20","Don't know if there's a meaning but I like how seemingly random objects were stuck together and called art,20,300,20","Dreamy and chaotic,-9,180,20","Kind of creepyyyyyy,-41,180,20","Ryan","Very modern, reminds me of bansky,43,380,20","Cody","Kind of creepyyyyyy,-41,180,20","Jorge","Dreamy and chaotic,-9,180,20","4"
"26242","","survey-text","89","2042739","0.0-87.0-0.0","A1SRQ63M2VV6QP","","","","{""Q0"":""A doodle monster""}","","","","","","","","","","","","","","","","","","","","","","",""
"3851","","image-slider-response","90","2046595","0.0-88.0","A1SRQ63M2VV6QP","","","","","-12","","","","","","","","","","","","","","","","","","","","","",""
"null","","image-button-response","91","2051600","0.0-89.0","A1SRQ63M2VV6QP","img_art/3.jpg","null","","","","","","","","","","","","","","","","","","","","","","","","",""
"10413","","image-button-response","92","2062018","0.0-90.0","A1SRQ63M2VV6QP","img_art/3.jpg","5","","","","","","","","","","","","","","","","","","","","","","","","",""
"8978","","image-button-response","93","2071002","0.0-91.0-0.0","A1SRQ63M2VV6QP","img_art/3.jpg","3","","","","","","","","","","","","","","","","","","","","","","","","",""
"4122","","image-button-response","94","2075130","0.0-92.0-0.0","A1SRQ63M2VV6QP","img_art/3.jpg","1","","","","","","","","","","","","","","","","","","","","","","","","",""
"null","","html-keyboard-response","95","2076633","0.0-93.0","A1SRQ63M2VV6QP","<p style=""font-size: 48px;"">+</p>","","","","","null","allTrialResponses","1500","1","7","img_art/3.jpg","-12","A doodle monster","Corey,Ryan,Lucas,Michael,Jorge,Cody","seems distressing. a blood scene,-3,260,20","Looks like someone threw blood at a wall,-50,380,20","Mysterious, remarkable.,30,380,20","Looks like someone mentalyl unstable drew and is ready to go a a killing spree.,-50,140,20","This makes me feel vulnerable,-32,180,20","Feels upset .......,-10,180,20","Cody","Feels upset .......,-10,180,20","Michael","Looks like someone mentalyl unstable drew and is ready to go a a killing spree.,-50,140,20","Ryan","Looks like someone threw blood at a wall,-50,380,20","4"
"51808","","survey-text","96","2128452","0.0-94.0-0.0","A1SRQ63M2VV6QP","","","","{""Q0"":""The strokes are strong, they seem to be made in anger. The colors have no harmony.""}","","","","","","","","","","","","","","","","","","","","","","",""
"3163","","image-slider-response","97","2131619","0.0-95.0","A1SRQ63M2VV6QP","","","","","-32","","","","","","","","","","","","","","","","","","","","","",""
"2915","","image-button-response","98","2136624","0.0-96.0","A1SRQ63M2VV6QP","img_art/30.jpg","0","","","","","","","","","","","","","","","","","","","","","","","","",""
"223","","image-button-response","99","2136852","0.0-97.0","A1SRQ63M2VV6QP","img_art/30.jpg","0","","","","","","","","","","","","","","","","","","","","","","","","",""
"8067","","image-button-response","100","2144924","0.0-98.0-0.0","A1SRQ63M2VV6QP","img_art/30.jpg","3","","","","","","","","","","","","","","","","","","","","","","","","",""
"15562","","image-button-response","101","2160497","0.0-99.0-0.0","A1SRQ63M2VV6QP","img_art/30.jpg","4","","","","","","","","","","","","","","","","","","","","","","","","",""
"null","","html-keyboard-response","102","2161000","0.0-100.0","A1SRQ63M2VV6QP","<p style=""font-size: 48px;"">+</p>","","","","","null","allTrialResponses","500","1","8","img_art/30.jpg","-32","The strokes are strong, they seem to be made in anger. The colors have no harmony.","Steven,Ryan,Derek,Michael,Shane,Cody","cant see the meaning behind it,-20,160,20","Love how the red stands out,20,380,20","Looks quite basic but the colors are nice and there is a wildness about it that I love,0,360,20","It looks like a child did it. There is nothing talented or special about it.,-16,140,20","I like the back but the red lines in the front distress me,-7,80,20","Like the design, not a big fan of the colors,20,180,20","Steven","cant see the meaning behind it,-20,160,20","Michael","It looks like a child did it. There is nothing talented or special about it.,-16,140,20","Shane","I like the back but the red lines in the front distress me,-7,80,20","4"
"31820","","survey-text","103","2192830","0.0-101.0-0.0","A1SRQ63M2VV6QP","","","","{""Q0"":""Looks like a nice village scene""}","","","","","","","","","","","","","","","","","","","","","","",""
"3075","","image-slider-response","104","2195909","0.0-102.0","A1SRQ63M2VV6QP","","","","","16","","","","","","","","","","","","","","","","","","","","","",""
"null","","image-button-response","105","2200913","0.0-103.0","A1SRQ63M2VV6QP","img_art/26.jpg","null","","","","","","","","","","","","","","","","","","","","","","","","",""
"1271","","image-button-response","106","2202189","0.0-104.0","A1SRQ63M2VV6QP","img_art/26.jpg","0","","","","","","","","","","","","","","","","","","","","","","","","",""
"11155","","image-button-response","107","2213348","0.0-105.0-0.0","A1SRQ63M2VV6QP","img_art/26.jpg","1","","","","","","","","","","","","","","","","","","","","","","","","",""
"1107","","image-button-response","108","2214461","0.0-106.0-0.0","A1SRQ63M2VV6QP","img_art/26.jpg","0","","","","","","","","","","","","","","","","","","","","","","","","",""
"3877","","image-button-response","109","2221428","0.0-106.1-0.1","A1SRQ63M2VV6QP","img_art/26.jpg","2","","","","","","","","","","","","","","","","","","","","","","","","",""
"null","","html-keyboard-response","110","2223830","0.0-107.0","A1SRQ63M2VV6QP","<p style=""font-size: 48px;"">+</p>","","","","","null","allTrialResponses","1500","1","9","img_art/26.jpg","16","Looks like a nice village scene","Steven,Peter,Matthew,Michael,Shane,Trevor","This one is nicer, looks like a walk in a small, dreamy city,20,160,20","Reminds me of a European street, I desire to walk in this picture,28,320,20","Telented watercolor artist or second grader.,18,120,20","Not much skil went into this one either.,-41,140,20","Colors are full and reminds me of a messy room,-9,80,20","looks like a little kids painting,-17,280,20","Steven","This one is nicer, looks like a walk in a small, dreamy city,20,160,20","Peter","Reminds me of a European street, I desire to walk in this picture,28,320,20","Matthew","Telented watercolor artist or second grader.,18,120,20","6"
"41720","","survey-text","111","2265566","0.0-108.0-0.0","A1SRQ63M2VV6QP","","","","{""Q0"":""I saw it and thought of the beach. A marine scene, but abstract""}","","","","","","","","","","","","","","","","","","","","","","",""
"7020","","image-slider-response","112","2272591","0.0-109.0","A1SRQ63M2VV6QP","","","","","11","","","","","","","","","","","","","","","","","","","","","",""
"3251","","image-button-response","113","2277596","0.0-110.0","A1SRQ63M2VV6QP","img_art/7.jpg","0","","","","","","","","","","","","","","","","","","","","","","","","",""
"366","","image-button-response","114","2277967","0.0-111.0","A1SRQ63M2VV6QP","img_art/7.jpg","0","","","","","","","","","","","","","","","","","","","","","","","","",""
"3483","","image-button-response","115","2281455","0.0-112.0-0.0","A1SRQ63M2VV6QP","img_art/7.jpg","1","","","","","","","","","","","","","","","","","","","","","","","","",""
"10440","","image-button-response","116","2291902","0.0-113.0-0.0","A1SRQ63M2VV6QP","img_art/7.jpg","4","","","","","","","","","","","","","","","","","","","","","","","","",""
"null","","html-keyboard-response","117","2293405","0.0-114.0","A1SRQ63M2VV6QP","<p style=""font-size: 48px;"">+</p>","","","","","null","allTrialResponses","1500","1","10","img_art/7.jpg","11","I saw it and thought of the beach. A marine scene, but abstract","Steven,Peter,Matthew,Bryce,Tristan,Andrew","looks like the surface of the moon.,1,160,20","It's just like sand from the beach,2,320,20","landscape of amrs, yawn.,-25,120,20","I love the texture.,20,20,20","Limited emotional reaction for me. No focus and highly abstract,-20,300,20","It makes me think of new archaeology discoveries,15,160,20","Steven","looks like the surface of the moon.,1,160,20","Peter","It's just like sand from the beach,2,320,20","Tristan","Limited emotional reaction for me. No focus and highly abstract,-20,300,20","6"
"6139","","survey-text","118","2299564","0.0-115.0-0.0","A1SRQ63M2VV6QP","","","","{""Q0"":""our""}","","","","","","","","","","","","","","","","","","","","","","",""
"34641","","survey-text","119","2334209","0.0-116.0-0.0","A1SRQ63M2VV6QP","","","","{""Q0"":""It is a chaotic place, a nightmare where nothing makes sense.""}","","","","","","","","","","","","","","","","","","","","","","",""
"2492","","image-slider-response","120","2336705","0.0-117.0","A1SRQ63M2VV6QP","","","","","-30","","","","","","","","","","","","","","","","","","","","","",""
"null","","image-button-response","121","2341710","0.0-118.0","A1SRQ63M2VV6QP","img_art/8.jpg","null","","","","","","","","","","","","","","","","","","","","","","","","",""
"9206","","image-button-response","122","2350921","0.0-119.0","A1SRQ63M2VV6QP","img_art/8.jpg","3","","","","","","","","","","","","","","","","","","","","","","","","",""
"5905","","image-button-response","123","2356834","0.0-120.0-0.0","A1SRQ63M2VV6QP","img_art/8.jpg","5","","","","","","","","","","","","","","","","","","","","","","","","",""
"800","","image-button-response","124","2357640","0.0-121.0-0.0","A1SRQ63M2VV6QP","img_art/8.jpg","2","","","","","","","","","","","","","","","","","","","","","","","","",""
"null","","html-keyboard-response","125","2358643","0.0-122.0","A1SRQ63M2VV6QP","<p style=""font-size: 48px;"">+</p>","","","","","null","allTrialResponses","1000","1","11","img_art/8.jpg","-30","It is a chaotic place, a nightmare where nothing makes sense.","Steven,Peter,Mark,Anthony,Tristan,Christopher","very nice, i love what's going on here,21,160,20","I see water and structures that resemble Ancient Rome,15,320,20","The face makes me think its a statement of the almighty of big brother watching us. onfuCsion limits my enjoyment.,6,80,20","Not my favorite but has an interesting concept,32,200,20","The definition and the colors give make this painting accessible and thought provoking.,30,300,20","it's interesting but i don't enjoy the style,-5,160,20","Anthony","Not my favorite but has an interesting concept,32,200,20","Christopher","it's interesting but i don't enjoy the style,-5,160,20","Mark","The face makes me think its a statement of the almighty of big brother watching us. onfuCsion limits my enjoyment.,6,80,20","6"
"43215","","survey-text","126","2401873","0.0-123.0-0.0","A1SRQ63M2VV6QP","","","","{""Q0"":""I don't like the colors or the style in which it represents nature. Too flat""}","","","","","","","","","","","","","","","","","","","","","","",""
"2916","","image-slider-response","127","2404793","0.0-124.0","A1SRQ63M2VV6QP","","","","","-19","","","","","","","","","","","","","","","","","","","","","",""
"null","","image-button-response","128","2409798","0.0-125.0","A1SRQ63M2VV6QP","img_art/24.jpg","null","","","","","","","","","","","","","","","","","","","","","","","","",""
"2119","","image-button-response","129","2411924","0.0-126.0","A1SRQ63M2VV6QP","img_art/24.jpg","5","","","","","","","","","","","","","","","","","","","","","","","","",""
"4198","","image-button-response","130","2416129","0.0-127.0-0.0","A1SRQ63M2VV6QP","img_art/24.jpg","3","","","","","","","","","","","","","","","","","","","","","","","","",""
"2175","","image-button-response","131","2418314","0.0-128.0-0.0","A1SRQ63M2VV6QP","img_art/24.jpg","4","","","","","","","","","","","","","","","","","","","","","","","","",""
"null","","html-keyboard-response","132","2418816","0.0-129.0","A1SRQ63M2VV6QP","<p style=""font-size: 48px;"">+</p>","","","","","null","allTrialResponses","500","1","12","img_art/24.jpg","-19","I don't like the colors or the style in which it represents nature. Too flat","Edward,Taylor,Mark,Anthony,Scott,Christopher","Very pretty and soft,37,60,20","I actually like this one. You can tell what it is.,25,200,20","Waterfall, and I love the coloring.,48,80,20","This piece resembles a waterfall surrounded by trees.,21,200,20","pretty like a waterfall,22,20,20","it's fine, the colors are pleasing, but not my taste,9,160,20","Christopher","it's fine, the colors are pleasing, but not my taste,9,160,20","Anthony","This piece resembles a waterfall surrounded by trees.,21,200,20","Scott","pretty like a waterfall,22,20,20","6"
"41626","","survey-text","133","2460453","0.0-130.0-0.0","A1SRQ63M2VV6QP","","","","{""Q0"":""It looks like a pier seen from afar, where you can only see the reflection of the masts of the ships.""}","","","","","","","","","","","","","","","","","","","","","","",""
"2482","","image-slider-response","134","2462939","0.0-131.0","A1SRQ63M2VV6QP","","","","","27","","","","","","","","","","","","","","","","","","","","","",""
"null","","image-button-response","135","2467943","0.0-132.0","A1SRQ63M2VV6QP","img_art/11.jpg","null","","","","","","","","","","","","","","","","","","","","","","","","",""
"4825","","image-button-response","136","2472772","0.0-133.0","A1SRQ63M2VV6QP","img_art/11.jpg","5","","","","","","","","","","","","","","","","","","","","","","","","",""
"945","","image-button-response","137","2473724","0.0-134.0-0.0","A1SRQ63M2VV6QP","img_art/11.jpg","1","","","","","","","","","","","","","","","","","","","","","","","","",""
"690","","image-button-response","138","2474419","0.0-135.0-0.0","A1SRQ63M2VV6QP","img_art/11.jpg","0","","","","","","","","","","","","","","","","","","","","","","","","",""
"null","","html-keyboard-response","139","2475421","0.0-136.0","A1SRQ63M2VV6QP","<p style=""font-size: 48px;"">+</p>","","","","","null","allTrialResponses","1000","1","13","img_art/11.jpg","27","It looks like a pier seen from afar, where you can only see the reflection of the masts of the ships.","Jesse,Isaiah,Adrian,Anthony,Scott,Christopher","I like the dark lines and it interests me,13,80,20","I feel excited, like I'm in the middle of a bustling city.,26,300,20","Not a fan of the colors but it looks interesting.,-31,60,20","The narrow groups of lines in the center make me feel uneasy for some reason,-31,200,20","makes me feel dizzy,-37,20,20","i like the gray tones with black lines and bits of color,23,160,20","Christopher","i like the gray tones with black lines and bits of color,23,160,20","Isaiah","I feel excited, like I'm in the middle of a bustling city.,26,300,20","Jesse","I like the dark lines and it interests me,13,80,20","6"
"31181","","survey-text","140","2506617","0.0-137.0-0.0","A1SRQ63M2VV6QP","","","","{""Q0"":""I like it, it's a little ghostly scene well captured.""}","","","","","","","","","","","","","","","","","","","","","","",""
"4914","","image-slider-response","141","2511535","0.0-138.0","A1SRQ63M2VV6QP","","","","","24","","","","","","","","","","","","","","","","","","","","","",""
"null","","image-button-response","142","2516540","0.0-139.0","A1SRQ63M2VV6QP","img_art/20.jpg","null","","","","","","","","","","","","","","","","","","","","","","","","",""
"15796","","image-button-response","143","2532341","0.0-140.0","A1SRQ63M2VV6QP","img_art/20.jpg","1","","","","","","","","","","","","","","","","","","","","","","","","",""
"3378","","image-button-response","144","2535726","0.0-141.0-0.0","A1SRQ63M2VV6QP","img_art/20.jpg","4","","","","","","","","","","","","","","","","","","","","","","","","",""
"2578","","image-button-response","145","2538309","0.0-142.0-0.0","A1SRQ63M2VV6QP","img_art/20.jpg","2","","","","","","","","","","","","","","","","","","","","","","","","",""
"null","","html-keyboard-response","146","2538811","0.0-143.0","A1SRQ63M2VV6QP","<p style=""font-size: 48px;"">+</p>","","","","","null","allTrialResponses","500","1","14","img_art/20.jpg","24","I like it, it's a little ghostly scene well captured.","Jesse,Isaiah,Logan,Tyler,Christian,Christopher","I do at least like the dark colors blending,6,80,20","I feel powerful, like I am looking out a window at this machine, that I am in charge.,17,300,20","truck? train? dead cow? plane?,10,360,20","This is not abstract art, it is representative.,0,320,20","reminds me of georgia o'keeffe's skull,22,140,20","i ind of like this, it's saying something but not my style,6,160,20","Isaiah","I feel powerful, like I am looking out a window at this machine, that I am in charge.,17,300,20","Christian","reminds me of georgia o'keeffe's skull,22,140,20","Logan","truck? train? dead cow? plane?,10,360,20","6"
"37783","","survey-text","147","2576608","0.0-144.0-0.0","A1SRQ63M2VV6QP","","","","{""Q0"":""My first thought was a vase, but we know it's nothing like that.""}","","","","","","","","","","","","","","","","","","","","","","",""
"5675","","image-slider-response","148","2582289","0.0-145.0","A1SRQ63M2VV6QP","","","","","0","","","","","","","","","","","","","","","","","","","","","",""
"null","","image-button-response","149","2587294","0.0-146.0","A1SRQ63M2VV6QP","img_art/4.jpg","null","","","","","","","","","","","","","","","","","","","","","","","","",""
"9807","","image-button-response","150","2597106","0.0-147.0","A1SRQ63M2VV6QP","img_art/4.jpg","4","","","","","","","","","","","","","","","","","","","","","","","","",""
"7394","","image-button-response","151","2604505","0.0-148.0-0.0","A1SRQ63M2VV6QP","img_art/4.jpg","0","","","","","","","","","","","","","","","","","","","","","","","","",""
"833","","image-button-response","152","2605345","0.0-149.0-0.0","A1SRQ63M2VV6QP","img_art/4.jpg","5","","","","","","","","","","","","","","","","","","","","","","","","",""
"null","","html-keyboard-response","153","2606847","0.0-150.0","A1SRQ63M2VV6QP","<p style=""font-size: 48px;"">+</p>","","","","","null","allTrialResponses","1500","1","15","img_art/4.jpg","0","My first thought was a vase, but we know it's nothing like that.","Shawn,Isaiah,Logan,Angel,Christian,Justin","Great movement but don't love the yellowy tones.,31,100,20","The sickly looking colors make me feel very uncomfortable.,-35,300,20","it looks like a preschooler just dragged his fingers around,-36,360,20","I feel kind of guilty looking at this, like I'm receiving a reward I don't I deserve.,-10,180,20","no sorry i can't really understand,-18,140,20","Rather boring design and colors.,-21,280,20","Christian","no sorry i can't really understand,-18,140,20","Shawn","Great movement but don't love the yellowy tones.,31,100,20","Justin","Rather boring design and colors.,-21,280,20","6"
"5841","","survey-text","154","2612706","0.0-151.0-0.0","A1SRQ63M2VV6QP","","","","{""Q0"":""course""}","","","","","","","","","","","","","","","","","","","","","","",""
"46270","","survey-text","155","2658979","0.0-152.0-0.0","A1SRQ63M2VV6QP","","","","{""Q0"":""I like the contrast and the colors. I see silhouettes of people.""}","","","","","","","","","","","","","","","","","","","","","","",""
"4114","","image-slider-response","156","2663098","0.0-153.0","A1SRQ63M2VV6QP","","","","","26","","","","","","","","","","","","","","","","","","","","","",""
"4994","","image-button-response","157","2668104","0.0-154.0","A1SRQ63M2VV6QP","img_art/12.jpg","0","","","","","","","","","","","","","","","","","","","","","","","","",""
"960","","image-button-response","158","2669068","0.0-155.0","A1SRQ63M2VV6QP","img_art/12.jpg","0","","","","","","","","","","","","","","","","","","","","","","","","",""
"3196","","image-button-response","159","2672269","0.0-156.0-0.0","A1SRQ63M2VV6QP","img_art/12.jpg","2","","","","","","","","","","","","","","","","","","","","","","","","",""
"3265","","image-button-response","160","2675540","0.0-157.0-0.0","A1SRQ63M2VV6QP","img_art/12.jpg","4","","","","","","","","","","","","","","","","","","","","","","","","",""
"null","","html-keyboard-response","161","2677043","0.0-158.0","A1SRQ63M2VV6QP","<p style=""font-size: 48px;"">+</p>","","","","","null","allTrialResponses","1500","1","16","img_art/12.jpg","26","I like the contrast and the colors. I see silhouettes of people.","Shawn,Devon,Jeffrey,Luke,Christian,Justin","Nice hallway art for a hotel.,21,100,20","too much - just overcrowded,-20,400,20","good colours scheme; organised,17,40,20","don't feel a lot but it seems very simple,-6,20,20","so many different available interpretations for this, would love to closer.,24,140,20","Too blocky and not interesting enough.,-15,280,20","Shawn","Nice hallway art for a hotel.,21,100,20","Jeffrey","good colours scheme; organised,17,40,20","Christian","so many different available interpretations for this, would love to closer.,24,140,20","6"
"478998","","survey-text","162","3156051","0.0-159.0-0.0","A1SRQ63M2VV6QP","","","","{""Q0"":""looks like a roller coaster""}","","","","","","","","","","","","","","","","","","","","","","",""
"3251","","image-slider-response","163","3159307","0.0-160.0","A1SRQ63M2VV6QP","","","","","10","","","","","","","","","","","","","","","","","","","","","",""
"null","","image-button-response","164","3164311","0.0-161.0","A1SRQ63M2VV6QP","img_art/10.jpg","null","","","","","","","","","","","","","","","","","","","","","","","","",""
"921","","image-button-response","165","3165236","0.0-162.0","A1SRQ63M2VV6QP","img_art/10.jpg","3","","","","","","","","","","","","","","","","","","","","","","","","",""
"2219","","image-button-response","166","3167461","0.0-163.0-0.0","A1SRQ63M2VV6QP","img_art/10.jpg","4","","","","","","","","","","","","","","","","","","","","","","","","",""
"5391","","image-button-response","167","3172859","0.0-164.0-0.0","A1SRQ63M2VV6QP","img_art/10.jpg","5","","","","","","","","","","","","","","","","","","","","","","","","",""
"null","","html-keyboard-response","168","3173362","0.0-165.0","A1SRQ63M2VV6QP","<p style=""font-size: 48px;"">+</p>","","","","","null","allTrialResponses","500","1","17","img_art/10.jpg","10","looks like a roller coaster","Shawn,Samuel,Jeffrey,Brett,Christian,Joshua","Don't like the colorblock but the lines are nice,-20,100,20","feeling the turmoil and ride,12,400,20","Relaxing; a lot of going on but colours make it easy to look at,20,40,20","Musical guitar whimsy,45,360,20","gives a sense of a roller coaster unit splashed in water. it's not but i love it nevertheless,44,140,20","This one is interesting. I like it.,11,240,20","Brett","Musical guitar whimsy,45,360,20","Christian","gives a sense of a roller coaster unit splashed in water. it's not but i love it nevertheless,44,140,20","Joshua","This one is interesting. I like it.,11,240,20","6"
"32496","","survey-text","169","3205872","0.0-166.0-0.0","A1SRQ63M2VV6QP","","","","{""Q0"":""a ghostly dream. I like the colors""}","","","","","","","","","","","","","","","","","","","","","","",""
"2090","","image-slider-response","170","3207966","0.0-167.0","A1SRQ63M2VV6QP","","","","","7","","","","","","","","","","","","","","","","","","","","","",""
"4036","","image-button-response","171","3212971","0.0-168.0","A1SRQ63M2VV6QP","img_art/18.jpg","3","","","","","","","","","","","","","","","","","","","","","","","","",""
"1199","","image-button-response","172","3214175","0.0-169.0","A1SRQ63M2VV6QP","img_art/18.jpg","3","","","","","","","","","","","","","","","","","","","","","","","","",""
"755","","image-button-response","173","3214935","0.0-170.0-0.0","A1SRQ63M2VV6QP","img_art/18.jpg","1","","","","","","","","","","","","","","","","","","","","","","","","",""
"2698","","image-button-response","174","3217638","0.0-171.0-0.0","A1SRQ63M2VV6QP","img_art/18.jpg","4","","","","","","","","","","","","","","","","","","","","","","","","",""
"null","","html-keyboard-response","175","3219140","0.0-172.0","A1SRQ63M2VV6QP","<p style=""font-size: 48px;"">+</p>","","","","","null","allTrialResponses","1500","1","18","img_art/18.jpg","7","a ghostly dream. I like the colors","Travis,Kenneth,Cameron,Brett,Christian,Joshua","I don't know...kind of a dissatified feeling inside.,-6,260,20","It's interesting. I'm not sure how I feel about it, but i enjoy the ghostly apparitions.,10,300,20","Don't like the color scheme. Or the theme.,-5,60,20","Kind of weird in a confusing way,10,360,20","reminds me of the little prince, with the color scheme and all,16,140,20","Looks like ghost figures on a boat. It's okay.,7,240,20","Brett","Kind of weird in a confusing way,10,360,20","Kenneth","It's interesting. I'm not sure how I feel about it, but i enjoy the ghostly apparitions.,10,300,20","Christian","reminds me of the little prince, with the color scheme and all,16,140,20","6"
"42432","","survey-text","176","3261586","0.0-173.0-0.0","A1SRQ63M2VV6QP","","","","{""Q0"":""Too abstract. I think I see a person upside down and angry.""}","","","","","","","","","","","","","","","","","","","","","","",""
"6435","","image-slider-response","177","3268024","0.0-174.0","A1SRQ63M2VV6QP","","","","","-10","","","","","","","","","","","","","","","","","","","","","",""
"null","","image-button-response","178","3273029","0.0-175.0","A1SRQ63M2VV6QP","img_art/28.jpg","null","","","","","","","","","","","","","","","","","","","","","","","","",""
"816","","image-button-response","179","3273850","0.0-176.0","A1SRQ63M2VV6QP","img_art/28.jpg","5","","","","","","","","","","","","","","","","","","","","","","","","",""
"2986","","image-button-response","180","3276841","0.0-177.0-0.0","A1SRQ63M2VV6QP","img_art/28.jpg","0","","","","","","","","","","","","","","","","","","","","","","","","",""
"1345","","image-button-response","181","3278191","0.0-178.0-0.0","A1SRQ63M2VV6QP","img_art/28.jpg","1","","","","","","","","","","","","","","","","","","","","","","","","",""
"null","","html-keyboard-response","182","3278693","0.0-179.0","A1SRQ63M2VV6QP","<p style=""font-size: 48px;"">+</p>","","","","","null","allTrialResponses","500","1","19","img_art/28.jpg","-10","Too abstract. I think I see a person upside down and angry.","Jose,Kenneth,Grant,Brett,Christian,Daniel","Eh it's just kinda brown and muddy and not very nice looking,-18,200,20","This one is too bleak, not a fan of the image or colors.,-28,300,20","The darker colors make this unnerving.,40,200,20","Overpopulated city,35,360,20","the color scheme is very well matched but i just didn't like it,-6,140,20","Compact grey mess lack negative space,-10,320,20","Daniel","Compact grey mess lack negative space,-10,320,20","Jose","Eh it's just kinda brown and muddy and not very nice looking,-18,200,20","Kenneth","This one is too bleak, not a fan of the image or colors.,-28,300,20","6"
"29442","","survey-text","183","3308148","0.0-180.0-0.0","A1SRQ63M2VV6QP","","","","{""Q0"":""I don't get it, but I like the splashes.""}","","","","","","","","","","","","","","","","","","","","","","",""
"3042","","image-slider-response","184","3311195","0.0-181.0","A1SRQ63M2VV6QP","","","","","13","","","","","","","","","","","","","","","","","","","","","",""
"null","","image-button-response","185","3316200","0.0-182.0","A1SRQ63M2VV6QP","img_art/14.jpg","null","","","","","","","","","","","","","","","","","","","","","","","","",""
"3296","","image-button-response","186","3319501","0.0-183.0","A1SRQ63M2VV6QP","img_art/14.jpg","5","","","","","","","","","","","","","","","","","","","","","","","","",""
"1651","","image-button-response","187","3321156","0.0-184.0-0.0","A1SRQ63M2VV6QP","img_art/14.jpg","2","","","","","","","","","","","","","","","","","","","","","","","","",""
"1467","","image-button-response","188","3322629","0.0-185.0-0.0","A1SRQ63M2VV6QP","img_art/14.jpg","1","","","","","","","","","","","","","","","","","","","","","","","","",""
"null","","html-keyboard-response","189","3323131","0.0-186.0","A1SRQ63M2VV6QP","<p style=""font-size: 48px;"">+</p>","","","","","null","allTrialResponses","500","1","20","img_art/14.jpg","13","I don't get it, but I like the splashes.","Jose,Kenneth,Devin,Jonathan,Dakota,Daniel","I don't like the color red,30,200,20","Its cute, but not my favorite.,8,300,20","It looks nice colorwise but detail is lacking,18,380,20","This reminds me of the Lion King somehow! Feels inspiring,30,140,20","feels incomplete, poorly planned/executed,-34,280,20","Baby's room palette with tree confusion in a more confused substrate.,-15,320,20","Daniel","Baby's room palette with tree confusion in a more confused substrate.,-15,320,20","Devin","It looks nice colorwise but detail is lacking,18,380,20","Kenneth","Its cute, but not my favorite.,8,300,20","6"
"3371","","survey-text","190","3326530","0.0-187.0-0.0","A1SRQ63M2VV6QP","","","","{""Q0"":""we""}","","","","","","","","","","","","","","","","","","","","","","",""
"33617","","survey-text","191","3360151","0.0-188.0-0.0","A1SRQ63M2VV6QP","","","","{""Q0"":""It's a bit crowded, I don't like it, it repulses me.""}","","","","","","","","","","","","","","","","","","","","","","",""
"2333","","image-slider-response","192","3362488","0.0-189.0","A1SRQ63M2VV6QP","","","","","-28","","","","","","","","","","","","","","","","","","","","","",""
"4035","","image-button-response","193","3367493","0.0-190.0","A1SRQ63M2VV6QP","img_art/15.jpg","0","","","","","","","","","","","","","","","","","","","","","","","","",""
"999","","image-button-response","194","3368496","0.0-191.0","A1SRQ63M2VV6QP","img_art/15.jpg","0","","","","","","","","","","","","","","","","","","","","","","","","",""
"4083","","image-button-response","195","3372584","0.0-192.0-0.0","A1SRQ63M2VV6QP","img_art/15.jpg","4","","","","","","","","","","","","","","","","","","","","","","","","",""
"1730","","image-button-response","196","3374320","0.0-193.0-0.0","A1SRQ63M2VV6QP","img_art/15.jpg","2","","","","","","","","","","","","","","","","","","","","","","","","",""
"null","","html-keyboard-response","197","3374822","0.0-194.0","A1SRQ63M2VV6QP","<p style=""font-size: 48px;"">+</p>","","","","","null","allTrialResponses","500","1","21","img_art/15.jpg","-28","It's a bit crowded, I don't like it, it repulses me.","Jake,Kenneth,Devin,Alex,Marcus,Daniel","This looks odd and was not well executed.,-3,360,20","I can't really make out what this is supposed to be.,-8,300,20","Simple but needs some more detail somehow,-3,380,20","Interesting to look at but I don't appreciate the abstraction,2,100,20","Interesting, but don't really like it. Gloomy.,-10,60,20","Dark, drab asymmetrical floral piece,-26,320,20","Jake","This looks odd and was not well executed.,-3,360,20","Marcus","Interesting, but don't really like it. Gloomy.,-10,60,20","Devin","Simple but needs some more detail somehow,-3,380,20","6"
"30174","","survey-text","198","3405011","0.0-195.0-0.0","A1SRQ63M2VV6QP","","","","{""Q0"":""It transmits calmness to me. The color is warm""}","","","","","","","","","","","","","","","","","","","","","","",""
"1988","","image-slider-response","199","3407003","0.0-196.0","A1SRQ63M2VV6QP","","","","","9","","","","","","","","","","","","","","","","","","","","","",""
"4523","","image-button-response","200","3412007","0.0-197.0","A1SRQ63M2VV6QP","img_art/1.jpg","4","","","","","","","","","","","","","","","","","","","","","","","","",""
"576","","image-button-response","201","3412588","0.0-198.0","A1SRQ63M2VV6QP","img_art/1.jpg","4","","","","","","","","","","","","","","","","","","","","","","","","",""
"3771","","image-button-response","202","3416364","0.0-199.0-0.0","A1SRQ63M2VV6QP","img_art/1.jpg","1","","","","","","","","","","","","","","","","","","","","","","","","",""
"2417","","image-button-response","203","3418788","0.0-200.0-0.0","A1SRQ63M2VV6QP","img_art/1.jpg","3","","","","","","","","","","","","","","","","","","","","","","","","",""
"null","","html-keyboard-response","204","3420290","0.0-201.0","A1SRQ63M2VV6QP","<p style=""font-size: 48px;"">+</p>","","","","","null","allTrialResponses","1500","1","22","img_art/1.jpg","9","It transmits calmness to me. The color is warm","Jake,Ethan,Devin,Caleb,Marcus,Kyle","This is ugly with bad colors.,-6,360,20","This piece feels soft and romantic to me. I do not care for so much orange though.,3,120,20","Quite messy looking,-22,380,20","Its simply okay.,3,40,20","Like the colors very much, and this piece makes me feel peaceful.,29,60,20","Too similar to some of the other pieces,-18,340,20","Marcus","Like the colors very much, and this piece makes me feel peaceful.,29,60,20","Ethan","This piece feels soft and romantic to me. I do not care for so much orange though.,3,120,20","Caleb","Its simply okay.,3,40,20","6"
"24656","","survey-text","205","3444960","0.0-202.0-0.0","A1SRQ63M2VV6QP","","","","{""Q0"":""I thought of a crow, but it's green, it doesn't make sense.""}","","","","","","","","","","","","","","","","","","","","","","",""
"2689","","image-slider-response","206","3447654","0.0-203.0","A1SRQ63M2VV6QP","","","","","-24","","","","","","","","","","","","","","","","","","","","","",""
"null","","image-button-response","207","3452659","0.0-204.0","A1SRQ63M2VV6QP","img_art/6.jpg","null","","","","","","","","","","","","","","","","","","","","","","","","",""
"4321","","image-button-response","208","3456983","0.0-205.0","A1SRQ63M2VV6QP","img_art/6.jpg","0","","","","","","","","","","","","","","","","","","","","","","","","",""
"15108","","image-button-response","209","3472097","0.0-206.0-0.0","A1SRQ63M2VV6QP","img_art/6.jpg","5","","","","","","","","","","","","","","","","","","","","","","","","",""
"3329","","image-button-response","210","3475432","0.0-207.0-0.0","A1SRQ63M2VV6QP","img_art/6.jpg","2","","","","","","","","","","","","","","","","","","","","","","","","",""
"null","","html-keyboard-response","211","3475934","0.0-208.0","A1SRQ63M2VV6QP","<p style=""font-size: 48px;"">+</p>","","","","","null","allTrialResponses","500","1","23","img_art/6.jpg","-24","I thought of a crow, but it's green, it doesn't make sense.","Robert,Ethan,Zachary,Caleb,Marcus,Mitchell","Nevermore!  A black raven sitting on a pumpkin. Halloween,-35,360,20","This piece has some emotion of isolation. I like it.,6,120,20","Reminds me of a plant poking through the soil. It reminds me of new life.,31,400,20","Despite how simple it is, this piece has clear meaning.,34,40,20","I like the orange color, and I don't know why but I like this piece.,22,60,20","Looking, searching at the same time being content.,30,180,20","Robert","Nevermore!  A black raven sitting on a pumpkin. Halloween,-35,360,20","Mitchell","Looking, searching at the same time being content.,30,180,20","Zachary","Reminds me of a plant poking through the soil. It reminds me of new life.,31,400,20","6"
"81393","","survey-text","212","3557342","0.0-209.0-0.0","A1SRQ63M2VV6QP","","","","{""Q0"":""I see some shapes but I don't know what they mean. ""}","","","","","","","","","","","","","","","","","","","","","","",""
"2491","","image-slider-response","213","3559837","0.0-210.0","A1SRQ63M2VV6QP","","","","","-21","","","","","","","","","","","","","","","","","","","","","",""
"4293","","image-button-response","214","3564841","0.0-211.0","A1SRQ63M2VV6QP","img_art/2.jpg","3","","","","","","","","","","","","","","","","","","","","","","","","",""
"298","","image-button-response","215","3565143","0.0-212.0","A1SRQ63M2VV6QP","img_art/2.jpg","3","","","","","","","","","","","","","","","","","","","","","","","","",""
"2427","","image-button-response","216","3567576","0.0-213.0-0.0","A1SRQ63M2VV6QP","img_art/2.jpg","5","","","","","","","","","","","","","","","","","","","","","","","","",""
"1713","","image-button-response","217","3569294","0.0-214.0-0.0","A1SRQ63M2VV6QP","img_art/2.jpg","2","","","","","","","","","","","","","","","","","","","","","","","","",""
"null","","html-keyboard-response","218","3569796","0.0-215.0","A1SRQ63M2VV6QP","<p style=""font-size: 48px;"">+</p>","","","","","null","allTrialResponses","500","1","24","img_art/2.jpg","-21","I see some shapes but I don't know what they mean. ","Robert,Spencer,Zachary,Blake,Bryan,Mitchell","The colors are what I like. It looks like a smiling face too.,32,360,20","Kind of looks upside down, I need a focal point,-29,120,20","I am not a fan of the color story. I am confused by the piece and therefore do not like it.,-21,400,20","ugly green color and makes me sick,-29,280,20","Like the colors but reminds me of a kids show done in cubism.,0,400,20","Dependence. Things relying on each other. Caring,-4,180,20","Blake","ugly green color and makes me sick,-29,280,20","Mitchell","Dependence. Things relying on each other. Caring,-4,180,20","Zachary","I am not a fan of the color story. I am confused by the piece and therefore do not like it.,-21,400,20","6"
"44805","","survey-text","219","3614618","0.0-216.0-0.0","A1SRQ63M2VV6QP","","","","{""Q0"":""It looks like a harbor scene. I like the lines, the style.""}","","","","","","","","","","","","","","","","","","","","","","",""
"2531","","image-slider-response","220","3617152","0.0-217.0","A1SRQ63M2VV6QP","","","","","17","","","","","","","","","","","","","","","","","","","","","",""
"4955","","image-button-response","221","3622157","0.0-218.0","A1SRQ63M2VV6QP","img_art/19.jpg","1","","","","","","","","","","","","","","","","","","","","","","","","",""
"674","","image-button-response","222","3622835","0.0-219.0","A1SRQ63M2VV6QP","img_art/19.jpg","1","","","","","","","","","","","","","","","","","","","","","","","","",""
"9145","","image-button-response","223","3631986","0.0-220.0-0.0","A1SRQ63M2VV6QP","img_art/19.jpg","3","","","","","","","","","","","","","","","","","","","","","","","","",""
"6256","","image-button-response","224","3638250","0.0-221.0-0.0","A1SRQ63M2VV6QP","img_art/19.jpg","5","","","","","","","","","","","","","","","","","","","","","","","","",""
"null","","html-keyboard-response","225","3639252","0.0-222.0","A1SRQ63M2VV6QP","<p style=""font-size: 48px;"">+</p>","","","","","null","allTrialResponses","1000","1","25","img_art/19.jpg","17","It looks like a harbor scene. I like the lines, the style.","Jeremy,Carlos,Zachary,Blake,James,Mitchell","it's too busy for me. Makes me feel stressed.,1,60,20","I like the watercolor and colors, do not like the deconstructed city scene feel.,0,80,20","Reminds me of a busy town. Chaotic in nature.,-11,400,20","an old cityfrom many years ago. its ok,6,280,20","I don't know what's going on, and I realise that I don't like it,-21,380,20","Higher power looking down at its creation with a half smile and some hurt.,45,180,20","Carlos","I like the watercolor and colors, do not like the deconstructed city scene feel.,0,80,20","Blake","an old cityfrom many years ago. its ok,6,280,20","Mitchell","Higher power looking down at its creation with a half smile and some hurt.,45,180,20","6"
"4312","","survey-text","226","3643592","0.0-223.0-0.0","A1SRQ63M2VV6QP","","","","{""Q0"":""table""}","","","","","","","","","","","","","","","","","","","","","","",""
"36902","","survey-text","227","3680498","0.0-224.0-0.0","A1SRQ63M2VV6QP","","","","{""Q0"":""It looks like an old tree with many branches, it gives me peace.""}","","","","","","","","","","","","","","","","","","","","","","",""
"3075","","image-slider-response","228","3683578","0.0-225.0","A1SRQ63M2VV6QP","","","","","16","","","","","","","","","","","","","","","","","","","","","",""
"4372","","image-button-response","229","3688582","0.0-226.0","A1SRQ63M2VV6QP","img_art/17.jpg","1","","","","","","","","","","","","","","","","","","","","","","","","",""
"241","","image-button-response","230","3688826","0.0-227.0","A1SRQ63M2VV6QP","img_art/17.jpg","1","","","","","","","","","","","","","","","","","","","","","","","","",""
"2788","","image-button-response","231","3691619","0.0-228.0-0.0","A1SRQ63M2VV6QP","img_art/17.jpg","3","","","","","","","","","","","","","","","","","","","","","","","","",""
"2984","","image-button-response","232","3694610","0.0-229.0-0.0","A1SRQ63M2VV6QP","img_art/17.jpg","5","","","","","","","","","","","","","","","","","","","","","","","","",""
"null","","html-keyboard-response","233","3695613","0.0-230.0","A1SRQ63M2VV6QP","<p style=""font-size: 48px;"">+</p>","","","","","null","allTrialResponses","1000","1","26","img_art/17.jpg","16","It looks like an old tree with many branches, it gives me peace.","Garrett,Carlos,Nathan,Blake,Benjamin,Mitchell","I like the way the colors were used behind the tree. Makes the image colorful and interesting.,30,180,20","It feels like nature overtaking civilization.,21,80,20","It's alright, nothing I particularly like but it's just fine,-10,200,20","soft and warm light colors are relaxing,12,280,20","Don't really like pastels.,-10,260,20","Nature coming to the inside of your space that you are locked into.,50,180,20","Carlos","It feels like nature overtaking civilization.,21,80,20","Blake","soft and warm light colors are relaxing,12,280,20","Mitchell","Nature coming to the inside of your space that you are locked into.,50,180,20","6"
"30570","","survey-text","234","3726197","0.0-231.0-0.0","A1SRQ63M2VV6QP","","","","{""Q0"":""It looks like an old tree with many branches, it gives me peace.""}","","","","","","","","","","","","","","","","","","","","","","",""
"2844","","image-slider-response","235","3729046","0.0-232.0","A1SRQ63M2VV6QP","","","","","17","","","","","","","","","","","","","","","","","","","","","",""
"null","","image-button-response","236","3734052","0.0-233.0","A1SRQ63M2VV6QP","img_art/27.jpg","null","","","","","","","","","","","","","","","","","","","","","","","","",""
"686","","image-button-response","237","3734743","0.0-234.0","A1SRQ63M2VV6QP","img_art/27.jpg","3","","","","","","","","","","","","","","","","","","","","","","","","",""
"1939","","image-button-response","238","3736687","0.0-235.0-0.0","A1SRQ63M2VV6QP","img_art/27.jpg","2","","","","","","","","","","","","","","","","","","","","","","","","",""
"4544","","image-button-response","239","3741236","0.0-236.0-0.0","A1SRQ63M2VV6QP","img_art/27.jpg","0","","","","","","","","","","","","","","","","","","","","","","","","",""
"null","","html-keyboard-response","240","3742239","0.0-237.0","A1SRQ63M2VV6QP","<p style=""font-size: 48px;"">+</p>","","","","","null","allTrialResponses","1000","1","27","img_art/27.jpg","17","It looks like an old tree with many branches, it gives me peace.","Colton,Carlos,Tanner,Blake,Dylan,Mitchell","looks like a little kid did it,-30,220,20","The green lines disrupt the image in an unpleasant and hurried way.,-30,80,20","makes me think of fume clouds, low visibility,-28,180,20","fruity and sweet. warm and juicy,10,280,20","This is ugly and looks like a child did this,-36,40,20","Angelic, childlike. happiness but also with sadness.,40,180,20","Blake","fruity and sweet. warm and juicy,10,280,20","Tanner","makes me think of fume clouds, low visibility,-28,180,20","Colton","looks like a little kid did it,-30,220,20","6"
"29836","","survey-text","241","3772090","0.0-238.0-0.0","A1SRQ63M2VV6QP","","","","{""Q0"":""I don't see the point. Very abstract""}","","","","","","","","","","","","","","","","","","","","","","",""
"3574","","image-slider-response","242","3775668","0.0-239.0","A1SRQ63M2VV6QP","","","","","-11","","","","","","","","","","","","","","","","","","","","","",""
"4378","","image-button-response","243","3780673","0.0-240.0","A1SRQ63M2VV6QP","img_art/5.jpg","1","","","","","","","","","","","","","","","","","","","","","","","","",""
"1895","","image-button-response","244","3782572","0.0-241.0","A1SRQ63M2VV6QP","img_art/5.jpg","1","","","","","","","","","","","","","","","","","","","","","","","","",""
"2618","","image-button-response","245","3785195","0.0-242.0-0.0","A1SRQ63M2VV6QP","img_art/5.jpg","3","","","","","","","","","","","","","","","","","","","","","","","","",""
"930","","image-button-response","246","3786132","0.0-243.0-0.0","A1SRQ63M2VV6QP","img_art/5.jpg","4","","","","","","","","","","","","","","","","","","","","","","","","",""
"null","","html-keyboard-response","247","3786634","0.0-244.0","A1SRQ63M2VV6QP","<p style=""font-size: 48px;"">+</p>","","","","","null","allTrialResponses","500","1","28","img_art/5.jpg","-11","I don't see the point. Very abstract","Colton,Juan,Tanner,Blake,Adam,Nicholas","I like the strokes and colors used,20,220,20","The yellow is garish and the picture doesn't look liked anything.,-49,260,20","sharp, painful yet playful,-5,180,20","puke yellow with nothing but sadness,-35,280,20","Too loud. Dislike the bright yellow.,-5,40,20","I cant explain why i like this so much but it really calls out to me,50,240,20","Juan","The yellow is garish and the picture doesn't look liked anything.,-49,260,20","Blake","puke yellow with nothing but sadness,-35,280,20","Adam","Too loud. Dislike the bright yellow.,-5,40,20","6"
"33136","","survey-text","248","3819789","0.0-245.0-0.0","A1SRQ63M2VV6QP","","","","{""Q0"":""It looks like a crime scene. So much clutter.""}","","","","","","","","","","","","","","","","","","","","","","",""
"3396","","image-slider-response","249","3823189","0.0-246.0","A1SRQ63M2VV6QP","","","","","-21","","","","","","","","","","","","","","","","","","","","","",""
"null","","image-button-response","250","3828194","0.0-247.0","A1SRQ63M2VV6QP","img_art/29.jpg","null","","","","","","","","","","","","","","","","","","","","","","","","",""
"4919","","image-button-response","251","3833118","0.0-248.0","A1SRQ63M2VV6QP","img_art/29.jpg","4","","","","","","","","","","","","","","","","","","","","","","","","",""
"3018","","image-button-response","252","3836141","0.0-249.0-0.0","A1SRQ63M2VV6QP","img_art/29.jpg","1","","","","","","","","","","","","","","","","","","","","","","","","",""
"3594","","image-button-response","253","3839741","0.0-250.0-0.0","A1SRQ63M2VV6QP","img_art/29.jpg","2","","","","","","","","","","","","","","","","","","","","","","","","",""
"null","","html-keyboard-response","254","3840744","0.0-251.0","A1SRQ63M2VV6QP","<p style=""font-size: 48px;"">+</p>","","","","","null","allTrialResponses","1000","1","29","img_art/29.jpg","-21","It looks like a crime scene. So much clutter.","Charles,Juan,Jared,Blake,Adam,Alexis","I like the usage of a physical object,33,100,20","I hate the red x over everything, hate the black hate how hopeless this is.,-50,260,20","not digging the paintbrush,1,400,20","a hot fireplace with things to burn. warm,12,280,20","Flash is too strong. Dislike the colors,-5,40,20","I like that it looks like a scene from perhaps a failed painted project,10,140,20","Adam","Flash is too strong. Dislike the colors,-5,40,20","Juan","I hate the red x over everything, hate the black hate how hopeless this is.,-50,260,20","Jared","not digging the paintbrush,1,400,20","6"
"33410","","survey-text","255","3874170","0.0-252.0-0.0","A1SRQ63M2VV6QP","","","","{""Q0"":"" I really like pointillism. It looks like the universe.""}","","","","","","","","","","","","","","","","","","","","","","",""
"2908","","image-slider-response","256","3877082","0.0-253.0","A1SRQ63M2VV6QP","","","","","18","","","","","","","","","","","","","","","","","","","","","",""
"null","","image-button-response","257","3882086","0.0-254.0","A1SRQ63M2VV6QP","img_art/23.jpg","null","","","","","","","","","","","","","","","","","","","","","","","","",""
"1175","","image-button-response","258","3883264","0.0-255.0","A1SRQ63M2VV6QP","img_art/23.jpg","0","","","","","","","","","","","","","","","","","","","","","","","","",""
"4140","","image-button-response","259","3887410","0.0-256.0-0.0","A1SRQ63M2VV6QP","img_art/23.jpg","5","","","","","","","","","","","","","","","","","","","","","","","","",""
"2377","","image-button-response","260","3889794","0.0-257.0-0.0","A1SRQ63M2VV6QP","img_art/23.jpg","4","","","","","","","","","","","","","","","","","","","","","","","","",""
"null","","html-keyboard-response","261","3891296","0.0-258.0","A1SRQ63M2VV6QP","<p style=""font-size: 48px;"">+</p>","","","","","null","allTrialResponses","1500","1","30","img_art/23.jpg","18"," I really like pointillism. It looks like the universe.","Noah,Juan,Jared,Jordan,Adam,Jack","the pattern of colours imbues in me a sense of infinity, which I find soothing,10,260,20","This is ugly and weird.,-50,260,20","it makes me aggitated,-21,400,20","I like the contrast,29,160,20","I like the color contrast, though I'm unable to tell what the white shapes are.,25,40,20","awesome colors. love the white drawing the eye to the center. oddly comforting.,50,320,20","Noah","the pattern of colours imbues in me a sense of infinity, which I find soothing,10,260,20","Jack","awesome colors. love the white drawing the eye to the center. oddly comforting.,50,320,20","Adam","I like the color contrast, though I'm unable to tell what the white shapes are.,25,40,20","6"
"10372","","image-button-response_instructions","262","3901687","0.0-259.0","A1SRQ63M2VV6QP","","0","instructions","","","","","","","","","","","","","","","","","","","","","","","",""
"1768","","image-button-response","263","3903472","0.0-260.0","A1SRQ63M2VV6QP","","0","","","","","","","","","","","","","","","","","","","","","","","","",""
