"rt","url","trial_type","trial_index","time_elapsed","internal_node_id","participant_id","stimulus","button_pressed","Name","responses","response","key_press","variableName","fixationTime","condition","trial","photo","subjectRating","subjectResponse","agentsNames","agent_1_Response","agent_2_Response","agent_3_Response","agent_4_Response","agent_5_Response","agent_6_Response","kept_1_name","kept_1_response","kept_2_name","kept_2_response","kept_3_name","kept_3_response","errorCounter"
"6792","external_page_harvard.html","external-html","0","6910","0.0-0.0","A1SYMCOR29IWNA","","","","","","","","","","","","","","","","","","","","","","","","","","",""
"2008","","image-button-response","1","8921","0.0-1.0","A1SYMCOR29IWNA","","0","","","","","","","","","","","","","","","","","","","","","","","","",""
"2383","","image-button-response","2","11315","0.0-2.0-0.0","A1SYMCOR29IWNA","","1","phone","","","","","","","","","","","","","","","","","","","","","","","",""
"3532","","survey-text","3","14848","0.0-3.0-0.0","A1SYMCOR29IWNA","","","","{""Q0"":""A1SYMCOR29IWNA""}","","","","","","","","","","","","","","","","","","","","","","",""
"2910","","image-button-response_instructions","4","17784","0.0-4.0","A1SYMCOR29IWNA","","0","instructions","","","","","","","","","","","","","","","","","","","","","","","",""
"9172","","image-button-response_instructions","5","26962","0.0-5.0","A1SYMCOR29IWNA","img_art/ins/popularity/ins1.png","0","instructions","","","","","","","","","","","","","","","","","","","","","","","",""
"3149","","image-button-response_instructions","6","30113","0.0-6.0","A1SYMCOR29IWNA","img_art/ins/popularity/ins2.png","0","instructions","","","","","","","","","","","","","","","","","","","","","","","",""
"4003","","image-button-response_instructions","7","34117","0.0-7.0","A1SYMCOR29IWNA","img_art/ins/popularity/ins2Extreme.png","0","instructions","","","","","","","","","","","","","","","","","","","","","","","",""
"9684","","image-button-response_instructions","8","43803","0.0-8.0","A1SYMCOR29IWNA","img_art/ins/popularity/ins3KEEPpop.PNG","0","instructions","","","","","","","","","","","","","","","","","","","","","","","",""
"3430","","image-button-response_instructions","9","47234","0.0-9.0","A1SYMCOR29IWNA","img_art/ins/popularity/ins3ANamepop.PNG","0","instructions","","","","","","","","","","","","","","","","","","","","","","","",""
"2788","","image-button-response_instructions","10","50024","0.0-10.0","A1SYMCOR29IWNA","img_art/ins/popularity/ins3ARatingpop.png","0","instructions","","","","","","","","","","","","","","","","","","","","","","","",""
"1844","","image-button-response_instructions","11","51870","0.0-11.0","A1SYMCOR29IWNA","img_art/ins/popularity/ins3ATextpop.png","0","instructions","","","","","","","","","","","","","","","","","","","","","","","",""
"4137","","image-button-response_instructions","12","56008","0.0-12.0","A1SYMCOR29IWNA","img_art/ins/popularity/ins3ALikespop.png","0","instructions","","","","","","","","","","","","","","","","","","","","","","","",""
"7908","","image-button-response_instructions","13","63918","0.0-13.0","A1SYMCOR29IWNA","img_art/ins/popularity/ins3KEEPpop.PNG","0","instructions","","","","","","","","","","","","","","","","","","","","","","","",""
"8070","","image-button-response_instructions","14","71990","0.0-14.0","A1SYMCOR29IWNA","img_art/ins/popularity/ins3_5RED.png","0","instructions","","","","","","","","","","","","","","","","","","","","","","","",""
"3494","","image-button-response_instructions","15","75486","0.0-15.0","A1SYMCOR29IWNA","img_art/ins/popularity/ins3KEEPpop.PNG","0","instructions","","","","","","","","","","","","","","","","","","","","","","","",""
"10502","","image-button-response_instructions","16","85989","0.0-16.0","A1SYMCOR29IWNA","img_art/ins/popularity/ins4KEEPpop.PNG","0","instructions","","","","","","","","","","","","","","","","","","","","","","","",""
"6267","","image-button-response_instructions","17","92257","0.0-17.0","A1SYMCOR29IWNA","img_art/ins/popularity/ins5KEEPpop.PNG","0","instructions","","","","","","","","","","","","","","","","","","","","","","","",""
"1382","","image-button-response_instructions","18","93641","0.0-18.0","A1SYMCOR29IWNA","","0","instructions","","","","","","","","","","","","","","","","","","","","","","","",""
"4791","","survey-text","19","98464","0.0-19.0-0.0","A1SYMCOR29IWNA","","","","{""Q0"":""but""}","","","","","","","","","","","","","","","","","","","","","","",""
"16928","","survey-text","20","115394","0.0-20.0-0.0","A1SYMCOR29IWNA","","","","{""Q0"":""I think it's boring and not pleasing to look at.""}","","","","","","","","","","","","","","","","","","","","","","",""
"4530.399999999441","","image-slider-response","21","119928","0.0-21.0","A1SYMCOR29IWNA","","","","","-38","","","","","","","","","","","","","","","","","","","","","",""
"null","","image-button-response","22","124933","0.0-22.0","A1SYMCOR29IWNA","img_art/ins/1.jpg","null","","","","","","","","","","","","","","","","","","","","","","","","",""
"3927","","image-button-response","23","128862","0.0-23.0","A1SYMCOR29IWNA","img_art/ins/1.jpg","4","","","","","","","","","","","","","","","","","","","","","","","","",""
"1816","","image-button-response","24","130681","0.0-24.0-0.0","A1SYMCOR29IWNA","img_art/ins/1.jpg","0","","","","","","","","","","","","","","","","","","","","","","","","",""
"5009","","image-button-response","25","135691","0.0-25.0-0.0","A1SYMCOR29IWNA","img_art/ins/1.jpg","1","","","","","","","","","","","","","","","","","","","","","","","","",""
"null","","html-keyboard-response","26","136697","0.0-26.0","A1SYMCOR29IWNA","<p style=""font-size: 48px;"">+</p>","","","","","null","allTrialResponses","1000","1","-2","img_art/ins/1.jpg","-38","I think it's boring and not pleasing to look at.","Adam,Alex,Ben,Carl,Daniel,Jack","Seems like doodles,-20,20,20","very creative work.,36,40,20","This color reminds me of poo,-46,60,20","very calming artwork,42,80,20","It looks like a murder scene.,-48,100,20","I like the sophisticated brushwork,40,120,20","Daniel","It looks like a murder scene.,-48,100,20","Adam","Seems like doodles,-20,20,20","Alex","very creative work.,36,40,20","0"
"10935","","survey-text","27","147637","0.0-27.0-0.0","A1SYMCOR29IWNA","","","","{""Q0"":""I enjoy the colors and composition.""}","","","","","","","","","","","","","","","","","","","","","","",""
"3854.5","","image-slider-response","28","151495","0.0-28.0","A1SYMCOR29IWNA","","","","","20","","","","","","","","","","","","","","","","","","","","","",""
"2910","","image-button-response","29","156502","0.0-29.0","A1SYMCOR29IWNA","img_art/ins/2.jpg","2","","","","","","","","","","","","","","","","","","","","","","","","",""
"854","","image-button-response","30","157359","0.0-30.0","A1SYMCOR29IWNA","img_art/ins/2.jpg","2","","","","","","","","","","","","","","","","","","","","","","","","",""
"4361","","image-button-response","31","161721","0.0-31.0-0.0","A1SYMCOR29IWNA","img_art/ins/2.jpg","1","","","","","","","","","","","","","","","","","","","","","","","","",""
"3394","","image-button-response","32","165118","0.0-32.0-0.0","A1SYMCOR29IWNA","img_art/ins/2.jpg","3","","","","","","","","","","","","","","","","","","","","","","","","",""
"null","","html-keyboard-response","33","166619","0.0-33.0","A1SYMCOR29IWNA","<p style=""font-size: 48px;"">+</p>","","","","","null","allTrialResponses","1500","1","-1","img_art/ins/2.jpg","20","I enjoy the colors and composition.","Adam,Alex,John,James,Daniel,Kyle","too much color,-18,20,20","I like the blocks of color arrangements,30,40,20","love the texture of paint,48,160,20","looks too angry,-50,140,20","One of my pet peevs,-48,100,20","Idk, it is just annoying,-32,180,20","John","love the texture of paint,48,160,20","Alex","I like the blocks of color arrangements,30,40,20","James","looks too angry,-50,140,20","0"
"17338","","survey-text","34","183962","0.0-34.0-0.0","A1SYMCOR29IWNA","","","","{""Q0"":""Interesting, stark design.""}","","","","","","","","","","","","","","","","","","","","","","",""
"2157.2999999998137","","image-slider-response","35","186122","0.0-35.0","A1SYMCOR29IWNA","","","","","24","","","","","","","","","","","","","","","","","","","","","",""
"null","","image-button-response","36","191124","0.0-36.0","A1SYMCOR29IWNA","img_art/ins/3.jpg","null","","","","","","","","","","","","","","","","","","","","","","","","",""
"5118","","image-button-response","37","196245","0.0-37.0","A1SYMCOR29IWNA","img_art/ins/3.jpg","1","","","","","","","","","","","","","","","","","","","","","","","","",""
"977","","image-button-response","38","197225","0.0-38.0-0.0","A1SYMCOR29IWNA","img_art/ins/3.jpg","5","","","","","","","","","","","","","","","","","","","","","","","","",""
"5859","","image-button-response","39","203086","0.0-39.0-0.0","A1SYMCOR29IWNA","img_art/ins/3.jpg","2","","","","","","","","","","","","","","","","","","","","","","","","",""
"null","","html-keyboard-response","40","204596","0.0-40.0","A1SYMCOR29IWNA","<p style=""font-size: 48px;"">+</p>","","","","","null","allTrialResponses","1500","1","0","img_art/ins/3.jpg","24","Interesting, stark design.","Mike,Alex,John,James,Ron,Sam","enjoy the different shades of blue,22,200,20","calming blue is very nice,36,40,20","I like the overlapping of brushes,41,160,20","My worst nightmare,-42,140,20","It looks depressing,-26,220,20","I can feel a rainy day from this painting,18,240,20","Alex","calming blue is very nice,36,40,20","Sam","I can feel a rainy day from this painting,18,240,20","John","I like the overlapping of brushes,41,160,20","0"
"4583","","image-button-response_instructions","41","209182","0.0-41.0","A1SYMCOR29IWNA","","0","instructions","","","","","","","","","","","","","","","","","","","","","","","",""
"4959","","survey-likert","42","214143","0.0-42.0-0.0","A1SYMCOR29IWNA","","","","{""Q0"":"""",""Q1"":0,""Q2"":1}","","","","","","","","","","","","","","","","","","","","","","",""
"6663","","survey-text","43","220814","0.0-43.0-0.0","A1SYMCOR29IWNA","","","","{""Q0"":""rock""}","","","","","","","","","","","","","","","","","","","","","","",""
"21147","","survey-text","44","241963","0.0-44.0-0.0","A1SYMCOR29IWNA","","","","{""Q0"":""I'm not a fan. It looks like an unattractive desert.""}","","","","","","","","","","","","","","","","","","","","","","",""
"2907.7000000001863","","image-slider-response","45","244876","0.0-45.0","A1SYMCOR29IWNA","","","","","-22","","","","","","","","","","","","","","","","","","","","","",""
"null","","image-button-response","46","249935","0.0-46.0","A1SYMCOR29IWNA","img_art/7.jpg","null","","","","","","","","","","","","","","","","","","","","","","","","",""
"8429","","image-button-response","47","258366","0.0-47.0","A1SYMCOR29IWNA","img_art/7.jpg","1","","","","","","","","","","","","","","","","","","","","","","","","",""
"2030","","image-button-response","48","260401","0.0-48.0-0.0","A1SYMCOR29IWNA","img_art/7.jpg","0","","","","","","","","","","","","","","","","","","","","","","","","",""
"4644","","image-button-response","49","265047","0.0-49.0-0.0","A1SYMCOR29IWNA","img_art/7.jpg","0","","","","","","","","","","","","","","","","","","","","","","","","",""
"909","","image-button-response","50","269549","0.0-49.1-0.1","A1SYMCOR29IWNA","img_art/7.jpg","1","","","","","","","","","","","","","","","","","","","","","","","","",""
"616","","image-button-response","51","272439","0.0-49.2-0.2","A1SYMCOR29IWNA","img_art/7.jpg","0","","","","","","","","","","","","","","","","","","","","","","","","",""
"619","","image-button-response","52","275039","0.0-49.3-0.3","A1SYMCOR29IWNA","img_art/7.jpg","5","","","","","","","","","","","","","","","","","","","","","","","","",""
"null","","html-keyboard-response","53","275542","0.0-50.0","A1SYMCOR29IWNA","<p style=""font-size: 48px;"">+</p>","","","","","null","allTrialResponses","500","1","1","img_art/7.jpg","-22","I'm not a fan. It looks like an unattractive desert.","Dustin,Stephen,Taylor,William,Daniel,Aaron","I see dryness, which is sad. Dirt, sand, the dessert. Barren dry lifeless,-30,20,20","Nice realistic feel but nothing stands out.,4,140,20","Looks like a photo taken from the moon.,-6,200,20","looks like a photograph,-4,380,20","Great portrayal of solid surface,19,320,20","It's kind of ugly but I like the texture.,10,20,20","Stephen","Nice realistic feel but nothing stands out.,4,140,20","Dustin","I see dryness, which is sad. Dirt, sand, the dessert. Barren dry lifeless,-30,20,20","Aaron","It's kind of ugly but I like the texture.,10,20,20","6"
"19437","","survey-text","54","294982","0.0-51.0-0.0","A1SYMCOR29IWNA","","","","{""Q0"":""The composition seems muddled.""}","","","","","","","","","","","","","","","","","","","","","","",""
"2452.2000000001863","","image-slider-response","55","297436","0.0-52.0","A1SYMCOR29IWNA","","","","","-17","","","","","","","","","","","","","","","","","","","","","",""
"4464","","image-button-response","56","302439","0.0-53.0","A1SYMCOR29IWNA","img_art/26.jpg","0","","","","","","","","","","","","","","","","","","","","","","","","",""
"574","","image-button-response","57","303016","0.0-54.0","A1SYMCOR29IWNA","img_art/26.jpg","0","","","","","","","","","","","","","","","","","","","","","","","","",""
"4451","","image-button-response","58","307469","0.0-55.0-0.0","A1SYMCOR29IWNA","img_art/26.jpg","5","","","","","","","","","","","","","","","","","","","","","","","","",""
"3125","","image-button-response","59","310597","0.0-56.0-0.0","A1SYMCOR29IWNA","img_art/26.jpg","1","","","","","","","","","","","","","","","","","","","","","","","","",""
"null","","html-keyboard-response","60","311603","0.0-57.0","A1SYMCOR29IWNA","<p style=""font-size: 48px;"">+</p>","","","","","null","allTrialResponses","1000","1","2","img_art/26.jpg","-17","The composition seems muddled.","Dustin,Stephen,Bradley,Nicholas,Bryan,Aaron","Reminds me of watercolor. Muted tones and blurry soft brush strokes. Calm to me.,1,20,20","No strong reaction but the color scheme is nice,10,140,20","I like this. Looks like a city street and I can use my imagination to make it come alive.,15,300,20","I like the colors and trees. Seems cheap vintage retail store art but i love it anyways,50,240,20","Like the muted colors & the scene which seems to be serene.,14,400,20","It looks like a watercolor I did when I was 6.,-30,20,20","Dustin","Reminds me of watercolor. Muted tones and blurry soft brush strokes. Calm to me.,1,20,20","Aaron","It looks like a watercolor I did when I was 6.,-30,20,20","Stephen","No strong reaction but the color scheme is nice,10,140,20","6"
"26484","","survey-text","61","338095","0.0-58.0-0.0","A1SYMCOR29IWNA","","","","{""Q0"":""Average abstract composition with nice colors""}","","","","","","","","","","","","","","","","","","","","","","",""
"4322.4000000003725","","image-slider-response","62","342419","0.0-59.0","A1SYMCOR29IWNA","","","","","5","","","","","","","","","","","","","","","","","","","","","",""
"null","","image-button-response","63","347423","0.0-60.0","A1SYMCOR29IWNA","img_art/20.jpg","null","","","","","","","","","","","","","","","","","","","","","","","","",""
"14481","","image-button-response","64","361905","0.0-61.0","A1SYMCOR29IWNA","img_art/20.jpg","0","","","","","","","","","","","","","","","","","","","","","","","","",""
"3767","","image-button-response","65","365675","0.0-62.0-0.0","A1SYMCOR29IWNA","img_art/20.jpg","2","","","","","","","","","","","","","","","","","","","","","","","","",""
"9740","","image-button-response","66","375418","0.0-63.0-0.0","A1SYMCOR29IWNA","img_art/20.jpg","3","","","","","","","","","","","","","","","","","","","","","","","","",""
"null","","html-keyboard-response","67","375920","0.0-64.0","A1SYMCOR29IWNA","<p style=""font-size: 48px;"">+</p>","","","","","null","allTrialResponses","500","1","3","img_art/20.jpg","5","Average abstract composition with nice colors","Dustin,Stephen,Luis,Spencer,Gabriel,Aaron","I don't like it. Dark sky and black figures. White objects remind me of bones.,-30,20,20","Liked the background,15,140,20","I love the way it expresses dark nature and uncontrolled situations.,44,400,20","A sad past town, pollution, guess I like happier scenes,-30,120,20","i almost feel like i can recognize what this is,-6,160,20","I would like it more without the frame.,10,20,20","Dustin","I don't like it. Dark sky and black figures. White objects remind me of bones.,-30,20,20","Luis","I love the way it expresses dark nature and uncontrolled situations.,44,400,20","Spencer","A sad past town, pollution, guess I like happier scenes,-30,120,20","6"
"18772","","survey-text","68","394698","0.0-65.0-0.0","A1SYMCOR29IWNA","","","","{""Q0"":""This looks like it was made by an unexceptional child.""}","","","","","","","","","","","","","","","","","","","","","","",""
"5560.5","","image-slider-response","69","400260","0.0-66.0","A1SYMCOR29IWNA","","","","","-42","","","","","","","","","","","","","","","","","","","","","",""
"4527","","image-button-response","70","405262","0.0-67.0","A1SYMCOR29IWNA","img_art/16.jpg","2","","","","","","","","","","","","","","","","","","","","","","","","",""
"3969","","image-button-response","71","409233","0.0-68.0","A1SYMCOR29IWNA","img_art/16.jpg","2","","","","","","","","","","","","","","","","","","","","","","","","",""
"11888","","image-button-response","72","421124","0.0-69.0-0.0","A1SYMCOR29IWNA","img_art/16.jpg","0","","","","","","","","","","","","","","","","","","","","","","","","",""
"8987","","image-button-response","73","430113","0.0-70.0-0.0","A1SYMCOR29IWNA","img_art/16.jpg","3","","","","","","","","","","","","","","","","","","","","","","","","",""
"null","","html-keyboard-response","74","431116","0.0-71.0","A1SYMCOR29IWNA","<p style=""font-size: 48px;"">+</p>","","","","","null","allTrialResponses","1000","1","4","img_art/16.jpg","-42","This looks like it was made by an unexceptional child.","Dustin,David,Luis,Spencer,Jose,Zachary","Upsetting and disturbing. Random bear and indistinguishable objects. None of it goes together. Too chaotic and random,-50,20,20","The colored teddy bear clashes with the color scheme.,-20,340,20","Kind of an edgy teenager vibe,32,400,20","Know it is a piece relating to children and gun violence. Sad,-30,120,20","Super weird. Id like to know more about it,24,200,20","Not pleasing to the eyes. I do like that the gun is broken though.,-28,400,20","Luis","Kind of an edgy teenager vibe,32,400,20","Dustin","Upsetting and disturbing. Random bear and indistinguishable objects. None of it goes together. Too chaotic and random,-50,20,20","Spencer","Know it is a piece relating to children and gun violence. Sad,-30,120,20","6"
"24357","","survey-text","75","455479","0.0-72.0-0.0","A1SYMCOR29IWNA","","","","{""Q0"":""Looks like the artist stopped midway through and called it a day.""}","","","","","","","","","","","","","","","","","","","","","","",""
"3719.899999999441","","image-slider-response","76","459202","0.0-73.0","A1SYMCOR29IWNA","","","","","-23","","","","","","","","","","","","","","","","","","","","","",""
"null","","image-button-response","77","464207","0.0-74.0","A1SYMCOR29IWNA","img_art/15.jpg","null","","","","","","","","","","","","","","","","","","","","","","","","",""
"5245","","image-button-response","78","469453","0.0-75.0","A1SYMCOR29IWNA","img_art/15.jpg","0","","","","","","","","","","","","","","","","","","","","","","","","",""
"1166","","image-button-response","79","470622","0.0-76.0-0.0","A1SYMCOR29IWNA","img_art/15.jpg","2","","","","","","","","","","","","","","","","","","","","","","","","",""
"1751","","image-button-response","80","472376","0.0-77.0-0.0","A1SYMCOR29IWNA","img_art/15.jpg","3","","","","","","","","","","","","","","","","","","","","","","","","",""
"null","","html-keyboard-response","81","473878","0.0-78.0","A1SYMCOR29IWNA","<p style=""font-size: 48px;"">+</p>","","","","","null","allTrialResponses","1500","1","5","img_art/15.jpg","-23","Looks like the artist stopped midway through and called it a day.","Dustin,Brian,Luis,Spencer,Kyle,Antonio","Too much black. I see weeds or dead/dying flowers.,-40,20,20","This is simply too ""old-school"",-27,380,20","Extreme darkness and sadness,-30,400,20","Pretty, like in a field of poppies,19,120,20","I like it as the colors complement each other well,21,340,20","Makes me think of a bush and flowers and spring and happy warm times,25,220,20","Dustin","Too much black. I see weeds or dead/dying flowers.,-40,20,20","Luis","Extreme darkness and sadness,-30,400,20","Spencer","Pretty, like in a field of poppies,19,120,20","6"
"5890","","survey-text","82","479778","0.0-79.0-0.0","A1SYMCOR29IWNA","","","","{""Q0"":""sky""}","","","","","","","","","","","","","","","","","","","","","","",""
"20539","","survey-text","83","500319","0.0-80.0-0.0","A1SYMCOR29IWNA","","","","{""Q0"":""Looks like a cafe that's been melted with acid""}","","","","","","","","","","","","","","","","","","","","","","",""
"2799.100000000559","","image-slider-response","84","503120","0.0-81.0","A1SYMCOR29IWNA","","","","","5","","","","","","","","","","","","","","","","","","","","","",""
"null","","image-button-response","85","508127","0.0-82.0","A1SYMCOR29IWNA","img_art/19.jpg","null","","","","","","","","","","","","","","","","","","","","","","","","",""
"4036","","image-button-response","86","512166","0.0-83.0","A1SYMCOR29IWNA","img_art/19.jpg","3","","","","","","","","","","","","","","","","","","","","","","","","",""
"3044","","image-button-response","87","515215","0.0-84.0-0.0","A1SYMCOR29IWNA","img_art/19.jpg","5","","","","","","","","","","","","","","","","","","","","","","","","",""
"4285","","image-button-response","88","519502","0.0-85.0-0.0","A1SYMCOR29IWNA","img_art/19.jpg","0","","","","","","","","","","","","","","","","","","","","","","","","",""
"null","","html-keyboard-response","89","520005","0.0-86.0","A1SYMCOR29IWNA","<p style=""font-size: 48px;"">+</p>","","","","","null","allTrialResponses","500","1","6","img_art/19.jpg","5","Looks like a cafe that's been melted with acid","Dustin,Alexander,Luis,Spencer,Connor,Richard","Too busy, makes me anxious and frustrated. Lots of movement in the brush strokes.,-9,20,20","Messy pantry full of food.,5,120,20","Gives a very open and freeing vibe,42,400,20","Very abstract but I like it, it's busy, lots of colors,43,120,20","Childish music hall,-20,240,20","not professional looking but not bad either,13,340,20","Spencer","Very abstract but I like it, it's busy, lots of colors,43,120,20","Richard","not professional looking but not bad either,13,340,20","Dustin","Too busy, makes me anxious and frustrated. Lots of movement in the brush strokes.,-9,20,20","6"
"43691","","survey-text","90","563699","0.0-87.0-0.0","A1SYMCOR29IWNA","","","","{""Q0"":""I hate it a lot.""}","","","","","","","","","","","","","","","","","","","","","","",""
"7310.5","","image-slider-response","91","571011","0.0-88.0","A1SYMCOR29IWNA","","","","","-40","","","","","","","","","","","","","","","","","","","","","",""
"3496","","image-button-response","92","576017","0.0-89.0","A1SYMCOR29IWNA","img_art/3.jpg","0","","","","","","","","","","","","","","","","","","","","","","","","",""
"3361","","image-button-response","93","579381","0.0-90.0","A1SYMCOR29IWNA","img_art/3.jpg","5","","","","","","","","","","","","","","","","","","","","","","","","",""
"5882","","image-button-response","94","585265","0.0-91.0-0.0","A1SYMCOR29IWNA","img_art/3.jpg","3","","","","","","","","","","","","","","","","","","","","","","","","",""
"1550","","image-button-response","95","586818","0.0-92.0-0.0","A1SYMCOR29IWNA","img_art/3.jpg","0","","","","","","","","","","","","","","","","","","","","","","","","",""
"null","","html-keyboard-response","96","588321","0.0-93.0","A1SYMCOR29IWNA","<p style=""font-size: 48px;"">+</p>","","","","","null","allTrialResponses","1500","1","7","img_art/3.jpg","-40","I hate it a lot.","Dustin,Patrick,Chase,Spencer,Carlos,Richard","Messy. Looks like a children's drawing being passed off as expensive art. Too much red.,-50,20,20","Random use of red and looks scary,-50,280,20","Looks like a bloody head with teeth.,-16,120,20","Scratchy scrawly all one color, looks like a mistake,-28,120,20","The composition keeps the eye moving, the colors are satisfying.,31,80,20","7th grade art, not much effort to do this.,-39,340,20","Richard","7th grade art, not much effort to do this.,-39,340,20","Spencer","Scratchy scrawly all one color, looks like a mistake,-28,120,20","Dustin","Messy. Looks like a children's drawing being passed off as expensive art. Too much red.,-50,20,20","6"
"21336","","survey-text","97","609666","0.0-94.0-0.0","A1SYMCOR29IWNA","","","","{""Q0"":""I like the composition. It evokes a magical forest.""}","","","","","","","","","","","","","","","","","","","","","","",""
"3746.7000000001863","","image-slider-response","98","613415","0.0-95.0","A1SYMCOR29IWNA","","","","","33","","","","","","","","","","","","","","","","","","","","","",""
"null","","image-button-response","99","618424","0.0-96.0","A1SYMCOR29IWNA","img_art/17.jpg","null","","","","","","","","","","","","","","","","","","","","","","","","",""
"692","","image-button-response","100","619117","0.0-97.0","A1SYMCOR29IWNA","img_art/17.jpg","3","","","","","","","","","","","","","","","","","","","","","","","","",""
"9536","","image-button-response","101","628655","0.0-98.0-0.0","A1SYMCOR29IWNA","img_art/17.jpg","1","","","","","","","","","","","","","","","","","","","","","","","","",""
"928","","image-button-response","102","629587","0.0-99.0-0.0","A1SYMCOR29IWNA","img_art/17.jpg","5","","","","","","","","","","","","","","","","","","","","","","","","",""
"null","","html-keyboard-response","103","630591","0.0-100.0","A1SYMCOR29IWNA","<p style=""font-size: 48px;"">+</p>","","","","","null","allTrialResponses","1000","1","8","img_art/17.jpg","33","I like the composition. It evokes a magical forest.","Dustin,Paul,Vincent,Spencer,Justin,Richard","Is it a tree/plant of some sort?  Or, I see hair?  I don't get it. But, the colors are pleasing to me.,1,20,20","The colors remind me of a sunset and give a bittersweet feeling. It looks unfinished but not terrible.,6,300,20","Another favorite a relaxing day with nature a day to take it all In,34,360,20","Love the colors, the flow, like a strange storm or tree off the balcony,50,120,20","I like the colors and the design.,20,280,20","nice composition and colors, fairy land,28,340,20","Spencer","Love the colors, the flow, like a strange storm or tree off the balcony,50,120,20","Paul","The colors remind me of a sunset and give a bittersweet feeling. It looks unfinished but not terrible.,6,300,20","Richard","nice composition and colors, fairy land,28,340,20","6"
"64946","","survey-text","104","695541","0.0-101.0-0.0","A1SYMCOR29IWNA","","","","{""Q0"":""I like it. Good composition, texture, color""}","","","","","","","","","","","","","","","","","","","","","","",""
"3604.2000000001863","","image-slider-response","105","699148","0.0-102.0","A1SYMCOR29IWNA","","","","","22","","","","","","","","","","","","","","","","","","","","","",""
"null","","image-button-response","106","704150","0.0-103.0","A1SYMCOR29IWNA","img_art/11.jpg","null","","","","","","","","","","","","","","","","","","","","","","","","",""
"630","","image-button-response","107","704783","0.0-104.0","A1SYMCOR29IWNA","img_art/11.jpg","4","","","","","","","","","","","","","","","","","","","","","","","","",""
"5856","","image-button-response","108","710641","0.0-105.0-0.0","A1SYMCOR29IWNA","img_art/11.jpg","1","","","","","","","","","","","","","","","","","","","","","","","","",""
"4373","","image-button-response","109","715017","0.0-106.0-0.0","A1SYMCOR29IWNA","img_art/11.jpg","2","","","","","","","","","","","","","","","","","","","","","","","","",""
"null","","html-keyboard-response","110","716518","0.0-107.0","A1SYMCOR29IWNA","<p style=""font-size: 48px;"">+</p>","","","","","null","allTrialResponses","1500","1","9","img_art/11.jpg","22","I like it. Good composition, texture, color","Sean,Paul,Blake,Spencer,Jorge,Richard","pic looks alright,8,40,20","I like how it reminds me of music and at the same time it looks like colorful train tracks.,10,300,20","a train going around the country,14,280,20","Even with the colors, it is dreary to me,-32,120,20","Sad but hopeful,43,180,20","I like this one mostly a good combination of colors and light and dark,12,340,20","Jorge","Sad but hopeful,43,180,20","Paul","I like how it reminds me of music and at the same time it looks like colorful train tracks.,10,300,20","Blake","a train going around the country,14,280,20","6"
"26313","","survey-text","111","742836","0.0-108.0-0.0","A1SYMCOR29IWNA","","","","{""Q0"":""Okay, sort of mosaic style""}","","","","","","","","","","","","","","","","","","","","","","",""
"2071","","image-slider-response","112","744909","0.0-109.0","A1SYMCOR29IWNA","","","","","-21","","","","","","","","","","","","","","","","","","","","","",""
"4066","","image-button-response","113","749915","0.0-110.0","A1SYMCOR29IWNA","img_art/12.jpg","1","","","","","","","","","","","","","","","","","","","","","","","","",""
"582","","image-button-response","114","750500","0.0-111.0","A1SYMCOR29IWNA","img_art/12.jpg","1","","","","","","","","","","","","","","","","","","","","","","","","",""
"2178","","image-button-response","115","752680","0.0-112.0-0.0","A1SYMCOR29IWNA","img_art/12.jpg","2","","","","","","","","","","","","","","","","","","","","","","","","",""
"3024","","image-button-response","116","755707","0.0-113.0-0.0","A1SYMCOR29IWNA","img_art/12.jpg","5","","","","","","","","","","","","","","","","","","","","","","","","",""
"null","","html-keyboard-response","117","757212","0.0-114.0","A1SYMCOR29IWNA","<p style=""font-size: 48px;"">+</p>","","","","","null","allTrialResponses","1500","1","10","img_art/12.jpg","-21","Okay, sort of mosaic style","Colton,Paul,Blake,Victor,Jorge,Corey","i like the repetition,30,220,20","Reminds me of collages we made in elementary school. I like the contrast of the colors from top to bottom,43,300,20","negative feelings with these blocks,-20,280,20","I like the colors and pattern,21,340,20","Windows to a different story,6,180,20","I like the bottom half and hate the top half,7,260,20","Paul","Reminds me of collages we made in elementary school. I like the contrast of the colors from top to bottom,43,300,20","Blake","negative feelings with these blocks,-20,280,20","Corey","I like the bottom half and hate the top half,7,260,20","6"
"5349","","survey-text","118","762569","0.0-115.0-0.0","A1SYMCOR29IWNA","","","","{""Q0"":""our""}","","","","","","","","","","","","","","","","","","","","","","",""
"39855","","survey-text","119","802426","0.0-116.0-0.0","A1SYMCOR29IWNA","","","","{""Q0"":""The images in the middle look like human silhouettes. I think it's very average""}","","","","","","","","","","","","","","","","","","","","","","",""
"3801","","image-slider-response","120","806229","0.0-117.0","A1SYMCOR29IWNA","","","","","-2","","","","","","","","","","","","","","","","","","","","","",""
"null","","image-button-response","121","811232","0.0-118.0","A1SYMCOR29IWNA","img_art/23.jpg","null","","","","","","","","","","","","","","","","","","","","","","","","",""
"11902","","image-button-response","122","823136","0.0-119.0","A1SYMCOR29IWNA","img_art/23.jpg","2","","","","","","","","","","","","","","","","","","","","","","","","",""
"1257","","image-button-response","123","824396","0.0-120.0-0.0","A1SYMCOR29IWNA","img_art/23.jpg","0","","","","","","","","","","","","","","","","","","","","","","","","",""
"3846","","image-button-response","124","828245","0.0-121.0-0.0","A1SYMCOR29IWNA","img_art/23.jpg","5","","","","","","","","","","","","","","","","","","","","","","","","",""
"null","","html-keyboard-response","125","829247","0.0-122.0","A1SYMCOR29IWNA","<p style=""font-size: 48px;"">+</p>","","","","","null","allTrialResponses","1000","1","11","img_art/23.jpg","-2","The images in the middle look like human silhouettes. I think it's very average","Jake,Paul,Blake,Thomas,Marcus,Corey","This looks like hotel room art, it's ugly and odd.,-2,360,20","I like the sharp contrast of the white on the colorful background,27,300,20","cold and dark feeling,-27,280,20","Beautiful. Very detailed and colorful. I enjoy looking at it.,50,220,20","Like the background colors and the energy, but the white bits ruin it for me,-7,60,20","white reminds me of screamo music band tshirts when they have their name in the unreadable lettering,-9,260,20","Blake","cold and dark feeling,-27,280,20","Jake","This looks like hotel room art, it's ugly and odd.,-2,360,20","Corey","white reminds me of screamo music band tshirts when they have their name in the unreadable lettering,-9,260,20","6"
"15580","","survey-text","126","844830","0.0-123.0-0.0","A1SYMCOR29IWNA","","","","{""Q0"":""It's fine, I like the autumnal color scheme""}","","","","","","","","","","","","","","","","","","","","","","",""
"3210.7000000001863","","image-slider-response","127","848043","0.0-124.0","A1SYMCOR29IWNA","","","","","6","","","","","","","","","","","","","","","","","","","","","",""
"3687","","image-button-response","128","853046","0.0-125.0","A1SYMCOR29IWNA","img_art/1.jpg","3","","","","","","","","","","","","","","","","","","","","","","","","",""
"1340","","image-button-response","129","854389","0.0-126.0","A1SYMCOR29IWNA","img_art/1.jpg","3","","","","","","","","","","","","","","","","","","","","","","","","",""
"2528","","image-button-response","130","856921","0.0-127.0-0.0","A1SYMCOR29IWNA","img_art/1.jpg","2","","","","","","","","","","","","","","","","","","","","","","","","",""
"557","","image-button-response","131","857481","0.0-128.0-0.0","A1SYMCOR29IWNA","img_art/1.jpg","1","","","","","","","","","","","","","","","","","","","","","","","","",""
"null","","html-keyboard-response","132","857982","0.0-129.0","A1SYMCOR29IWNA","<p style=""font-size: 48px;"">+</p>","","","","","null","allTrialResponses","500","1","12","img_art/1.jpg","6","It's fine, I like the autumnal color scheme","Jake,Mark,Blake,Joshua,Derek,Corey","This is ugly with bad colors.,-6,360,20","It just doesn't speak to me.,0,80,20","colors that are fairly warm. its ok,8,280,20","Reminds me of fall.,7,240,20","The blend of colors are gorgeous and reminds me of fall,32,360,20","basic reminds me of something a school would have on the wall,-7,260,20","Joshua","Reminds me of fall.,7,240,20","Blake","colors that are fairly warm. its ok,8,280,20","Mark","It just doesn't speak to me.,0,80,20","6"
"14413","","survey-text","133","872399","0.0-130.0-0.0","A1SYMCOR29IWNA","","","","{""Q0"":""This has to be intentionally ugly, right?""}","","","","","","","","","","","","","","","","","","","","","","",""
"6800.200000000186","","image-slider-response","134","879203","0.0-131.0","A1SYMCOR29IWNA","","","","","-45","","","","","","","","","","","","","","","","","","","","","",""
"4369","","image-button-response","135","884206","0.0-132.0","A1SYMCOR29IWNA","img_art/2.jpg","0","","","","","","","","","","","","","","","","","","","","","","","","",""
"1856","","image-button-response","136","886066","0.0-133.0","A1SYMCOR29IWNA","img_art/2.jpg","3","","","","","","","","","","","","","","","","","","","","","","","","",""
"1397","","image-button-response","137","887465","0.0-134.0-0.0","A1SYMCOR29IWNA","img_art/2.jpg","0","","","","","","","","","","","","","","","","","","","","","","","","",""
"5078","","image-button-response","138","892546","0.0-135.0-0.0","A1SYMCOR29IWNA","img_art/2.jpg","2","","","","","","","","","","","","","","","","","","","","","","","","",""
"null","","html-keyboard-response","139","894052","0.0-136.0","A1SYMCOR29IWNA","<p style=""font-size: 48px;"">+</p>","","","","","null","allTrialResponses","1500","1","13","img_art/2.jpg","-45","This has to be intentionally ugly, right?","Mason,Mark,Blake,Joshua,Shawn,Anthony","retro, amateurish, not a fan of the colors together.,-10,100,20","It feels like a party and Moulin Rouge.,20,80,20","ugly green color and makes me sick,-29,280,20","Looks like child's art.,-19,240,20","The color choices and lines seem a bit sloppy?,-10,100,20","Ugly color scheme,-50,200,20","Joshua","Looks like child's art.,-19,240,20","Mason","retro, amateurish, not a fan of the colors together.,-10,100,20","Blake","ugly green color and makes me sick,-29,280,20","6"
"33789","","survey-text","140","927847","0.0-137.0-0.0","A1SYMCOR29IWNA","","","","{""Q0"":""I like the texture and colors. Reminds me of a pool of oil.""}","","","","","","","","","","","","","","","","","","","","","","",""
"2836.4000000003725","","image-slider-response","141","930685","0.0-138.0","A1SYMCOR29IWNA","","","","","2","","","","","","","","","","","","","","","","","","","","","",""
"null","","image-button-response","142","935688","0.0-139.0","A1SYMCOR29IWNA","img_art/29.jpg","null","","","","","","","","","","","","","","","","","","","","","","","","",""
"2562","","image-button-response","143","938252","0.0-140.0","A1SYMCOR29IWNA","img_art/29.jpg","4","","","","","","","","","","","","","","","","","","","","","","","","",""
"5973","","image-button-response","144","944227","0.0-141.0-0.0","A1SYMCOR29IWNA","img_art/29.jpg","1","","","","","","","","","","","","","","","","","","","","","","","","",""
"1469","","image-button-response","145","945699","0.0-142.0-0.0","A1SYMCOR29IWNA","img_art/29.jpg","5","","","","","","","","","","","","","","","","","","","","","","","","",""
"null","","html-keyboard-response","146","946205","0.0-143.0","A1SYMCOR29IWNA","<p style=""font-size: 48px;"">+</p>","","","","","null","allTrialResponses","500","1","14","img_art/29.jpg","2","I like the texture and colors. Reminds me of a pool of oil.","Mason,Brett,Blake,Joshua,Christian,Logan","easy, too abstract for me, don't get it.,-25,100,20","Reminds me of graffitti gone wrong,15,360,20","a hot fireplace with things to burn. warm,12,280,20","I don't like the red X through it.,-20,240,20","love the texture, i don't know, i just really like it (and the paintbrush adds a nice touch),44,140,20","is this supposed to be edgy,-21,360,20","Christian","love the texture, i don't know, i just really like it (and the paintbrush adds a nice touch),44,140,20","Brett","Reminds me of graffitti gone wrong,15,360,20","Logan","is this supposed to be edgy,-21,360,20","6"
"44172","","survey-text","147","990383","0.0-144.0-0.0","A1SYMCOR29IWNA","","","","{""Q0"":""Is this what a peacock looks like on acid?""}","","","","","","","","","","","","","","","","","","","","","","",""
"1437.9000000003725","","image-slider-response","148","991823","0.0-145.0","A1SYMCOR29IWNA","","","","","-16","","","","","","","","","","","","","","","","","","","","","",""
"null","","image-button-response","149","996829","0.0-146.0","A1SYMCOR29IWNA","img_art/9.jpg","null","","","","","","","","","","","","","","","","","","","","","","","","",""
"1528","","image-button-response","150","998359","0.0-147.0","A1SYMCOR29IWNA","img_art/9.jpg","2","","","","","","","","","","","","","","","","","","","","","","","","",""
"9841","","image-button-response","151","1008202","0.0-148.0-0.0","A1SYMCOR29IWNA","img_art/9.jpg","4","","","","","","","","","","","","","","","","","","","","","","","","",""
"3540","","image-button-response","152","1011745","0.0-149.0-0.0","A1SYMCOR29IWNA","img_art/9.jpg","1","","","","","","","","","","","","","","","","","","","","","","","","",""
"null","","html-keyboard-response","153","1012751","0.0-150.0","A1SYMCOR29IWNA","<p style=""font-size: 48px;"">+</p>","","","","","null","allTrialResponses","1000","1","15","img_art/9.jpg","-16","Is this what a peacock looks like on acid?","Tanner,Brett,Andrew,Scott,Christian,Logan","sleep, calm, safe,12,180,20","Peaceful dreaming,40,360,20","The peacock theme gives me negative connotations of my ex-sister-in-law,-10,160,20","looks like someone resting,12,20,20","love the color palette, but I'm gonna be honest, I don't really understand it,14,140,20","is that sleeping beauty,33,360,20","Andrew","The peacock theme gives me negative connotations of my ex-sister-in-law,-10,160,20","Christian","love the color palette, but I'm gonna be honest, I don't really understand it,14,140,20","Brett","Peaceful dreaming,40,360,20","6"
"3082","","survey-text","154","1015840","0.0-151.0-0.0","A1SYMCOR29IWNA","","","","{""Q0"":""course""}","","","","","","","","","","","","","","","","","","","","","","",""
"42285","","survey-text","155","1058128","0.0-152.0-0.0","A1SYMCOR29IWNA","","","","{""Q0"":""Good use of colors and perspective. Abstract but enjoyable.""}","","","","","","","","","","","","","","","","","","","","","","",""
"2831.5","","image-slider-response","156","1060961","0.0-153.0","A1SYMCOR29IWNA","","","","","40","","","","","","","","","","","","","","","","","","","","","",""
"3736","","image-button-response","157","1065964","0.0-154.0","A1SYMCOR29IWNA","img_art/8.jpg","1","","","","","","","","","","","","","","","","","","","","","","","","",""
"340","","image-button-response","158","1066306","0.0-155.0","A1SYMCOR29IWNA","img_art/8.jpg","0","","","","","","","","","","","","","","","","","","","","","","","","",""
"744","","image-button-response","159","1067052","0.0-156.0-0.0","A1SYMCOR29IWNA","img_art/8.jpg","1","","","","","","","","","","","","","","","","","","","","","","","","",""
"9583","","image-button-response","160","1076646","0.0-157.0-0.0","A1SYMCOR29IWNA","img_art/8.jpg","3","","","","","","","","","","","","","","","","","","","","","","","","",""
"null","","html-keyboard-response","161","1077148","0.0-158.0","A1SYMCOR29IWNA","<p style=""font-size: 48px;"">+</p>","","","","","null","allTrialResponses","500","1","16","img_art/8.jpg","40","Good use of colors and perspective. Abstract but enjoyable.","Adrian,Brett,Andrew,Alejandro,Christian,Ryan","Pleasant colors, lots of interest. Not sure what's going on but I like it.,20,60,20","Very abstract and seems symbolic,45,360,20","Looks like it would be an interesting place to live,35,160,20","i like the abstract nature of a birds eye view of the city. The hard shapes and squares present with a softness rather than rigidity.,26,80,20","gives off inception vibes <3,50,140,20","I love architectural paintings,46,380,20","Adrian","Pleasant colors, lots of interest. Not sure what's going on but I like it.,20,60,20","Brett","Very abstract and seems symbolic,45,360,20","Alejandro","i like the abstract nature of a birds eye view of the city. The hard shapes and squares present with a softness rather than rigidity.,26,80,20","6"
"32216","","survey-text","162","1109369","0.0-159.0-0.0","A1SYMCOR29IWNA","","","","{""Q0"":""It's bad, as in not good""}","","","","","","","","","","","","","","","","","","","","","","",""
"2707.7999999998137","","image-slider-response","163","1112079","0.0-160.0","A1SYMCOR29IWNA","","","","","-50","","","","","","","","","","","","","","","","","","","","","",""
"4994","","image-button-response","164","1117083","0.0-161.0","A1SYMCOR29IWNA","img_art/27.jpg","0","","","","","","","","","","","","","","","","","","","","","","","","",""
"608","","image-button-response","165","1117693","0.0-162.0","A1SYMCOR29IWNA","img_art/27.jpg","0","","","","","","","","","","","","","","","","","","","","","","","","",""
"2970","","image-button-response","166","1120665","0.0-163.0-0.0","A1SYMCOR29IWNA","img_art/27.jpg","3","","","","","","","","","","","","","","","","","","","","","","","","",""
"3337","","image-button-response","167","1124004","0.0-164.0-0.0","A1SYMCOR29IWNA","img_art/27.jpg","2","","","","","","","","","","","","","","","","","","","","","","","","",""
"null","","html-keyboard-response","168","1124506","0.0-165.0","A1SYMCOR29IWNA","<p style=""font-size: 48px;"">+</p>","","","","","null","allTrialResponses","500","1","17","img_art/27.jpg","-50","It's bad, as in not good","Adrian,Brett,Charles,Alejandro,Tristan,Grant","Looks like my niece's doodles.,-50,60,20","Soothing in the middle of some confusion,40,360,20","Nothing stands out,-23,100,20","Muddied and directionless. Like someone dragged a brush across the paper for the sake of doing something.,-50,80,20","The colors provide a complexity to the nearly child-like sketches.,5,300,20","This feels like I'm looking at a child's scribbles.,-27,200,20","Adrian","Looks like my niece's doodles.,-50,60,20","Alejandro","Muddied and directionless. Like someone dragged a brush across the paper for the sake of doing something.,-50,80,20","Charles","Nothing stands out,-23,100,20","6"
"17986","","survey-text","169","1142498","0.0-166.0-0.0","A1SYMCOR29IWNA","","","","{""Q0"":""Reminiscent of a waterfall, abstract but relatable""}","","","","","","","","","","","","","","","","","","","","","","",""
"2000.800000000745","","image-slider-response","170","1144501","0.0-167.0","A1SYMCOR29IWNA","","","","","18","","","","","","","","","","","","","","","","","","","","","",""
"3857","","image-button-response","171","1149503","0.0-168.0","A1SYMCOR29IWNA","img_art/24.jpg","1","","","","","","","","","","","","","","","","","","","","","","","","",""
"5208","","image-button-response","172","1154712","0.0-169.0","A1SYMCOR29IWNA","img_art/24.jpg","1","","","","","","","","","","","","","","","","","","","","","","","","",""
"1294","","image-button-response","173","1156009","0.0-170.0-0.0","A1SYMCOR29IWNA","img_art/24.jpg","0","","","","","","","","","","","","","","","","","","","","","","","","",""
"921","","image-button-response","174","1156933","0.0-171.0-0.0","A1SYMCOR29IWNA","img_art/24.jpg","2","","","","","","","","","","","","","","","","","","","","","","","","",""
"null","","html-keyboard-response","175","1157938","0.0-172.0","A1SYMCOR29IWNA","<p style=""font-size: 48px;"">+</p>","","","","","null","allTrialResponses","1000","1","18","img_art/24.jpg","18","Reminiscent of a waterfall, abstract but relatable","Adrian,Nathan,Charles,Alejandro,Malik,Jeffrey","I like the colors and see a stream in a wooded setting. Makes me feel calm and cheerful.,27,60,20","Looks like a mystical type of forest/waterfall. Love it,40,200,20","It just feels a little bland for me,-23,100,20","I don't like this painting because of its blottedness. It lacks conviction, direction and purpose.,-31,80,20","Very nice textures and subject,38,40,20","Very refreshing and vigorous,19,40,20","Nathan","Looks like a mystical type of forest/waterfall. Love it,40,200,20","Adrian","I like the colors and see a stream in a wooded setting. Makes me feel calm and cheerful.,27,60,20","Charles","It just feels a little bland for me,-23,100,20","6"
"26528","","survey-text","176","1184470","0.0-173.0-0.0","A1SYMCOR29IWNA","","","","{""Q0"":""Looks like a centerpiece at a table. I like the colors, texture, and composition.""}","","","","","","","","","","","","","","","","","","","","","","",""
"2484.300000000745","","image-slider-response","177","1186957","0.0-174.0","A1SYMCOR29IWNA","","","","","44","","","","","","","","","","","","","","","","","","","","","",""
"4712","","image-button-response","178","1191960","0.0-175.0","A1SYMCOR29IWNA","img_art/14.jpg","3","","","","","","","","","","","","","","","","","","","","","","","","",""
"1614","","image-button-response","179","1193577","0.0-176.0","A1SYMCOR29IWNA","img_art/14.jpg","3","","","","","","","","","","","","","","","","","","","","","","","","",""
"7791","","image-button-response","180","1201369","0.0-177.0-0.0","A1SYMCOR29IWNA","img_art/14.jpg","0","","","","","","","","","","","","","","","","","","","","","","","","",""
"905","","image-button-response","181","1202279","0.0-178.0-0.0","A1SYMCOR29IWNA","img_art/14.jpg","5","","","","","","","","","","","","","","","","","","","","","","","","",""
"null","","html-keyboard-response","182","1203281","0.0-179.0","A1SYMCOR29IWNA","<p style=""font-size: 48px;"">+</p>","","","","","null","allTrialResponses","1000","1","19","img_art/14.jpg","44","Looks like a centerpiece at a table. I like the colors, texture, and composition.","Adrian,Nathan,Charles,Garrett,Jeremy,James","Warm, positive, growth.,8,60,20","Too much yellow in this image, i'm not a fan of art that is overly-saturated with yellow,-30,200,20","In some ways it looks natural, but I'm just not feeling it,0,100,20","I like this picture because it looks like a tree and the colors used look cool.,20,180,20","It didn't really do anything to excite me.,21,60,20","It uses interesting techniques on this picture, but I have no feelings for or against.,1,380,20","Garrett","I like this picture because it looks like a tree and the colors used look cool.,20,180,20","Adrian","Warm, positive, growth.,8,60,20","James","It uses interesting techniques on this picture, but I have no feelings for or against.,1,380,20","6"
"23682","","survey-text","183","1226970","0.0-180.0-0.0","A1SYMCOR29IWNA","","","","{""Q0"":""Cold, drab colors and no clear form""}","","","","","","","","","","","","","","","","","","","","","","",""
"2218.0999999996275","","image-slider-response","184","1229191","0.0-181.0","A1SYMCOR29IWNA","","","","","-35","","","","","","","","","","","","","","","","","","","","","",""
"2919","","image-button-response","185","1234194","0.0-182.0","A1SYMCOR29IWNA","img_art/28.jpg","2","","","","","","","","","","","","","","","","","","","","","","","","",""
"4655","","image-button-response","186","1238851","0.0-183.0","A1SYMCOR29IWNA","img_art/28.jpg","0","","","","","","","","","","","","","","","","","","","","","","","","",""
"4058","","image-button-response","187","1242912","0.0-184.0-0.0","A1SYMCOR29IWNA","img_art/28.jpg","2","","","","","","","","","","","","","","","","","","","","","","","","",""
"2784","","image-button-response","188","1245699","0.0-185.0-0.0","A1SYMCOR29IWNA","img_art/28.jpg","3","","","","","","","","","","","","","","","","","","","","","","","","",""
"null","","html-keyboard-response","189","1246201","0.0-186.0","A1SYMCOR29IWNA","<p style=""font-size: 48px;"">+</p>","","","","","null","allTrialResponses","500","1","20","img_art/28.jpg","-35","Cold, drab colors and no clear form","Adrian,Eric,Nathaniel,Garrett,Dakota,James","Not a fan of the drab colors but it looks a little bit interesting.,-7,60,20","I enjoy the colors.,25,100,20","Has an air of darkness to it, but no real substance besides the mouse-like thing.,-38,220,20","I don't like the way the colors look; I think very disgusting colors were used.,-20,180,20","musical, animated and happy with somber undertones,7,280,20","My grandparents would like this, maybe my great grandparents. It's not my style.,-30,380,20","Adrian","Not a fan of the drab colors but it looks a little bit interesting.,-7,60,20","Nathaniel","Has an air of darkness to it, but no real substance besides the mouse-like thing.,-38,220,20","Garrett","I don't like the way the colors look; I think very disgusting colors were used.,-20,180,20","6"
"3070","","survey-text","190","1249278","0.0-187.0-0.0","A1SYMCOR29IWNA","","","","{""Q0"":""we""}","","","","","","","","","","","","","","","","","","","","","","",""
"5748","","survey-text","191","1255029","0.0-188.0-0.0","A1SYMCOR29IWNA","","","","{""Q0"":""Awful and bad""}","","","","","","","","","","","","","","","","","","","","","","",""
"4597.699999999255","","image-slider-response","192","1259629","0.0-189.0","A1SYMCOR29IWNA","","","","","-50","","","","","","","","","","","","","","","","","","","","","",""
"2393","","image-button-response","193","1264636","0.0-190.0","A1SYMCOR29IWNA","img_art/5.jpg","2","","","","","","","","","","","","","","","","","","","","","","","","",""
"1055","","image-button-response","194","1265693","0.0-191.0","A1SYMCOR29IWNA","img_art/5.jpg","2","","","","","","","","","","","","","","","","","","","","","","","","",""
"2742","","image-button-response","195","1268437","0.0-192.0-0.0","A1SYMCOR29IWNA","img_art/5.jpg","0","","","","","","","","","","","","","","","","","","","","","","","","",""
"2271","","image-button-response","196","1270709","0.0-193.0-0.0","A1SYMCOR29IWNA","img_art/5.jpg","3","","","","","","","","","","","","","","","","","","","","","","","","",""
"null","","html-keyboard-response","197","1272211","0.0-194.0","A1SYMCOR29IWNA","<p style=""font-size: 48px;"">+</p>","","","","","null","allTrialResponses","1500","1","21","img_art/5.jpg","-50","Awful and bad","Adrian,Joseph,Nathaniel,Garrett,Kevin,Austin","Black bit reminds me of a giant splinter. Yellow bit reminds me of urine. I hate it.,-50,60,20","I like that the pyramid is putting off a beacon of light.,11,220,20","Not sure what that even is. Looks like a 2-year old drawing,-40,220,20","I don't know what it's supposed to be and it looks ugly the way the colors are on the yellow cube.,-50,180,20","A rabbits head.,4,320,20","Perfect for art exhibition,39,240,20","Nathaniel","Not sure what that even is. Looks like a 2-year old drawing,-40,220,20","Adrian","Black bit reminds me of a giant splinter. Yellow bit reminds me of urine. I hate it.,-50,60,20","Garrett","I don't know what it's supposed to be and it looks ugly the way the colors are on the yellow cube.,-50,180,20","6"
"37936","","survey-text","198","1310155","0.0-195.0-0.0","A1SYMCOR29IWNA","","","","{""Q0"":""Racetrack? Ouroboros? Who knows or cares? ""}","","","","","","","","","","","","","","","","","","","","","","",""
"4067.800000000745","","image-slider-response","199","1314224","0.0-196.0","A1SYMCOR29IWNA","","","","","-14","","","","","","","","","","","","","","","","","","","","","",""
"null","","image-button-response","200","1319228","0.0-197.0","A1SYMCOR29IWNA","img_art/10.jpg","null","","","","","","","","","","","","","","","","","","","","","","","","",""
"6783","","image-button-response","201","1326013","0.0-198.0","A1SYMCOR29IWNA","img_art/10.jpg","3","","","","","","","","","","","","","","","","","","","","","","","","",""
"1123","","image-button-response","202","1327137","0.0-199.0-0.0","A1SYMCOR29IWNA","img_art/10.jpg","0","","","","","","","","","","","","","","","","","","","","","","","","",""
"561","","image-button-response","203","1327701","0.0-200.0-0.0","A1SYMCOR29IWNA","img_art/10.jpg","1","","","","","","","","","","","","","","","","","","","","","","","","",""
"null","","html-keyboard-response","204","1328203","0.0-201.0","A1SYMCOR29IWNA","<p style=""font-size: 48px;"">+</p>","","","","","null","allTrialResponses","500","1","22","img_art/10.jpg","-14","Racetrack? Ouroboros? Who knows or cares? ","Adrian,Cameron,Nathaniel,Garrett,Samuel,Tyler","Looks like a violin. Not a fan of the smudges and smears, but my initial reaction was positive.,11,60,20","artistic cello piece?,30,60,20","For black and white, this is pretty vibrant and cool. I like this.,39,220,20","I can't tell what this picture is supposed to mean and I think the colors are lacking variety.,-42,180,20","feeling the turmoil and ride,12,400,20","In proper lighting I might enjoy this,11,320,20","Garrett","I can't tell what this picture is supposed to mean and I think the colors are lacking variety.,-42,180,20","Adrian","Looks like a violin. Not a fan of the smudges and smears, but my initial reaction was positive.,11,60,20","Cameron","artistic cello piece?,30,60,20","6"
"20838","","survey-text","205","1349048","0.0-202.0-0.0","A1SYMCOR29IWNA","","","","{""Q0"":""Colors are fine, everything else is mediocre at best""}","","","","","","","","","","","","","","","","","","","","","","",""
"2326.2000000001863","","image-slider-response","206","1351376","0.0-203.0","A1SYMCOR29IWNA","","","","","-38","","","","","","","","","","","","","","","","","","","","","",""
"2191","","image-button-response","207","1356379","0.0-204.0","A1SYMCOR29IWNA","img_art/4.jpg","1","","","","","","","","","","","","","","","","","","","","","","","","",""
"563","","image-button-response","208","1356945","0.0-205.0","A1SYMCOR29IWNA","img_art/4.jpg","0","","","","","","","","","","","","","","","","","","","","","","","","",""
"841","","image-button-response","209","1357788","0.0-206.0-0.0","A1SYMCOR29IWNA","img_art/4.jpg","1","","","","","","","","","","","","","","","","","","","","","","","","",""
"831","","image-button-response","210","1358622","0.0-207.0-0.0","A1SYMCOR29IWNA","img_art/4.jpg","3","","","","","","","","","","","","","","","","","","","","","","","","",""
"null","","html-keyboard-response","211","1359136","0.0-208.0","A1SYMCOR29IWNA","<p style=""font-size: 48px;"">+</p>","","","","","null","allTrialResponses","500","1","23","img_art/4.jpg","-38","Colors are fine, everything else is mediocre at best","Adrian,Cameron,Alexis,Garrett,Hunter,Jesus","Looks like feces smeared on the canvas. I hate it.,-50,60,20","Looks like the roomba got into dog poop,-30,60,20","The bold colors are exciting. It looks like a statue on someone's mantle.,18,140,20","I think that this picture is too boring in terms of color and it looks ugly.,-41,180,20","appealing warm palette,6,240,20","I don't enjoy the colors, or texture, it seems like mustard,-23,100,20","Adrian","Looks like feces smeared on the canvas. I hate it.,-50,60,20","Cameron","Looks like the roomba got into dog poop,-30,60,20","Garrett","I think that this picture is too boring in terms of color and it looks ugly.,-41,180,20","6"
"14195","","survey-text","212","1373346","0.0-209.0-0.0","A1SYMCOR29IWNA","","","","{""Q0"":""Reminds me of flamingos""}","","","","","","","","","","","","","","","","","","","","","","",""
"2158.7000000001863","","image-slider-response","213","1375507","0.0-210.0","A1SYMCOR29IWNA","","","","","4","","","","","","","","","","","","","","","","","","","","","",""
"4866","","image-button-response","214","1380509","0.0-211.0","A1SYMCOR29IWNA","img_art/30.jpg","2","","","","","","","","","","","","","","","","","","","","","","","","",""
"789","","image-button-response","215","1381301","0.0-212.0","A1SYMCOR29IWNA","img_art/30.jpg","1","","","","","","","","","","","","","","","","","","","","","","","","",""
"1673","","image-button-response","216","1382977","0.0-213.0-0.0","A1SYMCOR29IWNA","img_art/30.jpg","0","","","","","","","","","","","","","","","","","","","","","","","","",""
"3418","","image-button-response","217","1386398","0.0-214.0-0.0","A1SYMCOR29IWNA","img_art/30.jpg","0","","","","","","","","","","","","","","","","","","","","","","","","",""
"407","","image-button-response","218","1389484","0.0-214.1-0.1","A1SYMCOR29IWNA","img_art/30.jpg","3","","","","","","","","","","","","","","","","","","","","","","","","",""
"null","","html-keyboard-response","219","1389987","0.0-215.0","A1SYMCOR29IWNA","<p style=""font-size: 48px;"">+</p>","","","","","null","allTrialResponses","500","1","24","img_art/30.jpg","4","Reminds me of flamingos","Adrian,Cameron,Bryce,Garrett,Peter,Alex","Interesting. Not sure what I'm seeing but it makes me want to figure it out.,5,60,20","Like the color and style,31,60,20","Very colorful! Wow!,22,20,20","I feel like the colors are too repetitive and not very eyecatching.,-20,180,20","I feel nothing towards,-1,320,20","Don't like it at all, looks like a someone smeared paint with their fingers,-25,100,20","Cameron","Like the color and style,31,60,20","Adrian","Interesting. Not sure what I'm seeing but it makes me want to figure it out.,5,60,20","Garrett","I feel like the colors are too repetitive and not very eyecatching.,-20,180,20","8"
"22131","","survey-text","220","1412124","0.0-216.0-0.0","A1SYMCOR29IWNA","","","","{""Q0"":""This is another painting of nothing in particular, but this one is attractive because of the color, composition, and texture.""}","","","","","","","","","","","","","","","","","","","","","","",""
"1772.2999999998137","","image-slider-response","221","1413898","0.0-217.0","A1SYMCOR29IWNA","","","","","35","","","","","","","","","","","","","","","","","","","","","",""
"3005","","image-button-response","222","1418901","0.0-218.0","A1SYMCOR29IWNA","img_art/13.jpg","1","","","","","","","","","","","","","","","","","","","","","","","","",""
"2582","","image-button-response","223","1421485","0.0-219.0","A1SYMCOR29IWNA","img_art/13.jpg","1","","","","","","","","","","","","","","","","","","","","","","","","",""
"1808","","image-button-response","224","1423296","0.0-220.0-0.0","A1SYMCOR29IWNA","img_art/13.jpg","2","","","","","","","","","","","","","","","","","","","","","","","","",""
"1292","","image-button-response","225","1424592","0.0-221.0-0.0","A1SYMCOR29IWNA","img_art/13.jpg","5","","","","","","","","","","","","","","","","","","","","","","","","",""
"null","","html-keyboard-response","226","1425093","0.0-222.0","A1SYMCOR29IWNA","<p style=""font-size: 48px;"">+</p>","","","","","null","allTrialResponses","500","1","25","img_art/13.jpg","35","This is another painting of nothing in particular, but this one is attractive because of the color, composition, and texture.","Adrian,Cameron,Jordan,Garrett,Cody,Elijah","I find this oddly pleasant, but I object to this style. It's just a background with splatters. How is that art?,-5,60,20","Like the use of color, not a fan of the splatter,29,60,20","This is easy to look at,46,160,20","It looks like someone splattered a bunch of different colors to make a picture; I think its ugly.,-40,180,20","It's pretty ...........,41,180,20","Makes me feel nice and calm,18,80,20","Cameron","Like the use of color, not a fan of the splatter,29,60,20","Jordan","This is easy to look at,46,160,20","Elijah","Makes me feel nice and calm,18,80,20","8"
"2833","","survey-text","227","1427942","0.0-223.0-0.0","A1SYMCOR29IWNA","","","","{""Q0"":""table""}","","","","","","","","","","","","","","","","","","","","","","",""
"20135","","survey-text","228","1448079","0.0-224.0-0.0","A1SYMCOR29IWNA","","","","{""Q0"":""Crow on a fence? Ugly and without discernible skill""}","","","","","","","","","","","","","","","","","","","","","","",""
"2699.899999999441","","image-slider-response","229","1450780","0.0-225.0","A1SYMCOR29IWNA","","","","","-40","","","","","","","","","","","","","","","","","","","","","",""
"null","","image-button-response","230","1455783","0.0-226.0","A1SYMCOR29IWNA","img_art/6.jpg","null","","","","","","","","","","","","","","","","","","","","","","","","",""
"1845","","image-button-response","231","1457631","0.0-227.0","A1SYMCOR29IWNA","img_art/6.jpg","0","","","","","","","","","","","","","","","","","","","","","","","","",""
"2782","","image-button-response","232","1460416","0.0-228.0-0.0","A1SYMCOR29IWNA","img_art/6.jpg","1","","","","","","","","","","","","","","","","","","","","","","","","",""
"992","","image-button-response","233","1461411","0.0-229.0-0.0","A1SYMCOR29IWNA","img_art/6.jpg","2","","","","","","","","","","","","","","","","","","","","","","","","",""
"null","","html-keyboard-response","234","1462914","0.0-230.0","A1SYMCOR29IWNA","<p style=""font-size: 48px;"">+</p>","","","","","null","allTrialResponses","1500","1","26","img_art/6.jpg","-40","Crow on a fence? Ugly and without discernible skill","Juan,Cameron,Jordan,Ian,Devin,Elijah","I don't like the colors and the dark shape at the top makes me think of a buzzard.,-28,260,20","Kind of neat, but then that's a weird looking bird. too weird.,0,60,20","This picture is weird,-6,160,20","It's slightly unnerving to look at, it looks a little creepy/eerie,-16,260,20","Looks a bit like a pickle or something?,-16,380,20","Not impressed, just very plain,-10,80,20","Juan","I don't like the colors and the dark shape at the top makes me think of a buzzard.,-28,260,20","Cameron","Kind of neat, but then that's a weird looking bird. too weird.,0,60,20","Jordan","This picture is weird,-6,160,20","8"
"20099","","survey-text","235","1483020","0.0-231.0-0.0","A1SYMCOR29IWNA","","","","{""Q0"":""Looks like a city burning following a major blast. I like it a little.""}","","","","","","","","","","","","","","","","","","","","","","",""
"2237.4000000003725","","image-slider-response","236","1485259","0.0-232.0","A1SYMCOR29IWNA","","","","","10","","","","","","","","","","","","","","","","","","","","","",""
"2923","","image-button-response","237","1490263","0.0-233.0","A1SYMCOR29IWNA","img_art/22.jpg","1","","","","","","","","","","","","","","","","","","","","","","","","",""
"980","","image-button-response","238","1491245","0.0-234.0","A1SYMCOR29IWNA","img_art/22.jpg","1","","","","","","","","","","","","","","","","","","","","","","","","",""
"10483","","image-button-response","239","1501731","0.0-235.0-0.0","A1SYMCOR29IWNA","img_art/22.jpg","5","","","","","","","","","","","","","","","","","","","","","","","","",""
"2877","","image-button-response","240","1504611","0.0-236.0-0.0","A1SYMCOR29IWNA","img_art/22.jpg","2","","","","","","","","","","","","","","","","","","","","","","","","",""
"null","","html-keyboard-response","241","1505613","0.0-237.0","A1SYMCOR29IWNA","<p style=""font-size: 48px;"">+</p>","","","","","null","allTrialResponses","1000","1","27","img_art/22.jpg","10","Looks like a city burning following a major blast. I like it a little.","Juan,Cameron,Jordan,Miguel,Christopher,Brendan","I don't like the colors or the way they've been arranged.,-20,260,20","Like this one, like a sunset,30,60,20","The colors are too dark, too much red,2,160,20","Same az the last one?,-49,160,20","boring, too many red and yellow tones for my taste,-15,160,20","its just ugly for me,-50,340,20","Cameron","Like this one, like a sunset,30,60,20","Brendan","its just ugly for me,-50,340,20","Jordan","The colors are too dark, too much red,2,160,20","8"
"25428","","survey-text","242","1531047","0.0-238.0-0.0","A1SYMCOR29IWNA","","","","{""Q0"":""Neat colors, figures, and textures. Death on a pale horse?""}","","","","","","","","","","","","","","","","","","","","","","",""
"6556.700000000186","","image-slider-response","243","1537606","0.0-239.0","A1SYMCOR29IWNA","","","","","42","","","","","","","","","","","","","","","","","","","","","",""
"null","","image-button-response","244","1542608","0.0-240.0","A1SYMCOR29IWNA","img_art/18.jpg","null","","","","","","","","","","","","","","","","","","","","","","","","",""
"1006","","image-button-response","245","1543616","0.0-241.0","A1SYMCOR29IWNA","img_art/18.jpg","4","","","","","","","","","","","","","","","","","","","","","","","","",""
"15511","","image-button-response","246","1559129","0.0-242.0-0.0","A1SYMCOR29IWNA","img_art/18.jpg","2","","","","","","","","","","","","","","","","","","","","","","","","",""
"1423","","image-button-response","247","1560555","0.0-243.0-0.0","A1SYMCOR29IWNA","img_art/18.jpg","5","","","","","","","","","","","","","","","","","","","","","","","","",""
"null","","html-keyboard-response","248","1562070","0.0-244.0","A1SYMCOR29IWNA","<p style=""font-size: 48px;"">+</p>","","","","","null","allTrialResponses","1500","1","28","img_art/18.jpg","42","Neat colors, figures, and textures. Death on a pale horse?","Dalton,Cameron,Jordan,Jesse,Seth,Brendan","i like the colors in the picture and can make out my own images,42,300,20","Don't like the color scheme. Or the theme.,-5,60,20","Interesting and capitvating to look at,19,160,20","It reminds me of ghosts on a boat. Makes me nervous.,-27,80,20","This painting reminds me of the 4 horsemen of the apocalypse. It feels haunting.,31,60,20","looks like a war,22,340,20","Seth","This painting reminds me of the 4 horsemen of the apocalypse. It feels haunting.,31,60,20","Jordan","Interesting and capitvating to look at,19,160,20","Brendan","looks like a war,22,340,20","8"
"27812","","survey-text","249","1589908","0.0-245.0-0.0","A1SYMCOR29IWNA","","","","{""Q0"":""This looks like an impressionistic view of an assault on a beach""}","","","","","","","","","","","","","","","","","","","","","","",""
"2392.2000000001863","","image-slider-response","250","1592303","0.0-246.0","A1SYMCOR29IWNA","","","","","21","","","","","","","","","","","","","","","","","","","","","",""
"null","","image-button-response","251","1597310","0.0-247.0","A1SYMCOR29IWNA","img_art/21.jpg","null","","","","","","","","","","","","","","","","","","","","","","","","",""
"2246","","image-button-response","252","1599559","0.0-248.0","A1SYMCOR29IWNA","img_art/21.jpg","3","","","","","","","","","","","","","","","","","","","","","","","","",""
"3847","","image-button-response","253","1603408","0.0-249.0-0.0","A1SYMCOR29IWNA","img_art/21.jpg","5","","","","","","","","","","","","","","","","","","","","","","","","",""
"2188","","image-button-response","254","1605599","0.0-250.0-0.0","A1SYMCOR29IWNA","img_art/21.jpg","0","","","","","","","","","","","","","","","","","","","","","","","","",""
"null","","html-keyboard-response","255","1606603","0.0-251.0","A1SYMCOR29IWNA","<p style=""font-size: 48px;"">+</p>","","","","","null","allTrialResponses","1000","1","29","img_art/21.jpg","21","This looks like an impressionistic view of an assault on a beach","Noah,Jason,Jordan,Ethan,Seth,Brendan","brings up imagery of the sea and clashing, though not in a negative way,31,260,20","The division in the picture is pleasing but the random white dots are distracting,12,20,20","Beautiful colors, remind me of my yoga studio,50,160,20","This is lovely. I like the mix of colors, the warn and cool slowly combining.,39,120,20","Makes me feel light and airy. Like I've gone back in time to 1700th century France.,43,60,20","looks like a sea during some war,27,340,20","Ethan","This is lovely. I like the mix of colors, the warn and cool slowly combining.,39,120,20","Brendan","looks like a sea during some war,27,340,20","Noah","brings up imagery of the sea and clashing, though not in a negative way,31,260,20","8"
"10601","","survey-text","256","1617209","0.0-252.0-0.0","A1SYMCOR29IWNA","","","","{""Q0"":""It's fine, not for me""}","","","","","","","","","","","","","","","","","","","","","","",""
"1797","","image-slider-response","257","1619009","0.0-253.0","A1SYMCOR29IWNA","","","","","-6","","","","","","","","","","","","","","","","","","","","","",""
"null","","image-button-response","258","1624011","0.0-254.0","A1SYMCOR29IWNA","img_art/25.jpg","null","","","","","","","","","","","","","","","","","","","","","","","","",""
"2083","","image-button-response","259","1626096","0.0-255.0","A1SYMCOR29IWNA","img_art/25.jpg","4","","","","","","","","","","","","","","","","","","","","","","","","",""
"7322","","image-button-response","260","1633420","0.0-256.0-0.0","A1SYMCOR29IWNA","img_art/25.jpg","0","","","","","","","","","","","","","","","","","","","","","","","","",""
"1993","","image-button-response","261","1635417","0.0-257.0-0.0","A1SYMCOR29IWNA","img_art/25.jpg","5","","","","","","","","","","","","","","","","","","","","","","","","",""
"null","","html-keyboard-response","262","1636423","0.0-258.0","A1SYMCOR29IWNA","<p style=""font-size: 48px;"">+</p>","","","","","null","allTrialResponses","1000","1","30","img_art/25.jpg","-6","It's fine, not for me","Noah,Travis,Gregory,Ethan,Jonathan,Brendan","I find it enjoyable - mainly because it is not art I ever expected to see,16,260,20","I hate the colors and the scene,-46,260,20","Cool color scheme and appears to be a statue of some type of revered god,40,220,20","The artist was daring to create this. Don't love the green and black combo though.,9,120,20","This painting is cool but it gives off an evil vibe,-10,140,20","is this an ancient woman?,-16,340,20","Jonathan","This painting is cool but it gives off an evil vibe,-10,140,20","Noah","I find it enjoyable - mainly because it is not art I ever expected to see,16,260,20","Brendan","is this an ancient woman?,-16,340,20","8"
"2282","","image-button-response_instructions","263","1638712","0.0-259.0","A1SYMCOR29IWNA","","0","instructions","","","","","","","","","","","","","","","","","","","","","","","",""
"1767","","image-button-response","264","1640485","0.0-260.0","A1SYMCOR29IWNA","","0","","","","","","","","","","","","","","","","","","","","","","","","",""
