"rt","url","trial_type","trial_index","time_elapsed","internal_node_id","participant_id","stimulus","button_pressed","Name","responses","response","key_press","variableName","fixationTime","condition","trial","photo","subjectRating","subjectResponse","agentsNames","agent_1_Response","agent_2_Response","agent_3_Response","agent_4_Response","agent_5_Response","agent_6_Response","kept_1_name","kept_1_response","kept_2_name","kept_2_response","kept_3_name","kept_3_response","errorCounter"
"10589","external_page_harvard.html","external-html","0","10671","0.0-0.0","A1T0ND039EWAVV","","","","","","","","","","","","","","","","","","","","","","","","","","",""
"1769","","image-button-response","1","12444","0.0-1.0","A1T0ND039EWAVV","","1","","","","","","","","","","","","","","","","","","","","","","","","",""
"1872","","image-button-response","2","14325","0.0-2.0-0.0","A1T0ND039EWAVV","","1","phone","","","","","","","","","","","","","","","","","","","","","","","",""
"11402","","survey-text","3","25730","0.0-3.0-0.0","A1T0ND039EWAVV","","","","{""Q0"":""A1T0ND039EWAVV""}","","","","","","","","","","","","","","","","","","","","","","",""
"3556","","image-button-response_instructions","4","29290","0.0-4.0","A1T0ND039EWAVV","","0","instructions","","","","","","","","","","","","","","","","","","","","","","","",""
"12501","","image-button-response_instructions","5","41795","0.0-5.0","A1T0ND039EWAVV","img_art/ins/popularity/ins1.png","0","instructions","","","","","","","","","","","","","","","","","","","","","","","",""
"5915","","image-button-response_instructions","6","47712","0.0-6.0","A1T0ND039EWAVV","img_art/ins/popularity/ins2.png","0","instructions","","","","","","","","","","","","","","","","","","","","","","","",""
"2879","","image-button-response_instructions","7","50593","0.0-7.0","A1T0ND039EWAVV","img_art/ins/popularity/ins2Extreme.png","0","instructions","","","","","","","","","","","","","","","","","","","","","","","",""
"846","","image-button-response_instructions","8","51441","0.0-8.0","A1T0ND039EWAVV","img_art/ins/popularity/ins3KEEPpop.PNG","0","instructions","","","","","","","","","","","","","","","","","","","","","","","",""
"1804","","image-button-response_instructions","9","53247","0.0-9.0","A1T0ND039EWAVV","img_art/ins/popularity/ins3ANamepop.PNG","0","instructions","","","","","","","","","","","","","","","","","","","","","","","",""
"937","","image-button-response_instructions","10","54186","0.0-10.0","A1T0ND039EWAVV","img_art/ins/popularity/ins3ARatingpop.png","0","instructions","","","","","","","","","","","","","","","","","","","","","","","",""
"757","","image-button-response_instructions","11","54944","0.0-11.0","A1T0ND039EWAVV","img_art/ins/popularity/ins3ATextpop.png","0","instructions","","","","","","","","","","","","","","","","","","","","","","","",""
"5388","","image-button-response_instructions","12","60333","0.0-12.0","A1T0ND039EWAVV","img_art/ins/popularity/ins3ALikespop.png","0","instructions","","","","","","","","","","","","","","","","","","","","","","","",""
"1271","","image-button-response_instructions","13","61607","0.0-13.0","A1T0ND039EWAVV","img_art/ins/popularity/ins3KEEPpop.PNG","0","instructions","","","","","","","","","","","","","","","","","","","","","","","",""
"3384","","image-button-response_instructions","14","64993","0.0-14.0","A1T0ND039EWAVV","img_art/ins/popularity/ins3_5RED.png","0","instructions","","","","","","","","","","","","","","","","","","","","","","","",""
"2855","","image-button-response_instructions","15","67850","0.0-15.0","A1T0ND039EWAVV","img_art/ins/popularity/ins3KEEPpop.PNG","0","instructions","","","","","","","","","","","","","","","","","","","","","","","",""
"943","","image-button-response_instructions","16","68794","0.0-16.0","A1T0ND039EWAVV","img_art/ins/popularity/ins4KEEPpop.PNG","0","instructions","","","","","","","","","","","","","","","","","","","","","","","",""
"789","","image-button-response_instructions","17","69585","0.0-17.0","A1T0ND039EWAVV","img_art/ins/popularity/ins5KEEPpop.PNG","0","instructions","","","","","","","","","","","","","","","","","","","","","","","",""
"648","","image-button-response_instructions","18","70236","0.0-18.0","A1T0ND039EWAVV","","0","instructions","","","","","","","","","","","","","","","","","","","","","","","",""
"4546","","survey-text","19","74822","0.0-19.0-0.0","A1T0ND039EWAVV","","","","{""Q0"":""but""}","","","","","","","","","","","","","","","","","","","","","","",""
"9186","","survey-text","20","84011","0.0-20.0-0.0","A1T0ND039EWAVV","","","","{""Q0"":""It reminds me of neopolitan ice cream""}","","","","","","","","","","","","","","","","","","","","","","",""
"4269.300000011921","","image-slider-response","21","88284","0.0-21.0","A1T0ND039EWAVV","","","","","-21","","","","","","","","","","","","","","","","","","","","","",""
"null","","image-button-response","22","93290","0.0-22.0","A1T0ND039EWAVV","img_art/ins/1.jpg","null","","","","","","","","","","","","","","","","","","","","","","","","",""
"12114","","image-button-response","23","105406","0.0-23.0","A1T0ND039EWAVV","img_art/ins/1.jpg","4","","","","","","","","","","","","","","","","","","","","","","","","",""
"4144","","image-button-response","24","109555","0.0-24.0-0.0","A1T0ND039EWAVV","img_art/ins/1.jpg","1","","","","","","","","","","","","","","","","","","","","","","","","",""
"3377","","image-button-response","25","112937","0.0-25.0-0.0","A1T0ND039EWAVV","img_art/ins/1.jpg","5","","","","","","","","","","","","","","","","","","","","","","","","",""
"null","","html-keyboard-response","26","114440","0.0-26.0","A1T0ND039EWAVV","<p style=""font-size: 48px;"">+</p>","","","","","null","allTrialResponses","1500","1","-2","img_art/ins/1.jpg","-21","It reminds me of neopolitan ice cream","Allison,Ashley,Beth,Dora,Erika,Jen","looks like a lot of things going on in the mist,20,20,20","I just don't get why these type of art would be popular,-32,40,20","This color reminds me of poo,-46,60,20","looks like what my niece in 3rd grade did this afternoon,-50,80,20","I like the sophisticated brushwork,40,100,20","It reminds me of a candy land dream I had,36,120,20","Erika","I like the sophisticated brushwork,40,100,20","Ashley","I just don't get why these type of art would be popular,-32,40,20","Jen","It reminds me of a candy land dream I had,36,120,20","0"
"10156","","survey-text","27","124602","0.0-27.0-0.0","A1T0ND039EWAVV","","","","{""Q0"":""I love the thick texture and color scheme""}","","","","","","","","","","","","","","","","","","","","","","",""
"3008.100000023842","","image-slider-response","28","127613","0.0-28.0","A1T0ND039EWAVV","","","","","21","","","","","","","","","","","","","","","","","","","","","",""
"3721","","image-button-response","29","132618","0.0-29.0","A1T0ND039EWAVV","img_art/ins/2.jpg","0","","","","","","","","","","","","","","","","","","","","","","","","",""
"1358","","image-button-response","30","133979","0.0-30.0","A1T0ND039EWAVV","img_art/ins/2.jpg","4","","","","","","","","","","","","","","","","","","","","","","","","",""
"2626","","image-button-response","31","136609","0.0-31.0-0.0","A1T0ND039EWAVV","img_art/ins/2.jpg","0","","","","","","","","","","","","","","","","","","","","","","","","",""
"1254","","image-button-response","32","137868","0.0-32.0-0.0","A1T0ND039EWAVV","img_art/ins/2.jpg","0","","","","","","","","","","","","","","","","","","","","","","","","",""
"681","","image-button-response","33","143812","0.0-32.1-0.1","A1T0ND039EWAVV","img_art/ins/2.jpg","5","","","","","","","","","","","","","","","","","","","","","","","","",""
"null","","html-keyboard-response","34","145314","0.0-33.0","A1T0ND039EWAVV","<p style=""font-size: 48px;"">+</p>","","","","","null","allTrialResponses","1500","1","-1","img_art/ins/2.jpg","21","I love the thick texture and color scheme","Kara,Ashley,Katie,Jenna,Erika,Jen","I like the blocks of color arrangements,30,160,20","Idk, it is just annoying,-32,40,20","too much color!,-28,180,20","One of my pet peevs,-48,140,20","I would never be able to compose a sophisticated pallete like this,48,100,20","It reminds me of a fireplace,36,120,20","Erika","I would never be able to compose a sophisticated pallete like this,48,100,20","Kara","I like the blocks of color arrangements,30,160,20","Jen","It reminds me of a fireplace,36,120,20","2"
"8999","","survey-text","35","154320","0.0-34.0-0.0","A1T0ND039EWAVV","","","","{""Q0"":""I like how cool it feels like it's a winter wonderland""}","","","","","","","","","","","","","","","","","","","","","","",""
"7692.200000047684","","image-slider-response","36","162015","0.0-35.0","A1T0ND039EWAVV","","","","","21","","","","","","","","","","","","","","","","","","","","","",""
"693","","image-button-response","37","167019","0.0-36.0","A1T0ND039EWAVV","img_art/ins/3.jpg","1","","","","","","","","","","","","","","","","","","","","","","","","",""
"1527","","image-button-response","38","168549","0.0-37.0","A1T0ND039EWAVV","img_art/ins/3.jpg","2","","","","","","","","","","","","","","","","","","","","","","","","",""
"1531","","image-button-response","39","170084","0.0-38.0-0.0","A1T0ND039EWAVV","img_art/ins/3.jpg","1","","","","","","","","","","","","","","","","","","","","","","","","",""
"1141","","image-button-response","40","171230","0.0-39.0-0.0","A1T0ND039EWAVV","img_art/ins/3.jpg","3","","","","","","","","","","","","","","","","","","","","","","","","",""
"null","","html-keyboard-response","41","171732","0.0-40.0","A1T0ND039EWAVV","<p style=""font-size: 48px;"">+</p>","","","","","null","allTrialResponses","500","1","0","img_art/ins/3.jpg","21","I like how cool it feels like it's a winter wonderland","Kara,Rose,Mary,Leslie,Erika,Jen","calming blue is very nice,36,160,20","My daily routine, it's depressing,-20,240,20","I like the overlapping of brushes,41,220,20","It's an alright work,15,200,20","I feel connected to the artist,40,100,20","I can feel a rainy day from this painting,18,120,20","Mary","I like the overlapping of brushes,41,220,20","Rose","My daily routine, it's depressing,-20,240,20","Leslie","It's an alright work,15,200,20","2"
"2544","","image-button-response_instructions","42","174281","0.0-41.0","A1T0ND039EWAVV","","0","instructions","","","","","","","","","","","","","","","","","","","","","","","",""
"5604","","survey-likert","43","179888","0.0-42.0-0.0","A1T0ND039EWAVV","","","","{""Q0"":"""",""Q1"":0,""Q2"":0}","","","","","","","","","","","","","","","","","","","","","","",""
"1826","","survey-likert","44","183427","0.0-42.1-0.1","A1T0ND039EWAVV","","","","{""Q0"":"""",""Q1"":"""",""Q2"":1}","","","","","","","","","","","","","","","","","","","","","","",""
"2686","","survey-text","45","186123","0.0-43.0-0.0","A1T0ND039EWAVV","","","","{""Q0"":""rock""}","","","","","","","","","","","","","","","","","","","","","","",""
"8662","","survey-text","46","194789","0.0-44.0-0.0","A1T0ND039EWAVV","","","","{""Q0"":""I think it would be great for a children's bedroom""}","","","","","","","","","","","","","","","","","","","","","","",""
"8123.900000035763","","image-slider-response","47","202916","0.0-45.0","A1T0ND039EWAVV","","","","","23","","","","","","","","","","","","","","","","","","","","","",""
"2017","","image-button-response","48","207952","0.0-46.0","A1T0ND039EWAVV","img_art/16.jpg","3","","","","","","","","","","","","","","","","","","","","","","","","",""
"274","","image-button-response","49","208230","0.0-47.0","A1T0ND039EWAVV","img_art/16.jpg","0","","","","","","","","","","","","","","","","","","","","","","","","",""
"1758","","image-button-response","50","209990","0.0-48.0-0.0","A1T0ND039EWAVV","img_art/16.jpg","2","","","","","","","","","","","","","","","","","","","","","","","","",""
"4228","","image-button-response","51","214223","0.0-49.0-0.0","A1T0ND039EWAVV","img_art/16.jpg","4","","","","","","","","","","","","","","","","","","","","","","","","",""
"null","","html-keyboard-response","52","215226","0.0-50.0","A1T0ND039EWAVV","<p style=""font-size: 48px;"">+</p>","","","","","null","allTrialResponses","1000","1","1","img_art/16.jpg","23","I think it would be great for a children's bedroom","Vanessa,Kylie,Grace,Lindsey,Caitlin,Breanna","This is too bizarre.,-39,380,20","Mixed feelings. Warm and comfy yet somewhat violent. A stark contrast,0,300,20","Something terrible happened. Either the figure on the right is the victim or another shredded toy.,-49,180,20","It's depressing. Probably achieved its goal. But I wouldn't want it hanging in my home.,-31,400,20","It is sick to put a teddy bear and a gun on the same piece of canvas.,-40,80,20","The bear is terrifying,-50,380,20","Vanessa","This is too bizarre.,-39,380,20","Grace","Something terrible happened. Either the figure on the right is the victim or another shredded toy.,-49,180,20","Caitlin","It is sick to put a teddy bear and a gun on the same piece of canvas.,-40,80,20","3"
"11448","","survey-text","53","226679","0.0-51.0-0.0","A1T0ND039EWAVV","","","","{""Q0"":""It's a very calming piece with good energy""}","","","","","","","","","","","","","","","","","","","","","","",""
"7862.099999964237","","image-slider-response","54","234546","0.0-52.0","A1T0ND039EWAVV","","","","","26","","","","","","","","","","","","","","","","","","","","","",""
"3943","","image-button-response","55","239550","0.0-53.0","A1T0ND039EWAVV","img_art/9.jpg","5","","","","","","","","","","","","","","","","","","","","","","","","",""
"1596","","image-button-response","56","241150","0.0-54.0","A1T0ND039EWAVV","img_art/9.jpg","1","","","","","","","","","","","","","","","","","","","","","","","","",""
"1696","","image-button-response","57","242849","0.0-55.0-0.0","A1T0ND039EWAVV","img_art/9.jpg","0","","","","","","","","","","","","","","","","","","","","","","","","",""
"1332","","image-button-response","58","244185","0.0-56.0-0.0","A1T0ND039EWAVV","img_art/9.jpg","0","","","","","","","","","","","","","","","","","","","","","","","","",""
"1007","","image-button-response","59","248434","0.0-56.1-0.1","A1T0ND039EWAVV","img_art/9.jpg","3","","","","","","","","","","","","","","","","","","","","","","","","",""
"null","","html-keyboard-response","60","249939","0.0-57.0","A1T0ND039EWAVV","<p style=""font-size: 48px;"">+</p>","","","","","null","allTrialResponses","1500","1","2","img_art/9.jpg","26","It's a very calming piece with good energy","Vanessa,Alicia,Grace,Savannah,Caitlin,Laura","It's too abstract for my taste. I wish there were more definition.,-9,380,20","Abstract titanic scene. It's nice though. I like how it makes me feel.,28,120,20","Huh?  Doesn't invoke much.,-37,180,20","Unfinished, weird composition.,-34,200,20","Caveman. Not for my walls.,-5,80,20","autopsy, morgue, dead corpses - don't like the flesh tones,-43,320,20","Alicia","Abstract titanic scene. It's nice though. I like how it makes me feel.,28,120,20","Vanessa","It's too abstract for my taste. I wish there were more definition.,-9,380,20","Savannah","Unfinished, weird composition.,-34,200,20","5"
"13767","","survey-text","61","263712","0.0-58.0-0.0","A1T0ND039EWAVV","","","","{""Q0"":""It gives me a feeling of excitement and adventure""}","","","","","","","","","","","","","","","","","","","","","","",""
"7064.100000023842","","image-slider-response","62","270779","0.0-59.0","A1T0ND039EWAVV","","","","","18","","","","","","","","","","","","","","","","","","","","","",""
"4851","","image-button-response","63","275783","0.0-60.0","A1T0ND039EWAVV","img_art/21.jpg","5","","","","","","","","","","","","","","","","","","","","","","","","",""
"4946","","image-button-response","64","280731","0.0-61.0","A1T0ND039EWAVV","img_art/21.jpg","2","","","","","","","","","","","","","","","","","","","","","","","","",""
"1771","","image-button-response","65","282506","0.0-62.0-0.0","A1T0ND039EWAVV","img_art/21.jpg","4","","","","","","","","","","","","","","","","","","","","","","","","",""
"1373","","image-button-response","66","283884","0.0-63.0-0.0","A1T0ND039EWAVV","img_art/21.jpg","3","","","","","","","","","","","","","","","","","","","","","","","","",""
"null","","html-keyboard-response","67","284886","0.0-64.0","A1T0ND039EWAVV","<p style=""font-size: 48px;"">+</p>","","","","","null","allTrialResponses","1000","1","3","img_art/21.jpg","18","It gives me a feeling of excitement and adventure","Vanessa,Alicia,Caroline,Savannah,Claire,Courtney","The colors and softness work together to make something that's lovely.,42,380,20","Don't know why I like it, cant describe, maybe many landscapes?,47,120,20","the colors are pretty but I did not feel any thing looking at it,33,100,20","Almost appears like the background of an old renaissance painting.,40,200,20","i enjoy the clash of colors, reminds me of a storm at sea,32,260,20","Another ship on fire.,-10,280,20","Caroline","the colors are pretty but I did not feel any thing looking at it,33,100,20","Claire","i enjoy the clash of colors, reminds me of a storm at sea,32,260,20","Savannah","Almost appears like the background of an old renaissance painting.,40,200,20","5"
"40772","","survey-text","68","325665","0.0-65.0-0.0","A1T0ND039EWAVV","","","","{""Q0"":""It feels like a raging storm in the sea ""}","","","","","","","","","","","","","","","","","","","","","","",""
"6843.5","","image-slider-response","69","332517","0.0-66.0","A1T0ND039EWAVV","","","","","39","","","","","","","","","","","","","","","","","","","","","",""
"1906","","image-button-response","70","337522","0.0-67.0","A1T0ND039EWAVV","img_art/18.jpg","1","","","","","","","","","","","","","","","","","","","","","","","","",""
"92","","image-button-response","71","337616","0.0-68.0","A1T0ND039EWAVV","img_art/18.jpg","4","","","","","","","","","","","","","","","","","","","","","","","","",""
"2304","","image-button-response","72","339923","0.0-69.0-0.0","A1T0ND039EWAVV","img_art/18.jpg","5","","","","","","","","","","","","","","","","","","","","","","","","",""
"3307","","image-button-response","73","343234","0.0-70.0-0.0","A1T0ND039EWAVV","img_art/18.jpg","0","","","","","","","","","","","","","","","","","","","","","","","","",""
"null","","html-keyboard-response","74","344236","0.0-71.0","A1T0ND039EWAVV","<p style=""font-size: 48px;"">+</p>","","","","","null","allTrialResponses","1000","1","4","img_art/18.jpg","39","It feels like a raging storm in the sea ","Diana,Erin,Caroline,Savannah,Claire,Ashley","This painting reminds me of the 4 horsemen of the apocalypse. It feels haunting.,31,380,20","See a weird horse,-22,120,20","I think of the ocean and a boat tossed about on the waves. In the upper left is a figure. It is pleasant,30,100,20","Accents make this piece.,21,200,20","reminds me of greek mythology,22,260,20","Resembles a ship at sea, storm of activity.,28,320,20","Claire","reminds me of greek mythology,22,260,20","Ashley","Resembles a ship at sea, storm of activity.,28,320,20","Diana","This painting reminds me of the 4 horsemen of the apocalypse. It feels haunting.,31,380,20","5"
"13603","","survey-text","75","357846","0.0-72.0-0.0","A1T0ND039EWAVV","","","","{""Q0"":""It feels like a painting you would see on a wall of a yoga studio""}","","","","","","","","","","","","","","","","","","","","","","",""
"8021.800000011921","","image-slider-response","76","365872","0.0-73.0","A1T0ND039EWAVV","","","","","9","","","","","","","","","","","","","","","","","","","","","",""
"2402","","image-button-response","77","370876","0.0-74.0","A1T0ND039EWAVV","img_art/17.jpg","1","","","","","","","","","","","","","","","","","","","","","","","","",""
"1681","","image-button-response","78","372561","0.0-75.0","A1T0ND039EWAVV","img_art/17.jpg","4","","","","","","","","","","","","","","","","","","","","","","","","",""
"2524","","image-button-response","79","375089","0.0-76.0-0.0","A1T0ND039EWAVV","img_art/17.jpg","5","","","","","","","","","","","","","","","","","","","","","","","","",""
"2592","","image-button-response","80","377686","0.0-77.0-0.0","A1T0ND039EWAVV","img_art/17.jpg","3","","","","","","","","","","","","","","","","","","","","","","","","",""
"null","","html-keyboard-response","81","378189","0.0-78.0","A1T0ND039EWAVV","<p style=""font-size: 48px;"">+</p>","","","","","null","allTrialResponses","500","1","5","img_art/17.jpg","9","It feels like a painting you would see on a wall of a yoga studio","Diana,Jennifer,Shelby,Morgan,Claire,Ashley","I really enjoyed this piece, it's a play on bringing the outside indoors.,32,380,20","Very elegant, this design reminds me of trees,31,380,20","This feels like creativity and limitlessness,30,240,20","Tree of knowledge in a quiet school.,17,380,20","its whimsical and light,50,260,20","taste the rainbow, feel the flavor.,23,320,20","Claire","its whimsical and light,50,260,20","Ashley","taste the rainbow, feel the flavor.,23,320,20","Morgan","Tree of knowledge in a quiet school.,17,380,20","5"
"5189","","survey-text","82","383391","0.0-79.0-0.0","A1T0ND039EWAVV","","","","{""Q0"":""sky""}","","","","","","","","","","","","","","","","","","","","","","",""
"17325","","survey-text","83","400720","0.0-80.0-0.0","A1T0ND039EWAVV","","","","{""Q0"":""Gives me a feeling of snakes and another dimension""}","","","","","","","","","","","","","","","","","","","","","","",""
"4990.699999988079","","image-slider-response","84","405714","0.0-81.0","A1T0ND039EWAVV","","","","","-22","","","","","","","","","","","","","","","","","","","","","",""
"2730","","image-button-response","85","410718","0.0-82.0","A1T0ND039EWAVV","img_art/30.jpg","3","","","","","","","","","","","","","","","","","","","","","","","","",""
"2728","","image-button-response","86","413450","0.0-83.0","A1T0ND039EWAVV","img_art/30.jpg","5","","","","","","","","","","","","","","","","","","","","","","","","",""
"3442","","image-button-response","87","416895","0.0-84.0-0.0","A1T0ND039EWAVV","img_art/30.jpg","1","","","","","","","","","","","","","","","","","","","","","","","","",""
"1284","","image-button-response","88","418183","0.0-85.0-0.0","A1T0ND039EWAVV","img_art/30.jpg","0","","","","","","","","","","","","","","","","","","","","","","","","",""
"null","","html-keyboard-response","89","419186","0.0-86.0","A1T0ND039EWAVV","<p style=""font-size: 48px;"">+</p>","","","","","null","allTrialResponses","1000","1","6","img_art/30.jpg","-22","Gives me a feeling of snakes and another dimension","Amanda,Angelica,Kathryn,Morgan,Claire,Ashley","Love how the red stands out,20,180,20","This is just simple and ugly.,-2,280,20","It's like a child's art piece: carefree and not trying to conform to anything.,10,140,20","Sleek eel in the abstract ocean.,30,380,20","too segmented, looks sloppy,-37,260,20","Decent abstract art, ncie colors.,23,320,20","Ashley","Decent abstract art, ncie colors.,23,320,20","Angelica","This is just simple and ugly.,-2,280,20","Amanda","Love how the red stands out,20,180,20","5"
"10813","","survey-text","90","430005","0.0-87.0-0.0","A1T0ND039EWAVV","","","","{""Q0"":""I'm interested in the texture, it looks like a wall""}","","","","","","","","","","","","","","","","","","","","","","",""
"14332.599999964237","","image-slider-response","91","444340","0.0-88.0","A1T0ND039EWAVV","","","","","32","","","","","","","","","","","","","","","","","","","","","",""
"null","","image-button-response","92","449345","0.0-89.0","A1T0ND039EWAVV","img_art/7.jpg","null","","","","","","","","","","","","","","","","","","","","","","","","",""
"3954","","image-button-response","93","453301","0.0-90.0","A1T0ND039EWAVV","img_art/7.jpg","1","","","","","","","","","","","","","","","","","","","","","","","","",""
"2202","","image-button-response","94","455508","0.0-91.0-0.0","A1T0ND039EWAVV","img_art/7.jpg","3","","","","","","","","","","","","","","","","","","","","","","","","",""
"5046","","image-button-response","95","460559","0.0-92.0-0.0","A1T0ND039EWAVV","img_art/7.jpg","4","","","","","","","","","","","","","","","","","","","","","","","","",""
"null","","html-keyboard-response","96","461562","0.0-93.0","A1T0ND039EWAVV","<p style=""font-size: 48px;"">+</p>","","","","","null","allTrialResponses","1000","1","7","img_art/7.jpg","32","I'm interested in the texture, it looks like a wall","Amanda,Angelica,Megan,Jessica,Shannon,Ashley","I hate everything about this painting from the cors to it looking like a war,-50,180,20","This is vague and ugly.,-3,280,20","Great portrayal of solid surface,19,200,20","Looks like a natural texture, reminds me of rocks.,0,400,20","I don't like the repetitiveness of the colors, and I think there should be more colors.,-50,220,20","landscape of amrs, yawn.,-25,320,20","Angelica","This is vague and ugly.,-3,280,20","Jessica","Looks like a natural texture, reminds me of rocks.,0,400,20","Shannon","I don't like the repetitiveness of the colors, and I think there should be more colors.,-50,220,20","5"
"15710","","survey-text","97","477280","0.0-94.0-0.0","A1T0ND039EWAVV","","","","{""Q0"":""It's like a cave painting that indicates something spiritual""}","","","","","","","","","","","","","","","","","","","","","","",""
"7568.5","","image-slider-response","98","484852","0.0-95.0","A1T0ND039EWAVV","","","","","-17","","","","","","","","","","","","","","","","","","","","","",""
"null","","image-button-response","99","489859","0.0-96.0","A1T0ND039EWAVV","img_art/25.jpg","null","","","","","","","","","","","","","","","","","","","","","","","","",""
"332","","image-button-response","100","490194","0.0-97.0","A1T0ND039EWAVV","img_art/25.jpg","1","","","","","","","","","","","","","","","","","","","","","","","","",""
"1643","","image-button-response","101","491840","0.0-98.0-0.0","A1T0ND039EWAVV","img_art/25.jpg","2","","","","","","","","","","","","","","","","","","","","","","","","",""
"2120","","image-button-response","102","493965","0.0-99.0-0.0","A1T0ND039EWAVV","img_art/25.jpg","4","","","","","","","","","","","","","","","","","","","","","","","","",""
"null","","html-keyboard-response","103","494468","0.0-100.0","A1T0ND039EWAVV","<p style=""font-size: 48px;"">+</p>","","","","","null","allTrialResponses","500","1","8","img_art/25.jpg","-17","It's like a cave painting that indicates something spiritual","Jacqueline,Angelica,Margaret,Jessica,Shannon,Christina","Not particularly interesting for me. The green color is strange mixed with this.,-11,300,20","This is strange and poorly done.,-2,280,20","love the color and the contrast of the black on teal,50,100,20","I really like how the lines form this piece.,8,400,20","I like the way the persons clothes look, there could be more color though.,10,220,20","nice colors and it looks like a native work,32,240,20","Angelica","This is strange and poorly done.,-2,280,20","Margaret","love the color and the contrast of the black on teal,50,100,20","Shannon","I like the way the persons clothes look, there could be more color though.,10,220,20","5"
"12766","","survey-text","104","507242","0.0-101.0-0.0","A1T0ND039EWAVV","","","","{""Q0"":""Reminds me of raindrops and a wet window""}","","","","","","","","","","","","","","","","","","","","","","",""
"3920.699999988079","","image-slider-response","105","511166","0.0-102.0","A1T0ND039EWAVV","","","","","26","","","","","","","","","","","","","","","","","","","","","",""
"1579","","image-button-response","106","516170","0.0-103.0","A1T0ND039EWAVV","img_art/13.jpg","1","","","","","","","","","","","","","","","","","","","","","","","","",""
"1020","","image-button-response","107","517193","0.0-104.0","A1T0ND039EWAVV","img_art/13.jpg","4","","","","","","","","","","","","","","","","","","","","","","","","",""
"1194","","image-button-response","108","518391","0.0-105.0-0.0","A1T0ND039EWAVV","img_art/13.jpg","5","","","","","","","","","","","","","","","","","","","","","","","","",""
"2096","","image-button-response","109","520491","0.0-106.0-0.0","A1T0ND039EWAVV","img_art/13.jpg","2","","","","","","","","","","","","","","","","","","","","","","","","",""
"null","","html-keyboard-response","110","521995","0.0-107.0","A1T0ND039EWAVV","<p style=""font-size: 48px;"">+</p>","","","","","null","allTrialResponses","1500","1","9","img_art/13.jpg","26","Reminds me of raindrops and a wet window","Kaitlin,Angelica,Margaret,Marissa,Shannon,Erica","I like this picture. The choice of colors are good,31,60,20","It's too violent looking and there's too much contrast between the white/black.,-21,280,20","i like the splatters and the colors,21,100,20","It reminds me of looking out the window on a stormy night at cars drive by,21,160,20","It looks like someone splattered a bunch of different colors to make a picture; I think its ugly.,-40,220,20","Messy but organised, helps me to relax and observe,8,80,20","Shannon","It looks like someone splattered a bunch of different colors to make a picture; I think its ugly.,-40,220,20","Erica","Messy but organised, helps me to relax and observe,8,80,20","Margaret","i like the splatters and the colors,21,100,20","5"
"11759","","survey-text","111","533761","0.0-108.0-0.0","A1T0ND039EWAVV","","","","{""Q0"":""It looks like a forest with children playing in it""}","","","","","","","","","","","","","","","","","","","","","","",""
"5926","","image-slider-response","112","539690","0.0-109.0","A1T0ND039EWAVV","","","","","19","","","","","","","","","","","","","","","","","","","","","",""
"4335","","image-button-response","113","544694","0.0-110.0","A1T0ND039EWAVV","img_art/27.jpg","4","","","","","","","","","","","","","","","","","","","","","","","","",""
"1266","","image-button-response","114","545963","0.0-111.0","A1T0ND039EWAVV","img_art/27.jpg","0","","","","","","","","","","","","","","","","","","","","","","","","",""
"1180","","image-button-response","115","547147","0.0-112.0-0.0","A1T0ND039EWAVV","img_art/27.jpg","1","","","","","","","","","","","","","","","","","","","","","","","","",""
"1862","","image-button-response","116","549013","0.0-113.0-0.0","A1T0ND039EWAVV","img_art/27.jpg","3","","","","","","","","","","","","","","","","","","","","","","","","",""
"null","","html-keyboard-response","117","550516","0.0-114.0","A1T0ND039EWAVV","<p style=""font-size: 48px;"">+</p>","","","","","null","allTrialResponses","1500","1","10","img_art/27.jpg","19","It looks like a forest with children playing in it","Madeline,Mary,Margaret,Destiny,Shannon,Erica","Looks like the green bits were added on later,-1,40,20","I like the layer upon layer of different mediums used here.,21,180,20","this is ugly and does nothing for me,-35,100,20","demon vs angel brawl over lemon lime sprite,-10,360,20","This image could do a better job of showing what is going on and it could use more colors.,-42,220,20","I like the pictures but it is a lot of going on,10,80,20","Madeline","Looks like the green bits were added on later,-1,40,20","Mary","I like the layer upon layer of different mediums used here.,21,180,20","Destiny","demon vs angel brawl over lemon lime sprite,-10,360,20","5"
"5642","","survey-text","118","556169","0.0-115.0-0.0","A1T0ND039EWAVV","","","","{""Q0"":""our""}","","","","","","","","","","","","","","","","","","","","","","",""
"10917","","survey-text","119","567089","0.0-116.0-0.0","A1T0ND039EWAVV","","","","{""Q0"":""I feel like it's a hand that doesn't know what it's doing""}","","","","","","","","","","","","","","","","","","","","","","",""
"4532.100000023842","","image-slider-response","120","571625","0.0-117.0","A1T0ND039EWAVV","","","","","-31","","","","","","","","","","","","","","","","","","","","","",""
"2343","","image-button-response","121","576629","0.0-118.0","A1T0ND039EWAVV","img_art/4.jpg","1","","","","","","","","","","","","","","","","","","","","","","","","",""
"3050","","image-button-response","122","579683","0.0-119.0","A1T0ND039EWAVV","img_art/4.jpg","4","","","","","","","","","","","","","","","","","","","","","","","","",""
"1830","","image-button-response","123","581517","0.0-120.0-0.0","A1T0ND039EWAVV","img_art/4.jpg","5","","","","","","","","","","","","","","","","","","","","","","","","",""
"1506","","image-button-response","124","583027","0.0-121.0-0.0","A1T0ND039EWAVV","img_art/4.jpg","0","","","","","","","","","","","","","","","","","","","","","","","","",""
"null","","html-keyboard-response","125","584030","0.0-122.0","A1T0ND039EWAVV","<p style=""font-size: 48px;"">+</p>","","","","","null","allTrialResponses","1000","1","11","img_art/4.jpg","-31","I feel like it's a hand that doesn't know what it's doing","Madeline,Mary,Allison,Destiny,Cassandra,Danielle","Not impressed really,-20,40,20","This looks like a child got into his diaper.,-46,180,20","McDonald's French Fries.,-10,140,20","it looks like a preschooler just dragged his fingers around,-36,360,20","I don't like this...a mustardy scibble.,-47,120,20","Not my preference when it comes to art styles or subjects,-10,340,20","Cassandra","I don't like this...a mustardy scibble.,-47,120,20","Danielle","Not my preference when it comes to art styles or subjects,-10,340,20","Madeline","Not impressed really,-20,40,20","5"
"8081","","survey-text","126","592118","0.0-123.0-0.0","A1T0ND039EWAVV","","","","{""Q0"":""Seems like a guitar lying in the rain""}","","","","","","","","","","","","","","","","","","","","","","",""
"3194.900000035763","","image-slider-response","127","595316","0.0-124.0","A1T0ND039EWAVV","","","","","-18","","","","","","","","","","","","","","","","","","","","","",""
"3102","","image-button-response","128","600320","0.0-125.0","A1T0ND039EWAVV","img_art/10.jpg","4","","","","","","","","","","","","","","","","","","","","","","","","",""
"1103","","image-button-response","129","601425","0.0-126.0","A1T0ND039EWAVV","img_art/10.jpg","4","","","","","","","","","","","","","","","","","","","","","","","","",""
"1840","","image-button-response","130","603268","0.0-127.0-0.0","A1T0ND039EWAVV","img_art/10.jpg","2","","","","","","","","","","","","","","","","","","","","","","","","",""
"1824","","image-button-response","131","605096","0.0-128.0-0.0","A1T0ND039EWAVV","img_art/10.jpg","1","","","","","","","","","","","","","","","","","","","","","","","","",""
"null","","html-keyboard-response","132","605598","0.0-129.0","A1T0ND039EWAVV","<p style=""font-size: 48px;"">+</p>","","","","","null","allTrialResponses","500","1","12","img_art/10.jpg","-18","Seems like a guitar lying in the rain","Madeline,Kimberly,Miranda,Mariah,Cassandra,Danielle","Looks a bit as though someone ran over it?,-13,40,20","Also too all over the place, I don't see any pattern or anything that's supposed to stand out,-19,260,20","It reminds me of how my dog has to run all over the place just to poop in one specific location.,-20,320,20","The colors and shapes are soothing but also disconcerting.,21,140,20","I liked it...it looked somewhat like a guitar.,32,120,20","Seems very lovecraftian, which I love that style,25,340,20","Cassandra","I liked it...it looked somewhat like a guitar.,32,120,20","Miranda","It reminds me of how my dog has to run all over the place just to poop in one specific location.,-20,320,20","Kimberly","Also too all over the place, I don't see any pattern or anything that's supposed to stand out,-19,260,20","5"
"8175","","survey-text","133","613780","0.0-130.0-0.0","A1T0ND039EWAVV","","","","{""Q0"":""I like the way the colors blend together""}","","","","","","","","","","","","","","","","","","","","","","",""
"5269","","image-slider-response","134","619052","0.0-131.0","A1T0ND039EWAVV","","","","","19","","","","","","","","","","","","","","","","","","","","","",""
"2809","","image-button-response","135","624056","0.0-132.0","A1T0ND039EWAVV","img_art/22.jpg","5","","","","","","","","","","","","","","","","","","","","","","","","",""
"505","","image-button-response","136","624564","0.0-133.0","A1T0ND039EWAVV","img_art/22.jpg","0","","","","","","","","","","","","","","","","","","","","","","","","",""
"2105","","image-button-response","137","626672","0.0-134.0-0.0","A1T0ND039EWAVV","img_art/22.jpg","2","","","","","","","","","","","","","","","","","","","","","","","","",""
"2135","","image-button-response","138","628811","0.0-135.0-0.0","A1T0ND039EWAVV","img_art/22.jpg","3","","","","","","","","","","","","","","","","","","","","","","","","",""
"null","","html-keyboard-response","139","629314","0.0-136.0","A1T0ND039EWAVV","<p style=""font-size: 48px;"">+</p>","","","","","null","allTrialResponses","500","1","13","img_art/22.jpg","19","I like the way the colors blend together","Amy,Kimberly,Miranda,Rebecca,Cassandra,Nicole","I appreciate the shapes but the abundance of primary colors make it seem garrish.,-10,220,20","I like the key near the sphere in the center,19,260,20","Its very warm, it reminds of someone not liking their painting so they destoryed it,26,320,20","colorful water (in front of castle?),17,100,20","Don't like it...too much red,-17,120,20","The warm and color colors together in this way feels exciting,39,20,20","Amy","I appreciate the shapes but the abundance of primary colors make it seem garrish.,-10,220,20","Miranda","Its very warm, it reminds of someone not liking their painting so they destoryed it,26,320,20","Rebecca","colorful water (in front of castle?),17,100,20","5"
"8195","","survey-text","140","637518","0.0-137.0-0.0","A1T0ND039EWAVV","","","","{""Q0"":""It gives me the feel of a jazz club""}","","","","","","","","","","","","","","","","","","","","","","",""
"4960.399999976158","","image-slider-response","141","642482","0.0-138.0","A1T0ND039EWAVV","","","","","34","","","","","","","","","","","","","","","","","","","","","",""
"2761","","image-button-response","142","647486","0.0-139.0","A1T0ND039EWAVV","img_art/28.jpg","0","","","","","","","","","","","","","","","","","","","","","","","","",""
"697","","image-button-response","143","648186","0.0-140.0","A1T0ND039EWAVV","img_art/28.jpg","3","","","","","","","","","","","","","","","","","","","","","","","","",""
"1534","","image-button-response","144","649724","0.0-141.0-0.0","A1T0ND039EWAVV","img_art/28.jpg","5","","","","","","","","","","","","","","","","","","","","","","","","",""
"1909","","image-button-response","145","651636","0.0-142.0-0.0","A1T0ND039EWAVV","img_art/28.jpg","1","","","","","","","","","","","","","","","","","","","","","","","","",""
"null","","html-keyboard-response","146","652640","0.0-143.0","A1T0ND039EWAVV","<p style=""font-size: 48px;"">+</p>","","","","","null","allTrialResponses","1000","1","14","img_art/28.jpg","34","It gives me the feel of a jazz club","Amy,Haley,Miranda,Rebecca,Meghan,Cheyenne","Contemplative and a little dark. The muted colors and subject create a sense of mystery.,15,220,20","I can't explain why, but I really love this one,50,220,20","This one looks very dark and seems like it has a lot of depth to it.,31,320,20","the color scheme is very well matched but i just didn't like it,-6,100,20","I don't like the color choice,-30,220,20","Good use of shapes.,7,200,20","Rebecca","the color scheme is very well matched but i just didn't like it,-6,100,20","Cheyenne","Good use of shapes.,7,200,20","Haley","I can't explain why, but I really love this one,50,220,20","5"
"11249","","survey-text","147","663896","0.0-144.0-0.0","A1T0ND039EWAVV","","","","{""Q0"":""Reminds me of a restaurant or outside market""}","","","","","","","","","","","","","","","","","","","","","","",""
"12270.800000011921","","image-slider-response","148","676170","0.0-145.0","A1T0ND039EWAVV","","","","","26","","","","","","","","","","","","","","","","","","","","","",""
"2629","","image-button-response","149","681174","0.0-146.0","A1T0ND039EWAVV","img_art/19.jpg","0","","","","","","","","","","","","","","","","","","","","","","","","",""
"726","","image-button-response","150","681903","0.0-147.0","A1T0ND039EWAVV","img_art/19.jpg","3","","","","","","","","","","","","","","","","","","","","","","","","",""
"1056","","image-button-response","151","682964","0.0-148.0-0.0","A1T0ND039EWAVV","img_art/19.jpg","5","","","","","","","","","","","","","","","","","","","","","","","","",""
"1619","","image-button-response","152","684587","0.0-149.0-0.0","A1T0ND039EWAVV","img_art/19.jpg","1","","","","","","","","","","","","","","","","","","","","","","","","",""
"null","","html-keyboard-response","153","685590","0.0-150.0","A1T0ND039EWAVV","<p style=""font-size: 48px;"">+</p>","","","","","null","allTrialResponses","1000","1","15","img_art/19.jpg","26","Reminds me of a restaurant or outside market","Maria,Haley,Makayla,Rebecca,Alexandra,Cheyenne","the way the landscape is portrayed captivates me - I enjoy studying the structure,32,120,20","I like this as a whole, but the longer I look at it, the less it pleases me,-10,220,20","Looks like hustle and bustle ,,3,80,20","interesting take on depth (reminds me of those 1000 piece puzzles),2,100,20","This photo has too much going on.,-19,60,20","Solid use of colors but wished it looked more realistic.,12,200,20","Rebecca","interesting take on depth (reminds me of those 1000 piece puzzles),2,100,20","Cheyenne","Solid use of colors but wished it looked more realistic.,12,200,20","Haley","I like this as a whole, but the longer I look at it, the less it pleases me,-10,220,20","5"
"11366","","survey-text","154","696969","0.0-151.0-0.0","A1T0ND039EWAVV","","","","{""Q0"":""course""}","","","","","","","","","","","","","","","","","","","","","","",""
"17456","","survey-text","155","714428","0.0-152.0-0.0","A1T0ND039EWAVV","","","","{""Q0"":""A yellow trash bag going out to the garbage""}","","","","","","","","","","","","","","","","","","","","","","",""
"4523.600000023842","","image-slider-response","156","718955","0.0-153.0","A1T0ND039EWAVV","","","","","-45","","","","","","","","","","","","","","","","","","","","","",""
"1970","","image-button-response","157","723959","0.0-154.0","A1T0ND039EWAVV","img_art/5.jpg","2","","","","","","","","","","","","","","","","","","","","","","","","",""
"806","","image-button-response","158","724768","0.0-155.0","A1T0ND039EWAVV","img_art/5.jpg","4","","","","","","","","","","","","","","","","","","","","","","","","",""
"1139","","image-button-response","159","725911","0.0-156.0-0.0","A1T0ND039EWAVV","img_art/5.jpg","0","","","","","","","","","","","","","","","","","","","","","","","","",""
"1071","","image-button-response","160","726986","0.0-157.0-0.0","A1T0ND039EWAVV","img_art/5.jpg","1","","","","","","","","","","","","","","","","","","","","","","","","",""
"null","","html-keyboard-response","161","727488","0.0-158.0","A1T0ND039EWAVV","<p style=""font-size: 48px;"">+</p>","","","","","null","allTrialResponses","500","1","16","img_art/5.jpg","-45","A yellow trash bag going out to the garbage","Alyssa,Haley,Cassidy,Rebecca,Melissa,Cheyenne","It has a sense of vague familiarity that i like.Like a stick starting a fire at a campsite.,30,160,20","I'm confused by what I am looking at,-3,220,20","I like these colors together and the tiny splatters, but what is this?,7,140,20","sorry not my style,-37,100,20","strong appeal in contrast,27,240,20","Very little going on.,-4,200,20","Melissa","strong appeal in contrast,27,240,20","Alyssa","It has a sense of vague familiarity that i like.Like a stick starting a fire at a campsite.,30,160,20","Haley","I'm confused by what I am looking at,-3,220,20","5"
"15219","","survey-text","162","742716","0.0-159.0-0.0","A1T0ND039EWAVV","","","","{""Q0"":""I love this ist's like a sleek modern nightclub ""}","","","","","","","","","","","","","","","","","","","","","","",""
"12599.900000035763","","image-slider-response","163","755320","0.0-160.0","A1T0ND039EWAVV","","","","","36","","","","","","","","","","","","","","","","","","","","","",""
"4739","","image-button-response","164","760324","0.0-161.0","A1T0ND039EWAVV","img_art/29.jpg","1","","","","","","","","","","","","","","","","","","","","","","","","",""
"1132","","image-button-response","165","761460","0.0-162.0","A1T0ND039EWAVV","img_art/29.jpg","3","","","","","","","","","","","","","","","","","","","","","","","","",""
"639","","image-button-response","166","762103","0.0-163.0-0.0","A1T0ND039EWAVV","img_art/29.jpg","4","","","","","","","","","","","","","","","","","","","","","","","","",""
"799","","image-button-response","167","762906","0.0-164.0-0.0","A1T0ND039EWAVV","img_art/29.jpg","2","","","","","","","","","","","","","","","","","","","","","","","","",""
"null","","html-keyboard-response","168","763409","0.0-165.0","A1T0ND039EWAVV","<p style=""font-size: 48px;"">+</p>","","","","","null","allTrialResponses","500","1","17","img_art/29.jpg","36","I love this ist's like a sleek modern nightclub ","Alyssa,Haley,Kayla,Molly,Melissa,Katelyn","Its interesting although doesnt illicit any strong emotions from me,10,160,20","Looks messy, but not in appealing way,-20,220,20","It looks like graffiti in a subway tunnel- destruction.,-20,180,20","Looks kinda scary.,25,340,20","abrasive and grotesque textures,-36,240,20","Grabs interest but then confuses me,6,100,20","Molly","Looks kinda scary.,25,340,20","Melissa","abrasive and grotesque textures,-36,240,20","Kayla","It looks like graffiti in a subway tunnel- destruction.,-20,180,20","5"
"28622","","survey-text","169","792039","0.0-166.0-0.0","A1T0ND039EWAVV","","","","{""Q0"":""It looks like an old west town, feels heavy and serious""}","","","","","","","","","","","","","","","","","","","","","","",""
"5501.800000011921","","image-slider-response","170","797545","0.0-167.0","A1T0ND039EWAVV","","","","","-29","","","","","","","","","","","","","","","","","","","","","",""
"null","","image-button-response","171","802549","0.0-168.0","A1T0ND039EWAVV","img_art/20.jpg","null","","","","","","","","","","","","","","","","","","","","","","","","",""
"1734","","image-button-response","172","804287","0.0-169.0","A1T0ND039EWAVV","img_art/20.jpg","3","","","","","","","","","","","","","","","","","","","","","","","","",""
"1233","","image-button-response","173","805524","0.0-170.0-0.0","A1T0ND039EWAVV","img_art/20.jpg","1","","","","","","","","","","","","","","","","","","","","","","","","",""
"761","","image-button-response","174","806289","0.0-171.0-0.0","A1T0ND039EWAVV","img_art/20.jpg","5","","","","","","","","","","","","","","","","","","","","","","","","",""
"null","","html-keyboard-response","175","807291","0.0-172.0","A1T0ND039EWAVV","<p style=""font-size: 48px;"">+</p>","","","","","null","allTrialResponses","1000","1","18","img_art/20.jpg","-29","It looks like an old west town, feels heavy and serious","Jasmine,Rachel,Kayla,Molly,Melissa,Paige","This one is okay but I don't really care for it,5,340,20","While interesting in technique.. It looks like a blurry car wreck. Does not evoke great emotions.,-20,80,20","Something fell over and is burning, but it's kinda dope, you know?,14,180,20","Phenomenal painting of building.,25,340,20","feels underdeveloped,-11,240,20","scared. makes me feel alone or abandoned,-11,60,20","Molly","Phenomenal painting of building.,25,340,20","Rachel","While interesting in technique.. It looks like a blurry car wreck. Does not evoke great emotions.,-20,80,20","Paige","scared. makes me feel alone or abandoned,-11,60,20","5"
"14833","","survey-text","176","822133","0.0-173.0-0.0","A1T0ND039EWAVV","","","","{""Q0"":""I get the feeling of a mother taking careof her children""}","","","","","","","","","","","","","","","","","","","","","","",""
"25119.5","","image-slider-response","177","847256","0.0-174.0","A1T0ND039EWAVV","","","","","33","","","","","","","","","","","","","","","","","","","","","",""
"null","","image-button-response","178","852260","0.0-175.0","A1T0ND039EWAVV","img_art/2.jpg","null","","","","","","","","","","","","","","","","","","","","","","","","",""
"632","","image-button-response","179","852894","0.0-176.0","A1T0ND039EWAVV","img_art/2.jpg","0","","","","","","","","","","","","","","","","","","","","","","","","",""
"665","","image-button-response","180","853561","0.0-177.0-0.0","A1T0ND039EWAVV","img_art/2.jpg","4","","","","","","","","","","","","","","","","","","","","","","","","",""
"618","","image-button-response","181","854183","0.0-178.0-0.0","A1T0ND039EWAVV","img_art/2.jpg","5","","","","","","","","","","","","","","","","","","","","","","","","",""
"null","","html-keyboard-response","182","854685","0.0-179.0","A1T0ND039EWAVV","<p style=""font-size: 48px;"">+</p>","","","","","null","allTrialResponses","500","1","19","img_art/2.jpg","33","I get the feeling of a mother taking careof her children","Catherine,Rachel,Alexandria,Molly,Isabella,Paige","Dependence. Things relying on each other. Caring,-4,160,20","I am not a fan of the color story. I am confused by the piece and therefore do not like it.,-21,80,20","too abstract and confusing,-19,80,20","Colorful, curious.,20,340,20","Feels like a playground or park vibe,27,280,20","Unhappy. I do not like it,-5,60,20","Catherine","Dependence. Things relying on each other. Caring,-4,160,20","Isabella","Feels like a playground or park vibe,27,280,20","Paige","Unhappy. I do not like it,-5,60,20","5"
"11387","","survey-text","183","866081","0.0-180.0-0.0","A1T0ND039EWAVV","","","","{""Q0"":""I love the simplicity of the design and the colors""}","","","","","","","","","","","","","","","","","","","","","","",""
"36723.299999952316","","image-slider-response","184","902807","0.0-181.0","A1T0ND039EWAVV","","","","","29","","","","","","","","","","","","","","","","","","","","","",""
"null","","image-button-response","185","908325","0.0-182.0","A1T0ND039EWAVV","img_art/14.jpg","null","","","","","","","","","","","","","","","","","","","","","","","","",""
"1340","","image-button-response","186","909669","0.0-183.0","A1T0ND039EWAVV","img_art/14.jpg","0","","","","","","","","","","","","","","","","","","","","","","","","",""
"647","","image-button-response","187","910320","0.0-184.0-0.0","A1T0ND039EWAVV","img_art/14.jpg","4","","","","","","","","","","","","","","","","","","","","","","","","",""
"1443","","image-button-response","188","911768","0.0-185.0-0.0","A1T0ND039EWAVV","img_art/14.jpg","2","","","","","","","","","","","","","","","","","","","","","","","","",""
"null","","html-keyboard-response","189","912770","0.0-186.0","A1T0ND039EWAVV","<p style=""font-size: 48px;"">+</p>","","","","","null","allTrialResponses","1000","1","20","img_art/14.jpg","29","I love the simplicity of the design and the colors","Catherine,Abigail,Tiffany,Mackenzie,Isabella,Paige","Tornado, nature. trees falling and displaced creatures. Love the colors though.,1,160,20","Reminds me of art class,22,20,20","I feel uncomfortable looking at this painting, it is a mess that needs to be cleaned up.,-16,360,20","I like the combination of colors and textures.,35,20,20","Feels like a camp fire among friends,22,280,20","It didn't really do anything to excite me.,21,60,20","Catherine","Tornado, nature. trees falling and displaced creatures. Love the colors though.,1,160,20","Isabella","Feels like a camp fire among friends,22,280,20","Tiffany","I feel uncomfortable looking at this painting, it is a mess that needs to be cleaned up.,-16,360,20","5"
"3159","","survey-text","190","915941","0.0-187.0-0.0","A1T0ND039EWAVV","","","","{""Q0"":""we""}","","","","","","","","","","","","","","","","","","","","","","",""
"23157","","survey-text","191","939101","0.0-188.0-0.0","A1T0ND039EWAVV","","","","{""Q0"":""I like it it's like a bird standing in a desert""}","","","","","","","","","","","","","","","","","","","","","","",""
"5873.900000035763","","image-slider-response","192","944978","0.0-189.0","A1T0ND039EWAVV","","","","","38","","","","","","","","","","","","","","","","","","","","","",""
"null","","image-button-response","193","949982","0.0-190.0","A1T0ND039EWAVV","img_art/6.jpg","null","","","","","","","","","","","","","","","","","","","","","","","","",""
"1122","","image-button-response","194","951107","0.0-191.0","A1T0ND039EWAVV","img_art/6.jpg","0","","","","","","","","","","","","","","","","","","","","","","","","",""
"2179","","image-button-response","195","953291","0.0-192.0-0.0","A1T0ND039EWAVV","img_art/6.jpg","3","","","","","","","","","","","","","","","","","","","","","","","","",""
"2781","","image-button-response","196","956076","0.0-193.0-0.0","A1T0ND039EWAVV","img_art/6.jpg","5","","","","","","","","","","","","","","","","","","","","","","","","",""
"null","","html-keyboard-response","197","956579","0.0-194.0","A1T0ND039EWAVV","<p style=""font-size: 48px;"">+</p>","","","","","null","allTrialResponses","500","1","21","img_art/6.jpg","38","I like it it's like a bird standing in a desert","Catherine,Monica,Tiffany,Anna,Isabella,Jamie","Looking, searching at the same time being content.,30,160,20","Maybe it's supposed to be a bird but it looks like a scary cloaked figure. it's just too simple and jarring,-23,360,20","The painting makes me happy. Like I'm looking at a little bird.,6,360,20","It reminds me of a simplistic bird. I like the colors used.,40,300,20","A bird standing in the sun,37,280,20","Tree growing in a desert. Gives me feelings of hope,5,320,20","Catherine","Looking, searching at the same time being content.,30,160,20","Anna","It reminds me of a simplistic bird. I like the colors used.,40,300,20","Jamie","Tree growing in a desert. Gives me feelings of hope,5,320,20","5"
"12726","","survey-text","198","969313","0.0-195.0-0.0","A1T0ND039EWAVV","","","","{""Q0"":""I have a piece that looks like this it feels light and free""}","","","","","","","","","","","","","","","","","","","","","","",""
"2500.900000035763","","image-slider-response","199","971818","0.0-196.0","A1T0ND039EWAVV","","","","","34","","","","","","","","","","","","","","","","","","","","","",""
"null","","image-button-response","200","976822","0.0-197.0","A1T0ND039EWAVV","img_art/26.jpg","null","","","","","","","","","","","","","","","","","","","","","","","","",""
"1520","","image-button-response","201","978345","0.0-198.0","A1T0ND039EWAVV","img_art/26.jpg","0","","","","","","","","","","","","","","","","","","","","","","","","",""
"1308","","image-button-response","202","979657","0.0-199.0-0.0","A1T0ND039EWAVV","img_art/26.jpg","4","","","","","","","","","","","","","","","","","","","","","","","","",""
"1140","","image-button-response","203","980800","0.0-200.0-0.0","A1T0ND039EWAVV","img_art/26.jpg","2","","","","","","","","","","","","","","","","","","","","","","","","",""
"null","","html-keyboard-response","204","982304","0.0-201.0","A1T0ND039EWAVV","<p style=""font-size: 48px;"">+</p>","","","","","null","allTrialResponses","1500","1","22","img_art/26.jpg","34","I have a piece that looks like this it feels light and free","Catherine,Sydney,Hannah,Anna,Taylor,Jamie","Incomplete, The artist painted his impression of somthing he was thinking of,0,160,20","I wish there was more detail, but I really like this simple piece.,35,320,20","This is boring.,-15,240,20","It looks like a watercolor I did when I was 6.,-30,300,20","Makes me want to walk down a cool street,20,340,20","Street corner on a sunny day,5,320,20","Catherine","Incomplete, The artist painted his impression of somthing he was thinking of,0,160,20","Taylor","Makes me want to walk down a cool street,20,340,20","Hannah","This is boring.,-15,240,20","5"
"7962","","survey-text","205","990274","0.0-202.0-0.0","A1T0ND039EWAVV","","","","{""Q0"":""I like the metro city hustle and bustle""}","","","","","","","","","","","","","","","","","","","","","","",""
"2824.5","","image-slider-response","206","993102","0.0-203.0","A1T0ND039EWAVV","","","","","31","","","","","","","","","","","","","","","","","","","","","",""
"null","","image-button-response","207","998105","0.0-204.0","A1T0ND039EWAVV","img_art/11.jpg","null","","","","","","","","","","","","","","","","","","","","","","","","",""
"1541","","image-button-response","208","999649","0.0-205.0","A1T0ND039EWAVV","img_art/11.jpg","3","","","","","","","","","","","","","","","","","","","","","","","","",""
"648","","image-button-response","209","1000300","0.0-206.0-0.0","A1T0ND039EWAVV","img_art/11.jpg","4","","","","","","","","","","","","","","","","","","","","","","","","",""
"783","","image-button-response","210","1001087","0.0-207.0-0.0","A1T0ND039EWAVV","img_art/11.jpg","1","","","","","","","","","","","","","","","","","","","","","","","","",""
"null","","html-keyboard-response","211","1001589","0.0-208.0","A1T0ND039EWAVV","<p style=""font-size: 48px;"">+</p>","","","","","null","allTrialResponses","500","1","23","img_art/11.jpg","31","I like the metro city hustle and bustle","Catherine,Kaitlyn,Hannah,Leah,Taylor,Olivia","Busy city life. transportation, anxiety.,10,160,20","Interesting use of color,9,80,20","Is interesting. Wouldn't bother me to have this hanging where I'd see it every day.,11,240,20","Even with the colors, it is dreary to me,-32,360,20","It's a really cool painting, but it reminds me of bad traffic,-20,340,20","business of traffic,10,40,20","Leah","Even with the colors, it is dreary to me,-32,360,20","Taylor","It's a really cool painting, but it reminds me of bad traffic,-20,340,20","Kaitlyn","Interesting use of color,9,80,20","5"
"16085","","survey-text","212","1017684","0.0-209.0-0.0","A1T0ND039EWAVV","","","","{""Q0"":""It makes me feel claustrophobic""}","","","","","","","","","","","","","","","","","","","","","","",""
"3349.699999988079","","image-slider-response","213","1021037","0.0-210.0","A1T0ND039EWAVV","","","","","27","","","","","","","","","","","","","","","","","","","","","",""
"null","","image-button-response","214","1026041","0.0-211.0","A1T0ND039EWAVV","img_art/15.jpg","null","","","","","","","","","","","","","","","","","","","","","","","","",""
"3825","","image-button-response","215","1029869","0.0-212.0","A1T0ND039EWAVV","img_art/15.jpg","0","","","","","","","","","","","","","","","","","","","","","","","","",""
"771","","image-button-response","216","1030643","0.0-213.0-0.0","A1T0ND039EWAVV","img_art/15.jpg","2","","","","","","","","","","","","","","","","","","","","","","","","",""
"2384","","image-button-response","217","1033032","0.0-214.0-0.0","A1T0ND039EWAVV","img_art/15.jpg","4","","","","","","","","","","","","","","","","","","","","","","","","",""
"null","","html-keyboard-response","218","1034034","0.0-215.0","A1T0ND039EWAVV","<p style=""font-size: 48px;"">+</p>","","","","","null","allTrialResponses","1000","1","24","img_art/15.jpg","27","It makes me feel claustrophobic","Sara,Kaitlyn,Michaela,Leah,Taylor,Alexis","I don't like the black dots,-19,160,20","Simplicity of colors is nice,11,80,20","Reminds me of lilacs,26,260,20","Pretty, like in a field of poppies,19,360,20","The blues are soothing,21,340,20","Not a fan of abstract, but the black is very striking,10,100,20","Sara","I don't like the black dots,-19,160,20","Michaela","Reminds me of lilacs,26,260,20","Taylor","The blues are soothing,21,340,20","5"
"13651","","survey-text","219","1047693","0.0-216.0-0.0","A1T0ND039EWAVV","","","","{""Q0"":""I like the geometric pattern and 80s feel""}","","","","","","","","","","","","","","","","","","","","","","",""
"4069.600000023842","","image-slider-response","220","1051766","0.0-217.0","A1T0ND039EWAVV","","","","","31","","","","","","","","","","","","","","","","","","","","","",""
"null","","image-button-response","221","1056770","0.0-218.0","A1T0ND039EWAVV","img_art/12.jpg","null","","","","","","","","","","","","","","","","","","","","","","","","",""
"780","","image-button-response","222","1057553","0.0-219.0","A1T0ND039EWAVV","img_art/12.jpg","5","","","","","","","","","","","","","","","","","","","","","","","","",""
"792","","image-button-response","223","1058348","0.0-220.0-0.0","A1T0ND039EWAVV","img_art/12.jpg","0","","","","","","","","","","","","","","","","","","","","","","","","",""
"890","","image-button-response","224","1059242","0.0-221.0-0.0","A1T0ND039EWAVV","img_art/12.jpg","3","","","","","","","","","","","","","","","","","","","","","","","","",""
"null","","html-keyboard-response","225","1060745","0.0-222.0","A1T0ND039EWAVV","<p style=""font-size: 48px;"">+</p>","","","","","null","allTrialResponses","1500","1","25","img_art/12.jpg","31","I like the geometric pattern and 80s feel","Sara,Jordan,Michaela,Madison,Taylor,Gabrielle","I don't like the blocking,-20,160,20","not my kind of thing,1,20,20","It looks like old lady upholstery,12,260,20","Different enough to be memorable. The gradient of hues is appealing and appeasing.,32,60,20","It's kind of ominous,-15,340,20","seems too dark on top and too common on the bottom,-19,160,20","Gabrielle","seems too dark on top and too common on the bottom,-19,160,20","Sara","I don't like the blocking,-20,160,20","Madison","Different enough to be memorable. The gradient of hues is appealing and appeasing.,32,60,20","5"
"39204","","survey-text","226","1099964","0.0-223.0-0.0","A1T0ND039EWAVV","","","","{""Q0"":""table""}","","","","","","","","","","","","","","","","","","","","","","",""
"14800","","survey-text","227","1114766","0.0-224.0-0.0","A1T0ND039EWAVV","","","","{""Q0"":""I love the red and the spaciousness""}","","","","","","","","","","","","","","","","","","","","","","",""
"5402.5","","image-slider-response","228","1120178","0.0-225.0","A1T0ND039EWAVV","","","","","30","","","","","","","","","","","","","","","","","","","","","",""
"null","","image-button-response","229","1125182","0.0-226.0","A1T0ND039EWAVV","img_art/3.jpg","null","","","","","","","","","","","","","","","","","","","","","","","","",""
"3882","","image-button-response","230","1129067","0.0-227.0","A1T0ND039EWAVV","img_art/3.jpg","1","","","","","","","","","","","","","","","","","","","","","","","","",""
"1080","","image-button-response","231","1130152","0.0-228.0-0.0","A1T0ND039EWAVV","img_art/3.jpg","3","","","","","","","","","","","","","","","","","","","","","","","","",""
"888","","image-button-response","232","1131045","0.0-229.0-0.0","A1T0ND039EWAVV","img_art/3.jpg","4","","","","","","","","","","","","","","","","","","","","","","","","",""
"null","","html-keyboard-response","233","1131548","0.0-230.0","A1T0ND039EWAVV","<p style=""font-size: 48px;"">+</p>","","","","","null","allTrialResponses","500","1","26","img_art/3.jpg","30","I love the red and the spaciousness","Sara,Jenna,Angela,Madison,Sophia,Gabrielle","Random use of red and looks scary,-50,160,20","unique & stylized. interesting. another one I could keep staring at.,50,360,20","Like the colors and energy of this work.,10,260,20","This doesn't grab me. Perhaps the red is meant to be provocative; I find it gimmicky.,-9,60,20","Marker gone wild?  Not sure what's going on here.,-21,280,20","7th grade art, not much effort to do this.,-39,160,20","Jenna","unique & stylized. interesting. another one I could keep staring at.,50,360,20","Madison","This doesn't grab me. Perhaps the red is meant to be provocative; I find it gimmicky.,-9,60,20","Sophia","Marker gone wild?  Not sure what's going on here.,-21,280,20","5"
"11226","","survey-text","234","1142785","0.0-231.0-0.0","A1T0ND039EWAVV","","","","{""Q0"":""Ilove the old school city design""}","","","","","","","","","","","","","","","","","","","","","","",""
"11293.199999988079","","image-slider-response","235","1154082","0.0-232.0","A1T0ND039EWAVV","","","","","39","","","","","","","","","","","","","","","","","","","","","",""
"4337","","image-button-response","236","1159086","0.0-233.0","A1T0ND039EWAVV","img_art/8.jpg","1","","","","","","","","","","","","","","","","","","","","","","","","",""
"1103","","image-button-response","237","1160192","0.0-234.0","A1T0ND039EWAVV","img_art/8.jpg","1","","","","","","","","","","","","","","","","","","","","","","","","",""
"665","","image-button-response","238","1160860","0.0-235.0-0.0","A1T0ND039EWAVV","img_art/8.jpg","2","","","","","","","","","","","","","","","","","","","","","","","","",""
"979","","image-button-response","239","1161843","0.0-236.0-0.0","A1T0ND039EWAVV","img_art/8.jpg","4","","","","","","","","","","","","","","","","","","","","","","","","",""
"null","","html-keyboard-response","240","1162345","0.0-237.0","A1T0ND039EWAVV","<p style=""font-size: 48px;"">+</p>","","","","","null","allTrialResponses","500","1","27","img_art/8.jpg","39","Ilove the old school city design","Brianna,Jenna,Alexa,Madison,Sophia,Hailey","It's very odd and I don't really like it,-30,20,20","beautiful colors & details. love the surrealism & strange angle. the faces are interesting.,50,360,20","It's simply gorgeous. This artist is very talented,50,40,20","The composition is striking, and some of the images are quite dramatic,11,60,20","Interesting but it has a bit of a dark feel to it.,6,280,20","cold city controlled by evil gods,-17,200,20","Jenna","beautiful colors & details. love the surrealism & strange angle. the faces are interesting.,50,360,20","Alexa","It's simply gorgeous. This artist is very talented,50,40,20","Sophia","Interesting but it has a bit of a dark feel to it.,6,280,20","5"
"27903","","survey-text","241","1190260","0.0-238.0-0.0","A1T0ND039EWAVV","","","","{""Q0"":""This is absolutely beautiful looks like a spring day""}","","","","","","","","","","","","","","","","","","","","","","",""
"4178.399999976158","","image-slider-response","242","1194443","0.0-239.0","A1T0ND039EWAVV","","","","","32","","","","","","","","","","","","","","","","","","","","","",""
"null","","image-button-response","243","1199446","0.0-240.0","A1T0ND039EWAVV","img_art/24.jpg","null","","","","","","","","","","","","","","","","","","","","","","","","",""
"529","","image-button-response","244","1199978","0.0-241.0","A1T0ND039EWAVV","img_art/24.jpg","3","","","","","","","","","","","","","","","","","","","","","","","","",""
"1056","","image-button-response","245","1201038","0.0-242.0-0.0","A1T0ND039EWAVV","img_art/24.jpg","5","","","","","","","","","","","","","","","","","","","","","","","","",""
"1148","","image-button-response","246","1202189","0.0-243.0-0.0","A1T0ND039EWAVV","img_art/24.jpg","1","","","","","","","","","","","","","","","","","","","","","","","","",""
"null","","html-keyboard-response","247","1202691","0.0-244.0","A1T0ND039EWAVV","<p style=""font-size: 48px;"">+</p>","","","","","null","allTrialResponses","500","1","28","img_art/24.jpg","32","This is absolutely beautiful looks like a spring day","Cynthia,Jenna,Alexa,Victoria,Sophia,Emily","Interested in visiting this place,18,320,20","colors are a bit cramped together. really unique take on a waterfall though.,32,360,20","I absolutely adore this painting. The colors, designs, everything. It's phenomenal,50,40,20","very peaceful and serene,47,400,20","Hmm. Don't know what to make of this one.,1,280,20","It's not super high uality  but there is some skill and talent in it I see.,15,40,20","Victoria","very peaceful and serene,47,400,20","Emily","It's not super high uality  but there is some skill and talent in it I see.,15,40,20","Jenna","colors are a bit cramped together. really unique take on a waterfall though.,32,360,20","5"
"14925","","survey-text","248","1217629","0.0-245.0-0.0","A1T0ND039EWAVV","","","","{""Q0"":""This strikes fear in me a bit, like those white lines are teeth""}","","","","","","","","","","","","","","","","","","","","","","",""
"3583.699999988079","","image-slider-response","249","1221216","0.0-246.0","A1T0ND039EWAVV","","","","","-25","","","","","","","","","","","","","","","","","","","","","",""
"null","","image-button-response","250","1226220","0.0-247.0","A1T0ND039EWAVV","img_art/23.jpg","null","","","","","","","","","","","","","","","","","","","","","","","","",""
"2035","","image-button-response","251","1228259","0.0-248.0","A1T0ND039EWAVV","img_art/23.jpg","0","","","","","","","","","","","","","","","","","","","","","","","","",""
"738","","image-button-response","252","1229001","0.0-249.0-0.0","A1T0ND039EWAVV","img_art/23.jpg","1","","","","","","","","","","","","","","","","","","","","","","","","",""
"2182","","image-button-response","253","1231186","0.0-250.0-0.0","A1T0ND039EWAVV","img_art/23.jpg","4","","","","","","","","","","","","","","","","","","","","","","","","",""
"null","","html-keyboard-response","254","1231689","0.0-251.0","A1T0ND039EWAVV","<p style=""font-size: 48px;"">+</p>","","","","","null","allTrialResponses","500","1","29","img_art/23.jpg","-25","This strikes fear in me a bit, like those white lines are teeth","Gabriela,Jenna,Chloe,Victoria,Leslie,Emily","It looks like a parade of musicians full of excitement. Makes me feel upbeat,33,140,20","awesome colors. love the white drawing the eye to the center. oddly comforting.,50,360,20","Poster shop camp.,-40,220,20","enjoy the colors,23,400,20","It reminds me of being in a crowded place.,-10,380,20","I don't get it.,-40,40,20","Gabriela","It looks like a parade of musicians full of excitement. Makes me feel upbeat,33,140,20","Jenna","awesome colors. love the white drawing the eye to the center. oddly comforting.,50,360,20","Leslie","It reminds me of being in a crowded place.,-10,380,20","5"
"7242","","survey-text","255","1238940","0.0-252.0-0.0","A1T0ND039EWAVV","","","","{""Q0"":""I like the soft pastels in this one""}","","","","","","","","","","","","","","","","","","","","","","",""
"2930.199999988079","","image-slider-response","256","1241873","0.0-253.0","A1T0ND039EWAVV","","","","","37","","","","","","","","","","","","","","","","","","","","","",""
"null","","image-button-response","257","1246878","0.0-254.0","A1T0ND039EWAVV","img_art/1.jpg","null","","","","","","","","","","","","","","","","","","","","","","","","",""
"682","","image-button-response","258","1247563","0.0-255.0","A1T0ND039EWAVV","img_art/1.jpg","0","","","","","","","","","","","","","","","","","","","","","","","","",""
"564","","image-button-response","259","1248130","0.0-256.0-0.0","A1T0ND039EWAVV","img_art/1.jpg","1","","","","","","","","","","","","","","","","","","","","","","","","",""
"648","","image-button-response","260","1248783","0.0-257.0-0.0","A1T0ND039EWAVV","img_art/1.jpg","3","","","","","","","","","","","","","","","","","","","","","","","","",""
"null","","html-keyboard-response","261","1249786","0.0-258.0","A1T0ND039EWAVV","<p style=""font-size: 48px;"">+</p>","","","","","null","allTrialResponses","1000","1","30","img_art/1.jpg","37","I like the soft pastels in this one","Gabriela,Jenna,Sabrina,Kristen,Leslie,Katie","This photo reminds me of a fall afternoon, serene,11,140,20","beautiful colors and brush strokes,47,360,20","I love the calming comfort and safe feeling of this,50,120,20","river, fall, cozy, warm,12,280,20","The use of reds, blues, and yellows together reminds me of fire. Very interesting to look at.,40,380,20","Too messy. Just looks like a mess of dark colors.,-20,160,20","Gabriela","This photo reminds me of a fall afternoon, serene,11,140,20","Jenna","beautiful colors and brush strokes,47,360,20","Kristen","river, fall, cozy, warm,12,280,20","5"
"2390","","image-button-response_instructions","262","1252187","0.0-259.0","A1T0ND039EWAVV","","0","instructions","","","","","","","","","","","","","","","","","","","","","","","",""
"1370","","image-button-response","263","1253568","0.0-260.0","A1T0ND039EWAVV","","0","","","","","","","","","","","","","","","","","","","","","","","","",""
