"rt","url","trial_type","trial_index","time_elapsed","internal_node_id","participant_id","stimulus","button_pressed","Name","responses","response","key_press","variableName","fixationTime","condition","trial","photo","subjectRating","subjectResponse","agentsNames","agent_1_Response","agent_2_Response","agent_3_Response","agent_4_Response","agent_5_Response","agent_6_Response","kept_1_name","kept_1_response","kept_2_name","kept_2_response","kept_3_name","kept_3_response","errorCounter"
"12707","external_page_harvard.html","external-html","0","13181","0.0-0.0","A1T208Y507O4RS","","","","","","","","","","","","","","","","","","","","","","","","","","",""
"1349","","image-button-response","1","14540","0.0-1.0","A1T208Y507O4RS","","1","","","","","","","","","","","","","","","","","","","","","","","","",""
"1497","","image-button-response","2","16058","0.0-2.0-0.0","A1T208Y507O4RS","","1","phone","","","","","","","","","","","","","","","","","","","","","","","",""
"32397","","survey-text","3","48468","0.0-3.0-0.0","A1T208Y507O4RS","","","","{""Q0"":""A1T208Y507O4RS""}","","","","","","","","","","","","","","","","","","","","","","",""
"5186","","image-button-response_instructions","4","53687","0.0-4.0","A1T208Y507O4RS","","0","instructions","","","","","","","","","","","","","","","","","","","","","","","",""
"3891","","image-button-response_instructions","5","57582","0.0-5.0","A1T208Y507O4RS","img_art/ins/popularity/ins1.png","0","instructions","","","","","","","","","","","","","","","","","","","","","","","",""
"11311","","image-button-response_instructions","6","68896","0.0-6.0","A1T208Y507O4RS","img_art/ins/popularity/ins2.png","0","instructions","","","","","","","","","","","","","","","","","","","","","","","",""
"4469","","image-button-response_instructions","7","73368","0.0-7.0","A1T208Y507O4RS","img_art/ins/popularity/ins2Extreme.png","0","instructions","","","","","","","","","","","","","","","","","","","","","","","",""
"5573","","image-button-response_instructions","8","78944","0.0-8.0","A1T208Y507O4RS","img_art/ins/popularity/ins3KEEPpop.PNG","0","instructions","","","","","","","","","","","","","","","","","","","","","","","",""
"2505","","image-button-response_instructions","9","81452","0.0-9.0","A1T208Y507O4RS","img_art/ins/popularity/ins3ANamepop.PNG","0","instructions","","","","","","","","","","","","","","","","","","","","","","","",""
"2157","","image-button-response_instructions","10","83612","0.0-10.0","A1T208Y507O4RS","img_art/ins/popularity/ins3ARatingpop.png","0","instructions","","","","","","","","","","","","","","","","","","","","","","","",""
"1487","","image-button-response_instructions","11","85102","0.0-11.0","A1T208Y507O4RS","img_art/ins/popularity/ins3ATextpop.png","0","instructions","","","","","","","","","","","","","","","","","","","","","","","",""
"6167","","image-button-response_instructions","12","91272","0.0-12.0","A1T208Y507O4RS","img_art/ins/popularity/ins3ALikespop.png","0","instructions","","","","","","","","","","","","","","","","","","","","","","","",""
"9238","","image-button-response_instructions","13","100514","0.0-13.0","A1T208Y507O4RS","img_art/ins/popularity/ins3KEEPpop.PNG","0","instructions","","","","","","","","","","","","","","","","","","","","","","","",""
"7915","","image-button-response_instructions","14","108431","0.0-14.0","A1T208Y507O4RS","img_art/ins/popularity/ins3_5RED.png","0","instructions","","","","","","","","","","","","","","","","","","","","","","","",""
"2795","","image-button-response_instructions","15","111229","0.0-15.0","A1T208Y507O4RS","img_art/ins/popularity/ins3KEEPpop.PNG","0","instructions","","","","","","","","","","","","","","","","","","","","","","","",""
"13523","","image-button-response_instructions","16","124755","0.0-16.0","A1T208Y507O4RS","img_art/ins/popularity/ins4KEEPpop.PNG","0","instructions","","","","","","","","","","","","","","","","","","","","","","","",""
"5311","","image-button-response_instructions","17","130070","0.0-17.0","A1T208Y507O4RS","img_art/ins/popularity/ins5KEEPpop.PNG","0","instructions","","","","","","","","","","","","","","","","","","","","","","","",""
"4540","","image-button-response_instructions","18","134612","0.0-18.0","A1T208Y507O4RS","","0","instructions","","","","","","","","","","","","","","","","","","","","","","","",""
"6873","","survey-text","19","141597","0.0-19.0-0.0","A1T208Y507O4RS","","","","{""Q0"":""but""}","","","","","","","","","","","","","","","","","","","","","","",""
"10331","","survey-text","20","151935","0.0-20.0-0.0","A1T208Y507O4RS","","","","{""Q0"":""looks like a sunset""}","","","","","","","","","","","","","","","","","","","","","","",""
"3541.2000000476837","","image-slider-response","21","155483","0.0-21.0","A1T208Y507O4RS","","","","","10","","","","","","","","","","","","","","","","","","","","","",""
"null","","image-button-response","22","160494","0.0-22.0","A1T208Y507O4RS","img_art/ins/1.jpg","null","","","","","","","","","","","","","","","","","","","","","","","","",""
"4535","","image-button-response","23","165036","0.0-23.0","A1T208Y507O4RS","img_art/ins/1.jpg","4","","","","","","","","","","","","","","","","","","","","","","","","",""
"1205","","image-button-response","24","166249","0.0-24.0-0.0","A1T208Y507O4RS","img_art/ins/1.jpg","5","","","","","","","","","","","","","","","","","","","","","","","","",""
"2094","","image-button-response","25","168353","0.0-25.0-0.0","A1T208Y507O4RS","img_art/ins/1.jpg","0","","","","","","","","","","","","","","","","","","","","","","","","",""
"null","","html-keyboard-response","26","169373","0.0-26.0","A1T208Y507O4RS","<p style=""font-size: 48px;"">+</p>","","","","","null","allTrialResponses","1000","1","-2","img_art/ins/1.jpg","10","looks like a sunset","Allison,Ashley,Beth,Dora,Erika,Jen","looks like a lot of things going on in the mist,20,20,20","I just don't get why these type of art would be popular,-32,40,20","This color reminds me of poo,-46,60,20","looks like what my niece in 3rd grade did this afternoon,-50,80,20","I like the sophisticated brushwork,40,100,20","It reminds me of a candy land dream I had,36,120,20","Erika","I like the sophisticated brushwork,40,100,20","Jen","It reminds me of a candy land dream I had,36,120,20","Allison","looks like a lot of things going on in the mist,20,20,20","0"
"7895","","survey-text","27","177285","0.0-27.0-0.0","A1T208Y507O4RS","","","","{""Q0"":""bland and dreary""}","","","","","","","","","","","","","","","","","","","","","","",""
"2675","","image-slider-response","28","179965","0.0-28.0","A1T208Y507O4RS","","","","","-15","","","","","","","","","","","","","","","","","","","","","",""
"4258","","image-button-response","29","184973","0.0-29.0","A1T208Y507O4RS","img_art/ins/2.jpg","0","","","","","","","","","","","","","","","","","","","","","","","","",""
"1722","","image-button-response","30","186701","0.0-30.0","A1T208Y507O4RS","img_art/ins/2.jpg","5","","","","","","","","","","","","","","","","","","","","","","","","",""
"2039","","image-button-response","31","188746","0.0-31.0-0.0","A1T208Y507O4RS","img_art/ins/2.jpg","1","","","","","","","","","","","","","","","","","","","","","","","","",""
"1830","","image-button-response","32","190583","0.0-32.0-0.0","A1T208Y507O4RS","img_art/ins/2.jpg","0","","","","","","","","","","","","","","","","","","","","","","","","",""
"null","","html-keyboard-response","33","192105","0.0-33.0","A1T208Y507O4RS","<p style=""font-size: 48px;"">+</p>","","","","","null","allTrialResponses","1500","1","-1","img_art/ins/2.jpg","-15","bland and dreary","Allison,Kara,Katie,Jenna,Erika,Jen","I don't have strong feelings about this,10,20,20","I like the blocks of color arrangements,30,160,20","too much color!,-28,180,20","One of my pet peevs,-48,140,20","I would never be able to compose a sophisticated pallete like this,48,100,20","It reminds me of a fireplace,36,120,20","Jen","It reminds me of a fireplace,36,120,20","Kara","I like the blocks of color arrangements,30,160,20","Allison","I don't have strong feelings about this,10,20,20","0"
"25605","","survey-text","34","217724","0.0-34.0-0.0","A1T208Y507O4RS","","","","{""Q0"":""bright and sky like""}","","","","","","","","","","","","","","","","","","","","","","",""
"5724.700000047684","","image-slider-response","35","223457","0.0-35.0","A1T208Y507O4RS","","","","","15","","","","","","","","","","","","","","","","","","","","","",""
"3357","","image-button-response","36","228481","0.0-36.0","A1T208Y507O4RS","img_art/ins/3.jpg","4","","","","","","","","","","","","","","","","","","","","","","","","",""
"919","","image-button-response","37","229406","0.0-37.0","A1T208Y507O4RS","img_art/ins/3.jpg","4","","","","","","","","","","","","","","","","","","","","","","","","",""
"637","","image-button-response","38","230049","0.0-38.0-0.0","A1T208Y507O4RS","img_art/ins/3.jpg","5","","","","","","","","","","","","","","","","","","","","","","","","",""
"2345","","image-button-response","39","232400","0.0-39.0-0.0","A1T208Y507O4RS","img_art/ins/3.jpg","0","","","","","","","","","","","","","","","","","","","","","","","","",""
"null","","html-keyboard-response","40","232909","0.0-40.0","A1T208Y507O4RS","<p style=""font-size: 48px;"">+</p>","","","","","null","allTrialResponses","500","1","0","img_art/ins/3.jpg","15","bright and sky like","Allison,Kara,Rose,Leslie,Mary,Jen","enjoy the different shades of blue,22,20,20","calming blue is very nice,36,160,20","My daily routine, it's depressing,-20,240,20","It's an alright work,15,200,20","I like the overlapping of brushes,41,220,20","I can feel a rainy day from this painting,18,120,20","Mary","I like the overlapping of brushes,41,220,20","Jen","I can feel a rainy day from this painting,18,120,20","Allison","enjoy the different shades of blue,22,20,20","0"
"5858","","image-button-response_instructions","41","238782","0.0-41.0","A1T208Y507O4RS","","0","instructions","","","","","","","","","","","","","","","","","","","","","","","",""
"8789","","survey-likert","42","247575","0.0-42.0-0.0","A1T208Y507O4RS","","","","{""Q0"":"""",""Q1"":0,""Q2"":1}","","","","","","","","","","","","","","","","","","","","","","",""
"4025","","survey-text","43","251628","0.0-43.0-0.0","A1T208Y507O4RS","","","","{""Q0"":""rock""}","","","","","","","","","","","","","","","","","","","","","","",""
"7789","","survey-text","44","259422","0.0-44.0-0.0","A1T208Y507O4RS","","","","{""Q0"":""beautiful water""}","","","","","","","","","","","","","","","","","","","","","","",""
"3905.5","","image-slider-response","45","263333","0.0-45.0","A1T208Y507O4RS","","","","","38","","","","","","","","","","","","","","","","","","","","","",""
"null","","image-button-response","46","268410","0.0-46.0","A1T208Y507O4RS","img_art/24.jpg","null","","","","","","","","","","","","","","","","","","","","","","","","",""
"1524","","image-button-response","47","269956","0.0-47.0","A1T208Y507O4RS","img_art/24.jpg","0","","","","","","","","","","","","","","","","","","","","","","","","",""
"2201","","image-button-response","48","272164","0.0-48.0-0.0","A1T208Y507O4RS","img_art/24.jpg","0","","","","","","","","","","","","","","","","","","","","","","","","",""
"2388","","image-button-response","49","278786","0.0-48.1-0.1","A1T208Y507O4RS","img_art/24.jpg","4","","","","","","","","","","","","","","","","","","","","","","","","",""
"2732","","image-button-response","50","281525","0.0-49.0-0.0","A1T208Y507O4RS","img_art/24.jpg","5","","","","","","","","","","","","","","","","","","","","","","","","",""
"null","","html-keyboard-response","51","282667","0.0-50.0","A1T208Y507O4RS","<p style=""font-size: 48px;"">+</p>","","","","","null","allTrialResponses","1000","1","1","img_art/24.jpg","38","beautiful water","Michaela,Alexandria,Madison,Cassidy,Miranda,Dominique","Very pretty and soft,37,260,20","very colorful and intricate and makes me feel at peace,50,80,20","Exceedingly garish,-19,60,20","I don't even know. It's just kind of meh,1,140,20","I find the colors work really well. It's very pretty but I have no idea as what it is.,34,320,20","Spending a day in nature,21,400,20","Michaela","Very pretty and soft,37,260,20","Miranda","I find the colors work really well. It's very pretty but I have no idea as what it is.,34,320,20","Dominique","Spending a day in nature,21,400,20","2"
"68122","","survey-text","52","350849","0.0-51.0-0.0","A1T208Y507O4RS","","","","{""Q0"":""whimsical""}","","","","","","","","","","","","","","","","","","","","","","",""
"4600.100000143051","","image-slider-response","53","355459","0.0-52.0","A1T208Y507O4RS","","","","","36","","","","","","","","","","","","","","","","","","","","","",""
"2799","","image-button-response","54","360492","0.0-53.0","A1T208Y507O4RS","img_art/17.jpg","4","","","","","","","","","","","","","","","","","","","","","","","","",""
"844","","image-button-response","55","361343","0.0-54.0","A1T208Y507O4RS","img_art/17.jpg","5","","","","","","","","","","","","","","","","","","","","","","","","",""
"591","","image-button-response","56","361941","0.0-55.0-0.0","A1T208Y507O4RS","img_art/17.jpg","4","","","","","","","","","","","","","","","","","","","","","","","","",""
"2288","","image-button-response","57","364236","0.0-56.0-0.0","A1T208Y507O4RS","img_art/17.jpg","0","","","","","","","","","","","","","","","","","","","","","","","","",""
"null","","html-keyboard-response","58","365763","0.0-57.0","A1T208Y507O4RS","<p style=""font-size: 48px;"">+</p>","","","","","null","allTrialResponses","1500","1","2","img_art/17.jpg","36","whimsical","Michaela,Amy,Victoria,Olivia,Miranda,Dominique","I love how soft it is,35,260,20","peaceful. contemplative. balanced. old,10,220,20","love the wispyness of it,34,400,20","muted tones brings me down,-13,40,20","It seems a little dark but it is very beautiful,28,320,20","Another favorite a relaxing day with nature a day to take it all In,34,400,20","Dominique","Another favorite a relaxing day with nature a day to take it all In,34,400,20","Miranda","It seems a little dark but it is very beautiful,28,320,20","Michaela","I love how soft it is,35,260,20","2"
"9514","","survey-text","59","375321","0.0-58.0-0.0","A1T208Y507O4RS","","","","{""Q0"":""too dreary""}","","","","","","","","","","","","","","","","","","","","","","",""
"4048.100000143051","","image-slider-response","60","379374","0.0-59.0","A1T208Y507O4RS","","","","","-42","","","","","","","","","","","","","","","","","","","","","",""
"null","","image-button-response","61","384380","0.0-60.0","A1T208Y507O4RS","img_art/19.jpg","null","","","","","","","","","","","","","","","","","","","","","","","","",""
"1842","","image-button-response","62","386227","0.0-61.0","A1T208Y507O4RS","img_art/19.jpg","2","","","","","","","","","","","","","","","","","","","","","","","","",""
"2576","","image-button-response","63","388810","0.0-62.0-0.0","A1T208Y507O4RS","img_art/19.jpg","1","","","","","","","","","","","","","","","","","","","","","","","","",""
"431","","image-button-response","64","389247","0.0-63.0-0.0","A1T208Y507O4RS","img_art/19.jpg","0","","","","","","","","","","","","","","","","","","","","","","","","",""
"null","","html-keyboard-response","65","390292","0.0-64.0","A1T208Y507O4RS","<p style=""font-size: 48px;"">+</p>","","","","","null","allTrialResponses","1000","1","3","img_art/19.jpg","-42","too dreary","Michaela,Leslie,Kathryn,Sabrina,Miranda,Dominique","It's ok but it's nothing I would hang on my wall,11,260,20","It's a cute city scene, but nothing special.,10,380,20","This one feels pretty neutral. Like a window into someone's life, one person in a bustling metropolis.,0,140,20","Gives a very open and freeing vibe,42,120,20","It looks cool but at the time looks like it was done by a talented 5 year old.,13,320,20","I really like the colors and feel of this one and alot of life,41,400,20","Kathryn","This one feels pretty neutral. Like a window into someone's life, one person in a bustling metropolis.,0,140,20","Leslie","It's a cute city scene, but nothing special.,10,380,20","Michaela","It's ok but it's nothing I would hang on my wall,11,260,20","2"
"5257","","survey-text","66","395567","0.0-65.0-0.0","A1T208Y507O4RS","","","","{""Q0"":""too modern""}","","","","","","","","","","","","","","","","","","","","","","",""
"3128.600000143051","","image-slider-response","67","398701","0.0-66.0","A1T208Y507O4RS","","","","","-45","","","","","","","","","","","","","","","","","","","","","",""
"null","","image-button-response","68","403708","0.0-67.0","A1T208Y507O4RS","img_art/11.jpg","null","","","","","","","","","","","","","","","","","","","","","","","","",""
"4554","","image-button-response","69","408267","0.0-68.0","A1T208Y507O4RS","img_art/11.jpg","1","","","","","","","","","","","","","","","","","","","","","","","","",""
"508","","image-button-response","70","408780","0.0-69.0-0.0","A1T208Y507O4RS","img_art/11.jpg","2","","","","","","","","","","","","","","","","","","","","","","","","",""
"712","","image-button-response","71","409497","0.0-70.0-0.0","A1T208Y507O4RS","img_art/11.jpg","0","","","","","","","","","","","","","","","","","","","","","","","","",""
"null","","html-keyboard-response","72","410523","0.0-71.0","A1T208Y507O4RS","<p style=""font-size: 48px;"">+</p>","","","","","null","allTrialResponses","1000","1","4","img_art/11.jpg","-45","too modern","Michaela,Leslie,Kathryn,Kaitlin,Morgan,Chloe","Reminds me of a city and how chaotic it can be,22,260,20","This elicits no reaction in me.,0,380,20","This is disorienting, like motion sickness.,-20,140,20","a beautiful piece of art,33,60,20","Waves of signs.,15,380,20","Like the movement but not the background colors.,21,220,20","Leslie","This elicits no reaction in me.,0,380,20","Kathryn","This is disorienting, like motion sickness.,-20,140,20","Michaela","Reminds me of a city and how chaotic it can be,22,260,20","2"
"7852","","survey-text","73","418390","0.0-72.0-0.0","A1T208Y507O4RS","","","","{""Q0"":""like poop""}","","","","","","","","","","","","","","","","","","","","","","",""
"5468","","image-slider-response","74","423864","0.0-73.0","A1T208Y507O4RS","","","","","-50","","","","","","","","","","","","","","","","","","","","","",""
"2152","","image-button-response","75","428885","0.0-74.0","A1T208Y507O4RS","img_art/4.jpg","0","","","","","","","","","","","","","","","","","","","","","","","","",""
"2561","","image-button-response","76","431453","0.0-75.0","A1T208Y507O4RS","img_art/4.jpg","5","","","","","","","","","","","","","","","","","","","","","","","","",""
"3790","","image-button-response","77","435250","0.0-76.0-0.0","A1T208Y507O4RS","img_art/4.jpg","3","","","","","","","","","","","","","","","","","","","","","","","","",""
"1211","","image-button-response","78","436469","0.0-77.0-0.0","A1T208Y507O4RS","img_art/4.jpg","0","","","","","","","","","","","","","","","","","","","","","","","","",""
"null","","html-keyboard-response","79","436974","0.0-78.0","A1T208Y507O4RS","<p style=""font-size: 48px;"">+</p>","","","","","null","allTrialResponses","500","1","5","img_art/4.jpg","-50","like poop","Michaela,Leslie,Kathryn,Shelby,Kimberly,Mary","It reminds me of something a kid would make for their parents,13,260,20","This elicits no reaction in me.,0,380,20","I feel kind of guilty looking at this, like I'm receiving a reward I don't I deserve.,-10,140,20","The colors feel a bit off to me,-10,240,20","It's ok, theres nothing that draws me away from it I guess,0,260,20","This looks like a child got into his diaper.,-46,180,20","Mary","This looks like a child got into his diaper.,-46,180,20","Shelby","The colors feel a bit off to me,-10,240,20","Michaela","It reminds me of something a kid would make for their parents,13,260,20","2"
"6322","","survey-text","80","443322","0.0-79.0-0.0","A1T208Y507O4RS","","","","{""Q0"":""sky""}","","","","","","","","","","","","","","","","","","","","","","",""
"39971","","survey-text","81","483298","0.0-80.0-0.0","A1T208Y507O4RS","","","","{""Q0"":""like the brush strokes""}","","","","","","","","","","","","","","","","","","","","","","",""
"4663.200000047684","","image-slider-response","82","487967","0.0-81.0","A1T208Y507O4RS","","","","","12","","","","","","","","","","","","","","","","","","","","","",""
"2946","","image-button-response","83","492987","0.0-82.0","A1T208Y507O4RS","img_art/21.jpg","0","","","","","","","","","","","","","","","","","","","","","","","","",""
"923","","image-button-response","84","493939","0.0-83.0","A1T208Y507O4RS","img_art/21.jpg","0","","","","","","","","","","","","","","","","","","","","","","","","",""
"1685","","image-button-response","85","495630","0.0-84.0-0.0","A1T208Y507O4RS","img_art/21.jpg","3","","","","","","","","","","","","","","","","","","","","","","","","",""
"1356","","image-button-response","86","496992","0.0-85.0-0.0","A1T208Y507O4RS","img_art/21.jpg","5","","","","","","","","","","","","","","","","","","","","","","","","",""
"null","","html-keyboard-response","87","498002","0.0-86.0","A1T208Y507O4RS","<p style=""font-size: 48px;"">+</p>","","","","","null","allTrialResponses","1000","1","6","img_art/21.jpg","12","like the brush strokes","Michaela,Danielle,Gabriela,Shelby,Natalie,Mary","I love how vague it is but how you can imagine a story anyway, like clouds,45,260,20","I like it. It's some of war-scene, bloodshed and battle on the left, field of dispair on the right, dark and rich,40,340,20","It makes me feel mellow or ""chill"". It makes me have a positive and calm mood,42,140,20","Very calming and soft, makes me feel good,31,240,20","my response to the picture is what is going on?,-13,400,20","This is lovely. I like the mix of colors, the warn and cool slowly combining.,39,180,20","Michaela","I love how vague it is but how you can imagine a story anyway, like clouds,45,260,20","Shelby","Very calming and soft, makes me feel good,31,240,20","Mary","This is lovely. I like the mix of colors, the warn and cool slowly combining.,39,180,20","2"
"7132","","survey-text","88","505150","0.0-87.0-0.0","A1T208Y507O4RS","","","","{""Q0"":""reminds me of music ""}","","","","","","","","","","","","","","","","","","","","","","",""
"17617.900000095367","","image-slider-response","89","522772","0.0-88.0","A1T208Y507O4RS","","","","","20","","","","","","","","","","","","","","","","","","","","","",""
"2286","","image-button-response","90","527779","0.0-89.0","A1T208Y507O4RS","img_art/10.jpg","3","","","","","","","","","","","","","","","","","","","","","","","","",""
"719","","image-button-response","91","528503","0.0-90.0","A1T208Y507O4RS","img_art/10.jpg","4","","","","","","","","","","","","","","","","","","","","","","","","",""
"918","","image-button-response","92","529427","0.0-91.0-0.0","A1T208Y507O4RS","img_art/10.jpg","3","","","","","","","","","","","","","","","","","","","","","","","","",""
"2423","","image-button-response","93","531857","0.0-92.0-0.0","A1T208Y507O4RS","img_art/10.jpg","2","","","","","","","","","","","","","","","","","","","","","","","","",""
"null","","html-keyboard-response","94","532876","0.0-93.0","A1T208Y507O4RS","<p style=""font-size: 48px;"">+</p>","","","","","null","allTrialResponses","1000","1","7","img_art/10.jpg","20","reminds me of music ","Michaela,Alyssa,Erika,Shelby,Megan,Mary","It looks like it's sinking but it could also be a view from above,40,260,20","Bleak and uninteresting,-10,160,20","Good texture, expressive,18,100,20","Love the monotonal texture,20,240,20","Music visualized with subtle color,17,200,20","The flow of lines is off. There are curvy and straight angry lines. It's not flattering at all.,-27,180,20","Megan","Music visualized with subtle color,17,200,20","Shelby","Love the monotonal texture,20,240,20","Erika","Good texture, expressive,18,100,20","2"
"8121","","survey-text","95","541014","0.0-94.0-0.0","A1T208Y507O4RS","","","","{""Q0"":""war like""}","","","","","","","","","","","","","","","","","","","","","","",""
"9879.5","","image-slider-response","96","550899","0.0-95.0","A1T208Y507O4RS","","","","","-21","","","","","","","","","","","","","","","","","","","","","",""
"3303","","image-button-response","97","555912","0.0-96.0","A1T208Y507O4RS","img_art/18.jpg","3","","","","","","","","","","","","","","","","","","","","","","","","",""
"669","","image-button-response","98","556586","0.0-97.0","A1T208Y507O4RS","img_art/18.jpg","3","","","","","","","","","","","","","","","","","","","","","","","","",""
"808","","image-button-response","99","557400","0.0-98.0-0.0","A1T208Y507O4RS","img_art/18.jpg","0","","","","","","","","","","","","","","","","","","","","","","","","",""
"703","","image-button-response","100","558108","0.0-99.0-0.0","A1T208Y507O4RS","img_art/18.jpg","1","","","","","","","","","","","","","","","","","","","","","","","","",""
"null","","html-keyboard-response","101","559121","0.0-100.0","A1T208Y507O4RS","<p style=""font-size: 48px;"">+</p>","","","","","null","allTrialResponses","1000","1","8","img_art/18.jpg","-21","war like","Kayla,Kelly,Erika,Shelby,Megan,Destiny","It's like a ship, but a freaky ship.,-11,180,20","It's interesting. I'm not sure how I feel about it, but i enjoy the ghostly apparitions.,10,220,20","Gently chaotic and beautiful,40,100,20","This gives a very ominous feeling,-30,240,20","Nice palette with complexity becoming nice at the center,34,200,20","Can't tell if I love it or hate it. That response warranted more than neutral so I gave it 20 but not sure,21,360,20","Shelby","This gives a very ominous feeling,-30,240,20","Kayla","It's like a ship, but a freaky ship.,-11,180,20","Kelly","It's interesting. I'm not sure how I feel about it, but i enjoy the ghostly apparitions.,10,220,20","2"
"105458","","survey-text","102","664598","0.0-101.0-0.0","A1T208Y507O4RS","","","","{""Q0"":""fireworks""}","","","","","","","","","","","","","","","","","","","","","","",""
"2979.899999856949","","image-slider-response","103","667588","0.0-102.0","A1T208Y507O4RS","","","","","7","","","","","","","","","","","","","","","","","","","","","",""
"null","","image-button-response","104","672848","0.0-103.0","A1T208Y507O4RS","img_art/23.jpg","null","","","","","","","","","","","","","","","","","","","","","","","","",""
"28978","","image-button-response","105","701831","0.0-104.0","A1T208Y507O4RS","img_art/23.jpg","3","","","","","","","","","","","","","","","","","","","","","","","","",""
"464","","image-button-response","106","702301","0.0-105.0-0.0","A1T208Y507O4RS","img_art/23.jpg","4","","","","","","","","","","","","","","","","","","","","","","","","",""
"571","","image-button-response","107","702881","0.0-106.0-0.0","A1T208Y507O4RS","img_art/23.jpg","5","","","","","","","","","","","","","","","","","","","","","","","","",""
"null","","html-keyboard-response","108","704398","0.0-107.0","A1T208Y507O4RS","<p style=""font-size: 48px;"">+</p>","","","","","null","allTrialResponses","1500","1","9","img_art/23.jpg","7","fireworks","Kayla,Kelly,Kristen,Shelby,Katelyn,Alexis","Like a wound that has been sutured. Pain, but also healing.,5,180,20","Love this. I love the white, really pops with the colors surrounding it.,44,220,20","fsiries, happy, spiritual,16,280,20","This feels so energized, i love it,50,240,20","Makes me want to stare at it for hours. Like there is something deeper to find.,37,100,20","Pretty cool. I love the white, reminds me of people lined up.,28,100,20","Shelby","This feels so energized, i love it,50,240,20","Katelyn","Makes me want to stare at it for hours. Like there is something deeper to find.,37,100,20","Alexis","Pretty cool. I love the white, reminds me of people lined up.,28,100,20","2"
"8845","","survey-text","109","713280","0.0-108.0-0.0","A1T208Y507O4RS","","","","{""Q0"":""modern and geometric""}","","","","","","","","","","","","","","","","","","","","","","",""
"16883.60000014305","","image-slider-response","110","730172","0.0-109.0","A1T208Y507O4RS","","","","","-28","","","","","","","","","","","","","","","","","","","","","",""
"1302","","image-button-response","111","735195","0.0-110.0","A1T208Y507O4RS","img_art/2.jpg","1","","","","","","","","","","","","","","","","","","","","","","","","",""
"396","","image-button-response","112","735604","0.0-111.0","A1T208Y507O4RS","img_art/2.jpg","2","","","","","","","","","","","","","","","","","","","","","","","","",""
"578","","image-button-response","113","736189","0.0-112.0-0.0","A1T208Y507O4RS","img_art/2.jpg","1","","","","","","","","","","","","","","","","","","","","","","","","",""
"474","","image-button-response","114","736674","0.0-113.0-0.0","A1T208Y507O4RS","img_art/2.jpg","0","","","","","","","","","","","","","","","","","","","","","","","","",""
"null","","html-keyboard-response","115","737685","0.0-114.0","A1T208Y507O4RS","<p style=""font-size: 48px;"">+</p>","","","","","null","allTrialResponses","1000","1","10","img_art/2.jpg","-28","modern and geometric","Jacqueline,Rebecca,Caroline,Shelby,Katelyn,Alexis","A bit ugly with the greens.,-20,300,20","do not understand,-21,100,20","Colors are drab and cause a sense of blandness,-28,100,20","The contrasting colors are a bit harsh,-10,240,20","Looks childish and i dont like the texture,-25,100,20","Do not like this type of abstract work,-50,100,20","Caroline","Colors are drab and cause a sense of blandness,-28,100,20","Rebecca","do not understand,-21,100,20","Jacqueline","A bit ugly with the greens.,-20,300,20","2"
"77331","","survey-text","116","815068","0.0-115.0-0.0","A1T208Y507O4RS","","","","{""Q0"":""our""}","","","","","","","","","","","","","","","","","","","","","","",""
"6841","","survey-text","117","821916","0.0-116.0-0.0","A1T208Y507O4RS","","","","{""Q0"":""bland boring""}","","","","","","","","","","","","","","","","","","","","","","",""
"7050.299999952316","","image-slider-response","118","828973","0.0-117.0","A1T208Y507O4RS","","","","","-30","","","","","","","","","","","","","","","","","","","","","",""
"null","","image-button-response","119","840312","0.0-118.0","A1T208Y507O4RS","img_art/26.jpg","null","","","","","","","","","","","","","","","","","","","","","","","","",""
"5329","","image-button-response","120","845648","0.0-119.0","A1T208Y507O4RS","img_art/26.jpg","0","","","","","","","","","","","","","","","","","","","","","","","","",""
"2250","","image-button-response","121","847905","0.0-120.0-0.0","A1T208Y507O4RS","img_art/26.jpg","3","","","","","","","","","","","","","","","","","","","","","","","","",""
"1465","","image-button-response","122","849381","0.0-121.0-0.0","A1T208Y507O4RS","img_art/26.jpg","1","","","","","","","","","","","","","","","","","","","","","","","","",""
"null","","html-keyboard-response","123","850899","0.0-122.0","A1T208Y507O4RS","<p style=""font-size: 48px;"">+</p>","","","","","null","allTrialResponses","1500","1","11","img_art/26.jpg","-30","bland boring","Jacqueline,Rebecca,Caroline,Gabrielle,Shannon,Abigail","I don't really see the point in this painting.,-16,300,20","love the ""lowkey"" vibrant colors that are colorful but at the same time greyscale,12,100,20","Calming and relaxing,28,100,20","subtle use of colors, city street view?,8,160,20","I like that it looks like an actual picture and isn't just random colors.,25,220,20","Reminds me of walks in my dads city when I was little,22,20,20","Jacqueline","I don't really see the point in this painting.,-16,300,20","Gabrielle","subtle use of colors, city street view?,8,160,20","Rebecca","love the ""lowkey"" vibrant colors that are colorful but at the same time greyscale,12,100,20","2"
"8730","","survey-text","124","859680","0.0-123.0-0.0","A1T208Y507O4RS","","","","{""Q0"":""dreary scary""}","","","","","","","","","","","","","","","","","","","","","","",""
"36073.299999952316","","image-slider-response","125","895758","0.0-124.0","A1T208Y507O4RS","","","","","-45","","","","","","","","","","","","","","","","","","","","","",""
"null","","image-button-response","126","902672","0.0-125.0","A1T208Y507O4RS","img_art/12.jpg","null","","","","","","","","","","","","","","","","","","","","","","","","",""
"22828","","image-button-response","127","925533","0.0-126.0","A1T208Y507O4RS","img_art/12.jpg","0","","","","","","","","","","","","","","","","","","","","","","","","",""
"1213","","image-button-response","128","926755","0.0-127.0-0.0","A1T208Y507O4RS","img_art/12.jpg","5","","","","","","","","","","","","","","","","","","","","","","","","",""
"1577","","image-button-response","129","928341","0.0-128.0-0.0","A1T208Y507O4RS","img_art/12.jpg","4","","","","","","","","","","","","","","","","","","","","","","","","",""
"null","","html-keyboard-response","130","928848","0.0-129.0","A1T208Y507O4RS","<p style=""font-size: 48px;"">+</p>","","","","","null","allTrialResponses","500","1","12","img_art/12.jpg","-45","dreary scary","Jacqueline,Rebecca,Kaitlyn,Gabrielle,Mackenzie,Melissa","It's not particularly interesting or ugly.,-7,300,20","so many different available interpretations for this, would love to closer.,24,100,20","The shapes present in the picture make it very interesting,17,80,20","seems too dark on top and too common on the bottom,-19,160,20","I like the color scheme.,10,20,20","reminds me of a dixie cup,3,240,20","Jacqueline","It's not particularly interesting or ugly.,-7,300,20","Melissa","reminds me of a dixie cup,3,240,20","Mackenzie","I like the color scheme.,10,20,20","2"
"7853","","survey-text","131","936772","0.0-130.0-0.0","A1T208Y507O4RS","","","","{""Q0"":""eerie creepy""}","","","","","","","","","","","","","","","","","","","","","","",""
"17980.199999809265","","image-slider-response","132","954761","0.0-131.0","A1T208Y507O4RS","","","","","-46","","","","","","","","","","","","","","","","","","","","","",""
"3300","","image-button-response","133","959781","0.0-132.0","A1T208Y507O4RS","img_art/8.jpg","1","","","","","","","","","","","","","","","","","","","","","","","","",""
"717","","image-button-response","134","960506","0.0-133.0","A1T208Y507O4RS","img_art/8.jpg","1","","","","","","","","","","","","","","","","","","","","","","","","",""
"658","","image-button-response","135","961170","0.0-134.0-0.0","A1T208Y507O4RS","img_art/8.jpg","2","","","","","","","","","","","","","","","","","","","","","","","","",""
"2555","","image-button-response","136","963732","0.0-135.0-0.0","A1T208Y507O4RS","img_art/8.jpg","5","","","","","","","","","","","","","","","","","","","","","","","","",""
"null","","html-keyboard-response","137","964745","0.0-136.0","A1T208Y507O4RS","<p style=""font-size: 48px;"">+</p>","","","","","null","allTrialResponses","1000","1","13","img_art/8.jpg","-46","eerie creepy","Jacqueline,Julia,Marissa,Brittany,Mackenzie,Melissa","This is kind of neat. I really like how things are oriented and the shapes used.,18,300,20","it's a little too classical for my tastes,-25,40,20","I can't tell if this is supposed to portray just city life or a town crumbling,-5,160,20","Interesting to look at, there are many things happening in the painting.,32,40,20","The different shapes are fun to look for.,30,20,20","crisp shapes, find more things the longer you look,17,240,20","Julia","it's a little too classical for my tastes,-25,40,20","Marissa","I can't tell if this is supposed to portray just city life or a town crumbling,-5,160,20","Melissa","crisp shapes, find more things the longer you look,17,240,20","2"
"17559","","survey-text","138","982328","0.0-137.0-0.0","A1T208Y507O4RS","","","","{""Q0"":""kids art""}","","","","","","","","","","","","","","","","","","","","","","",""
"14364.400000095367","","image-slider-response","139","996697","0.0-138.0","A1T208Y507O4RS","","","","","-41","","","","","","","","","","","","","","","","","","","","","",""
"3956","","image-button-response","140","1001716","0.0-139.0","A1T208Y507O4RS","img_art/30.jpg","1","","","","","","","","","","","","","","","","","","","","","","","","",""
"799","","image-button-response","141","1002521","0.0-140.0","A1T208Y507O4RS","img_art/30.jpg","1","","","","","","","","","","","","","","","","","","","","","","","","",""
"1422","","image-button-response","142","1003950","0.0-141.0-0.0","A1T208Y507O4RS","img_art/30.jpg","5","","","","","","","","","","","","","","","","","","","","","","","","",""
"1342","","image-button-response","143","1005298","0.0-142.0-0.0","A1T208Y507O4RS","img_art/30.jpg","4","","","","","","","","","","","","","","","","","","","","","","","","",""
"null","","html-keyboard-response","144","1006304","0.0-143.0","A1T208Y507O4RS","<p style=""font-size: 48px;"">+</p>","","","","","null","allTrialResponses","1000","1","14","img_art/30.jpg","-41","kids art","Brianna,Julia,Marissa,Hailey,Briana,Melissa","I like the fact that it's a painting.,21,20,20","this is probably part of a neat series, but the abstraction doesn't speak to me,-17,40,20","I really like the broad and colorful strokes,21,160,20","snakes in the grass, I don't like it,-17,200,20","Its ugly. Too simple,-23,400,20","muddy, feels unintentional,-50,240,20","Julia","this is probably part of a neat series, but the abstraction doesn't speak to me,-17,40,20","Melissa","muddy, feels unintentional,-50,240,20","Briana","Its ugly. Too simple,-23,400,20","2"
"87377","","survey-text","145","1093710","0.0-144.0-0.0","A1T208Y507O4RS","","","","{""Q0"":""dog prints""}","","","","","","","","","","","","","","","","","","","","","","",""
"2836.899999856949","","image-slider-response","146","1096557","0.0-145.0","A1T208Y507O4RS","","","","","-11","","","","","","","","","","","","","","","","","","","","","",""
"3095","","image-button-response","147","1101576","0.0-146.0","A1T208Y507O4RS","img_art/7.jpg","1","","","","","","","","","","","","","","","","","","","","","","","","",""
"783","","image-button-response","148","1102365","0.0-147.0","A1T208Y507O4RS","img_art/7.jpg","1","","","","","","","","","","","","","","","","","","","","","","","","",""
"797","","image-button-response","149","1103168","0.0-148.0-0.0","A1T208Y507O4RS","img_art/7.jpg","0","","","","","","","","","","","","","","","","","","","","","","","","",""
"668","","image-button-response","150","1103843","0.0-149.0-0.0","A1T208Y507O4RS","img_art/7.jpg","3","","","","","","","","","","","","","","","","","","","","","","","","",""
"null","","html-keyboard-response","151","1105353","0.0-150.0","A1T208Y507O4RS","<p style=""font-size: 48px;"">+</p>","","","","","null","allTrialResponses","1500","1","15","img_art/7.jpg","-11","dog prints","Alexandra,Julia,Michelle,Amber,Briana,Melissa","I do not like the boring colors in this.,-20,60,20","I would like this more if I could pretend it was the moon.,-26,40,20","Hmm interesting, looks like mars or something terrestrial. Too abstract for me and too much brown,4,280,20","Dull and confusing,-24,200,20","Are these ancient cave paintings?,-7,400,20","textures are engaging,8,240,20","Julia","I would like this more if I could pretend it was the moon.,-26,40,20","Alexandra","I do not like the boring colors in this.,-20,60,20","Amber","Dull and confusing,-24,200,20","2"
"8122","","survey-text","152","1113530","0.0-151.0-0.0","A1T208Y507O4RS","","","","{""Q0"":""course""}","","","","","","","","","","","","","","","","","","","","","","",""
"5984","","survey-text","153","1119519","0.0-152.0-0.0","A1T208Y507O4RS","","","","{""Q0"":""eerie""}","","","","","","","","","","","","","","","","","","","","","","",""
"7258","","survey-text","154","1128493","0.0-152.1-0.1","A1T208Y507O4RS","","","","{""Q0"":""eerie and scary""}","","","","","","","","","","","","","","","","","","","","","","",""
"72169","","image-slider-response","155","1200668","0.0-153.0","A1T208Y507O4RS","","","","","-50","","","","","","","","","","","","","","","","","","","","","",""
"null","","image-button-response","156","1205689","0.0-154.0","A1T208Y507O4RS","img_art/16.jpg","null","","","","","","","","","","","","","","","","","","","","","","","","",""
"130879","","image-button-response","157","1336574","0.0-155.0","A1T208Y507O4RS","img_art/16.jpg","0","","","","","","","","","","","","","","","","","","","","","","","","",""
"864","","image-button-response","158","1337444","0.0-156.0-0.0","A1T208Y507O4RS","img_art/16.jpg","2","","","","","","","","","","","","","","","","","","","","","","","","",""
"4233","","image-button-response","159","1341685","0.0-157.0-0.0","A1T208Y507O4RS","img_art/16.jpg","5","","","","","","","","","","","","","","","","","","","","","","","","",""
"null","","html-keyboard-response","160","1342692","0.0-158.0","A1T208Y507O4RS","<p style=""font-size: 48px;"">+</p>","","","","","null","allTrialResponses","1000","1","16","img_art/16.jpg","-50","eerie and scary","Alexandra,Julia,Kelsey,Amber,Anna,Alicia","This is weird and creepy.,-40,60,20","I love the teddy bear,50,40,20","its disturbing! what the heck,-27,240,20","Don't like the teddy bear. It takes away from the painting.,-39,200,20","It's edgy but cool,10,300,20","Don't get it. Hate it. ugly.,-44,120,20","Alexandra","This is weird and creepy.,-40,60,20","Kelsey","its disturbing! what the heck,-27,240,20","Alicia","Don't get it. Hate it. ugly.,-44,120,20","2"
"20836","","survey-text","161","1363586","0.0-159.0-0.0","A1T208Y507O4RS","","","","{""Q0"":""just ok""}","","","","","","","","","","","","","","","","","","","","","","",""
"4825.200000047684","","image-slider-response","162","1368419","0.0-160.0","A1T208Y507O4RS","","","","","2","","","","","","","","","","","","","","","","","","","","","",""
"null","","image-button-response","163","1373950","0.0-161.0","A1T208Y507O4RS","img_art/1.jpg","null","","","","","","","","","","","","","","","","","","","","","","","","",""
"90597","","image-button-response","164","1464554","0.0-162.0","A1T208Y507O4RS","img_art/1.jpg","5","","","","","","","","","","","","","","","","","","","","","","","","",""
"987","","image-button-response","165","1465548","0.0-163.0-0.0","A1T208Y507O4RS","img_art/1.jpg","2","","","","","","","","","","","","","","","","","","","","","","","","",""
"1518","","image-button-response","166","1467074","0.0-164.0-0.0","A1T208Y507O4RS","img_art/1.jpg","1","","","","","","","","","","","","","","","","","","","","","","","","",""
"null","","html-keyboard-response","167","1468080","0.0-165.0","A1T208Y507O4RS","<p style=""font-size: 48px;"">+</p>","","","","","null","allTrialResponses","1000","1","17","img_art/1.jpg","2","just ok","Alexandra,Erica,Kelsey,Autumn,Cynthia,Alicia","I love the warm colors of the art,32,60,20","Makes me warm and relaxed,38,80,20","this ones alright,10,240,20","Doesn't represent anything in particular.,-47,340,20","fishing on the lake surrounded by trees,42,320,20","just colors mixed together. not interesting.,5,120,20","Alicia","just colors mixed together. not interesting.,5,120,20","Kelsey","this ones alright,10,240,20","Erica","Makes me warm and relaxed,38,80,20","2"
"9603","","survey-text","168","1477729","0.0-166.0-0.0","A1T208Y507O4RS","","","","{""Q0"":""it is interesting""}","","","","","","","","","","","","","","","","","","","","","","",""
"3231.9000000953674","","image-slider-response","169","1480970","0.0-167.0","A1T208Y507O4RS","","","","","12","","","","","","","","","","","","","","","","","","","","","",""
"null","","image-button-response","170","1485998","0.0-168.0","A1T208Y507O4RS","img_art/22.jpg","null","","","","","","","","","","","","","","","","","","","","","","","","",""
"3324","","image-button-response","171","1489327","0.0-169.0","A1T208Y507O4RS","img_art/22.jpg","1","","","","","","","","","","","","","","","","","","","","","","","","",""
"549","","image-button-response","172","1489881","0.0-170.0-0.0","A1T208Y507O4RS","img_art/22.jpg","0","","","","","","","","","","","","","","","","","","","","","","","","",""
"1071","","image-button-response","173","1490963","0.0-171.0-0.0","A1T208Y507O4RS","img_art/22.jpg","5","","","","","","","","","","","","","","","","","","","","","","","","",""
"null","","html-keyboard-response","174","1501979","0.0-172.0","A1T208Y507O4RS","<p style=""font-size: 48px;"">+</p>","","","","","null","allTrialResponses","1000","1","18","img_art/22.jpg","12","it is interesting","Brooke,Erica,Kelsey,Haley,Jamie,Alicia","Like this one, like a sunset,30,60,20","Picture is very relaxing,32,80,20","its messy, like a child painted it,-14,240,20","Beautiful. I love the color contrast and gradients.,50,220,20","Like the mix of warm and cool colors,15,320,20","Could be interpreted so many ways, bold. I like it.,29,120,20","Erica","Picture is very relaxing,32,80,20","Brooke","Like this one, like a sunset,30,60,20","Alicia","Could be interpreted so many ways, bold. I like it.,29,120,20","2"
"11807","","survey-text","175","1514833","0.0-173.0-0.0","A1T208Y507O4RS","","","","{""Q0"":""confusing and weird""}","","","","","","","","","","","","","","","","","","","","","","",""
"10262.400000095367","","image-slider-response","176","1525103","0.0-174.0","A1T208Y507O4RS","","","","","-37","","","","","","","","","","","","","","","","","","","","","",""
"null","","image-button-response","177","1531714","0.0-175.0","A1T208Y507O4RS","img_art/27.jpg","null","","","","","","","","","","","","","","","","","","","","","","","","",""
"42958","","image-button-response","178","1574677","0.0-176.0","A1T208Y507O4RS","img_art/27.jpg","2","","","","","","","","","","","","","","","","","","","","","","","","",""
"2405","","image-button-response","179","1577089","0.0-177.0-0.0","A1T208Y507O4RS","img_art/27.jpg","3","","","","","","","","","","","","","","","","","","","","","","","","",""
"510","","image-button-response","180","1577610","0.0-178.0-0.0","A1T208Y507O4RS","img_art/27.jpg","4","","","","","","","","","","","","","","","","","","","","","","","","",""
"null","","html-keyboard-response","181","1578619","0.0-179.0","A1T208Y507O4RS","<p style=""font-size: 48px;"">+</p>","","","","","null","allTrialResponses","1000","1","19","img_art/27.jpg","-37","confusing and weird","Brooke,Erica,Caitlin,Cheyenne,Sara,Alicia","Like it, autumn colors, trees and foliage scene.,25,60,20","I like the pictures but it is a lot of going on,10,80,20","Looks like a child added his own interpretation with a black marker.,-5,80,20","This one does nothing for me.,2,200,20","Not cohesive design,-31,160,20","dont like it, don't hate it, meh.,2,120,20","Caitlin","Looks like a child added his own interpretation with a black marker.,-5,80,20","Cheyenne","This one does nothing for me.,2,200,20","Sara","Not cohesive design,-31,160,20","2"
"6572","","survey-text","182","1585234","0.0-180.0-0.0","A1T208Y507O4RS","","","","{""Q0"":""looks bloody""}","","","","","","","","","","","","","","","","","","","","","","",""
"15553.300000190735","","image-slider-response","183","1600795","0.0-181.0","A1T208Y507O4RS","","","","","-49","","","","","","","","","","","","","","","","","","","","","",""
"4461","","image-button-response","184","1605805","0.0-182.0","A1T208Y507O4RS","img_art/3.jpg","2","","","","","","","","","","","","","","","","","","","","","","","","",""
"1248","","image-button-response","185","1607059","0.0-183.0","A1T208Y507O4RS","img_art/3.jpg","2","","","","","","","","","","","","","","","","","","","","","","","","",""
"657","","image-button-response","186","1607725","0.0-184.0-0.0","A1T208Y507O4RS","img_art/3.jpg","5","","","","","","","","","","","","","","","","","","","","","","","","",""
"3427","","image-button-response","187","1611162","0.0-185.0-0.0","A1T208Y507O4RS","img_art/3.jpg","0","","","","","","","","","","","","","","","","","","","","","","","","",""
"null","","html-keyboard-response","188","1614581","0.0-186.0","A1T208Y507O4RS","<p style=""font-size: 48px;"">+</p>","","","","","null","allTrialResponses","1500","1","20","img_art/3.jpg","-49","looks bloody","Angelica,Makayla,Caitlin,Cheyenne,Sara,Andrea","This is angry and childish looking.,-49,280,20","Looks like blood scribbled on walls,-20,80,20","Why kids with color crayons is called art is beyond me. People pay for this???,-40,80,20","Don't see what the purpose is.,-31,200,20","Random use of red and looks scary,-50,160,20","I don't feel anything, it seems childish.,-25,240,20","Caitlin","Why kids with color crayons is called art is beyond me. People pay for this???,-40,80,20","Andrea","I don't feel anything, it seems childish.,-25,240,20","Angelica","This is angry and childish looking.,-49,280,20","2"
"22687","","survey-text","189","1637734","0.0-187.0-0.0","A1T208Y507O4RS","","","","{""Q0"":""we""}","","","","","","","","","","","","","","","","","","","","","","",""
"7962","","survey-text","190","1645702","0.0-188.0-0.0","A1T208Y507O4RS","","","","{""Q0"":""intersting and modern""}","","","","","","","","","","","","","","","","","","","","","","",""
"3965.7000000476837","","image-slider-response","191","1649676","0.0-189.0","A1T208Y507O4RS","","","","","12","","","","","","","","","","","","","","","","","","","","","",""
"null","","image-button-response","192","1655027","0.0-190.0","A1T208Y507O4RS","img_art/29.jpg","null","","","","","","","","","","","","","","","","","","","","","","","","",""
"42554","","image-button-response","193","1697586","0.0-191.0","A1T208Y507O4RS","img_art/29.jpg","5","","","","","","","","","","","","","","","","","","","","","","","","",""
"1222","","image-button-response","194","1698814","0.0-192.0-0.0","A1T208Y507O4RS","img_art/29.jpg","1","","","","","","","","","","","","","","","","","","","","","","","","",""
"737","","image-button-response","195","1699560","0.0-193.0-0.0","A1T208Y507O4RS","img_art/29.jpg","0","","","","","","","","","","","","","","","","","","","","","","","","",""
"null","","html-keyboard-response","196","1700076","0.0-194.0","A1T208Y507O4RS","<p style=""font-size: 48px;"">+</p>","","","","","null","allTrialResponses","500","1","21","img_art/29.jpg","12","intersting and modern","Angelica,Molly,Caitlin,Sophia,Grace,Andrea","This is very gross and odd looking.,-8,280,20","Looks kinda scary.,25,340,20","I would give up and give it a red X too.,-5,80,20","It's creative. It's just not my thing.,-32,280,20","Doesn't do much for me. I like some of the colors but not much else.,-10,180,20","Bottomless pit and prison. Feels like its saying time is precious.,11,240,20","Andrea","Bottomless pit and prison. Feels like its saying time is precious.,11,240,20","Molly","Looks kinda scary.,25,340,20","Angelica","This is very gross and odd looking.,-8,280,20","2"
"7350","","survey-text","197","1707467","0.0-195.0-0.0","A1T208Y507O4RS","","","","{""Q0"":""bouquet like""}","","","","","","","","","","","","","","","","","","","","","","",""
"5177.100000143051","","image-slider-response","198","1712650","0.0-196.0","A1T208Y507O4RS","","","","","11","","","","","","","","","","","","","","","","","","","","","",""
"null","","image-button-response","199","1717877","0.0-197.0","A1T208Y507O4RS","img_art/14.jpg","null","","","","","","","","","","","","","","","","","","","","","","","","",""
"54763","","image-button-response","200","1772645","0.0-198.0","A1T208Y507O4RS","img_art/14.jpg","4","","","","","","","","","","","","","","","","","","","","","","","","",""
"873","","image-button-response","201","1773525","0.0-199.0-0.0","A1T208Y507O4RS","img_art/14.jpg","5","","","","","","","","","","","","","","","","","","","","","","","","",""
"1059","","image-button-response","202","1774594","0.0-200.0-0.0","A1T208Y507O4RS","img_art/14.jpg","1","","","","","","","","","","","","","","","","","","","","","","","","",""
"null","","html-keyboard-response","203","1776100","0.0-201.0","A1T208Y507O4RS","<p style=""font-size: 48px;"">+</p>","","","","","null","allTrialResponses","1500","1","22","img_art/14.jpg","11","bouquet like","Angelica,Molly,Sierra,Emily,Bailey,Andrea","This is poorly done and not aesthetically appealing.,-2,280,20","In my opinion it's spectacular.,35,340,20","it put me on edge.,-11,260,20","Looks like there is some skill but also at the same time parts look unskilled.,-16,40,20","Not quite the style I'd like, but it does have a certain air of emptiness.,12,360,20","Cute little plant.,15,240,20","Bailey","Not quite the style I'd like, but it does have a certain air of emptiness.,12,360,20","Andrea","Cute little plant.,15,240,20","Molly","In my opinion it's spectacular.,35,340,20","2"
"12496","","survey-text","204","1788640","0.0-202.0-0.0","A1T208Y507O4RS","","","","{""Q0"":""gross and dreary""}","","","","","","","","","","","","","","","","","","","","","","",""
"112692.89999985695","","image-slider-response","205","1901341","0.0-203.0","A1T208Y507O4RS","","","","","-49","","","","","","","","","","","","","","","","","","","","","",""
"null","","image-button-response","206","1906379","0.0-204.0","A1T208Y507O4RS","img_art/28.jpg","null","","","","","","","","","","","","","","","","","","","","","","","","",""
"1072","","image-button-response","207","1907457","0.0-205.0","A1T208Y507O4RS","img_art/28.jpg","4","","","","","","","","","","","","","","","","","","","","","","","","",""
"831","","image-button-response","208","1908296","0.0-206.0-0.0","A1T208Y507O4RS","img_art/28.jpg","2","","","","","","","","","","","","","","","","","","","","","","","","",""
"738","","image-button-response","209","1909052","0.0-207.0-0.0","A1T208Y507O4RS","img_art/28.jpg","3","","","","","","","","","","","","","","","","","","","","","","","","",""
"null","","html-keyboard-response","210","1914616","0.0-208.0","A1T208Y507O4RS","<p style=""font-size: 48px;"">+</p>","","","","","null","allTrialResponses","1000","1","23","img_art/28.jpg","-49","gross and dreary","Jordan,Molly,Hannah,Jasmine,Bailey,Andrea","It's a bike that was left abandoned by someone who doesnt care for it,1,20,20","This painting is mysterious, it makes me curious.,5,340,20","The colors are drab and a little depressing.,-20,240,20","Colors too dull for me,-10,340,20","Has an air of darkness to it, but no real substance besides the mouse-like thing.,-38,360,20","It reminds me of the cantina in Star Wars.,37,240,20","Bailey","Has an air of darkness to it, but no real substance besides the mouse-like thing.,-38,360,20","Hannah","The colors are drab and a little depressing.,-20,240,20","Jasmine","Colors too dull for me,-10,340,20","2"
"34610","","survey-text","211","1950311","0.0-209.0-0.0","A1T208Y507O4RS","","","","{""Q0"":""wstern and country""}","","","","","","","","","","","","","","","","","","","","","","",""
"2832.100000143051","","image-slider-response","212","1953152","0.0-210.0","A1T208Y507O4RS","","","","","5","","","","","","","","","","","","","","","","","","","","","",""
"2822","","image-button-response","213","1958166","0.0-211.0","A1T208Y507O4RS","img_art/20.jpg","0","","","","","","","","","","","","","","","","","","","","","","","","",""
"479","","image-button-response","214","1958654","0.0-212.0","A1T208Y507O4RS","img_art/20.jpg","0","","","","","","","","","","","","","","","","","","","","","","","","",""
"697","","image-button-response","215","1959355","0.0-213.0-0.0","A1T208Y507O4RS","img_art/20.jpg","2","","","","","","","","","","","","","","","","","","","","","","","","",""
"1536","","image-button-response","216","1960897","0.0-214.0-0.0","A1T208Y507O4RS","img_art/20.jpg","4","","","","","","","","","","","","","","","","","","","","","","","","",""
"null","","html-keyboard-response","217","1961917","0.0-215.0","A1T208Y507O4RS","<p style=""font-size: 48px;"">+</p>","","","","","null","allTrialResponses","1000","1","24","img_art/20.jpg","5","wstern and country","Diana,Nicole,Hannah,Jasmine,Bailey,Courtney","I'm not sure why this reminds me of surrealism. It might be the colors used.,16,380,20","This one feels scary in a bad way,-30,20,20","Reminds me of the Southwest; i.e. New Mexico or Arizona. It's interesting.,12,240,20","This one is okay but I don't really care for it,5,340,20","A bit hectic, but it does have a bit of coolness to it,6,360,20","The beast is running after you.,33,280,20","Diana","I'm not sure why this reminds me of surrealism. It might be the colors used.,16,380,20","Hannah","Reminds me of the Southwest; i.e. New Mexico or Arizona. It's interesting.,12,240,20","Bailey","A bit hectic, but it does have a bit of coolness to it,6,360,20","2"
"10079","","survey-text","218","1972040","0.0-216.0-0.0","A1T208Y507O4RS","","","","{""Q0"":""like water, fluid""}","","","","","","","","","","","","","","","","","","","","","","",""
"9061.599999904633","","image-slider-response","219","1981107","0.0-217.0","A1T208Y507O4RS","","","","","6","","","","","","","","","","","","","","","","","","","","","",""
"3781","","image-button-response","220","1986125","0.0-218.0","A1T208Y507O4RS","img_art/9.jpg","3","","","","","","","","","","","","","","","","","","","","","","","","",""
"2656","","image-button-response","221","1988788","0.0-219.0","A1T208Y507O4RS","img_art/9.jpg","3","","","","","","","","","","","","","","","","","","","","","","","","",""
"1566","","image-button-response","222","1990359","0.0-220.0-0.0","A1T208Y507O4RS","img_art/9.jpg","5","","","","","","","","","","","","","","","","","","","","","","","","",""
"2523","","image-button-response","223","1992888","0.0-221.0-0.0","A1T208Y507O4RS","img_art/9.jpg","2","","","","","","","","","","","","","","","","","","","","","","","","",""
"null","","html-keyboard-response","224","1994592","0.0-222.0","A1T208Y507O4RS","<p style=""font-size: 48px;"">+</p>","","","","","null","allTrialResponses","1500","1","25","img_art/9.jpg","6","like water, fluid","Diana,Lindsey,Hannah,Tiffany,Bailey,Margaret","I think it's sleeping beauty but I'm not sure. I didn't care for this piece.,-30,380,20","Looks like my niece's doodles.,-50,400,20","Someone lying in bed?  Don't care for it.,-14,240,20","The piece of art makes me happy, it reminds me of a lively carnival.,15,360,20","Not very enticing. No real substance other than a lady laying down,-35,360,20","keeps me interested. like the colors,17,100,20","Tiffany","The piece of art makes me happy, it reminds me of a lively carnival.,15,360,20","Margaret","keeps me interested. like the colors,17,100,20","Hannah","Someone lying in bed?  Don't care for it.,-14,240,20","2"
"3987","","survey-text","225","1998641","0.0-223.0-0.0","A1T208Y507O4RS","","","","{""Q0"":""table""}","","","","","","","","","","","","","","","","","","","","","","",""
"121902","","survey-text","226","2120547","0.0-224.0-0.0","A1T208Y507O4RS","","","","{""Q0"":""busy and dark""}","","","","","","","","","","","","","","","","","","","","","","",""
"2963.600000143051","","image-slider-response","227","2123523","0.0-225.0","A1T208Y507O4RS","","","","","5","","","","","","","","","","","","","","","","","","","","","",""
"1131","","image-button-response","228","2128545","0.0-226.0","A1T208Y507O4RS","img_art/15.jpg","4","","","","","","","","","","","","","","","","","","","","","","","","",""
"596","","image-button-response","229","2129147","0.0-227.0","A1T208Y507O4RS","img_art/15.jpg","4","","","","","","","","","","","","","","","","","","","","","","","","",""
"542","","image-button-response","230","2129696","0.0-228.0-0.0","A1T208Y507O4RS","img_art/15.jpg","5","","","","","","","","","","","","","","","","","","","","","","","","",""
"395","","image-button-response","231","2130101","0.0-229.0-0.0","A1T208Y507O4RS","img_art/15.jpg","3","","","","","","","","","","","","","","","","","","","","","","","","",""
"null","","html-keyboard-response","232","2131113","0.0-230.0","A1T208Y507O4RS","<p style=""font-size: 48px;"">+</p>","","","","","null","allTrialResponses","1000","1","26","img_art/15.jpg","5","busy and dark","Vanessa,Angela,Hannah,Tiffany,Jennifer,Margaret","I don't even know what's going on here. Again, this is too abstract.,-21,380,20","Interesting, but don't really like it. Gloomy.,-10,260,20","Like this for the colors and arrangement.,11,240,20","The painting is very relaxing, I'm reminded of sitting in a garden in the evening.,8,360,20","This piece isn't particularly attractive, but it's not ugly either.,1,380,20","i like the pop of blue within all the black,8,100,20","Jennifer","This piece isn't particularly attractive, but it's not ugly either.,1,380,20","Margaret","i like the pop of blue within all the black,8,100,20","Tiffany","The painting is very relaxing, I'm reminded of sitting in a garden in the evening.,8,360,20","2"
"55631","","survey-text","233","2186796","0.0-231.0-0.0","A1T208Y507O4RS","","","","{""Q0"":""lowing and pretty""}","","","","","","","","","","","","","","","","","","","","","","",""
"13324.400000095367","","image-slider-response","234","2200138","0.0-232.0","A1T208Y507O4RS","","","","","30","","","","","","","","","","","","","","","","","","","","","",""
"3729","","image-button-response","235","2205149","0.0-233.0","A1T208Y507O4RS","img_art/13.jpg","3","","","","","","","","","","","","","","","","","","","","","","","","",""
"2517","","image-button-response","236","2207673","0.0-234.0","A1T208Y507O4RS","img_art/13.jpg","3","","","","","","","","","","","","","","","","","","","","","","","","",""
"604","","image-button-response","237","2208283","0.0-235.0-0.0","A1T208Y507O4RS","img_art/13.jpg","4","","","","","","","","","","","","","","","","","","","","","","","","",""
"489","","image-button-response","238","2208781","0.0-236.0-0.0","A1T208Y507O4RS","img_art/13.jpg","5","","","","","","","","","","","","","","","","","","","","","","","","",""
"null","","html-keyboard-response","239","2211456","0.0-237.0","A1T208Y507O4RS","<p style=""font-size: 48px;"">+</p>","","","","","null","allTrialResponses","1500","1","27","img_art/13.jpg","30","lowing and pretty","Meghan,Leah,Jenna,Tiffany,Jennifer,Margaret","I like the transition to other colors,24,220,20","Like it a lot, reminds me of rainy day on glass,43,360,20","exciting & chaotic. love the colors.,50,360,20","The painting makes me feel awe and like I am very little. Like I am alone at the bottom of the ocean.,41,360,20","I like the color scheme,41,380,20","i like the splatters and the colors,21,100,20","Tiffany","The painting makes me feel awe and like I am very little. Like I am alone at the bottom of the ocean.,41,360,20","Jennifer","I like the color scheme,41,380,20","Margaret","i like the splatters and the colors,21,100,20","2"
"101454","","survey-text","240","2314292","0.0-238.0-0.0","A1T208Y507O4RS","","","","{""Q0"":""voodoo love the color""}","","","","","","","","","","","","","","","","","","","","","","",""
"3598.899999856949","","image-slider-response","241","2317902","0.0-239.0","A1T208Y507O4RS","","","","","39","","","","","","","","","","","","","","","","","","","","","",""
"1724","","image-button-response","242","2322920","0.0-240.0","A1T208Y507O4RS","img_art/25.jpg","4","","","","","","","","","","","","","","","","","","","","","","","","",""
"1492","","image-button-response","243","2324419","0.0-241.0","A1T208Y507O4RS","img_art/25.jpg","4","","","","","","","","","","","","","","","","","","","","","","","","",""
"576","","image-button-response","244","2325001","0.0-242.0-0.0","A1T208Y507O4RS","img_art/25.jpg","5","","","","","","","","","","","","","","","","","","","","","","","","",""
"760","","image-button-response","245","2325769","0.0-243.0-0.0","A1T208Y507O4RS","img_art/25.jpg","1","","","","","","","","","","","","","","","","","","","","","","","","",""
"null","","html-keyboard-response","246","2335972","0.0-244.0","A1T208Y507O4RS","<p style=""font-size: 48px;"">+</p>","","","","","null","allTrialResponses","1500","1","28","img_art/25.jpg","39","voodoo love the color","Kaylee,Alexa,Amanda,Tiffany,Jennifer,Margaret","is this an ancient woman?,-16,200,20","It's really neat and cool looking,20,40,20","Reminds me of Mr. Burns on drugs in the Simpsons,-50,180,20","I feel little to no emotion looking at this painting.,0,360,20","Spooky, but in a good way. I like the green and black color palette.,42,380,20","love the color and the contrast of the black on teal,50,100,20","Jennifer","Spooky, but in a good way. I like the green and black color palette.,42,380,20","Margaret","love the color and the contrast of the black on teal,50,100,20","Alexa","It's really neat and cool looking,20,40,20","2"
"18270","","survey-text","247","2354499","0.0-245.0-0.0","A1T208Y507O4RS","","","","{""Q0"":""boring and bland""}","","","","","","","","","","","","","","","","","","","","","","",""
"6773.799999952316","","image-slider-response","248","2361281","0.0-246.0","A1T208Y507O4RS","","","","","-9","","","","","","","","","","","","","","","","","","","","","",""
"4673","","image-button-response","249","2366291","0.0-247.0","A1T208Y507O4RS","img_art/6.jpg","1","","","","","","","","","","","","","","","","","","","","","","","","",""
"2686","","image-button-response","250","2368983","0.0-248.0","A1T208Y507O4RS","img_art/6.jpg","1","","","","","","","","","","","","","","","","","","","","","","","","",""
"567","","image-button-response","251","2369554","0.0-249.0-0.0","A1T208Y507O4RS","img_art/6.jpg","0","","","","","","","","","","","","","","","","","","","","","","","","",""
"663","","image-button-response","252","2370223","0.0-250.0-0.0","A1T208Y507O4RS","img_art/6.jpg","4","","","","","","","","","","","","","","","","","","","","","","","","",""
"null","","html-keyboard-response","253","2370739","0.0-251.0","A1T208Y507O4RS","<p style=""font-size: 48px;"">+</p>","","","","","null","allTrialResponses","500","1","29","img_art/6.jpg","-9","boring and bland","Ashley,Alexa,Elizabeth,Jessica,Jennifer,Margaret","A lot of people will lvoe this, I do not.,1,320,20","Too basic for me,-20,40,20","Love the simplicity of it,41,20,20","Is this a leaf?,4,400,20","I am neutral towards this piece.,0,380,20","reminds me of a happy edgar allen poe poem,8,100,20","Alexa","Too basic for me,-20,40,20","Ashley","A lot of people will lvoe this, I do not.,1,320,20","Jennifer","I am neutral towards this piece.,0,380,20","2"
"8250","","survey-text","254","2379013","0.0-252.0-0.0","A1T208Y507O4RS","","","","{""Q0"":""too minimal and white""}","","","","","","","","","","","","","","","","","","","","","","",""
"19820.799999952316","","image-slider-response","255","2398840","0.0-253.0","A1T208Y507O4RS","","","","","-22","","","","","","","","","","","","","","","","","","","","","",""
"3528","","image-button-response","256","2403875","0.0-254.0","A1T208Y507O4RS","img_art/5.jpg","2","","","","","","","","","","","","","","","","","","","","","","","","",""
"359","","image-button-response","257","2404240","0.0-255.0","A1T208Y507O4RS","img_art/5.jpg","2","","","","","","","","","","","","","","","","","","","","","","","","",""
"796","","image-button-response","258","2405043","0.0-256.0-0.0","A1T208Y507O4RS","img_art/5.jpg","5","","","","","","","","","","","","","","","","","","","","","","","","",""
"1189","","image-button-response","259","2406241","0.0-257.0-0.0","A1T208Y507O4RS","img_art/5.jpg","4","","","","","","","","","","","","","","","","","","","","","","","","",""
"null","","html-keyboard-response","260","2407246","0.0-258.0","A1T208Y507O4RS","<p style=""font-size: 48px;"">+</p>","","","","","null","allTrialResponses","1000","1","30","img_art/5.jpg","-22","too minimal and white","Ashley,Alexa,Emma,Taylor,Jennifer,Rachel","I like the simple shapes and colors.,23,320,20","It's okay. Don't hate it but don't love it either,0,40,20","Kind of ugly ....,-21,60,20","Doesn't make me think anything,-1,340,20","This piece doesn't really stand out.,0,380,20","Not sure what to make of this one.,-1,80,20","Emma","Kind of ugly ....,-21,60,20","Rachel","Not sure what to make of this one.,-1,80,20","Jennifer","This piece doesn't really stand out.,0,380,20","2"
"7450","","image-button-response_instructions","261","2414740","0.0-259.0","A1T208Y507O4RS","","0","instructions","","","","","","","","","","","","","","","","","","","","","","","",""
"4980","","image-button-response","262","2419743","0.0-260.0","A1T208Y507O4RS","","0","","","","","","","","","","","","","","","","","","","","","","","","",""
