"rt","url","trial_type","trial_index","time_elapsed","internal_node_id","participant_id","stimulus","button_pressed","Name","responses","response","key_press","variableName","fixationTime","condition","trial","photo","subjectRating","subjectResponse","agentsNames","agent_1_Response","agent_2_Response","agent_3_Response","agent_4_Response","agent_5_Response","agent_6_Response","kept_1_name","kept_1_response","kept_2_name","kept_2_response","kept_3_name","kept_3_response","errorCounter"
"93628","external_page_harvard.html","external-html","0","93871","0.0-0.0","A1T21AFJP4COSR","","","","","","","","","","","","","","","","","","","","","","","","","","",""
"2371","","image-button-response","1","96247","0.0-1.0","A1T21AFJP4COSR","","1","","","","","","","","","","","","","","","","","","","","","","","","",""
"2352","","image-button-response","2","98604","0.0-2.0-0.0","A1T21AFJP4COSR","","1","phone","","","","","","","","","","","","","","","","","","","","","","","",""
"12435","","survey-text","3","111040","0.0-3.0-0.0","A1T21AFJP4COSR","","","","{""Q0"":""A1T21AFJP4COSR""}","","","","","","","","","","","","","","","","","","","","","","",""
"7287","","image-button-response_instructions","4","118330","0.0-4.0","A1T21AFJP4COSR","","0","instructions","","","","","","","","","","","","","","","","","","","","","","","",""
"40048","","image-button-response_instructions","5","158379","0.0-5.0","A1T21AFJP4COSR","img_art/ins/popularity/ins1.png","0","instructions","","","","","","","","","","","","","","","","","","","","","","","",""
"12214","","image-button-response_instructions","6","170595","0.0-6.0","A1T21AFJP4COSR","img_art/ins/popularity/ins2.png","0","instructions","","","","","","","","","","","","","","","","","","","","","","","",""
"19254","","image-button-response_instructions","7","189849","0.0-7.0","A1T21AFJP4COSR","img_art/ins/popularity/ins2Extreme.png","0","instructions","","","","","","","","","","","","","","","","","","","","","","","",""
"42566","","image-button-response_instructions","8","232416","0.0-8.0","A1T21AFJP4COSR","img_art/ins/popularity/ins3KEEPpop.PNG","0","instructions","","","","","","","","","","","","","","","","","","","","","","","",""
"5646","","image-button-response_instructions","9","238064","0.0-9.0","A1T21AFJP4COSR","img_art/ins/popularity/ins3ANamepop.PNG","0","instructions","","","","","","","","","","","","","","","","","","","","","","","",""
"5296","","image-button-response_instructions","10","243362","0.0-10.0","A1T21AFJP4COSR","img_art/ins/popularity/ins3ARatingpop.png","0","instructions","","","","","","","","","","","","","","","","","","","","","","","",""
"5586","","image-button-response_instructions","11","248950","0.0-11.0","A1T21AFJP4COSR","img_art/ins/popularity/ins3ATextpop.png","0","instructions","","","","","","","","","","","","","","","","","","","","","","","",""
"20560","","image-button-response_instructions","12","269511","0.0-12.0","A1T21AFJP4COSR","img_art/ins/popularity/ins3ALikespop.png","0","instructions","","","","","","","","","","","","","","","","","","","","","","","",""
"131821","","image-button-response_instructions","13","401333","0.0-13.0","A1T21AFJP4COSR","img_art/ins/popularity/ins3KEEPpop.PNG","0","instructions","","","","","","","","","","","","","","","","","","","","","","","",""
"15176","","image-button-response_instructions","14","416510","0.0-14.0","A1T21AFJP4COSR","img_art/ins/popularity/ins3_5RED.png","0","instructions","","","","","","","","","","","","","","","","","","","","","","","",""
"11584","","image-button-response_instructions","15","428095","0.0-15.0","A1T21AFJP4COSR","img_art/ins/popularity/ins3KEEPpop.PNG","0","instructions","","","","","","","","","","","","","","","","","","","","","","","",""
"17186","","image-button-response_instructions","16","445282","0.0-16.0","A1T21AFJP4COSR","img_art/ins/popularity/ins4KEEPpop.PNG","0","instructions","","","","","","","","","","","","","","","","","","","","","","","",""
"12818","","image-button-response_instructions","17","458101","0.0-17.0","A1T21AFJP4COSR","img_art/ins/popularity/ins5KEEPpop.PNG","0","instructions","","","","","","","","","","","","","","","","","","","","","","","",""
"3646","","image-button-response_instructions","18","461749","0.0-18.0","A1T21AFJP4COSR","","0","instructions","","","","","","","","","","","","","","","","","","","","","","","",""
"15279","","survey-text","19","477058","0.0-19.0-0.0","A1T21AFJP4COSR","","","","{""Q0"":""but""}","","","","","","","","","","","","","","","","","","","","","","",""
"90529","","survey-text","20","567588","0.0-20.0-0.0","A1T21AFJP4COSR","","","","{""Q0"":""This makes me feel nostalgic, reminds me of playing in the tall grass as a child. ""}","","","","","","","","","","","","","","","","","","","","","","",""
"11409.799999952316","","image-slider-response","21","579001","0.0-21.0","A1T21AFJP4COSR","","","","","26","","","","","","","","","","","","","","","","","","","","","",""
"null","","image-button-response","22","584022","0.0-22.0","A1T21AFJP4COSR","img_art/ins/1.jpg","null","","","","","","","","","","","","","","","","","","","","","","","","",""
"10593","","image-button-response","23","594620","0.0-23.0","A1T21AFJP4COSR","img_art/ins/1.jpg","5","","","","","","","","","","","","","","","","","","","","","","","","",""
"23712","","image-button-response","24","618333","0.0-24.0-0.0","A1T21AFJP4COSR","img_art/ins/1.jpg","4","","","","","","","","","","","","","","","","","","","","","","","","",""
"8921","","image-button-response","25","627258","0.0-25.0-0.0","A1T21AFJP4COSR","img_art/ins/1.jpg","0","","","","","","","","","","","","","","","","","","","","","","","","",""
"null","","html-keyboard-response","26","628779","0.0-26.0","A1T21AFJP4COSR","<p style=""font-size: 48px;"">+</p>","","","","","null","allTrialResponses","1500","1","-2","img_art/ins/1.jpg","26","This makes me feel nostalgic, reminds me of playing in the tall grass as a child. ","Allison,Ashley,Beth,Dora,Erika,Jen","looks like a lot of things going on in the mist,20,20,20","I just don't get why these type of art would be popular,-32,40,20","This color reminds me of poo,-46,60,20","looks like what my niece in 3rd grade did this afternoon,-50,80,20","I like the sophisticated brushwork,40,100,20","It reminds me of a candy land dream I had,36,120,20","Jen","It reminds me of a candy land dream I had,36,120,20","Erika","I like the sophisticated brushwork,40,100,20","Allison","looks like a lot of things going on in the mist,20,20,20","0"
"69011","","survey-text","27","697802","0.0-27.0-0.0","A1T21AFJP4COSR","","","","{""Q0"":""I love the colors but somehow it feels heavy and kinda sad""}","","","","","","","","","","","","","","","","","","","","","","",""
"7472.5","","image-slider-response","28","705276","0.0-28.0","A1T21AFJP4COSR","","","","","10","","","","","","","","","","","","","","","","","","","","","",""
"null","","image-button-response","29","710288","0.0-29.0","A1T21AFJP4COSR","img_art/ins/2.jpg","null","","","","","","","","","","","","","","","","","","","","","","","","",""
"15672","","image-button-response","30","725963","0.0-30.0","A1T21AFJP4COSR","img_art/ins/2.jpg","5","","","","","","","","","","","","","","","","","","","","","","","","",""
"4466","","image-button-response","31","730431","0.0-31.0-0.0","A1T21AFJP4COSR","img_art/ins/2.jpg","4","","","","","","","","","","","","","","","","","","","","","","","","",""
"12786","","image-button-response","32","743220","0.0-32.0-0.0","A1T21AFJP4COSR","img_art/ins/2.jpg","1","","","","","","","","","","","","","","","","","","","","","","","","",""
"null","","html-keyboard-response","33","744227","0.0-33.0","A1T21AFJP4COSR","<p style=""font-size: 48px;"">+</p>","","","","","null","allTrialResponses","1000","1","-1","img_art/ins/2.jpg","10","I love the colors but somehow it feels heavy and kinda sad","Allison,Kara,Katie,Jenna,Erika,Jen","I don't have strong feelings about this,10,20,20","I like the blocks of color arrangements,30,160,20","too much color!,-28,180,20","One of my pet peevs,-48,140,20","I would never be able to compose a sophisticated pallete like this,48,100,20","It reminds me of a fireplace,36,120,20","Jen","It reminds me of a fireplace,36,120,20","Erika","I would never be able to compose a sophisticated pallete like this,48,100,20","Kara","I like the blocks of color arrangements,30,160,20","0"
"39358","","survey-text","34","783591","0.0-34.0-0.0","A1T21AFJP4COSR","","","","{""Q0"":""this doesnt do a lot for me its boring altho I like the different shades of blue""}","","","","","","","","","","","","","","","","","","","","","","",""
"11094","","image-slider-response","35","794687","0.0-35.0","A1T21AFJP4COSR","","","","","-1","","","","","","","","","","","","","","","","","","","","","",""
"null","","image-button-response","36","799691","0.0-36.0","A1T21AFJP4COSR","img_art/ins/3.jpg","null","","","","","","","","","","","","","","","","","","","","","","","","",""
"264","","image-button-response","37","799959","0.0-37.0","A1T21AFJP4COSR","img_art/ins/3.jpg","1","","","","","","","","","","","","","","","","","","","","","","","","",""
"6132","","image-button-response","38","806093","0.0-38.0-0.0","A1T21AFJP4COSR","img_art/ins/3.jpg","5","","","","","","","","","","","","","","","","","","","","","","","","",""
"15444","","image-button-response","39","821540","0.0-39.0-0.0","A1T21AFJP4COSR","img_art/ins/3.jpg","3","","","","","","","","","","","","","","","","","","","","","","","","",""
"null","","html-keyboard-response","40","822053","0.0-40.0","A1T21AFJP4COSR","<p style=""font-size: 48px;"">+</p>","","","","","null","allTrialResponses","500","1","0","img_art/ins/3.jpg","-1","this doesnt do a lot for me its boring altho I like the different shades of blue","Mary,Kara,Rose,Leslie,Erika,Jen","I like the overlapping of brushes,41,220,20","calming blue is very nice,36,160,20","My daily routine, it's depressing,-20,240,20","It's an alright work,15,200,20","I feel connected to the artist,40,100,20","I can feel a rainy day from this painting,18,120,20","Kara","calming blue is very nice,36,160,20","Jen","I can feel a rainy day from this painting,18,120,20","Leslie","It's an alright work,15,200,20","0"
"12692","","image-button-response_instructions","41","834749","0.0-41.0","A1T21AFJP4COSR","","0","instructions","","","","","","","","","","","","","","","","","","","","","","","",""
"20543","","survey-likert","42","855295","0.0-42.0-0.0","A1T21AFJP4COSR","","","","{""Q0"":"""",""Q1"":0,""Q2"":1}","","","","","","","","","","","","","","","","","","","","","","",""
"9868","","survey-text","43","865168","0.0-43.0-0.0","A1T21AFJP4COSR","","","","{""Q0"":""rock""}","","","","","","","","","","","","","","","","","","","","","","",""
"51183","","survey-text","44","916352","0.0-44.0-0.0","A1T21AFJP4COSR","","","","{""Q0"":""I absolutely love the color and I am intrigued with the style.""}","","","","","","","","","","","","","","","","","","","","","","",""
"19157.899999976158","","image-slider-response","45","935512","0.0-45.0","A1T21AFJP4COSR","","","","","41","","","","","","","","","","","","","","","","","","","","","",""
"null","","image-button-response","46","940556","0.0-46.0","A1T21AFJP4COSR","img_art/25.jpg","null","","","","","","","","","","","","","","","","","","","","","","","","",""
"3888","","image-button-response","47","944447","0.0-47.0","A1T21AFJP4COSR","img_art/25.jpg","2","","","","","","","","","","","","","","","","","","","","","","","","",""
"3931","","image-button-response","48","948379","0.0-48.0-0.0","A1T21AFJP4COSR","img_art/25.jpg","0","","","","","","","","","","","","","","","","","","","","","","","","",""
"7931","","image-button-response","49","956313","0.0-49.0-0.0","A1T21AFJP4COSR","img_art/25.jpg","3","","","","","","","","","","","","","","","","","","","","","","","","",""
"null","","html-keyboard-response","50","956834","0.0-50.0","A1T21AFJP4COSR","<p style=""font-size: 48px;"">+</p>","","","","","null","allTrialResponses","500","1","1","img_art/25.jpg","41","I absolutely love the color and I am intrigued with the style.","Margaret,Alexandra,Jenna,Sydney,Erika,Paige","love the color and the contrast of the black on teal,50,100,20","This is too dark and creepy. I also hate the color,-30,60,20","beautiful in a primitive way,10,360,20","This piece gives me a lot of questions which I kind of like.,10,320,20","Very cryptic and ancient,36,100,20","reminds me of ancient history which makes me happy,40,60,20","Jenna","beautiful in a primitive way,10,360,20","Margaret","love the color and the contrast of the black on teal,50,100,20","Sydney","This piece gives me a lot of questions which I kind of like.,10,320,20","0"
"51291","","survey-text","51","1008133","0.0-51.0-0.0","A1T21AFJP4COSR","","","","{""Q0"":""interesting I feel like its telling a story almost about street art""}","","","","","","","","","","","","","","","","","","","","","","",""
"6002.700000047684","","image-slider-response","52","1014137","0.0-52.0","A1T21AFJP4COSR","","","","","8","","","","","","","","","","","","","","","","","","","","","",""
"null","","image-button-response","53","1019168","0.0-53.0","A1T21AFJP4COSR","img_art/29.jpg","null","","","","","","","","","","","","","","","","","","","","","","","","",""
"23060","","image-button-response","54","1042232","0.0-54.0","A1T21AFJP4COSR","img_art/29.jpg","4","","","","","","","","","","","","","","","","","","","","","","","","",""
"5674","","image-button-response","55","1047907","0.0-55.0-0.0","A1T21AFJP4COSR","img_art/29.jpg","1","","","","","","","","","","","","","","","","","","","","","","","","",""
"4559","","image-button-response","56","1052469","0.0-56.0-0.0","A1T21AFJP4COSR","img_art/29.jpg","2","","","","","","","","","","","","","","","","","","","","","","","","",""
"null","","html-keyboard-response","57","1053488","0.0-57.0","A1T21AFJP4COSR","<p style=""font-size: 48px;"">+</p>","","","","","null","allTrialResponses","1000","1","2","img_art/29.jpg","8","interesting I feel like its telling a story almost about street art","Margaret,Samantha,Jenna,Sydney,Michaela,Jasmine","this does nothing for me. hate the colors. hate the design,-50,100,20","I love this things almost hidden in it like paint brush and other details,50,140,20","risks well taken. the brush is hilarious. feels like an artist's frustration, which is relatable.,50,360,20","I like that the colors are toned down even though they're everywhere.,5,320,20","Like a crime scene. It's neat and different,30,260,20","I like the usage of blacks and greys in this,8,340,20","Michaela","Like a crime scene. It's neat and different,30,260,20","Samantha","I love this things almost hidden in it like paint brush and other details,50,140,20","Jenna","risks well taken. the brush is hilarious. feels like an artist's frustration, which is relatable.,50,360,20","0"
"81228","","survey-text","58","1134731","0.0-58.0-0.0","A1T21AFJP4COSR","","","","{""Q0"":""I feel like its a dark twisted version of alice in wonderland, I think its genius but I also kind of hate it.""}","","","","","","","","","","","","","","","","","","","","","","",""
"10103.5","","image-slider-response","59","1144837","0.0-59.0","A1T21AFJP4COSR","","","","","-3","","","","","","","","","","","","","","","","","","","","","",""
"null","","image-button-response","60","1149842","0.0-60.0","A1T21AFJP4COSR","img_art/16.jpg","null","","","","","","","","","","","","","","","","","","","","","","","","",""
"7578","","image-button-response","61","1157422","0.0-61.0","A1T21AFJP4COSR","img_art/16.jpg","0","","","","","","","","","","","","","","","","","","","","","","","","",""
"7383","","image-button-response","62","1164808","0.0-62.0-0.0","A1T21AFJP4COSR","img_art/16.jpg","2","","","","","","","","","","","","","","","","","","","","","","","","",""
"16292","","image-button-response","63","1181102","0.0-63.0-0.0","A1T21AFJP4COSR","img_art/16.jpg","3","","","","","","","","","","","","","","","","","","","","","","","","",""
"null","","html-keyboard-response","64","1181612","0.0-64.0","A1T21AFJP4COSR","<p style=""font-size: 48px;"">+</p>","","","","","null","allTrialResponses","500","1","3","img_art/16.jpg","-3","I feel like its a dark twisted version of alice in wonderland, I think its genius but I also kind of hate it.","Kristen,Samantha,Jenna,Natalie,Michaela,Caitlin","sad. desth of childhood,-5,280,20","Creepy teddybear,-50,140,20","very bizarre and confusing, but that feels purposeful, so i don't completely hate it.,-25,360,20","my reaction is that the picture is creepy,-19,400,20","It feels lazily done,-9,260,20","It is sick to put a teddy bear and a gun on the same piece of canvas.,-40,80,20","Kristen","sad. desth of childhood,-5,280,20","Jenna","very bizarre and confusing, but that feels purposeful, so i don't completely hate it.,-25,360,20","Natalie","my reaction is that the picture is creepy,-19,400,20","0"
"142747","","survey-text","65","1324367","0.0-65.0-0.0","A1T21AFJP4COSR","","","","{""Q0"":""I love this, I am obsessed with tree paintings which this reminds me of. Makes me want to go spend time outdoors.""}","","","","","","","","","","","","","","","","","","","","","","",""
"7440.600000023842","","image-slider-response","66","1331810","0.0-66.0","A1T21AFJP4COSR","","","","","44","","","","","","","","","","","","","","","","","","","","","",""
"null","","image-button-response","67","1336832","0.0-67.0","A1T21AFJP4COSR","img_art/14.jpg","null","","","","","","","","","","","","","","","","","","","","","","","","",""
"7008","","image-button-response","68","1343844","0.0-68.0","A1T21AFJP4COSR","img_art/14.jpg","2","","","","","","","","","","","","","","","","","","","","","","","","",""
"4807","","image-button-response","69","1348654","0.0-69.0-0.0","A1T21AFJP4COSR","img_art/14.jpg","1","","","","","","","","","","","","","","","","","","","","","","","","",""
"18447","","image-button-response","70","1367104","0.0-70.0-0.0","A1T21AFJP4COSR","img_art/14.jpg","4","","","","","","","","","","","","","","","","","","","","","","","","",""
"null","","html-keyboard-response","71","1367621","0.0-71.0","A1T21AFJP4COSR","<p style=""font-size: 48px;"">+</p>","","","","","null","allTrialResponses","500","1","4","img_art/14.jpg","44","I love this, I am obsessed with tree paintings which this reminds me of. Makes me want to go spend time outdoors.","Kristen,Leah,Jenna,Natalie,Alexa,Jessica","somewhat stressful, crazy,-3,280,20","I like the simplicity along with the colors,27,360,20","love the colors. despite their brightness it seems sad somehow.,41,360,20","my reaction is that the picture is wierd,-14,400,20","Very abstract and colorful,40,40,20","I kind of like it!,6,400,20","Jenna","love the colors. despite their brightness it seems sad somehow.,41,360,20","Leah","I like the simplicity along with the colors,27,360,20","Alexa","Very abstract and colorful,40,40,20","0"
"42713","","survey-text","72","1410338","0.0-72.0-0.0","A1T21AFJP4COSR","","","","{""Q0"":""this feels like a murder scene I dont like it makes me feel icky ""}","","","","","","","","","","","","","","","","","","","","","","",""
"7013.600000023842","","image-slider-response","73","1417354","0.0-73.0","A1T21AFJP4COSR","","","","","-42","","","","","","","","","","","","","","","","","","","","","",""
"null","","image-button-response","74","1422371","0.0-74.0","A1T21AFJP4COSR","img_art/3.jpg","null","","","","","","","","","","","","","","","","","","","","","","","","",""
"15471","","image-button-response","75","1437845","0.0-75.0","A1T21AFJP4COSR","img_art/3.jpg","2","","","","","","","","","","","","","","","","","","","","","","","","",""
"20458","","image-button-response","76","1458305","0.0-76.0-0.0","A1T21AFJP4COSR","img_art/3.jpg","5","","","","","","","","","","","","","","","","","","","","","","","","",""
"8995","","image-button-response","77","1467302","0.0-77.0-0.0","A1T21AFJP4COSR","img_art/3.jpg","1","","","","","","","","","","","","","","","","","","","","","","","","",""
"null","","html-keyboard-response","78","1468820","0.0-78.0","A1T21AFJP4COSR","<p style=""font-size: 48px;"">+</p>","","","","","null","allTrialResponses","1500","1","5","img_art/3.jpg","-42","this feels like a murder scene I dont like it makes me feel icky ","Alicia,Leah,Jenna,Kelsey,Alexa,Maria","scribbles in red. 2 minute piece.,-30,120,20","Scratchy scrawly all one color, looks like a mistake,-28,360,20","unique & stylized. interesting. another one I could keep staring at.,50,360,20","just scribbles, not pleasing,-30,240,20","Looks messy and too much for my eyes,-35,40,20","I struggle to see the art,-20,120,20","Jenna","unique & stylized. interesting. another one I could keep staring at.,50,360,20","Maria","I struggle to see the art,-20,120,20","Leah","Scratchy scrawly all one color, looks like a mistake,-28,360,20","0"
"5256","","survey-text","79","1474093","0.0-79.0-0.0","A1T21AFJP4COSR","","","","{""Q0"":""sky""}","","","","","","","","","","","","","","","","","","","","","","",""
"57905","","survey-text","80","1531999","0.0-80.0-0.0","A1T21AFJP4COSR","","","","{""Q0"":""I love this it is absolutely stunning, the colors the technique I hope I can someday paint in a similar style.""}","","","","","","","","","","","","","","","","","","","","","","",""
"8143.5","","image-slider-response","81","1540145","0.0-81.0","A1T21AFJP4COSR","","","","","47","","","","","","","","","","","","","","","","","","","","","",""
"null","","image-button-response","82","1545168","0.0-82.0","A1T21AFJP4COSR","img_art/24.jpg","null","","","","","","","","","","","","","","","","","","","","","","","","",""
"17155","","image-button-response","83","1562327","0.0-83.0","A1T21AFJP4COSR","img_art/24.jpg","2","","","","","","","","","","","","","","","","","","","","","","","","",""
"6423","","image-button-response","84","1568752","0.0-84.0-0.0","A1T21AFJP4COSR","img_art/24.jpg","1","","","","","","","","","","","","","","","","","","","","","","","","",""
"6411","","image-button-response","85","1575166","0.0-85.0-0.0","A1T21AFJP4COSR","img_art/24.jpg","0","","","","","","","","","","","","","","","","","","","","","","","","",""
"null","","html-keyboard-response","86","1576179","0.0-86.0","A1T21AFJP4COSR","<p style=""font-size: 48px;"">+</p>","","","","","null","allTrialResponses","1000","1","6","img_art/24.jpg","47","I love this it is absolutely stunning, the colors the technique I hope I can someday paint in a similar style.","Amber,Leah,Jenna,Sabrina,Ashley,Maria","peaceful and calm yet joyous.,50,200,20","Happy, the forest as I would love to see it,50,360,20","colors are a bit cramped together. really unique take on a waterfall though.,32,360,20","Love the natural vibe,50,120,20","NOt quite Bob Ross, but still good.,30,320,20","this evokes a gutural reaction - it displeases me how similar it is to art I saw growing up,-30,120,20","Jenna","colors are a bit cramped together. really unique take on a waterfall though.,32,360,20","Leah","Happy, the forest as I would love to see it,50,360,20","Amber","peaceful and calm yet joyous.,50,200,20","0"
"47199","","survey-text","87","1623393","0.0-87.0-0.0","A1T21AFJP4COSR","","","","{""Q0"":""I love the colors but for some reason the word war pops into my head it feels like a lot of devastation""}","","","","","","","","","","","","","","","","","","","","","","",""
"4167.100000023842","","image-slider-response","88","1627562","0.0-88.0","A1T21AFJP4COSR","","","","","3","","","","","","","","","","","","","","","","","","","","","",""
"null","","image-button-response","89","1632579","0.0-89.0","A1T21AFJP4COSR","img_art/21.jpg","null","","","","","","","","","","","","","","","","","","","","","","","","",""
"15759","","image-button-response","90","1648342","0.0-90.0","A1T21AFJP4COSR","img_art/21.jpg","1","","","","","","","","","","","","","","","","","","","","","","","","",""
"4244","","image-button-response","91","1652587","0.0-91.0-0.0","A1T21AFJP4COSR","img_art/21.jpg","0","","","","","","","","","","","","","","","","","","","","","","","","",""
"5955","","image-button-response","92","1658545","0.0-92.0-0.0","A1T21AFJP4COSR","img_art/21.jpg","2","","","","","","","","","","","","","","","","","","","","","","","","",""
"null","","html-keyboard-response","93","1660048","0.0-93.0","A1T21AFJP4COSR","<p style=""font-size: 48px;"">+</p>","","","","","null","allTrialResponses","1500","1","7","img_art/21.jpg","3","I love the colors but for some reason the word war pops into my head it feels like a lot of devastation","Amber,Leah,Jenna,Kayla,Sophia,Amanda","sunset after the rain,49,200,20","Love the colors, uplifting and stormy at the same time,32,360,20","beautiful. reminds me of a storm brewing over sea. i love the white dots.,45,360,20","I like that it reminds me of an abstract version of a Bob Ross painting.,36,180,20","Indifferent toward this one.,6,280,20","Very calming and nice to look at,30,180,20","Leah","Love the colors, uplifting and stormy at the same time,32,360,20","Amber","sunset after the rain,49,200,20","Jenna","beautiful. reminds me of a storm brewing over sea. i love the white dots.,45,360,20","0"
"33287","","survey-text","94","1693343","0.0-94.0-0.0","A1T21AFJP4COSR","","","","{""Q0"":""I kinda like the style of this one it makes me think of my trip to san fran""}","","","","","","","","","","","","","","","","","","","","","","",""
"8391.299999952316","","image-slider-response","95","1701736","0.0-95.0","A1T21AFJP4COSR","","","","","12","","","","","","","","","","","","","","","","","","","","","",""
"null","","image-button-response","96","1706758","0.0-96.0","A1T21AFJP4COSR","img_art/19.jpg","null","","","","","","","","","","","","","","","","","","","","","","","","",""
"2557","","image-button-response","97","1709317","0.0-97.0","A1T21AFJP4COSR","img_art/19.jpg","1","","","","","","","","","","","","","","","","","","","","","","","","",""
"3818","","image-button-response","98","1713136","0.0-98.0-0.0","A1T21AFJP4COSR","img_art/19.jpg","2","","","","","","","","","","","","","","","","","","","","","","","","",""
"15396","","image-button-response","99","1728535","0.0-99.0-0.0","A1T21AFJP4COSR","img_art/19.jpg","4","","","","","","","","","","","","","","","","","","","","","","","","",""
"null","","html-keyboard-response","100","1730047","0.0-100.0","A1T21AFJP4COSR","<p style=""font-size: 48px;"">+</p>","","","","","null","allTrialResponses","1500","1","8","img_art/19.jpg","12","I kinda like the style of this one it makes me think of my trip to san fran","Amber,Leah,Jenna,Allison,Danielle,Morgan","Reminds me of a busy village.,16,200,20","Very abstract but I like it, it's busy, lots of colors,43,360,20","love the muted colors and added sketchy lines. calming without being boring.,50,360,20","Messy mix of colors.,-5,140,20","It looks like as if it were portraying a village that was polluted? I don't like the theme anyway,-21,340,20","Messy pantry full of food.,5,380,20","Leah","Very abstract but I like it, it's busy, lots of colors,43,360,20","Jenna","love the muted colors and added sketchy lines. calming without being boring.,50,360,20","Danielle","It looks like as if it were portraying a village that was polluted? I don't like the theme anyway,-21,340,20","0"
"56566","","survey-text","101","1786622","0.0-101.0-0.0","A1T21AFJP4COSR","","","","{""Q0"":""i cant fully make up my mind about this it looks like a guitar but it feels very different cant put my finger on it""}","","","","","","","","","","","","","","","","","","","","","","",""
"11416.100000023842","","image-slider-response","102","1798039","0.0-102.0","A1T21AFJP4COSR","","","","","-1","","","","","","","","","","","","","","","","","","","","","",""
"null","","image-button-response","103","1803048","0.0-103.0","A1T21AFJP4COSR","img_art/10.jpg","null","","","","","","","","","","","","","","","","","","","","","","","","",""
"4713","","image-button-response","104","1807764","0.0-104.0","A1T21AFJP4COSR","img_art/10.jpg","2","","","","","","","","","","","","","","","","","","","","","","","","",""
"3797","","image-button-response","105","1811564","0.0-105.0-0.0","A1T21AFJP4COSR","img_art/10.jpg","0","","","","","","","","","","","","","","","","","","","","","","","","",""
"14391","","image-button-response","106","1825957","0.0-106.0-0.0","A1T21AFJP4COSR","img_art/10.jpg","3","","","","","","","","","","","","","","","","","","","","","","","","",""
"null","","html-keyboard-response","107","1826465","0.0-107.0","A1T21AFJP4COSR","<p style=""font-size: 48px;"">+</p>","","","","","null","allTrialResponses","500","1","9","img_art/10.jpg","-1","i cant fully make up my mind about this it looks like a guitar but it feels very different cant put my finger on it","Kathryn,Leah,Jenna,Destiny,Danielle,Angelica","This piece makes me think of music. The music is dark; I like dark music so it edges toward good.,10,140,20","Dark with no object, looks like experimentation, slightly like a storm on the ocean,-21,360,20","this piece is okay. I wish it was more colorful, but it is certainly intriguing.,23,360,20","The more I look the more I like. Reminds me of a rollercoaster and a war scene. A lot going on which is unnerving, like a rollercoaster but still fun,22,360,20","Seems very lovecraftian, which I love that style,25,340,20","This is odd and ugly.,-9,280,20","Jenna","this piece is okay. I wish it was more colorful, but it is certainly intriguing.,23,360,20","Kathryn","This piece makes me think of music. The music is dark; I like dark music so it edges toward good.,10,140,20","Destiny","The more I look the more I like. Reminds me of a rollercoaster and a war scene. A lot going on which is unnerving, like a rollercoaster but still fun,22,360,20","0"
"40745","","survey-text","108","1867216","0.0-108.0-0.0","A1T21AFJP4COSR","","","","{""Q0"":""I dont understand this one it looks like a picture of the ground""}","","","","","","","","","","","","","","","","","","","","","","",""
"5000.399999976158","","image-slider-response","109","1872218","0.0-109.0","A1T21AFJP4COSR","","","","","-5","","","","","","","","","","","","","","","","","","","","","",""
"null","","image-button-response","110","1877227","0.0-110.0","A1T21AFJP4COSR","img_art/7.jpg","null","","","","","","","","","","","","","","","","","","","","","","","","",""
"135","","image-button-response","111","1877368","0.0-111.0","A1T21AFJP4COSR","img_art/7.jpg","2","","","","","","","","","","","","","","","","","","","","","","","","",""
"5110","","image-button-response","112","1882480","0.0-112.0-0.0","A1T21AFJP4COSR","img_art/7.jpg","0","","","","","","","","","","","","","","","","","","","","","","","","",""
"11664","","image-button-response","113","1894147","0.0-113.0-0.0","A1T21AFJP4COSR","img_art/7.jpg","4","","","","","","","","","","","","","","","","","","","","","","","","",""
"null","","html-keyboard-response","114","1894650","0.0-114.0","A1T21AFJP4COSR","<p style=""font-size: 48px;"">+</p>","","","","","null","allTrialResponses","500","1","10","img_art/7.jpg","-5","I dont understand this one it looks like a picture of the ground","Kathryn,Erin,Jenna,Destiny,Claire,Kaylee","It's off-putting because it reminds me of walking over rough sand/rocks or having scabs on my skin.,-10,140,20","Color is bland and looks damaged,-37,120,20","reminds me of a desert from far above,23,360,20","mars also crunchy leaves maybe a beehive,32,360,20","reminds me of a cave wall,-21,260,20","some rocks on a mars?,7,200,20","Jenna","reminds me of a desert from far above,23,360,20","Kathryn","It's off-putting because it reminds me of walking over rough sand/rocks or having scabs on my skin.,-10,140,20","Claire","reminds me of a cave wall,-21,260,20","0"
"6956","","survey-text","115","1901629","0.0-115.0-0.0","A1T21AFJP4COSR","","","","{""Q0"":""our""}","","","","","","","","","","","","","","","","","","","","","","",""
"85067","","survey-text","116","1986699","0.0-116.0-0.0","A1T21AFJP4COSR","","","","{""Q0"":""I dont know what Im looking at but the more I look the more I like it, I dont want to stop looking at it  I feel like  a story is unfolding before me I now see a man on a hours with a red haired woman running after him""}","","","","","","","","","","","","","","","","","","","","","","",""
"4403.5","","image-slider-response","117","1991104","0.0-117.0","A1T21AFJP4COSR","","","","","21","","","","","","","","","","","","","","","","","","","","","",""
"4752","","image-button-response","118","1996114","0.0-118.0","A1T21AFJP4COSR","img_art/18.jpg","1","","","","","","","","","","","","","","","","","","","","","","","","",""
"13694","","image-button-response","119","2009811","0.0-119.0","A1T21AFJP4COSR","img_art/18.jpg","2","","","","","","","","","","","","","","","","","","","","","","","","",""
"14540","","image-button-response","120","2024353","0.0-120.0-0.0","A1T21AFJP4COSR","img_art/18.jpg","0","","","","","","","","","","","","","","","","","","","","","","","","",""
"2278","","image-button-response","121","2026633","0.0-121.0-0.0","A1T21AFJP4COSR","img_art/18.jpg","0","","","","","","","","","","","","","","","","","","","","","","","","",""
"6484","","image-button-response","122","2038385","0.0-121.1-0.1","A1T21AFJP4COSR","img_art/18.jpg","1","","","","","","","","","","","","","","","","","","","","","","","","",""
"null","","html-keyboard-response","123","2038887","0.0-122.0","A1T21AFJP4COSR","<p style=""font-size: 48px;"">+</p>","","","","","null","allTrialResponses","500","1","11","img_art/18.jpg","21","I dont know what Im looking at but the more I look the more I like it, I dont want to stop looking at it  I feel like  a story is unfolding before me I now see a man on a hours with a red haired woman running after him","Kathryn,Courtney,Jenna,Lindsey,Claire,Emma","Like riding into battle. A sense of confidence, but also trepidation for what's coming. Could be a personification of death.,-10,140,20","Pirate ship in stormy seas before it sank.,11,280,20","hauntingly beautiful. more things revealed the longer you look. love the spirit-like figure in the top left.,47,360,20","Interesting piece - gives you more the more you look at it. I like it but wouldn't buy it.,11,400,20","reminds me of greek mythology,22,260,20","Vaguely creepy ........,-20,60,20","Jenna","hauntingly beautiful. more things revealed the longer you look. love the spirit-like figure in the top left.,47,360,20","Kathryn","Like riding into battle. A sense of confidence, but also trepidation for what's coming. Could be a personification of death.,-10,140,20","Courtney","Pirate ship in stormy seas before it sank.,11,280,20","2"
"37373","","survey-text","124","2076269","0.0-123.0-0.0","A1T21AFJP4COSR","","","","{""Q0"":""Love the colors its soothing I probably would not buy this though""}","","","","","","","","","","","","","","","","","","","","","","",""
"6510.099999904633","","image-slider-response","125","2082781","0.0-124.0","A1T21AFJP4COSR","","","","","14","","","","","","","","","","","","","","","","","","","","","",""
"null","","image-button-response","126","2087796","0.0-125.0","A1T21AFJP4COSR","img_art/13.jpg","null","","","","","","","","","","","","","","","","","","","","","","","","",""
"5933","","image-button-response","127","2093732","0.0-126.0","A1T21AFJP4COSR","img_art/13.jpg","4","","","","","","","","","","","","","","","","","","","","","","","","",""
"6511","","image-button-response","128","2100245","0.0-127.0-0.0","A1T21AFJP4COSR","img_art/13.jpg","0","","","","","","","","","","","","","","","","","","","","","","","","",""
"5650","","image-button-response","129","2105897","0.0-128.0-0.0","A1T21AFJP4COSR","img_art/13.jpg","2","","","","","","","","","","","","","","","","","","","","","","","","",""
"null","","html-keyboard-response","130","2106399","0.0-129.0","A1T21AFJP4COSR","<p style=""font-size: 48px;"">+</p>","","","","","null","allTrialResponses","500","1","12","img_art/13.jpg","14","Love the colors its soothing I probably would not buy this though","Kathryn,Courtney,Jenna,Olivia,Andrea,Victoria","Reminds me of depression anxiety, but negativity is dampened by motion. It's trying to release itself through expression.,-10,140,20","Debree on top of a calm pond.,18,280,20","exciting & chaotic. love the colors.,50,360,20","eighties here we come,7,40,20","Raindrops on a window. Makes me feel like traveling.,31,240,20","reminds me of rain,36,400,20","Andrea","Raindrops on a window. Makes me feel like traveling.,31,240,20","Kathryn","Reminds me of depression anxiety, but negativity is dampened by motion. It's trying to release itself through expression.,-10,140,20","Jenna","exciting & chaotic. love the colors.,50,360,20","2"
"108808","","survey-text","131","2215210","0.0-130.0-0.0","A1T21AFJP4COSR","","","","{""Q0"":""wow I am in love, it is breath taking but so sad, I started crying and cant explain why, I feel like there is a woman kneeling in front of the tree with her head in her hands morning. Its beautiful and heart breaking I want this""}","","","","","","","","","","","","","","","","","","","","","","",""
"6289","","image-slider-response","132","2221501","0.0-131.0","A1T21AFJP4COSR","","","","","50","","","","","","","","","","","","","","","","","","","","","",""
"null","","image-button-response","133","2226514","0.0-132.0","A1T21AFJP4COSR","img_art/17.jpg","null","","","","","","","","","","","","","","","","","","","","","","","","",""
"15326","","image-button-response","134","2241843","0.0-133.0","A1T21AFJP4COSR","img_art/17.jpg","3","","","","","","","","","","","","","","","","","","","","","","","","",""
"2548","","image-button-response","135","2244393","0.0-134.0-0.0","A1T21AFJP4COSR","img_art/17.jpg","2","","","","","","","","","","","","","","","","","","","","","","","","",""
"16654","","image-button-response","136","2261050","0.0-135.0-0.0","A1T21AFJP4COSR","img_art/17.jpg","5","","","","","","","","","","","","","","","","","","","","","","","","",""
"null","","html-keyboard-response","137","2262562","0.0-136.0","A1T21AFJP4COSR","<p style=""font-size: 48px;"">+</p>","","","","","null","allTrialResponses","1500","1","13","img_art/17.jpg","50","wow I am in love, it is breath taking but so sad, I started crying and cant explain why, I feel like there is a woman kneeling in front of the tree with her head in her hands morning. Its beautiful and heart breaking I want this","Kathryn,Marissa,Jenna,Anna,Andrea,Bailey","Reminds me of the modern art museum in Rome. I didn't ""get"" many pieces, but had a positive cultural experience overall.,20,140,20","This reminds me of spring,24,160,20","stunning. makes me feel happy, hopeful, serene, and a little wistful.,50,360,20","it brings a clear picture to my minds eye:,45,300,20","A coming storm but I think I would appreciate it more with more contrast.,-12,240,20","I like the artistic sketching pattern.,24,360,20","Anna","it brings a clear picture to my minds eye:,45,300,20","Jenna","stunning. makes me feel happy, hopeful, serene, and a little wistful.,50,360,20","Bailey","I like the artistic sketching pattern.,24,360,20","2"
"43596","","survey-text","138","2306168","0.0-137.0-0.0","A1T21AFJP4COSR","","","","{""Q0"":""I love the colors and style but it feels stressful and sad makes me think of a car wreck""}","","","","","","","","","","","","","","","","","","","","","","",""
"9612.800000071526","","image-slider-response","139","2315782","0.0-138.0","A1T21AFJP4COSR","","","","","5","","","","","","","","","","","","","","","","","","","","","",""
"null","","image-button-response","140","2320803","0.0-139.0","A1T21AFJP4COSR","img_art/20.jpg","null","","","","","","","","","","","","","","","","","","","","","","","","",""
"1460","","image-button-response","141","2322266","0.0-140.0","A1T21AFJP4COSR","img_art/20.jpg","2","","","","","","","","","","","","","","","","","","","","","","","","",""
"14742","","image-button-response","142","2337010","0.0-141.0-0.0","A1T21AFJP4COSR","img_art/20.jpg","4","","","","","","","","","","","","","","","","","","","","","","","","",""
"2480","","image-button-response","143","2339493","0.0-142.0-0.0","A1T21AFJP4COSR","img_art/20.jpg","5","","","","","","","","","","","","","","","","","","","","","","","","",""
"null","","html-keyboard-response","144","2340995","0.0-143.0","A1T21AFJP4COSR","<p style=""font-size: 48px;"">+</p>","","","","","null","allTrialResponses","1500","1","14","img_art/20.jpg","5","I love the colors and style but it feels stressful and sad makes me think of a car wreck","Katelyn,Nicole,Jenna,Anna,Heather,Bailey","I do at least like the dark colors blending,6,100,20","This one feels scary in a bad way,-30,20,20","could look for hours. love the brush work. color choices look like a desert.,50,360,20","I would like it more without the frame.,10,300,20","make me feel like its a little country maybe a tractor and a skull head of a bull,1,260,20","A bit hectic, but it does have a bit of coolness to it,6,360,20","Jenna","could look for hours. love the brush work. color choices look like a desert.,50,360,20","Heather","make me feel like its a little country maybe a tractor and a skull head of a bull,1,260,20","Bailey","A bit hectic, but it does have a bit of coolness to it,6,360,20","2"
"77172","","survey-text","145","2418183","0.0-144.0-0.0","A1T21AFJP4COSR","","","","{""Q0"":""I do not like the colors at all. I see a couple at a cafe butt there is no emotion with it""}","","","","","","","","","","","","","","","","","","","","","","",""
"6035.599999904633","","image-slider-response","146","2424221","0.0-145.0","A1T21AFJP4COSR","","","","","-17","","","","","","","","","","","","","","","","","","","","","",""
"null","","image-button-response","147","2429231","0.0-146.0","A1T21AFJP4COSR","img_art/2.jpg","null","","","","","","","","","","","","","","","","","","","","","","","","",""
"3566","","image-button-response","148","2432800","0.0-147.0","A1T21AFJP4COSR","img_art/2.jpg","2","","","","","","","","","","","","","","","","","","","","","","","","",""
"17842","","image-button-response","149","2450644","0.0-148.0-0.0","A1T21AFJP4COSR","img_art/2.jpg","0","","","","","","","","","","","","","","","","","","","","","","","","",""
"4269","","image-button-response","150","2454915","0.0-149.0-0.0","A1T21AFJP4COSR","img_art/2.jpg","1","","","","","","","","","","","","","","","","","","","","","","","","",""
"null","","html-keyboard-response","151","2455919","0.0-150.0","A1T21AFJP4COSR","<p style=""font-size: 48px;"">+</p>","","","","","null","allTrialResponses","1000","1","15","img_art/2.jpg","-17","I do not like the colors at all. I see a couple at a cafe butt there is no emotion with it","Emily,Brooke,Jenna,Chelsea,Heather,Bailey","Random colors and shapes mashed together. Nothing artistic, but better than some of the other ones.,-37,40,20","Ugly version of that park painting.,-31,60,20","the colors are a bit odd, and the squiggly line at the top is distracting,0,360,20","Not sure what is happening. I'm not a big fan of the colors but they don't bother me either.,1,180,20","i like the colors and again can make out my own picture,38,260,20","Too gloopy and unfocused,-38,360,20","Jenna","the colors are a bit odd, and the squiggly line at the top is distracting,0,360,20","Emily","Random colors and shapes mashed together. Nothing artistic, but better than some of the other ones.,-37,40,20","Brooke","Ugly version of that park painting.,-31,60,20","2"
"4145","","survey-text","152","2460084","0.0-151.0-0.0","A1T21AFJP4COSR","","","","{""Q0"":""course""}","","","","","","","","","","","","","","","","","","","","","","",""
"57392","","survey-text","153","2517477","0.0-152.0-0.0","A1T21AFJP4COSR","","","","{""Q0"":""if the green was not there I would like it I feel like a toddler came up with a crayon and ruined a beautiful piece of work ""}","","","","","","","","","","","","","","","","","","","","","","",""
"3823.7999999523163","","image-slider-response","154","2521303","0.0-153.0","A1T21AFJP4COSR","","","","","-10","","","","","","","","","","","","","","","","","","","","","",""
"null","","image-button-response","155","2526310","0.0-154.0","A1T21AFJP4COSR","img_art/27.jpg","null","","","","","","","","","","","","","","","","","","","","","","","","",""
"1763","","image-button-response","156","2528076","0.0-155.0","A1T21AFJP4COSR","img_art/27.jpg","2","","","","","","","","","","","","","","","","","","","","","","","","",""
"5051","","image-button-response","157","2533129","0.0-156.0-0.0","A1T21AFJP4COSR","img_art/27.jpg","5","","","","","","","","","","","","","","","","","","","","","","","","",""
"6731","","image-button-response","158","2539862","0.0-157.0-0.0","A1T21AFJP4COSR","img_art/27.jpg","1","","","","","","","","","","","","","","","","","","","","","","","","",""
"null","","html-keyboard-response","159","2540869","0.0-158.0","A1T21AFJP4COSR","<p style=""font-size: 48px;"">+</p>","","","","","null","allTrialResponses","1000","1","16","img_art/27.jpg","-10","if the green was not there I would like it I feel like a toddler came up with a crayon and ruined a beautiful piece of work ","Emily,Brooke,Jenna,Breanna,Hannah,Haley","Anyone could do that.,-31,40,20","Like it, autumn colors, trees and foliage scene.,25,60,20","the green & white scribbles feel childlike. perhaps the quality of the photo, but the colors are gloomy.,-13,360,20","Not too impressed with the work,6,380,20","Reminds me of something I'd see in a gold frame from the Eighties.,-9,240,20","First thought is again, that this looks like a child's art assignment,-20,220,20","Jenna","the green & white scribbles feel childlike. perhaps the quality of the photo, but the colors are gloomy.,-13,360,20","Haley","First thought is again, that this looks like a child's art assignment,-20,220,20","Brooke","Like it, autumn colors, trees and foliage scene.,25,60,20","2"
"25534","","survey-text","160","2566412","0.0-159.0-0.0","A1T21AFJP4COSR","","","","{""Q0"":""feels like the forest but I wish there was more colors""}","","","","","","","","","","","","","","","","","","","","","","",""
"5312.5","","image-slider-response","161","2571726","0.0-160.0","A1T21AFJP4COSR","","","","","-2","","","","","","","","","","","","","","","","","","","","","",""
"null","","image-button-response","162","2576729","0.0-161.0","A1T21AFJP4COSR","img_art/15.jpg","null","","","","","","","","","","","","","","","","","","","","","","","","",""
"2608","","image-button-response","163","2579340","0.0-162.0","A1T21AFJP4COSR","img_art/15.jpg","2","","","","","","","","","","","","","","","","","","","","","","","","",""
"5805","","image-button-response","164","2585147","0.0-163.0-0.0","A1T21AFJP4COSR","img_art/15.jpg","3","","","","","","","","","","","","","","","","","","","","","","","","",""
"6375","","image-button-response","165","2591525","0.0-164.0-0.0","A1T21AFJP4COSR","img_art/15.jpg","4","","","","","","","","","","","","","","","","","","","","","","","","",""
"null","","html-keyboard-response","166","2592539","0.0-165.0","A1T21AFJP4COSR","<p style=""font-size: 48px;"">+</p>","","","","","null","allTrialResponses","1000","1","17","img_art/15.jpg","-2","feels like the forest but I wish there was more colors","Christina,Brooke,Jenna,Rachel,Madison,Haley","I really like the colors,14,240,20","This one reminds me of a postage stamp, but branches and leaves. Kind of fun.,15,60,20","interesting technique. the blue is very pretty,18,360,20","Reminds me of blue birds in a tree at night. I love nature.,40,80,20","I am starting to feel description fatigue. This would be pleasant enough in a doctor's office waiting room.,15,60,20","Interesting, and I don't dislike it.,9,220,20","Jenna","interesting technique. the blue is very pretty,18,360,20","Rachel","Reminds me of blue birds in a tree at night. I love nature.,40,80,20","Madison","I am starting to feel description fatigue. This would be pleasant enough in a doctor's office waiting room.,15,60,20","2"
"37604","","survey-text","167","2630159","0.0-166.0-0.0","A1T21AFJP4COSR","","","","{""Q0"":""I love the colors but it feels chaotic ""}","","","","","","","","","","","","","","","","","","","","","","",""
"5283.900000095367","","image-slider-response","168","2635445","0.0-167.0","A1T21AFJP4COSR","","","","","6","","","","","","","","","","","","","","","","","","","","","",""
"null","","image-button-response","169","2640456","0.0-168.0","A1T21AFJP4COSR","img_art/1.jpg","null","","","","","","","","","","","","","","","","","","","","","","","","",""
"367","","image-button-response","170","2640827","0.0-169.0","A1T21AFJP4COSR","img_art/1.jpg","0","","","","","","","","","","","","","","","","","","","","","","","","",""
"6462","","image-button-response","171","2647291","0.0-170.0-0.0","A1T21AFJP4COSR","img_art/1.jpg","3","","","","","","","","","","","","","","","","","","","","","","","","",""
"7906","","image-button-response","172","2655199","0.0-171.0-0.0","A1T21AFJP4COSR","img_art/1.jpg","4","","","","","","","","","","","","","","","","","","","","","","","","",""
"null","","html-keyboard-response","173","2656209","0.0-172.0","A1T21AFJP4COSR","<p style=""font-size: 48px;"">+</p>","","","","","null","allTrialResponses","1000","1","18","img_art/1.jpg","6","I love the colors but it feels chaotic ","Briana,Catherine,Jenna,Rachel,Madison,Rebecca","I like the colors. But it doesnt look like anything,27,400,20","confused,animal like brain fog,0,160,20","beautiful colors and brush strokes,47,360,20","While I like the colors, I find nothing interesting or thought provoking about it.,10,80,20","This looks like the same artist as the first picture, but cropped? Looks incomplete.,28,60,20","bamboo boat in sunset,12,100,20","Briana","I like the colors. But it doesnt look like anything,27,400,20","Rachel","While I like the colors, I find nothing interesting or thought provoking about it.,10,80,20","Madison","This looks like the same artist as the first picture, but cropped? Looks incomplete.,28,60,20","2"
"19119","","survey-text","174","2675345","0.0-173.0-0.0","A1T21AFJP4COSR","","","","{""Q0"":""nope I hate this and I don't even want to waste my time on it""}","","","","","","","","","","","","","","","","","","","","","","",""
"6907.699999928474","","image-slider-response","175","2682255","0.0-174.0","A1T21AFJP4COSR","","","","","-39","","","","","","","","","","","","","","","","","","","","","",""
"null","","image-button-response","176","2687278","0.0-175.0","A1T21AFJP4COSR","img_art/9.jpg","null","","","","","","","","","","","","","","","","","","","","","","","","",""
"4630","","image-button-response","177","2691912","0.0-176.0","A1T21AFJP4COSR","img_art/9.jpg","3","","","","","","","","","","","","","","","","","","","","","","","","",""
"4038","","image-button-response","178","2695951","0.0-177.0-0.0","A1T21AFJP4COSR","img_art/9.jpg","5","","","","","","","","","","","","","","","","","","","","","","","","",""
"7129","","image-button-response","179","2703083","0.0-178.0-0.0","A1T21AFJP4COSR","img_art/9.jpg","0","","","","","","","","","","","","","","","","","","","","","","","","",""
"null","","html-keyboard-response","180","2704597","0.0-179.0","A1T21AFJP4COSR","<p style=""font-size: 48px;"">+</p>","","","","","null","allTrialResponses","1500","1","19","img_art/9.jpg","-39","nope I hate this and I don't even want to waste my time on it","Briana,Mariah,Isabella,Rachel,Madison,Mikayla","I see a foot. Idk colors are pleasant,12,400,20","Pleasant in all ways.,27,140,20","Angry beast mouth,-37,280,20","It looks like a lady taking a peaceful nap on a blanket in the grass.,41,80,20","No cohesive form whatsoever. Hard pass.,-31,60,20","Looks like a crayon drawing.,21,300,20","Rachel","It looks like a lady taking a peaceful nap on a blanket in the grass.,41,80,20","Mikayla","Looks like a crayon drawing.,21,300,20","Briana","I see a foot. Idk colors are pleasant,12,400,20","2"
"50126","","survey-text","181","2754739","0.0-180.0-0.0","A1T21AFJP4COSR","","","","{""Q0"":""this is odd but the more I look the more I like it, I feel like the white represent people I want to spend more time with it""}","","","","","","","","","","","","","","","","","","","","","","",""
"2509.6999999284744","","image-slider-response","182","2757250","0.0-181.0","A1T21AFJP4COSR","","","","","17","","","","","","","","","","","","","","","","","","","","","",""
"4983","","image-button-response","183","2762252","0.0-182.0","A1T21AFJP4COSR","img_art/23.jpg","0","","","","","","","","","","","","","","","","","","","","","","","","",""
"1045","","image-button-response","184","2763298","0.0-183.0","A1T21AFJP4COSR","img_art/23.jpg","0","","","","","","","","","","","","","","","","","","","","","","","","",""
"5698","","image-button-response","185","2768999","0.0-184.0-0.0","A1T21AFJP4COSR","img_art/23.jpg","4","","","","","","","","","","","","","","","","","","","","","","","","",""
"5273","","image-button-response","186","2774274","0.0-185.0-0.0","A1T21AFJP4COSR","img_art/23.jpg","3","","","","","","","","","","","","","","","","","","","","","","","","",""
"null","","html-keyboard-response","187","2775787","0.0-186.0","A1T21AFJP4COSR","<p style=""font-size: 48px;"">+</p>","","","","","null","allTrialResponses","1500","1","20","img_art/23.jpg","17","this is odd but the more I look the more I like it, I feel like the white represent people I want to spend more time with it","Briana,Katie,Mackenzie,Rachel,Alexandria,Mikayla","White in the middle look like people dancing naked,19,400,20","I don't get it! the white in the middle of the speckled rainbow is confusing.,-10,160,20","The usage of color is great, but not my style.,-15,20,20","Vivid colors and the white in the middle looks like people dancing.,31,80,20","makes me happy and want to dance,43,80,20","So beautiful with the white accents.,50,300,20","Briana","White in the middle look like people dancing naked,19,400,20","Alexandria","makes me happy and want to dance,43,80,20","Rachel","Vivid colors and the white in the middle looks like people dancing.,31,80,20","2"
"7057","","survey-text","188","2782873","0.0-187.0-0.0","A1T21AFJP4COSR","","","","{""Q0"":""we""}","","","","","","","","","","","","","","","","","","","","","","",""
"24743","","survey-text","189","2807617","0.0-188.0-0.0","A1T21AFJP4COSR","","","","{""Q0"":""love love love the colors I feel like its a raining day at sunset in the city""}","","","","","","","","","","","","","","","","","","","","","","",""
"5429.700000047684","","image-slider-response","190","2813049","0.0-189.0","A1T21AFJP4COSR","","","","","19","","","","","","","","","","","","","","","","","","","","","",""
"null","","image-button-response","191","2818054","0.0-190.0","A1T21AFJP4COSR","img_art/22.jpg","null","","","","","","","","","","","","","","","","","","","","","","","","",""
"1357","","image-button-response","192","2819415","0.0-191.0","A1T21AFJP4COSR","img_art/22.jpg","2","","","","","","","","","","","","","","","","","","","","","","","","",""
"4376","","image-button-response","193","2823792","0.0-192.0-0.0","A1T21AFJP4COSR","img_art/22.jpg","5","","","","","","","","","","","","","","","","","","","","","","","","",""
"2703","","image-button-response","194","2826497","0.0-193.0-0.0","A1T21AFJP4COSR","img_art/22.jpg","4","","","","","","","","","","","","","","","","","","","","","","","","",""
"null","","html-keyboard-response","195","2826999","0.0-194.0","A1T21AFJP4COSR","<p style=""font-size: 48px;"">+</p>","","","","","null","allTrialResponses","500","1","21","img_art/22.jpg","19","love love love the colors I feel like its a raining day at sunset in the city","Briana,Sierra,Kaitlin,Rachel,Alexandria,Crystal","Bright colors feel warm,22,400,20","colorful. but not much happening,1,260,20","This represents the hopes in my life.,21,60,20","I like the vivid colors.,11,80,20","the colors and shapes makes me want to keep looking at it,22,80,20","Beautiful use of chalk or pastels. Love the abstract nature.,35,300,20","Kaitlin","This represents the hopes in my life.,21,60,20","Crystal","Beautiful use of chalk or pastels. Love the abstract nature.,35,300,20","Alexandria","the colors and shapes makes me want to keep looking at it,22,80,20","2"
"11632","","survey-text","196","2838643","0.0-195.0-0.0","A1T21AFJP4COSR","","","","{""Q0"":""sad this feels so lonely""}","","","","","","","","","","","","","","","","","","","","","","",""
"7313","","image-slider-response","197","2845957","0.0-196.0","A1T21AFJP4COSR","","","","","2","","","","","","","","","","","","","","","","","","","","","",""
"null","","image-button-response","198","2850976","0.0-197.0","A1T21AFJP4COSR","img_art/6.jpg","null","","","","","","","","","","","","","","","","","","","","","","","","",""
"3714","","image-button-response","199","2854693","0.0-198.0","A1T21AFJP4COSR","img_art/6.jpg","3","","","","","","","","","","","","","","","","","","","","","","","","",""
"1515","","image-button-response","200","2856211","0.0-199.0-0.0","A1T21AFJP4COSR","img_art/6.jpg","3","","","","","","","","","","","","","","","","","","","","","","","","",""
"3236","","image-button-response","201","2862714","0.0-199.1-0.1","A1T21AFJP4COSR","img_art/6.jpg","5","","","","","","","","","","","","","","","","","","","","","","","","",""
"1979","","image-button-response","202","2864695","0.0-200.0-0.0","A1T21AFJP4COSR","img_art/6.jpg","0","","","","","","","","","","","","","","","","","","","","","","","","",""
"null","","html-keyboard-response","203","2866215","0.0-201.0","A1T21AFJP4COSR","<p style=""font-size: 48px;"">+</p>","","","","","null","allTrialResponses","1500","1","22","img_art/6.jpg","2","sad this feels so lonely","Hailey,Makayla,Kaitlin,Jamie,Alexandria,Crystal","one lonely thing trying to grow,-24,200,20","Don't like the black space,2,80,20","This one also confuses me a bit.,-19,60,20","Tree growing in a desert. Gives me feelings of hope,5,320,20","i like it but it is very neutral,9,80,20","Gives me a feeling of solitude and nothingness,11,300,20","Jamie","Tree growing in a desert. Gives me feelings of hope,5,320,20","Crystal","Gives me a feeling of solitude and nothingness,11,300,20","Hailey","one lonely thing trying to grow,-24,200,20","4"
"10130","","survey-text","204","2876358","0.0-202.0-0.0","A1T21AFJP4COSR","","","","{""Q0"":""does nothing for me""}","","","","","","","","","","","","","","","","","","","","","","",""
"4859.200000047684","","image-slider-response","205","2881219","0.0-203.0","A1T21AFJP4COSR","","","","","-3","","","","","","","","","","","","","","","","","","","","","",""
"null","","image-button-response","206","2886225","0.0-204.0","A1T21AFJP4COSR","img_art/30.jpg","null","","","","","","","","","","","","","","","","","","","","","","","","",""
"9682","","image-button-response","207","2895908","0.0-205.0","A1T21AFJP4COSR","img_art/30.jpg","1","","","","","","","","","","","","","","","","","","","","","","","","",""
"770","","image-button-response","208","2896681","0.0-206.0-0.0","A1T21AFJP4COSR","img_art/30.jpg","0","","","","","","","","","","","","","","","","","","","","","","","","",""
"11334","","image-button-response","209","2908017","0.0-207.0-0.0","A1T21AFJP4COSR","img_art/30.jpg","5","","","","","","","","","","","","","","","","","","","","","","","","",""
"null","","html-keyboard-response","210","2909026","0.0-208.0","A1T21AFJP4COSR","<p style=""font-size: 48px;"">+</p>","","","","","null","allTrialResponses","1000","1","23","img_art/30.jpg","-3","does nothing for me","Hailey,Jordan,Taylor,Jamie,Molly,Crystal","snakes in the grass, I don't like it,-17,200,20","cant see the meaning behind it,-20,20,20","It's a really interesting piece,20,340,20","Cool design and contrast of colors,30,320,20","I like the way the artist has painted his work.,40,340,20","An interesting design but don't like the colors. I value the time and effort put into it, but not a huge fan.,10,300,20","Jordan","cant see the meaning behind it,-20,20,20","Hailey","snakes in the grass, I don't like it,-17,200,20","Crystal","An interesting design but don't like the colors. I value the time and effort put into it, but not a huge fan.,10,300,20","4"
"26198","","survey-text","211","2935241","0.0-209.0-0.0","A1T21AFJP4COSR","","","","{""Q0"":""very interesting I want to keep looking and understand the story behind this there is so much going on""}","","","","","","","","","","","","","","","","","","","","","","",""
"4694.5","","image-slider-response","212","2939938","0.0-210.0","A1T21AFJP4COSR","","","","","28","","","","","","","","","","","","","","","","","","","","","",""
"null","","image-button-response","213","2944958","0.0-211.0","A1T21AFJP4COSR","img_art/8.jpg","null","","","","","","","","","","","","","","","","","","","","","","","","",""
"1431","","image-button-response","214","2946392","0.0-212.0","A1T21AFJP4COSR","img_art/8.jpg","0","","","","","","","","","","","","","","","","","","","","","","","","",""
"9595","","image-button-response","215","2955989","0.0-213.0-0.0","A1T21AFJP4COSR","img_art/8.jpg","3","","","","","","","","","","","","","","","","","","","","","","","","",""
"1398","","image-button-response","216","2957390","0.0-214.0-0.0","A1T21AFJP4COSR","img_art/8.jpg","5","","","","","","","","","","","","","","","","","","","","","","","","",""
"null","","html-keyboard-response","217","2957904","0.0-215.0","A1T21AFJP4COSR","<p style=""font-size: 48px;"">+</p>","","","","","null","allTrialResponses","500","1","24","img_art/8.jpg","28","very interesting I want to keep looking and understand the story behind this there is so much going on","Hailey,Jordan,Autumn,Amy,Sarah,Crystal","cold city controlled by evil gods,-17,200,20","very nice, i love what's going on here,21,20,20","Well painted. Not my style.,27,340,20","The definition and the colors give make this painting accessible and thought provoking.,30,220,20","it's interesting but i don't enjoy the style,-5,180,20","i like the abstract nature of a birds eye view of the city. The hard shapes and squares present with a softness rather than rigidity.,26,300,20","Hailey","cold city controlled by evil gods,-17,200,20","Amy","The definition and the colors give make this painting accessible and thought provoking.,30,220,20","Crystal","i like the abstract nature of a birds eye view of the city. The hard shapes and squares present with a softness rather than rigidity.,26,300,20","4"
"25681","","survey-text","218","2983605","0.0-216.0-0.0","A1T21AFJP4COSR","","","","{""Q0"":""interesting reminds me of a ferry boat in a story sea""}","","","","","","","","","","","","","","","","","","","","","","",""
"1708.8999999761581","","image-slider-response","219","2985315","0.0-217.0","A1T21AFJP4COSR","","","","","7","","","","","","","","","","","","","","","","","","","","","",""
"3622","","image-button-response","220","2990322","0.0-218.0","A1T21AFJP4COSR","img_art/11.jpg","1","","","","","","","","","","","","","","","","","","","","","","","","",""
"3775","","image-button-response","221","2994100","0.0-219.0","A1T21AFJP4COSR","img_art/11.jpg","5","","","","","","","","","","","","","","","","","","","","","","","","",""
"3043","","image-button-response","222","2997144","0.0-220.0-0.0","A1T21AFJP4COSR","img_art/11.jpg","3","","","","","","","","","","","","","","","","","","","","","","","","",""
"5294","","image-button-response","223","3002440","0.0-221.0-0.0","A1T21AFJP4COSR","img_art/11.jpg","0","","","","","","","","","","","","","","","","","","","","","","","","",""
"null","","html-keyboard-response","224","3003954","0.0-222.0","A1T21AFJP4COSR","<p style=""font-size: 48px;"">+</p>","","","","","null","allTrialResponses","1500","1","25","img_art/11.jpg","7","interesting reminds me of a ferry boat in a story sea","Hailey,Elizabeth,Leslie,Amy,Sara,Crystal","a train going around the country,14,200,20","Very unique piece of art,50,20,20","This elicits no reaction in me.,0,380,20","Simple and complex. Hopeful yet dark. I love this,35,220,20","Looks sad but clean,31,160,20","Enjoyed the lines representing different paths that encompass different entities,20,300,20","Crystal","Enjoyed the lines representing different paths that encompass different entities,20,300,20","Amy","Simple and complex. Hopeful yet dark. I love this,35,220,20","Hailey","a train going around the country,14,200,20","4"
"3834","","survey-text","225","3007823","0.0-223.0-0.0","A1T21AFJP4COSR","","","","{""Q0"":""table""}","","","","","","","","","","","","","","","","","","","","","","",""
"53990","","survey-text","226","3061814","0.0-224.0-0.0","A1T21AFJP4COSR","","","","{""Q0"":""I don't know how I feel about this one I feel different every time I look at it I don't know if its good or bad""}","","","","","","","","","","","","","","","","","","","","","","",""
"6163.699999928474","","image-slider-response","227","3067980","0.0-225.0","A1T21AFJP4COSR","","","","","5","","","","","","","","","","","","","","","","","","","","","",""
"null","","image-button-response","228","3072984","0.0-226.0","A1T21AFJP4COSR","img_art/12.jpg","null","","","","","","","","","","","","","","","","","","","","","","","","",""
"1273","","image-button-response","229","3074262","0.0-227.0","A1T21AFJP4COSR","img_art/12.jpg","5","","","","","","","","","","","","","","","","","","","","","","","","",""
"4107","","image-button-response","230","3078370","0.0-228.0-0.0","A1T21AFJP4COSR","img_art/12.jpg","3","","","","","","","","","","","","","","","","","","","","","","","","",""
"6715","","image-button-response","231","3085087","0.0-229.0-0.0","A1T21AFJP4COSR","img_art/12.jpg","0","","","","","","","","","","","","","","","","","","","","","","","","",""
"null","","html-keyboard-response","232","3085604","0.0-230.0","A1T21AFJP4COSR","<p style=""font-size: 48px;"">+</p>","","","","","null","allTrialResponses","500","1","26","img_art/12.jpg","5","I don't know how I feel about this one I feel different every time I look at it I don't know if its good or bad","Hailey,Grace,Cassidy,Amy,Alyssa,Crystal","negative feelings with these blocks,-20,200,20","Love the colors & the abstractness.,31,180,20","I like the colors and pattern,21,140,20","Quite lovely with depth and possibility.,21,220,20","Its cool,reminiscent of Andy Warhol type of style,10,160,20","I like the sectioned nature of the squares and curves. Not my favorite but still a good one.,27,300,20","Crystal","I like the sectioned nature of the squares and curves. Not my favorite but still a good one.,27,300,20","Amy","Quite lovely with depth and possibility.,21,220,20","Hailey","negative feelings with these blocks,-20,200,20","4"
"30065","","survey-text","233","3115687","0.0-231.0-0.0","A1T21AFJP4COSR","","","","{""Q0"":""I want to like this I generally love this style but for some reason i am feeling no emotion""}","","","","","","","","","","","","","","","","","","","","","","",""
"1834.6999999284744","","image-slider-response","234","3117523","0.0-232.0","A1T21AFJP4COSR","","","","","2","","","","","","","","","","","","","","","","","","","","","",""
"null","","image-button-response","235","3122544","0.0-233.0","A1T21AFJP4COSR","img_art/26.jpg","null","","","","","","","","","","","","","","","","","","","","","","","","",""
"524","","image-button-response","236","3123072","0.0-234.0","A1T21AFJP4COSR","img_art/26.jpg","2","","","","","","","","","","","","","","","","","","","","","","","","",""
"4038","","image-button-response","237","3127112","0.0-235.0-0.0","A1T21AFJP4COSR","img_art/26.jpg","3","","","","","","","","","","","","","","","","","","","","","","","","",""
"5081","","image-button-response","238","3132196","0.0-236.0-0.0","A1T21AFJP4COSR","img_art/26.jpg","1","","","","","","","","","","","","","","","","","","","","","","","","",""
"null","","html-keyboard-response","239","3133203","0.0-237.0","A1T21AFJP4COSR","<p style=""font-size: 48px;"">+</p>","","","","","null","allTrialResponses","1000","1","27","img_art/26.jpg","2","I want to like this I generally love this style but for some reason i am feeling no emotion","Hailey,Monica,Abigail,Amy,Caroline,Crystal","bedroom in the outdoors. warm,9,200,20","It looks empty and unfinished,-28,360,20","Reminds me of walks in my dads city when I was little,22,20,20","The feeling that I am looking at the world through a dingy filter makes this unpleasant for me.,-20,220,20","Calming and relaxing,28,100,20","Do not like water colors at all,-50,300,20","Abigail","Reminds me of walks in my dads city when I was little,22,20,20","Amy","The feeling that I am looking at the world through a dingy filter makes this unpleasant for me.,-20,220,20","Monica","It looks empty and unfinished,-28,360,20","4"
"16694","","survey-text","240","3149908","0.0-238.0-0.0","A1T21AFJP4COSR","","","","{""Q0"":""I don't get this at all not for me""}","","","","","","","","","","","","","","","","","","","","","","",""
"11158.600000023842","","image-slider-response","241","3161068","0.0-239.0","A1T21AFJP4COSR","","","","","-11","","","","","","","","","","","","","","","","","","","","","",""
"null","","image-button-response","242","3166084","0.0-240.0","A1T21AFJP4COSR","img_art/4.jpg","null","","","","","","","","","","","","","","","","","","","","","","","","",""
"1921","","image-button-response","243","3168009","0.0-241.0","A1T21AFJP4COSR","img_art/4.jpg","2","","","","","","","","","","","","","","","","","","","","","","","","",""
"7393","","image-button-response","244","3175404","0.0-242.0-0.0","A1T21AFJP4COSR","img_art/4.jpg","5","","","","","","","","","","","","","","","","","","","","","","","","",""
"1399","","image-button-response","245","3176805","0.0-243.0-0.0","A1T21AFJP4COSR","img_art/4.jpg","3","","","","","","","","","","","","","","","","","","","","","","","","",""
"null","","html-keyboard-response","246","3177808","0.0-244.0","A1T21AFJP4COSR","<p style=""font-size: 48px;"">+</p>","","","","","null","allTrialResponses","1000","1","28","img_art/4.jpg","-11","I don't get this at all not for me","Meghan,Monica,Abigail,Amy,Jacqueline,Angela","feels free flowing and relaxed,21,220,20","The dark yellow color makes me think of mustard, which I dislike,-27,360,20","A hand reaching for something it cannot obtain,-9,20,20","disturbing and uncomfortable.,10,220,20","It looks like smeared poop.,-27,300,20","Really like the colors, but don't like the object/squiggle in darker gold and black,4,260,20","Abigail","A hand reaching for something it cannot obtain,-9,20,20","Angela","Really like the colors, but don't like the object/squiggle in darker gold and black,4,260,20","Amy","disturbing and uncomfortable.,10,220,20","4"
"36537","","survey-text","247","3214359","0.0-245.0-0.0","A1T21AFJP4COSR","","","","{""Q0"":""I feel like im missing something and if i had the time to spend with this I would end up liking it""}","","","","","","","","","","","","","","","","","","","","","","",""
"4588.899999976158","","image-slider-response","248","3218950","0.0-246.0","A1T21AFJP4COSR","","","","","3","","","","","","","","","","","","","","","","","","","","","",""
"3661","","image-button-response","249","3223953","0.0-247.0","A1T21AFJP4COSR","img_art/5.jpg","1","","","","","","","","","","","","","","","","","","","","","","","","",""
"10721","","image-button-response","250","3234678","0.0-248.0","A1T21AFJP4COSR","img_art/5.jpg","1","","","","","","","","","","","","","","","","","","","","","","","","",""
"9801","","image-button-response","251","3244481","0.0-249.0-0.0","A1T21AFJP4COSR","img_art/5.jpg","4","","","","","","","","","","","","","","","","","","","","","","","","",""
"6175","","image-button-response","252","3250658","0.0-250.0-0.0","A1T21AFJP4COSR","img_art/5.jpg","2","","","","","","","","","","","","","","","","","","","","","","","","",""
"null","","html-keyboard-response","253","3252172","0.0-251.0","A1T21AFJP4COSR","<p style=""font-size: 48px;"">+</p>","","","","","null","allTrialResponses","1500","1","29","img_art/5.jpg","3","I feel like im missing something and if i had the time to spend with this I would end up liking it","Stephanie,Lauren,Abigail,Amy,Erica,Angela","This did not do a thing for me.,-50,300,20","I like the simplicity of the design, but I can't tell what the image is trying to depict.,10,340,20","Reminds me of a broken umbrella,-9,20,20","Nearly white background gives a lack of context. Questionable skills,-45,220,20","positive colours; yellow calls attention,6,80,20","I really dislike this. It's ugly and looks dirty.,-44,260,20","Lauren","I like the simplicity of the design, but I can't tell what the image is trying to depict.,10,340,20","Erica","positive colours; yellow calls attention,6,80,20","Abigail","Reminds me of a broken umbrella,-9,20,20","4"
"24753","","survey-text","254","3276937","0.0-252.0-0.0","A1T21AFJP4COSR","","","","{""Q0"":""the colors make me feel depressed ""}","","","","","","","","","","","","","","","","","","","","","","",""
"5247.800000071526","","image-slider-response","255","3282187","0.0-253.0","A1T21AFJP4COSR","","","","","-16","","","","","","","","","","","","","","","","","","","","","",""
"4842","","image-button-response","256","3287189","0.0-254.0","A1T21AFJP4COSR","img_art/28.jpg","1","","","","","","","","","","","","","","","","","","","","","","","","",""
"9160","","image-button-response","257","3296351","0.0-255.0","A1T21AFJP4COSR","img_art/28.jpg","5","","","","","","","","","","","","","","","","","","","","","","","","",""
"2761","","image-button-response","258","3299116","0.0-256.0-0.0","A1T21AFJP4COSR","img_art/28.jpg","0","","","","","","","","","","","","","","","","","","","","","","","","",""
"7163","","image-button-response","259","3306281","0.0-257.0-0.0","A1T21AFJP4COSR","img_art/28.jpg","1","","","","","","","","","","","","","","","","","","","","","","","","",""
"null","","html-keyboard-response","260","3307283","0.0-258.0","A1T21AFJP4COSR","<p style=""font-size: 48px;"">+</p>","","","","","null","allTrialResponses","1000","1","30","img_art/28.jpg","-16","the colors make me feel depressed ","Kylie,Lauren,Abigail,Gabrielle,Erica,Kimberly","Overpopulated city,35,300,20","I feel that the image is invoking a sense of negativity.,-15,340,20","A messy bed room,-7,20,20","bland coloring but pattern interesting,2,160,20","Nothing calls my attention,15,80,20","The thing on the right is kind of weird/fetus-y,-12,260,20","Kimberly","The thing on the right is kind of weird/fetus-y,-12,260,20","Kylie","Overpopulated city,35,300,20","Lauren","I feel that the image is invoking a sense of negativity.,-15,340,20","4"
"37244","","image-button-response_instructions","261","3344539","0.0-259.0","A1T21AFJP4COSR","","0","instructions","","","","","","","","","","","","","","","","","","","","","","","",""
"1571","","image-button-response","262","3346116","0.0-260.0","A1T21AFJP4COSR","","0","","","","","","","","","","","","","","","","","","","","","","","","",""
