"rt","url","trial_type","trial_index","time_elapsed","internal_node_id","participant_id","stimulus","button_pressed","Name","responses","response","key_press","variableName","fixationTime","condition","trial","photo","subjectRating","subjectResponse","agentsNames","agent_1_Response","agent_2_Response","agent_3_Response","agent_4_Response","agent_5_Response","agent_6_Response","kept_1_name","kept_1_response","kept_2_name","kept_2_response","kept_3_name","kept_3_response","errorCounter"
"13398","external_page_harvard.html","external-html","0","13513","0.0-0.0","A1UDOSYE75OYYI","","","","","","","","","","","","","","","","","","","","","","","","","","",""
"1417","","image-button-response","1","14934","0.0-1.0","A1UDOSYE75OYYI","","0","","","","","","","","","","","","","","","","","","","","","","","","",""
"1829","","image-button-response","2","16797","0.0-2.0-0.0","A1UDOSYE75OYYI","","1","phone","","","","","","","","","","","","","","","","","","","","","","","",""
"6140","","survey-text","3","22940","0.0-3.0-0.0","A1UDOSYE75OYYI","","","","{""Q0"":""A1UDOSYE75OYYI""}","","","","","","","","","","","","","","","","","","","","","","",""
"6254","","image-button-response_instructions","4","29196","0.0-4.0","A1UDOSYE75OYYI","","0","instructions","","","","","","","","","","","","","","","","","","","","","","","",""
"16754","","image-button-response_instructions","5","45953","0.0-5.0","A1UDOSYE75OYYI","img_art/ins/popularity/ins1.png","0","instructions","","","","","","","","","","","","","","","","","","","","","","","",""
"5537","","image-button-response_instructions","6","51492","0.0-6.0","A1UDOSYE75OYYI","img_art/ins/popularity/ins2.png","0","instructions","","","","","","","","","","","","","","","","","","","","","","","",""
"5020","","image-button-response_instructions","7","56514","0.0-7.0","A1UDOSYE75OYYI","img_art/ins/popularity/ins2Extreme.png","0","instructions","","","","","","","","","","","","","","","","","","","","","","","",""
"7487","","image-button-response_instructions","8","64002","0.0-8.0","A1UDOSYE75OYYI","img_art/ins/popularity/ins3KEEPpop.PNG","0","instructions","","","","","","","","","","","","","","","","","","","","","","","",""
"3483","","image-button-response_instructions","9","67487","0.0-9.0","A1UDOSYE75OYYI","img_art/ins/popularity/ins3ANamepop.PNG","0","instructions","","","","","","","","","","","","","","","","","","","","","","","",""
"2821","","image-button-response_instructions","10","70309","0.0-10.0","A1UDOSYE75OYYI","img_art/ins/popularity/ins3ARatingpop.png","0","instructions","","","","","","","","","","","","","","","","","","","","","","","",""
"5167","","image-button-response_instructions","11","75477","0.0-11.0","A1UDOSYE75OYYI","img_art/ins/popularity/ins3ATextpop.png","0","instructions","","","","","","","","","","","","","","","","","","","","","","","",""
"5275","","image-button-response_instructions","12","80753","0.0-12.0","A1UDOSYE75OYYI","img_art/ins/popularity/ins3ALikespop.png","0","instructions","","","","","","","","","","","","","","","","","","","","","","","",""
"68483","","image-button-response_instructions","13","149237","0.0-13.0","A1UDOSYE75OYYI","img_art/ins/popularity/ins3KEEPpop.PNG","0","instructions","","","","","","","","","","","","","","","","","","","","","","","",""
"23049","","image-button-response_instructions","14","172288","0.0-14.0","A1UDOSYE75OYYI","img_art/ins/popularity/ins3_5RED.png","0","instructions","","","","","","","","","","","","","","","","","","","","","","","",""
"9394","","image-button-response_instructions","15","181683","0.0-15.0","A1UDOSYE75OYYI","img_art/ins/popularity/ins3KEEPpop.PNG","0","instructions","","","","","","","","","","","","","","","","","","","","","","","",""
"5557","","image-button-response_instructions","16","187242","0.0-16.0","A1UDOSYE75OYYI","img_art/ins/popularity/ins4KEEPpop.PNG","0","instructions","","","","","","","","","","","","","","","","","","","","","","","",""
"7235","","image-button-response_instructions","17","194477","0.0-17.0","A1UDOSYE75OYYI","img_art/ins/popularity/ins5KEEPpop.PNG","0","instructions","","","","","","","","","","","","","","","","","","","","","","","",""
"1967","","image-button-response_instructions","18","196445","0.0-18.0","A1UDOSYE75OYYI","","0","instructions","","","","","","","","","","","","","","","","","","","","","","","",""
"16786","","survey-text","19","213264","0.0-19.0-0.0","A1UDOSYE75OYYI","","","","{""Q0"":""but""}","","","","","","","","","","","","","","","","","","","","","","",""
"19197","","survey-text","20","232463","0.0-20.0-0.0","A1UDOSYE75OYYI","","","","{""Q0"":""It looks very abstract, almost child-like""}","","","","","","","","","","","","","","","","","","","","","","",""
"3422.7999999523163","","image-slider-response","21","235889","0.0-21.0","A1UDOSYE75OYYI","","","","","-13","","","","","","","","","","","","","","","","","","","","","",""
"null","","image-button-response","22","240895","0.0-22.0","A1UDOSYE75OYYI","img_art/ins/1.jpg","null","","","","","","","","","","","","","","","","","","","","","","","","",""
"3363","","image-button-response","23","244262","0.0-23.0","A1UDOSYE75OYYI","img_art/ins/1.jpg","2","","","","","","","","","","","","","","","","","","","","","","","","",""
"3661","","image-button-response","24","247926","0.0-24.0-0.0","A1UDOSYE75OYYI","img_art/ins/1.jpg","2","","","","","","","","","","","","","","","","","","","","","","","","",""
"5290","","image-button-response","25","256367","0.0-24.1-0.1","A1UDOSYE75OYYI","img_art/ins/1.jpg","5","","","","","","","","","","","","","","","","","","","","","","","","",""
"10139","","image-button-response","26","266510","0.0-25.0-0.0","A1UDOSYE75OYYI","img_art/ins/1.jpg","0","","","","","","","","","","","","","","","","","","","","","","","","",""
"null","","html-keyboard-response","27","268018","0.0-26.0","A1UDOSYE75OYYI","<p style=""font-size: 48px;"">+</p>","","","","","null","allTrialResponses","1500","1","-2","img_art/ins/1.jpg","-13","It looks very abstract, almost child-like","Adam,Alex,Ben,Carl,Daniel,Jack","Seems like doodles,-20,20,20","very creative work.,36,40,20","This color reminds me of poo,-46,60,20","very calming artwork,42,80,20","It looks like a murder scene.,-48,100,20","I like the sophisticated brushwork,40,120,20","Ben","This color reminds me of poo,-46,60,20","Jack","I like the sophisticated brushwork,40,120,20","Adam","Seems like doodles,-20,20,20","2"
"21178","","survey-text","28","289209","0.0-27.0-0.0","A1UDOSYE75OYYI","","","","{""Q0"":""I like the texture and use of color on this art piece.""}","","","","","","","","","","","","","","","","","","","","","","",""
"2623.2000000476837","","image-slider-response","29","291835","0.0-28.0","A1UDOSYE75OYYI","","","","","41","","","","","","","","","","","","","","","","","","","","","",""
"null","","image-button-response","30","296838","0.0-29.0","A1UDOSYE75OYYI","img_art/ins/2.jpg","null","","","","","","","","","","","","","","","","","","","","","","","","",""
"2021","","image-button-response","31","298864","0.0-30.0","A1UDOSYE75OYYI","img_art/ins/2.jpg","5","","","","","","","","","","","","","","","","","","","","","","","","",""
"1011","","image-button-response","32","299879","0.0-31.0-0.0","A1UDOSYE75OYYI","img_art/ins/2.jpg","4","","","","","","","","","","","","","","","","","","","","","","","","",""
"15994","","image-button-response","33","315877","0.0-32.0-0.0","A1UDOSYE75OYYI","img_art/ins/2.jpg","1","","","","","","","","","","","","","","","","","","","","","","","","",""
"null","","html-keyboard-response","34","316881","0.0-33.0","A1UDOSYE75OYYI","<p style=""font-size: 48px;"">+</p>","","","","","null","allTrialResponses","1000","1","-1","img_art/ins/2.jpg","41","I like the texture and use of color on this art piece.","Adam,Kyle,Ben,James,John,Jack","too much color,-18,20,20","Idk, it is just annoying,-32,180,20","meaningless painting,-45,60,20","looks too angry,-50,140,20","love the texture of paint,48,160,20","I would never be able to compose a sophisticated pallete like this,48,120,20","Jack","I would never be able to compose a sophisticated pallete like this,48,120,20","John","love the texture of paint,48,160,20","Kyle","Idk, it is just annoying,-32,180,20","2"
"14069","","survey-text","35","330965","0.0-34.0-0.0","A1UDOSYE75OYYI","","","","{""Q0"":""The color really pops and give me a calm feeling""}","","","","","","","","","","","","","","","","","","","","","","",""
"4780.300000071526","","image-slider-response","36","335747","0.0-35.0","A1UDOSYE75OYYI","","","","","50","","","","","","","","","","","","","","","","","","","","","",""
"3644","","image-button-response","37","340753","0.0-36.0","A1UDOSYE75OYYI","img_art/ins/3.jpg","3","","","","","","","","","","","","","","","","","","","","","","","","",""
"963","","image-button-response","38","341721","0.0-37.0","A1UDOSYE75OYYI","img_art/ins/3.jpg","3","","","","","","","","","","","","","","","","","","","","","","","","",""
"8045","","image-button-response","39","349769","0.0-38.0-0.0","A1UDOSYE75OYYI","img_art/ins/3.jpg","4","","","","","","","","","","","","","","","","","","","","","","","","",""
"7328","","image-button-response","40","357101","0.0-39.0-0.0","A1UDOSYE75OYYI","img_art/ins/3.jpg","0","","","","","","","","","","","","","","","","","","","","","","","","",""
"null","","html-keyboard-response","41","358103","0.0-40.0","A1UDOSYE75OYYI","<p style=""font-size: 48px;"">+</p>","","","","","null","allTrialResponses","1000","1","0","img_art/ins/3.jpg","50","The color really pops and give me a calm feeling","Sam,Kyle,Ron,Mike,John,Jack","I can feel a rainy day from this painting,18,240,20","It looks like a playground for bats,-36,180,20","It looks depressing,-26,220,20","enjoy the different shades of blue,22,200,20","I like the overlapping of brushes,41,160,20","I feel connected to the artist,40,120,20","Mike","enjoy the different shades of blue,22,200,20","John","I like the overlapping of brushes,41,160,20","Sam","I can feel a rainy day from this painting,18,240,20","2"
"7021","","image-button-response_instructions","42","365137","0.0-41.0","A1UDOSYE75OYYI","","0","instructions","","","","","","","","","","","","","","","","","","","","","","","",""
"11426","","survey-likert","43","376566","0.0-42.0-0.0","A1UDOSYE75OYYI","","","","{""Q0"":"""",""Q1"":0,""Q2"":1}","","","","","","","","","","","","","","","","","","","","","","",""
"4519","","survey-text","44","381091","0.0-43.0-0.0","A1UDOSYE75OYYI","","","","{""Q0"":""rock""}","","","","","","","","","","","","","","","","","","","","","","",""
"14013","","survey-text","45","395107","0.0-44.0-0.0","A1UDOSYE75OYYI","","","","{""Q0"":""This is confusing and hurts my brain to look at.""}","","","","","","","","","","","","","","","","","","","","","","",""
"2950.2000000476837","","image-slider-response","46","398059","0.0-45.0","A1UDOSYE75OYYI","","","","","-30","","","","","","","","","","","","","","","","","","","","","",""
"null","","image-button-response","47","403092","0.0-46.0","A1UDOSYE75OYYI","img_art/12.jpg","null","","","","","","","","","","","","","","","","","","","","","","","","",""
"2813","","image-button-response","48","405910","0.0-47.0","A1UDOSYE75OYYI","img_art/12.jpg","4","","","","","","","","","","","","","","","","","","","","","","","","",""
"5478","","image-button-response","49","411389","0.0-48.0-0.0","A1UDOSYE75OYYI","img_art/12.jpg","3","","","","","","","","","","","","","","","","","","","","","","","","",""
"3183","","image-button-response","50","414575","0.0-49.0-0.0","A1UDOSYE75OYYI","img_art/12.jpg","0","","","","","","","","","","","","","","","","","","","","","","","","",""
"null","","html-keyboard-response","51","415077","0.0-50.0","A1UDOSYE75OYYI","<p style=""font-size: 48px;"">+</p>","","","","","null","allTrialResponses","500","1","1","img_art/12.jpg","-30","This is confusing and hurts my brain to look at.","Daniel,Matthew,Jason,Shane,Gabriel,Shawn","Blocky windowed, safe and selfish,-41,320,20","It's boxy, cubist immpressionism? Very ncie.,32,120,20","The shapes present in the picture make it very interesting,17,20,20","Something you would see in a government building hallway,3,80,20","dont like the squares,-16,160,20","Nice hallway art for a hotel.,21,100,20","Gabriel","dont like the squares,-16,160,20","Shane","Something you would see in a government building hallway,3,80,20","Daniel","Blocky windowed, safe and selfish,-41,320,20","2"
"17963","","survey-text","52","433050","0.0-51.0-0.0","A1UDOSYE75OYYI","","","","{""Q0"":""I love the realism and use of brush strokes in this picture.""}","","","","","","","","","","","","","","","","","","","","","","",""
"1490.4000000953674","","image-slider-response","53","434542","0.0-52.0","A1UDOSYE75OYYI","","","","","46","","","","","","","","","","","","","","","","","","","","","",""
"null","","image-button-response","54","439562","0.0-53.0","A1UDOSYE75OYYI","img_art/29.jpg","null","","","","","","","","","","","","","","","","","","","","","","","","",""
"6612","","image-button-response","55","446179","0.0-54.0","A1UDOSYE75OYYI","img_art/29.jpg","1","","","","","","","","","","","","","","","","","","","","","","","","",""
"4723","","image-button-response","56","450905","0.0-55.0-0.0","A1UDOSYE75OYYI","img_art/29.jpg","2","","","","","","","","","","","","","","","","","","","","","","","","",""
"2104","","image-button-response","57","453013","0.0-56.0-0.0","A1UDOSYE75OYYI","img_art/29.jpg","0","","","","","","","","","","","","","","","","","","","","","","","","",""
"null","","html-keyboard-response","58","454031","0.0-57.0","A1UDOSYE75OYYI","<p style=""font-size: 48px;"">+</p>","","","","","null","allTrialResponses","1000","1","2","img_art/29.jpg","46","I love the realism and use of brush strokes in this picture.","Daniel,Tristan,Edward,Shane,Gabriel,Logan","Pinball meets a dark dream meets whale alien, drab,13,320,20","The textures bring this painting alive. A window to another existence with infinite possibility.,25,300,20","Like a crime scene. It's neat and different,30,60,20","Darkness and torment,-50,80,20","dont like this one,-20,160,20","is this supposed to be edgy,-21,360,20","Tristan","The textures bring this painting alive. A window to another existence with infinite possibility.,25,300,20","Edward","Like a crime scene. It's neat and different,30,60,20","Daniel","Pinball meets a dark dream meets whale alien, drab,13,320,20","2"
"20208","","survey-text","59","474248","0.0-58.0-0.0","A1UDOSYE75OYYI","","","","{""Q0"":""Has a very dark theme but the green color makes it alive""}","","","","","","","","","","","","","","","","","","","","","","",""
"3730","","image-slider-response","60","477980","0.0-59.0","A1UDOSYE75OYYI","","","","","9","","","","","","","","","","","","","","","","","","","","","",""
"2430","","image-button-response","61","482984","0.0-60.0","A1UDOSYE75OYYI","img_art/25.jpg","0","","","","","","","","","","","","","","","","","","","","","","","","",""
"1491","","image-button-response","62","484479","0.0-61.0","A1UDOSYE75OYYI","img_art/25.jpg","0","","","","","","","","","","","","","","","","","","","","","","","","",""
"11819","","image-button-response","63","496299","0.0-62.0-0.0","A1UDOSYE75OYYI","img_art/25.jpg","3","","","","","","","","","","","","","","","","","","","","","","","","",""
"6156","","image-button-response","64","502458","0.0-63.0-0.0","A1UDOSYE75OYYI","img_art/25.jpg","1","","","","","","","","","","","","","","","","","","","","","","","","",""
"null","","html-keyboard-response","65","502962","0.0-64.0","A1UDOSYE75OYYI","<p style=""font-size: 48px;"">+</p>","","","","","null","allTrialResponses","500","1","3","img_art/25.jpg","9","Has a very dark theme but the green color makes it alive","Daniel,Tristan,Edward,Jesus,James,Lucas","Beautiful color with an interesting otherworldly figure,29,320,20","The limited palette make this figure mysterious and interpret-able.,20,300,20","It looks like people worshipping a statue,33,60,20","Very nice color contrast and design.,40,100,20","This would definitely be hanging in my bedroom in my house,50,380,20","Well-designed, interesting.,30,380,20","Daniel","Beautiful color with an interesting otherworldly figure,29,320,20","Jesus","Very nice color contrast and design.,40,100,20","Tristan","The limited palette make this figure mysterious and interpret-able.,20,300,20","2"
"17156","","survey-text","66","520131","0.0-65.0-0.0","A1UDOSYE75OYYI","","","","{""Q0"":""This looks really abstract. Almost like I can see a face.""}","","","","","","","","","","","","","","","","","","","","","","",""
"1884.1000000238419","","image-slider-response","67","522017","0.0-66.0","A1UDOSYE75OYYI","","","","","13","","","","","","","","","","","","","","","","","","","","","",""
"null","","image-button-response","68","527037","0.0-67.0","A1UDOSYE75OYYI","img_art/2.jpg","null","","","","","","","","","","","","","","","","","","","","","","","","",""
"1736","","image-button-response","69","528782","0.0-68.0","A1UDOSYE75OYYI","img_art/2.jpg","0","","","","","","","","","","","","","","","","","","","","","","","","",""
"5098","","image-button-response","70","533882","0.0-69.0-0.0","A1UDOSYE75OYYI","img_art/2.jpg","2","","","","","","","","","","","","","","","","","","","","","","","","",""
"15460","","image-button-response","71","549344","0.0-70.0-0.0","A1UDOSYE75OYYI","img_art/2.jpg","5","","","","","","","","","","","","","","","","","","","","","","","","",""
"null","","html-keyboard-response","72","549846","0.0-71.0","A1UDOSYE75OYYI","<p style=""font-size: 48px;"">+</p>","","","","","null","allTrialResponses","500","1","4","img_art/2.jpg","13","This looks really abstract. Almost like I can see a face.","Daniel,Tristan,Nathan,Jesus,Dustin,Michael","Colors and space work but the top scribbled killed it.,11,320,20","The color palette of this painting is for me displeasing and immature.,-30,300,20","Not a fan of this style,-30,200,20","Muted green is overpowering,-10,100,20","Doesn't look like anything. Just a blob of colors.,1,20,20","Random colors and shapes mashed together. Nothing artistic, but better than some of the other ones.,-37,140,20","Daniel","Colors and space work but the top scribbled killed it.,11,320,20","Nathan","Not a fan of this style,-30,200,20","Michael","Random colors and shapes mashed together. Nothing artistic, but better than some of the other ones.,-37,140,20","2"
"21222","","survey-text","73","571077","0.0-72.0-0.0","A1UDOSYE75OYYI","","","","{""Q0"":""This looks like a gold metal or a pyramid with beams coming out.""}","","","","","","","","","","","","","","","","","","","","","","",""
"2731.899999976158","","image-slider-response","74","573811","0.0-73.0","A1UDOSYE75OYYI","","","","","38","","","","","","","","","","","","","","","","","","","","","",""
"null","","image-button-response","75","578816","0.0-74.0","A1UDOSYE75OYYI","img_art/5.jpg","null","","","","","","","","","","","","","","","","","","","","","","","","",""
"2383","","image-button-response","76","581203","0.0-75.0","A1UDOSYE75OYYI","img_art/5.jpg","3","","","","","","","","","","","","","","","","","","","","","","","","",""
"5754","","image-button-response","77","586959","0.0-76.0-0.0","A1UDOSYE75OYYI","img_art/5.jpg","4","","","","","","","","","","","","","","","","","","","","","","","","",""
"16181","","image-button-response","78","603143","0.0-77.0-0.0","A1UDOSYE75OYYI","img_art/5.jpg","0","","","","","","","","","","","","","","","","","","","","","","","","",""
"null","","html-keyboard-response","79","604148","0.0-78.0","A1UDOSYE75OYYI","<p style=""font-size: 48px;"">+</p>","","","","","null","allTrialResponses","1000","1","5","img_art/5.jpg","38","This looks like a gold metal or a pyramid with beams coming out.","Daniel,Seth,Nathan,Brett,Scott,Michael","Cop out, easy money for artist for a 4 min piece,-29,320,20","I didn't care for this art piece. I wasn't sure about the color choice.,-15,60,20","Not a fan of the themes,-30,200,20","It reminds me of a piece of lemon candy, which is one of my favorite flavors,20,360,20","I like it but I don't know why,15,20,20","Complete garbage. Looks like a kid drew it.,-50,140,20","Brett","It reminds me of a piece of lemon candy, which is one of my favorite flavors,20,360,20","Scott","I like it but I don't know why,15,20,20","Daniel","Cop out, easy money for artist for a 4 min piece,-29,320,20","2"
"4313","","survey-text","80","608490","0.0-79.0-0.0","A1UDOSYE75OYYI","","","","{""Q0"":""sky""}","","","","","","","","","","","","","","","","","","","","","","",""
"16809","","survey-text","81","625301","0.0-80.0-0.0","A1UDOSYE75OYYI","","","","{""Q0"":""This looks like a picture taken of the surface of Mars.""}","","","","","","","","","","","","","","","","","","","","","","",""
"7807.799999952316","","image-slider-response","82","633111","0.0-81.0","A1UDOSYE75OYYI","","","","","-11","","","","","","","","","","","","","","","","","","","","","",""
"null","","image-button-response","83","638128","0.0-82.0","A1UDOSYE75OYYI","img_art/7.jpg","null","","","","","","","","","","","","","","","","","","","","","","","","",""
"6305","","image-button-response","84","644439","0.0-83.0","A1UDOSYE75OYYI","img_art/7.jpg","4","","","","","","","","","","","","","","","","","","","","","","","","",""
"3602","","image-button-response","85","648044","0.0-84.0-0.0","A1UDOSYE75OYYI","img_art/7.jpg","2","","","","","","","","","","","","","","","","","","","","","","","","",""
"700","","image-button-response","86","648747","0.0-85.0-0.0","A1UDOSYE75OYYI","img_art/7.jpg","1","","","","","","","","","","","","","","","","","","","","","","","","",""
"null","","html-keyboard-response","87","650249","0.0-86.0","A1UDOSYE75OYYI","<p style=""font-size: 48px;"">+</p>","","","","","null","allTrialResponses","1500","1","6","img_art/7.jpg","-11","This looks like a picture taken of the surface of Mars.","Daniel,Connor,Benjamin,Brett,Scott,Jesse","Great portrayal of solid surface,19,320,20","Color is bland and looks damaged,-37,240,20","Dull and confusing,-24,260,20","No particular reaction to this,10,360,20","I don't like the texture,-49,20,20","Makes me think of the beach which makes me happy,14,80,20","Scott","I don't like the texture,-49,20,20","Benjamin","Dull and confusing,-24,260,20","Connor","Color is bland and looks damaged,-37,240,20","2"
"17498","","survey-text","88","667761","0.0-87.0-0.0","A1UDOSYE75OYYI","","","","{""Q0"":""Very elegant and I would like to own this piece of artwork.""}","","","","","","","","","","","","","","","","","","","","","","",""
"8243.600000023842","","image-slider-response","89","676006","0.0-88.0","A1UDOSYE75OYYI","","","","","44","","","","","","","","","","","","","","","","","","","","","",""
"null","","image-button-response","90","681010","0.0-89.0","A1UDOSYE75OYYI","img_art/20.jpg","null","","","","","","","","","","","","","","","","","","","","","","","","",""
"4216","","image-button-response","91","685229","0.0-90.0","A1UDOSYE75OYYI","img_art/20.jpg","2","","","","","","","","","","","","","","","","","","","","","","","","",""
"1216","","image-button-response","92","686446","0.0-91.0-0.0","A1UDOSYE75OYYI","img_art/20.jpg","0","","","","","","","","","","","","","","","","","","","","","","","","",""
"848","","image-button-response","93","687297","0.0-92.0-0.0","A1UDOSYE75OYYI","img_art/20.jpg","5","","","","","","","","","","","","","","","","","","","","","","","","",""
"null","","html-keyboard-response","94","687799","0.0-93.0","A1UDOSYE75OYYI","<p style=""font-size: 48px;"">+</p>","","","","","null","allTrialResponses","500","1","7","img_art/20.jpg","44","Very elegant and I would like to own this piece of artwork.","Brandon,Connor,Benjamin,Ryan,Scott,Tyler","I like the proportion of the car to the desert city, but too abstract for me,15,320,20","Dark frame overpowers the image,-6,240,20","Bold strokes and colors.,6,260,20","Too negative looks like a car and plane crash,-50,380,20","feels distorted and uncomfortable,-41,20,20","This is not abstract art, it is representative.,0,320,20","Benjamin","Bold strokes and colors.,6,260,20","Brandon","I like the proportion of the car to the desert city, but too abstract for me,15,320,20","Tyler","This is not abstract art, it is representative.,0,320,20","2"
"10022","","survey-text","95","697839","0.0-94.0-0.0","A1UDOSYE75OYYI","","","","{""Q0"":""Looks like an abstract city landscape""}","","","","","","","","","","","","","","","","","","","","","","",""
"15209.399999976158","","image-slider-response","96","713050","0.0-95.0","A1UDOSYE75OYYI","","","","","48","","","","","","","","","","","","","","","","","","","","","",""
"null","","image-button-response","97","718056","0.0-96.0","A1UDOSYE75OYYI","img_art/11.jpg","null","","","","","","","","","","","","","","","","","","","","","","","","",""
"1016","","image-button-response","98","719075","0.0-97.0","A1UDOSYE75OYYI","img_art/11.jpg","2","","","","","","","","","","","","","","","","","","","","","","","","",""
"790","","image-button-response","99","719867","0.0-98.0-0.0","A1UDOSYE75OYYI","img_art/11.jpg","1","","","","","","","","","","","","","","","","","","","","","","","","",""
"11615","","image-button-response","100","731485","0.0-99.0-0.0","A1UDOSYE75OYYI","img_art/11.jpg","3","","","","","","","","","","","","","","","","","","","","","","","","",""
"null","","html-keyboard-response","101","732487","0.0-100.0","A1UDOSYE75OYYI","<p style=""font-size: 48px;"">+</p>","","","","","null","allTrialResponses","1000","1","8","img_art/11.jpg","48","Looks like an abstract city landscape","Brandon,Isaac,Benjamin,Malik,Samuel,Tyler","Don't like cityscapes, which this picture reminds me of,-29,320,20","I like the harsh black lines against a soft background.,27,280,20","Look like it's in constant movement.,10,260,20","I want to know which skyline the artist is depicting,26,40,20","business of traffic,10,400,20","Rainy day at an urban sea port. Portugal?,30,320,20","Benjamin","Look like it's in constant movement.,10,260,20","Isaac","I like the harsh black lines against a soft background.,27,280,20","Malik","I want to know which skyline the artist is depicting,26,40,20","2"
"10650","","survey-text","102","743149","0.0-101.0-0.0","A1UDOSYE75OYYI","","","","{""Q0"":""I like the use of color and vertical lines.""}","","","","","","","","","","","","","","","","","","","","","","",""
"2584","","image-slider-response","103","745735","0.0-102.0","A1UDOSYE75OYYI","","","","","34","","","","","","","","","","","","","","","","","","","","","",""
"null","","image-button-response","104","750744","0.0-103.0","A1UDOSYE75OYYI","img_art/13.jpg","null","","","","","","","","","","","","","","","","","","","","","","","","",""
"1112","","image-button-response","105","751859","0.0-104.0","A1UDOSYE75OYYI","img_art/13.jpg","3","","","","","","","","","","","","","","","","","","","","","","","","",""
"4162","","image-button-response","106","756023","0.0-105.0-0.0","A1UDOSYE75OYYI","img_art/13.jpg","2","","","","","","","","","","","","","","","","","","","","","","","","",""
"1380","","image-button-response","107","757405","0.0-106.0-0.0","A1UDOSYE75OYYI","img_art/13.jpg","5","","","","","","","","","","","","","","","","","","","","","","","","",""
"null","","html-keyboard-response","108","757907","0.0-107.0","A1UDOSYE75OYYI","<p style=""font-size: 48px;"">+</p>","","","","","null","allTrialResponses","500","1","9","img_art/13.jpg","34","I like the use of color and vertical lines.","Mason,Isaac,Benjamin,Malik,Marcus,Devin","meh, 80's. retro,-9,100,20","The colors are okay but I don't like the shapes here.,-18,280,20","Reminds me of rain running down a window.,35,260,20","Gorgeous contrast and color choice, very pleasing,50,40,20","It's okay. Feels like a blander take on a Jackson Pollack,11,60,20","Really love the colors,11,380,20","Malik","Gorgeous contrast and color choice, very pleasing,50,40,20","Benjamin","Reminds me of rain running down a window.,35,260,20","Devin","Really love the colors,11,380,20","2"
"19880","","survey-text","109","777803","0.0-108.0-0.0","A1UDOSYE75OYYI","","","","{""Q0"":""Looks like a painting of outside during fall time with kids playing.""}","","","","","","","","","","","","","","","","","","","","","","",""
"6562.300000071526","","image-slider-response","110","784367","0.0-109.0","A1UDOSYE75OYYI","","","","","25","","","","","","","","","","","","","","","","","","","","","",""
"null","","image-button-response","111","789385","0.0-110.0","A1UDOSYE75OYYI","img_art/27.jpg","null","","","","","","","","","","","","","","","","","","","","","","","","",""
"8295","","image-button-response","112","797683","0.0-111.0","A1UDOSYE75OYYI","img_art/27.jpg","2","","","","","","","","","","","","","","","","","","","","","","","","",""
"1789","","image-button-response","113","799474","0.0-112.0-0.0","A1UDOSYE75OYYI","img_art/27.jpg","1","","","","","","","","","","","","","","","","","","","","","","","","",""
"3078","","image-button-response","114","802555","0.0-113.0-0.0","A1UDOSYE75OYYI","img_art/27.jpg","3","","","","","","","","","","","","","","","","","","","","","","","","",""
"null","","html-keyboard-response","115","803058","0.0-114.0","A1UDOSYE75OYYI","<p style=""font-size: 48px;"">+</p>","","","","","null","allTrialResponses","500","1","10","img_art/27.jpg","25","Looks like a painting of outside during fall time with kids playing.","Gregory,Jeffrey,Benjamin,Malik,Jack,Devin","Don't like the mix of green with the warmer colors,-15,220,20","I like the pictures but it is a lot of going on,10,40,20","I like the colors.,6,260,20","Nice color, but too vague,-12,40,20","the green & white scribbles feel childlike. perhaps the quality of the photo, but the colors are gloomy.,-13,320,20","Looks like the green bits were added on later,-1,380,20","Benjamin","I like the colors.,6,260,20","Jeffrey","I like the pictures but it is a lot of going on,10,40,20","Malik","Nice color, but too vague,-12,40,20","2"
"3525","","survey-text","116","806615","0.0-115.0-0.0","A1UDOSYE75OYYI","","","","{""Q0"":""our""}","","","","","","","","","","","","","","","","","","","","","","",""
"12423","","survey-text","117","819039","0.0-116.0-0.0","A1UDOSYE75OYYI","","","","{""Q0"":""I don't get this.""}","","","","","","","","","","","","","","","","","","","","","","",""
"2383.7999999523163","","image-slider-response","118","821425","0.0-117.0","A1UDOSYE75OYYI","","","","","-38","","","","","","","","","","","","","","","","","","","","","",""
"null","","image-button-response","119","826430","0.0-118.0","A1UDOSYE75OYYI","img_art/16.jpg","null","","","","","","","","","","","","","","","","","","","","","","","","",""
"1463","","image-button-response","120","827898","0.0-119.0","A1UDOSYE75OYYI","img_art/16.jpg","5","","","","","","","","","","","","","","","","","","","","","","","","",""
"2191","","image-button-response","121","830097","0.0-120.0-0.0","A1UDOSYE75OYYI","img_art/16.jpg","4","","","","","","","","","","","","","","","","","","","","","","","","",""
"3825","","image-button-response","122","833925","0.0-121.0-0.0","A1UDOSYE75OYYI","img_art/16.jpg","2","","","","","","","","","","","","","","","","","","","","","","","","",""
"null","","html-keyboard-response","123","834430","0.0-122.0","A1UDOSYE75OYYI","<p style=""font-size: 48px;"">+</p>","","","","","null","allTrialResponses","500","1","11","img_art/16.jpg","-38","I don't get this.","Spencer,Jeffrey,Benjamin,Malik,Victor,Nathaniel","Know it is a piece relating to children and gun violence. Sad,-30,120,20","Teddy bear calls positive emotional response but then I get worried about what is about to happen,18,40,20","Don't like the teddy bear. It takes away from the painting.,-39,260,20","Very emotional,23,40,20","I don't know why, I just don't like it,-28,340,20","Creeps me out. Like..really creeps me out.,-48,220,20","Nathaniel","Creeps me out. Like..really creeps me out.,-48,220,20","Victor","I don't know why, I just don't like it,-28,340,20","Benjamin","Don't like the teddy bear. It takes away from the painting.,-39,260,20","2"
"27905","","survey-text","124","862348","0.0-123.0-0.0","A1UDOSYE75OYYI","","","","{""Q0"":""I like the use of color and scenery ""}","","","","","","","","","","","","","","","","","","","","","","",""
"1896.2000000476837","","image-slider-response","125","864246","0.0-124.0","A1UDOSYE75OYYI","","","","","11","","","","","","","","","","","","","","","","","","","","","",""
"null","","image-button-response","126","869261","0.0-125.0","A1UDOSYE75OYYI","img_art/21.jpg","null","","","","","","","","","","","","","","","","","","","","","","","","",""
"1166","","image-button-response","127","870430","0.0-126.0","A1UDOSYE75OYYI","img_art/21.jpg","0","","","","","","","","","","","","","","","","","","","","","","","","",""
"645","","image-button-response","128","871077","0.0-127.0-0.0","A1UDOSYE75OYYI","img_art/21.jpg","1","","","","","","","","","","","","","","","","","","","","","","","","",""
"18395","","image-button-response","129","889474","0.0-128.0-0.0","A1UDOSYE75OYYI","img_art/21.jpg","4","","","","","","","","","","","","","","","","","","","","","","","","",""
"null","","html-keyboard-response","130","890476","0.0-129.0","A1UDOSYE75OYYI","<p style=""font-size: 48px;"">+</p>","","","","","null","allTrialResponses","1000","1","12","img_art/21.jpg","11","I like the use of color and scenery ","Joseph,Justin,Benjamin,Jacob,Victor,Nathaniel","I like that it reminds me of an abstract version of a Bob Ross painting.,36,220,20","Alright. I like the colors.,5,280,20","sunset after the rain,49,260,20","I like how the colors blend together like a beautiful sunset.,25,340,20","I really like these colors together and their placement. The dabs of white are a nice contrast to the soft blending,10,340,20","Looks like two ships on fire. Cool image.,12,220,20","Joseph","I like that it reminds me of an abstract version of a Bob Ross painting.,36,220,20","Justin","Alright. I like the colors.,5,280,20","Victor","I really like these colors together and their placement. The dabs of white are a nice contrast to the soft blending,10,340,20","2"
"16600","","survey-text","131","907086","0.0-130.0-0.0","A1UDOSYE75OYYI","","","","{""Q0"":""This piece has a lot going on, too confusing.""}","","","","","","","","","","","","","","","","","","","","","","",""
"1443.7000000476837","","image-slider-response","132","908532","0.0-131.0","A1UDOSYE75OYYI","","","","","-29","","","","","","","","","","","","","","","","","","","","","",""
"null","","image-button-response","133","913545","0.0-132.0","A1UDOSYE75OYYI","img_art/9.jpg","null","","","","","","","","","","","","","","","","","","","","","","","","",""
"2831","","image-button-response","134","916381","0.0-133.0","A1UDOSYE75OYYI","img_art/9.jpg","4","","","","","","","","","","","","","","","","","","","","","","","","",""
"2100","","image-button-response","135","918485","0.0-134.0-0.0","A1UDOSYE75OYYI","img_art/9.jpg","3","","","","","","","","","","","","","","","","","","","","","","","","",""
"1691","","image-button-response","136","920179","0.0-135.0-0.0","A1UDOSYE75OYYI","img_art/9.jpg","5","","","","","","","","","","","","","","","","","","","","","","","","",""
"null","","html-keyboard-response","137","921183","0.0-136.0","A1UDOSYE75OYYI","<p style=""font-size: 48px;"">+</p>","","","","","null","allTrialResponses","1000","1","13","img_art/9.jpg","-29","This piece has a lot going on, too confusing.","Joseph,Justin,Carlos,Devon,Victor,Travis","It's nice. Peaceful. Calming.,11,220,20","It reminds me of an illustration for a fairy tale.,19,280,20","Pleasant in all ways.,27,80,20","this looks to be a child nightmare,-10,400,20","The colors are okay, but this looks like someone scribbled with a crayon,1,340,20","Stuipid looking...dumb,-48,260,20","Victor","The colors are okay, but this looks like someone scribbled with a crayon,1,340,20","Devon","this looks to be a child nightmare,-10,400,20","Travis","Stuipid looking...dumb,-48,260,20","2"
"14994","","survey-text","138","936190","0.0-137.0-0.0","A1UDOSYE75OYYI","","","","{""Q0"":""This looks like a painting of autumn ""}","","","","","","","","","","","","","","","","","","","","","","",""
"2176.2999999523163","","image-slider-response","139","938368","0.0-138.0","A1UDOSYE75OYYI","","","","","12","","","","","","","","","","","","","","","","","","","","","",""
"null","","image-button-response","140","943371","0.0-139.0","A1UDOSYE75OYYI","img_art/1.jpg","null","","","","","","","","","","","","","","","","","","","","","","","","",""
"3518","","image-button-response","141","946892","0.0-140.0","A1UDOSYE75OYYI","img_art/1.jpg","4","","","","","","","","","","","","","","","","","","","","","","","","",""
"2848","","image-button-response","142","949751","0.0-141.0-0.0","A1UDOSYE75OYYI","img_art/1.jpg","2","","","","","","","","","","","","","","","","","","","","","","","","",""
"4288","","image-button-response","143","954043","0.0-142.0-0.0","A1UDOSYE75OYYI","img_art/1.jpg","3","","","","","","","","","","","","","","","","","","","","","","","","",""
"null","","html-keyboard-response","144","955046","0.0-143.0","A1UDOSYE75OYYI","<p style=""font-size: 48px;"">+</p>","","","","","null","allTrialResponses","1000","1","14","img_art/1.jpg","12","This looks like a painting of autumn ","Ethan,David,Isaiah,Devon,Victor,Travis","This piece feels soft and romantic to me. I do not care for so much orange though.,3,120,20","This image doesn't invoke much in me.,0,340,20","I feel relaxed, like I'm watching the leaves change color.,17,300,20","I see happiness from different aspects of life,31,400,20","I like the colors and layers,25,340,20","I didn't like this too much...I didn't like the red and the jaggedness to it.,-29,260,20","Victor","I like the colors and layers,25,340,20","Isaiah","I feel relaxed, like I'm watching the leaves change color.,17,300,20","Devon","I see happiness from different aspects of life,31,400,20","2"
"19541","","survey-text","145","974604","0.0-144.0-0.0","A1UDOSYE75OYYI","","","","{""Q0"":""This gives me a feeling of a tree in a desert""}","","","","","","","","","","","","","","","","","","","","","","",""
"8202.100000023842","","image-slider-response","146","982808","0.0-145.0","A1UDOSYE75OYYI","","","","","26","","","","","","","","","","","","","","","","","","","","","",""
"null","","image-button-response","147","987811","0.0-146.0","A1UDOSYE75OYYI","img_art/14.jpg","null","","","","","","","","","","","","","","","","","","","","","","","","",""
"5732","","image-button-response","148","993545","0.0-147.0","A1UDOSYE75OYYI","img_art/14.jpg","0","","","","","","","","","","","","","","","","","","","","","","","","",""
"5142","","image-button-response","149","998689","0.0-148.0-0.0","A1UDOSYE75OYYI","img_art/14.jpg","4","","","","","","","","","","","","","","","","","","","","","","","","",""
"1729","","image-button-response","150","1000421","0.0-149.0-0.0","A1UDOSYE75OYYI","img_art/14.jpg","5","","","","","","","","","","","","","","","","","","","","","","","","",""
"null","","html-keyboard-response","151","1001923","0.0-150.0","A1UDOSYE75OYYI","<p style=""font-size: 48px;"">+</p>","","","","","null","allTrialResponses","1500","1","15","img_art/14.jpg","26","This gives me a feeling of a tree in a desert","Robert,Patrick,Isaiah,Devon,Victor,Peter","Late Winter when things are just starting to bloom.,21,360,20","It uplifts my mood due to the color scheme,32,280,20","I feel uncomfortable looking at this painting, it is a mess that needs to be cleaned up.,-16,300,20","this would make a very beautiful art project,22,400,20","Meh. Pleasant to look at. Colors are nice,6,340,20","I like that it's like a snippet of a field in the desert,21,320,20","Robert","Late Winter when things are just starting to bloom.,21,360,20","Victor","Meh. Pleasant to look at. Colors are nice,6,340,20","Peter","I like that it's like a snippet of a field in the desert,21,320,20","2"
"5997","","survey-text","152","1007950","0.0-151.0-0.0","A1UDOSYE75OYYI","","","","{""Q0"":""course""}","","","","","","","","","","","","","","","","","","","","","","",""
"29039","","survey-text","153","1036991","0.0-152.0-0.0","A1UDOSYE75OYYI","","","","{""Q0"":""Looks like a nice city landscape""}","","","","","","","","","","","","","","","","","","","","","","",""
"2907.7000000476837","","image-slider-response","154","1039903","0.0-153.0","A1UDOSYE75OYYI","","","","","46","","","","","","","","","","","","","","","","","","","","","",""
"null","","image-button-response","155","1044907","0.0-154.0","A1UDOSYE75OYYI","img_art/26.jpg","null","","","","","","","","","","","","","","","","","","","","","","","","",""
"603","","image-button-response","156","1045513","0.0-155.0","A1UDOSYE75OYYI","img_art/26.jpg","0","","","","","","","","","","","","","","","","","","","","","","","","",""
"5946","","image-button-response","157","1051461","0.0-156.0-0.0","A1UDOSYE75OYYI","img_art/26.jpg","2","","","","","","","","","","","","","","","","","","","","","","","","",""
"3464","","image-button-response","158","1054929","0.0-157.0-0.0","A1UDOSYE75OYYI","img_art/26.jpg","5","","","","","","","","","","","","","","","","","","","","","","","","",""
"null","","html-keyboard-response","159","1055443","0.0-158.0","A1UDOSYE75OYYI","<p style=""font-size: 48px;"">+</p>","","","","","null","allTrialResponses","500","1","16","img_art/26.jpg","46","Looks like a nice city landscape","Robert,Mitchell,Jose,Alexander,Victor,Peter","Day just begun in the city and the stores are opening their doors.,41,360,20","Incomplete, The artist painted his impression of somthing he was thinking of,0,180,20","This style of objects that are supposed to be something but then are blurry is interesting.,38,200,20","Confusing park picture.,8,120,20","the trees are cool,1,340,20","Reminds me of a European street, I desire to walk in this picture,28,320,20","Robert","Day just begun in the city and the stores are opening their doors.,41,360,20","Jose","This style of objects that are supposed to be something but then are blurry is interesting.,38,200,20","Peter","Reminds me of a European street, I desire to walk in this picture,28,320,20","2"
"19181","","survey-text","160","1074640","0.0-159.0-0.0","A1UDOSYE75OYYI","","","","{""Q0"":""This reminds me of a bird like a crow or raven""}","","","","","","","","","","","","","","","","","","","","","","",""
"3653","","image-slider-response","161","1078295","0.0-160.0","A1UDOSYE75OYYI","","","","","23","","","","","","","","","","","","","","","","","","","","","",""
"null","","image-button-response","162","1083299","0.0-161.0","A1UDOSYE75OYYI","img_art/6.jpg","null","","","","","","","","","","","","","","","","","","","","","","","","",""
"1102","","image-button-response","163","1084405","0.0-162.0","A1UDOSYE75OYYI","img_art/6.jpg","0","","","","","","","","","","","","","","","","","","","","","","","","",""
"3410","","image-button-response","164","1087817","0.0-163.0-0.0","A1UDOSYE75OYYI","img_art/6.jpg","1","","","","","","","","","","","","","","","","","","","","","","","","",""
"5263","","image-button-response","165","1093083","0.0-164.0-0.0","A1UDOSYE75OYYI","img_art/6.jpg","2","","","","","","","","","","","","","","","","","","","","","","","","",""
"null","","html-keyboard-response","166","1094085","0.0-165.0","A1UDOSYE75OYYI","<p style=""font-size: 48px;"">+</p>","","","","","null","allTrialResponses","1000","1","17","img_art/6.jpg","23","This reminds me of a bird like a crow or raven","Robert,Noah,Jose,Jonathan,Timothy,Peter","Nevermore!  A black raven sitting on a pumpkin. Halloween,-35,360,20","intrigues me - not sure what I'm seeing, but I like combination of colour and texture,21,260,20","This could be so many different things. I saw a bird first but then it looks like a needle going into skin,34,200,20","The colors and rough brush strokes make me nervous,-10,140,20","I dont feel much of a responce or connection to this one,0,240,20","Don't like the black space,2,320,20","Robert","Nevermore!  A black raven sitting on a pumpkin. Halloween,-35,360,20","Noah","intrigues me - not sure what I'm seeing, but I like combination of colour and texture,21,260,20","Jose","This could be so many different things. I saw a bird first but then it looks like a needle going into skin,34,200,20","2"
"18523","","survey-text","167","1112626","0.0-166.0-0.0","A1UDOSYE75OYYI","","","","{""Q0"":""A whole lot of random dots with a big blank space on the bottom""}","","","","","","","","","","","","","","","","","","","","","","",""
"2579.6999999284744","","image-slider-response","168","1115208","0.0-167.0","A1UDOSYE75OYYI","","","","","-34","","","","","","","","","","","","","","","","","","","","","",""
"null","","image-button-response","169","1120212","0.0-168.0","A1UDOSYE75OYYI","img_art/15.jpg","null","","","","","","","","","","","","","","","","","","","","","","","","",""
"1107","","image-button-response","170","1121322","0.0-169.0","A1UDOSYE75OYYI","img_art/15.jpg","0","","","","","","","","","","","","","","","","","","","","","","","","",""
"1739","","image-button-response","171","1123063","0.0-170.0-0.0","A1UDOSYE75OYYI","img_art/15.jpg","2","","","","","","","","","","","","","","","","","","","","","","","","",""
"4732","","image-button-response","172","1127797","0.0-171.0-0.0","A1UDOSYE75OYYI","img_art/15.jpg","3","","","","","","","","","","","","","","","","","","","","","","","","",""
"null","","html-keyboard-response","173","1128300","0.0-172.0","A1UDOSYE75OYYI","<p style=""font-size: 48px;"">+</p>","","","","","null","allTrialResponses","500","1","18","img_art/15.jpg","-34","A whole lot of random dots with a big blank space on the bottom","Robert,Noah,Jose,Tanner,Angel,Alex","This piece is too dark,-42,360,20","i enjoy its apaprent simplicity (of colour and shape),32,260,20","black dots too ant-like,-25,200,20","darkness, hatred, fear,-29,180,20","This is looking at a forest from above. I can see water and some pathways throughout. Nature.,20,180,20","Interesting to look at but I don't appreciate the abstraction,2,100,20","Robert","This piece is too dark,-42,360,20","Jose","black dots too ant-like,-25,200,20","Tanner","darkness, hatred, fear,-29,180,20","2"
"19644","","survey-text","174","1147966","0.0-173.0-0.0","A1UDOSYE75OYYI","","","","{""Q0"":""I like the brush strokes and how the red contrasts the yellow""}","","","","","","","","","","","","","","","","","","","","","","",""
"4211.899999976158","","image-slider-response","175","1152180","0.0-174.0","A1UDOSYE75OYYI","","","","","22","","","","","","","","","","","","","","","","","","","","","",""
"null","","image-button-response","176","1157183","0.0-175.0","A1UDOSYE75OYYI","img_art/4.jpg","null","","","","","","","","","","","","","","","","","","","","","","","","",""
"8594","","image-button-response","177","1165780","0.0-176.0","A1UDOSYE75OYYI","img_art/4.jpg","2","","","","","","","","","","","","","","","","","","","","","","","","",""
"2132","","image-button-response","178","1167914","0.0-177.0-0.0","A1UDOSYE75OYYI","img_art/4.jpg","1","","","","","","","","","","","","","","","","","","","","","","","","",""
"349","","image-button-response","179","1168266","0.0-178.0-0.0","A1UDOSYE75OYYI","img_art/4.jpg","0","","","","","","","","","","","","","","","","","","","","","","","","",""
"null","","html-keyboard-response","180","1169268","0.0-179.0","A1UDOSYE75OYYI","<p style=""font-size: 48px;"">+</p>","","","","","null","allTrialResponses","1000","1","19","img_art/4.jpg","22","I like the brush strokes and how the red contrasts the yellow","Robert,Elijah,Jose,Tanner,Kyle,Sean","It looks like a hand someone scribbled over,-30,360,20","Looks like a hand, not very impressed,-22,80,20","I like how many different ways there are to interpret this.,27,200,20","stresses me out, uncomfortable,-18,180,20","It's quite meh to me,0,340,20","dont know what im looking at,1,40,20","Jose","I like how many different ways there are to interpret this.,27,200,20","Elijah","Looks like a hand, not very impressed,-22,80,20","Robert","It looks like a hand someone scribbled over,-30,360,20","2"
"18864","","survey-text","181","1188142","0.0-180.0-0.0","A1UDOSYE75OYYI","","","","{""Q0"":""Beautiful artwork, something like a city overlooking a beach""}","","","","","","","","","","","","","","","","","","","","","","",""
"2638.2000000476837","","image-slider-response","182","1190782","0.0-181.0","A1UDOSYE75OYYI","","","","","32","","","","","","","","","","","","","","","","","","","","","",""
"null","","image-button-response","183","1195785","0.0-182.0","A1UDOSYE75OYYI","img_art/19.jpg","null","","","","","","","","","","","","","","","","","","","","","","","","",""
"4075","","image-button-response","184","1199865","0.0-183.0","A1UDOSYE75OYYI","img_art/19.jpg","1","","","","","","","","","","","","","","","","","","","","","","","","",""
"4848","","image-button-response","185","1204715","0.0-184.0-0.0","A1UDOSYE75OYYI","img_art/19.jpg","2","","","","","","","","","","","","","","","","","","","","","","","","",""
"6421","","image-button-response","186","1211138","0.0-185.0-0.0","A1UDOSYE75OYYI","img_art/19.jpg","1","","","","","","","","","","","","","","","","","","","","","","","","",""
"4910","","image-button-response","187","1218456","0.0-185.1-0.1","A1UDOSYE75OYYI","img_art/19.jpg","3","","","","","","","","","","","","","","","","","","","","","","","","",""
"null","","html-keyboard-response","188","1219960","0.0-186.0","A1UDOSYE75OYYI","<p style=""font-size: 48px;"">+</p>","","","","","null","allTrialResponses","1500","1","20","img_art/19.jpg","32","Beautiful artwork, something like a city overlooking a beach","Robert,Elijah,Jose,Jared,Kevin,Luis","A dreary town in the fall.,-4,360,20","The details are amazing,36,80,20","I dig the not being able to tell what anything is but knowing everything is supposed to be something,46,200,20","green and orange are my favorite colors.  this cityscape feels warm,34,400,20","Thats a lazy town,-8,320,20","Gives a very open and freeing vibe,42,400,20","Elijah","The details are amazing,36,80,20","Jose","I dig the not being able to tell what anything is but knowing everything is supposed to be something,46,200,20","Jared","green and orange are my favorite colors.  this cityscape feels warm,34,400,20","4"
"3192","","survey-text","189","1223185","0.0-187.0-0.0","A1UDOSYE75OYYI","","","","{""Q0"":""we""}","","","","","","","","","","","","","","","","","","","","","","",""
"24774","","survey-text","190","1247961","0.0-188.0-0.0","A1UDOSYE75OYYI","","","","{""Q0"":""Very abstract piece that looks like a person or god overlooking a city""}","","","","","","","","","","","","","","","","","","","","","","",""
"4301.699999928474","","image-slider-response","191","1252265","0.0-189.0","A1UDOSYE75OYYI","","","","","18","","","","","","","","","","","","","","","","","","","","","",""
"null","","image-button-response","192","1257270","0.0-190.0","A1UDOSYE75OYYI","img_art/8.jpg","null","","","","","","","","","","","","","","","","","","","","","","","","",""
"1756","","image-button-response","193","1259030","0.0-191.0","A1UDOSYE75OYYI","img_art/8.jpg","2","","","","","","","","","","","","","","","","","","","","","","","","",""
"8444","","image-button-response","194","1267476","0.0-192.0-0.0","A1UDOSYE75OYYI","img_art/8.jpg","5","","","","","","","","","","","","","","","","","","","","","","","","",""
"1021","","image-button-response","195","1268500","0.0-193.0-0.0","A1UDOSYE75OYYI","img_art/8.jpg","0","","","","","","","","","","","","","","","","","","","","","","","","",""
"null","","html-keyboard-response","196","1270015","0.0-194.0","A1UDOSYE75OYYI","<p style=""font-size: 48px;"">+</p>","","","","","null","allTrialResponses","1500","1","21","img_art/8.jpg","18","Very abstract piece that looks like a person or god overlooking a city","Alejandro,Elijah,Jose,Jared,Thomas,Antonio","i like the abstract nature of a birds eye view of the city. The hard shapes and squares present with a softness rather than rigidity.,26,80,20","Makes me feel nice,23,80,20","This is really cool, I love the fragments of faces,38,200,20","i love the colors, the church and the face,42,400,20","Gorgeous! I love the colors and the details.,50,220,20","I love the colors in it and also the faces and door ways. Made me feel hopeful,35,220,20","Jose","This is really cool, I love the fragments of faces,38,200,20","Antonio","I love the colors in it and also the faces and door ways. Made me feel hopeful,35,220,20","Alejandro","i like the abstract nature of a birds eye view of the city. The hard shapes and squares present with a softness rather than rigidity.,26,80,20","4"
"18540","","survey-text","197","1288570","0.0-195.0-0.0","A1UDOSYE75OYYI","","","","{""Q0"":""This looks like someone dancing along the screen in still frames""}","","","","","","","","","","","","","","","","","","","","","","",""
"12413.300000071526","","image-slider-response","198","1300985","0.0-196.0","A1UDOSYE75OYYI","","","","","43","","","","","","","","","","","","","","","","","","","","","",""
"null","","image-button-response","199","1305997","0.0-197.0","A1UDOSYE75OYYI","img_art/23.jpg","null","","","","","","","","","","","","","","","","","","","","","","","","",""
"682","","image-button-response","200","1306682","0.0-198.0","A1UDOSYE75OYYI","img_art/23.jpg","4","","","","","","","","","","","","","","","","","","","","","","","","",""
"7406","","image-button-response","201","1314090","0.0-199.0-0.0","A1UDOSYE75OYYI","img_art/23.jpg","1","","","","","","","","","","","","","","","","","","","","","","","","",""
"2151","","image-button-response","202","1316246","0.0-200.0-0.0","A1UDOSYE75OYYI","img_art/23.jpg","0","","","","","","","","","","","","","","","","","","","","","","","","",""
"null","","html-keyboard-response","203","1316750","0.0-201.0","A1UDOSYE75OYYI","<p style=""font-size: 48px;"">+</p>","","","","","null","allTrialResponses","500","1","22","img_art/23.jpg","43","This looks like someone dancing along the screen in still frames","Alejandro,Alexis,Jose,Eric,Dakota,Antonio","I love the funky colors accompanied by perhaps dancing silhouettes. I love the white against the chaotic surroundings.,50,80,20","It looks like a parade of musicians full of excitement. Makes me feel upbeat,33,140,20","This one is awesome, kinda looks like a cake with sprinkles but in a different universe,50,200,20","The piece seems chaotic, and I dislike the random pop of white within so many colors.,-10,100,20","teeth! dancing people, celebrations,-39,280,20","Like the colors and made me feel happy,23,220,20","Dakota","teeth! dancing people, celebrations,-39,280,20","Alexis","It looks like a parade of musicians full of excitement. Makes me feel upbeat,33,140,20","Alejandro","I love the funky colors accompanied by perhaps dancing silhouettes. I love the white against the chaotic surroundings.,50,80,20","4"
"14732","","survey-text","204","1331500","0.0-202.0-0.0","A1UDOSYE75OYYI","","","","{""Q0"":""I love this painting of a river going into a waterfall""}","","","","","","","","","","","","","","","","","","","","","","",""
"2469","","image-slider-response","205","1333971","0.0-203.0","A1UDOSYE75OYYI","","","","","37","","","","","","","","","","","","","","","","","","","","","",""
"null","","image-button-response","206","1338990","0.0-204.0","A1UDOSYE75OYYI","img_art/24.jpg","null","","","","","","","","","","","","","","","","","","","","","","","","",""
"18823","","image-button-response","207","1357816","0.0-205.0","A1UDOSYE75OYYI","img_art/24.jpg","1","","","","","","","","","","","","","","","","","","","","","","","","",""
"1269","","image-button-response","208","1359088","0.0-206.0-0.0","A1UDOSYE75OYYI","img_art/24.jpg","2","","","","","","","","","","","","","","","","","","","","","","","","",""
"5124","","image-button-response","209","1364215","0.0-207.0-0.0","A1UDOSYE75OYYI","img_art/24.jpg","3","","","","","","","","","","","","","","","","","","","","","","","","",""
"null","","html-keyboard-response","210","1364718","0.0-208.0","A1UDOSYE75OYYI","<p style=""font-size: 48px;"">+</p>","","","","","null","allTrialResponses","500","1","23","img_art/24.jpg","37","I love this painting of a river going into a waterfall","Alejandro,Alexis,Cameron,Blake,Dakota,Miguel","I don't like this painting because of its blottedness. It lacks conviction, direction and purpose.,-31,80,20","I love how bold and vibrant the colors are,40,140,20","Mountain stream pineapple texture?,30,60,20","warm spring day after a rain. soft,20,280,20","chunky fresh color,27,280,20","Very cute amateur piece.,18,160,20","Alexis","I love how bold and vibrant the colors are,40,140,20","Cameron","Mountain stream pineapple texture?,30,60,20","Blake","warm spring day after a rain. soft,20,280,20","4"
"11052","","survey-text","211","1375790","0.0-209.0-0.0","A1UDOSYE75OYYI","","","","{""Q0"":""This looks like a very angry face""}","","","","","","","","","","","","","","","","","","","","","","",""
"3029.600000023842","","image-slider-response","212","1378821","0.0-210.0","A1UDOSYE75OYYI","","","","","-28","","","","","","","","","","","","","","","","","","","","","",""
"null","","image-button-response","213","1383825","0.0-211.0","A1UDOSYE75OYYI","img_art/3.jpg","null","","","","","","","","","","","","","","","","","","","","","","","","",""
"1583","","image-button-response","214","1385412","0.0-212.0","A1UDOSYE75OYYI","img_art/3.jpg","0","","","","","","","","","","","","","","","","","","","","","","","","",""
"4391","","image-button-response","215","1389805","0.0-213.0-0.0","A1UDOSYE75OYYI","img_art/3.jpg","4","","","","","","","","","","","","","","","","","","","","","","","","",""
"9080","","image-button-response","216","1398887","0.0-214.0-0.0","A1UDOSYE75OYYI","img_art/3.jpg","2","","","","","","","","","","","","","","","","","","","","","","","","",""
"null","","html-keyboard-response","217","1399889","0.0-215.0","A1UDOSYE75OYYI","<p style=""font-size: 48px;"">+</p>","","","","","null","allTrialResponses","1000","1","24","img_art/3.jpg","-28","This looks like a very angry face","Jordan,Alexis,Cameron,Blake,Grant,Trevor","Reminded me of blood or something bad,-21,160,20","It looks like a child drawing,-29,140,20","kid scribbled on the wall again,-35,60,20","painted by a 2 year old. cold and boring,-30,280,20","It looks like the artist was trying too hard to make it chaotic and emotional.,-25,200,20","looks more classic but i'm not a fan of the colors,7,280,20","Jordan","Reminded me of blood or something bad,-21,160,20","Grant","It looks like the artist was trying too hard to make it chaotic and emotional.,-25,200,20","Cameron","kid scribbled on the wall again,-35,60,20","4"
"17975","","survey-text","218","1417882","0.0-216.0-0.0","A1UDOSYE75OYYI","","","","{""Q0"":""this looks very dark like two people standing outside at night""}","","","","","","","","","","","","","","","","","","","","","","",""
"4957.900000095367","","image-slider-response","219","1422842","0.0-217.0","A1UDOSYE75OYYI","","","","","-16","","","","","","","","","","","","","","","","","","","","","",""
"4053","","image-button-response","220","1427848","0.0-218.0","A1UDOSYE75OYYI","img_art/28.jpg","1","","","","","","","","","","","","","","","","","","","","","","","","",""
"1288","","image-button-response","221","1429142","0.0-219.0","A1UDOSYE75OYYI","img_art/28.jpg","1","","","","","","","","","","","","","","","","","","","","","","","","",""
"5854","","image-button-response","222","1434998","0.0-220.0-0.0","A1UDOSYE75OYYI","img_art/28.jpg","2","","","","","","","","","","","","","","","","","","","","","","","","",""
"1907","","image-button-response","223","1436908","0.0-221.0-0.0","A1UDOSYE75OYYI","img_art/28.jpg","4","","","","","","","","","","","","","","","","","","","","","","","","",""
"null","","html-keyboard-response","224","1438422","0.0-222.0","A1UDOSYE75OYYI","<p style=""font-size: 48px;"">+</p>","","","","","null","allTrialResponses","1500","1","25","img_art/28.jpg","-16","this looks very dark like two people standing outside at night","Jordan,William,Cameron,Stephen,Grant,Nicholas","A messy bed room,-7,160,20","drab and dreary,-21,380,20","dislike the colors. it looks like a bike, but misshapen wheels like it was wrecked.,-10,60,20","Good use of shapes.,7,140,20","The darker colors make this unnerving.,40,200,20","Interesting and weird. Perfect conversational piece,33,240,20","William","drab and dreary,-21,380,20","Cameron","dislike the colors. it looks like a bike, but misshapen wheels like it was wrecked.,-10,60,20","Grant","The darker colors make this unnerving.,40,200,20","4"
"3802","","survey-text","225","1442259","0.0-223.0-0.0","A1UDOSYE75OYYI","","","","{""Q0"":""table""}","","","","","","","","","","","","","","","","","","","","","","",""
"25435","","survey-text","226","1467695","0.0-224.0-0.0","A1UDOSYE75OYYI","","","","{""Q0"":""I can see buildings in the background I like the use of colors here""}","","","","","","","","","","","","","","","","","","","","","","",""
"2477.899999976158","","image-slider-response","227","1470175","0.0-225.0","A1UDOSYE75OYYI","","","","","29","","","","","","","","","","","","","","","","","","","","","",""
"null","","image-button-response","228","1475180","0.0-226.0","A1UDOSYE75OYYI","img_art/22.jpg","null","","","","","","","","","","","","","","","","","","","","","","","","",""
"12451","","image-button-response","229","1487634","0.0-227.0","A1UDOSYE75OYYI","img_art/22.jpg","5","","","","","","","","","","","","","","","","","","","","","","","","",""
"922","","image-button-response","230","1488558","0.0-228.0-0.0","A1UDOSYE75OYYI","img_art/22.jpg","1","","","","","","","","","","","","","","","","","","","","","","","","",""
"1753","","image-button-response","231","1490314","0.0-229.0-0.0","A1UDOSYE75OYYI","img_art/22.jpg","2","","","","","","","","","","","","","","","","","","","","","","","","",""
"null","","html-keyboard-response","232","1491317","0.0-230.0","A1UDOSYE75OYYI","<p style=""font-size: 48px;"">+</p>","","","","","null","allTrialResponses","1000","1","26","img_art/22.jpg","29","I can see buildings in the background I like the use of colors here","Christopher,William,Cameron,Ian,Grant,Evan","boring, too many red and yellow tones for my taste,-15,160,20","love how the colors blend,42,380,20","Like this one, like a sunset,30,60,20","Its very warm, it reminds of someone not liking their painting so they destoryed it,26,260,20","The way the colors seem to be reflected is a bit mesmerizing.,10,200,20","I enjoy the vibrant colors,23,140,20","Evan","I enjoy the vibrant colors,23,140,20","William","love how the colors blend,42,380,20","Cameron","Like this one, like a sunset,30,60,20","4"
"27026","","survey-text","233","1518360","0.0-231.0-0.0","A1UDOSYE75OYYI","","","","{""Q0"":""Love the brush strokes, feels like you're on a journey""}","","","","","","","","","","","","","","","","","","","","","","",""
"1732","","image-slider-response","234","1520093","0.0-232.0","A1UDOSYE75OYYI","","","","","41","","","","","","","","","","","","","","","","","","","","","",""
"null","","image-button-response","235","1525096","0.0-233.0","A1UDOSYE75OYYI","img_art/10.jpg","null","","","","","","","","","","","","","","","","","","","","","","","","",""
"4627","","image-button-response","236","1529726","0.0-234.0","A1UDOSYE75OYYI","img_art/10.jpg","1","","","","","","","","","","","","","","","","","","","","","","","","",""
"3932","","image-button-response","237","1533660","0.0-235.0-0.0","A1UDOSYE75OYYI","img_art/10.jpg","0","","","","","","","","","","","","","","","","","","","","","","","","",""
"8256","","image-button-response","238","1541918","0.0-236.0-0.0","A1UDOSYE75OYYI","img_art/10.jpg","2","","","","","","","","","","","","","","","","","","","","","","","","",""
"null","","html-keyboard-response","239","1543421","0.0-237.0","A1UDOSYE75OYYI","<p style=""font-size: 48px;"">+</p>","","","","","null","allTrialResponses","1500","1","27","img_art/10.jpg","41","Love the brush strokes, feels like you're on a journey","Corey,William,Cameron,Caleb,Garrett,Evan","I think this was going to be a guitar but then the artist got mad and gave up,-4,260,20","absolutely beautiful piece of art,49,380,20","artistic cello piece?,30,60,20","This is a scribble of a mad man. Appears low effort.,-33,40,20","I can't tell what this picture is supposed to mean and I think the colors are lacking variety.,-42,180,20","My immediate thought is WTF is this,-20,140,20","William","absolutely beautiful piece of art,49,380,20","Corey","I think this was going to be a guitar but then the artist got mad and gave up,-4,260,20","Cameron","artistic cello piece?,30,60,20","4"
"10876","","survey-text","240","1554319","0.0-238.0-0.0","A1UDOSYE75OYYI","","","","{""Q0"":""The lines are very smooth and bold""}","","","","","","","","","","","","","","","","","","","","","","",""
"3808","","image-slider-response","241","1558129","0.0-239.0","A1UDOSYE75OYYI","","","","","28","","","","","","","","","","","","","","","","","","","","","",""
"null","","image-button-response","242","1563150","0.0-240.0","A1UDOSYE75OYYI","img_art/30.jpg","null","","","","","","","","","","","","","","","","","","","","","","","","",""
"922","","image-button-response","243","1564076","0.0-241.0","A1UDOSYE75OYYI","img_art/30.jpg","3","","","","","","","","","","","","","","","","","","","","","","","","",""
"3722","","image-button-response","244","1567801","0.0-242.0-0.0","A1UDOSYE75OYYI","img_art/30.jpg","2","","","","","","","","","","","","","","","","","","","","","","","","",""
"7434","","image-button-response","245","1575238","0.0-243.0-0.0","A1UDOSYE75OYYI","img_art/30.jpg","4","","","","","","","","","","","","","","","","","","","","","","","","",""
"null","","html-keyboard-response","246","1576744","0.0-244.0","A1UDOSYE75OYYI","<p style=""font-size: 48px;"">+</p>","","","","","null","allTrialResponses","1500","1","28","img_art/30.jpg","28","The lines are very smooth and bold","Corey,William,Cameron,Austin,Taylor,Cole","I dont like the colors whatsoever,-15,260,20","to dark and dreary,-28,380,20","Like the color and style,31,60,20","Love the bold brush strokes and the illusion it creates,50,240,20","My kid drew this same picture at daycare!!!,5,200,20","Its ugly. Too simple,-23,200,20","Austin","Love the bold brush strokes and the illusion it creates,50,240,20","Cameron","Like the color and style,31,60,20","Taylor","My kid drew this same picture at daycare!!!,5,200,20","4"
"8010","","survey-text","247","1584773","0.0-245.0-0.0","A1UDOSYE75OYYI","","","","{""Q0"":""I don't get this one""}","","","","","","","","","","","","","","","","","","","","","","",""
"2233.1999999284744","","image-slider-response","248","1587009","0.0-246.0","A1UDOSYE75OYYI","","","","","-38","","","","","","","","","","","","","","","","","","","","","",""
"null","","image-button-response","249","1592014","0.0-247.0","A1UDOSYE75OYYI","img_art/18.jpg","null","","","","","","","","","","","","","","","","","","","","","","","","",""
"1503","","image-button-response","250","1593521","0.0-248.0","A1UDOSYE75OYYI","img_art/18.jpg","5","","","","","","","","","","","","","","","","","","","","","","","","",""
"6261","","image-button-response","251","1599784","0.0-249.0-0.0","A1UDOSYE75OYYI","img_art/18.jpg","2","","","","","","","","","","","","","","","","","","","","","","","","",""
"6361","","image-button-response","252","1606148","0.0-250.0-0.0","A1UDOSYE75OYYI","img_art/18.jpg","4","","","","","","","","","","","","","","","","","","","","","","","","",""
"null","","html-keyboard-response","253","1607150","0.0-251.0","A1UDOSYE75OYYI","<p style=""font-size: 48px;"">+</p>","","","","","null","allTrialResponses","1000","1","29","img_art/18.jpg","-38","I don't get this one","Vincent,Steven,Cameron,Austin,Taylor,Andrew","Very conversational and can see many different looks and feels from this .,34,360,20","Oh heck yes! I see two warriors riding down from valhalla, awesome painting,50,160,20","Don't like the color scheme. Or the theme.,-5,60,20","Nice abstract art,50,240,20","Bad guys are after the good guy.,-10,200,20","Another ominous painting,-10,160,20","Andrew","Another ominous painting,-10,160,20","Cameron","Don't like the color scheme. Or the theme.,-5,60,20","Taylor","Bad guys are after the good guy.,-10,200,20","4"
"10249","","survey-text","254","1617414","0.0-252.0-0.0","A1UDOSYE75OYYI","","","","{""Q0"":""Love the realism of the trees""}","","","","","","","","","","","","","","","","","","","","","","",""
"8661.399999976158","","image-slider-response","255","1626078","0.0-253.0","A1UDOSYE75OYYI","","","","","50","","","","","","","","","","","","","","","","","","","","","",""
"null","","image-button-response","256","1631096","0.0-254.0","A1UDOSYE75OYYI","img_art/17.jpg","null","","","","","","","","","","","","","","","","","","","","","","","","",""
"13005","","image-button-response","257","1644106","0.0-255.0","A1UDOSYE75OYYI","img_art/17.jpg","5","","","","","","","","","","","","","","","","","","","","","","","","",""
"6009","","image-button-response","258","1650118","0.0-256.0-0.0","A1UDOSYE75OYYI","img_art/17.jpg","4","","","","","","","","","","","","","","","","","","","","","","","","",""
"2106","","image-button-response","259","1652226","0.0-257.0-0.0","A1UDOSYE75OYYI","img_art/17.jpg","3","","","","","","","","","","","","","","","","","","","","","","","","",""
"null","","html-keyboard-response","260","1652728","0.0-258.0","A1UDOSYE75OYYI","<p style=""font-size: 48px;"">+</p>","","","","","null","allTrialResponses","500","1","30","img_art/17.jpg","50","Love the realism of the trees","John,Hunter,Cameron,Mark,Taylor,Andrew","It gorgeous and i love how the tree is almost 3 dimensional.So many elements to it.,50,120,20","impressive attention to subtleties,15,240,20","doorways and trees are pleasant,30,60,20","A coming storm but I think I would appreciate it more with more contrast.,-12,80,20","Somewhat should trim the tree branches at the shopping mall.,10,200,20","A very inspiring piece,41,160,20","Andrew","A very inspiring piece,41,160,20","Taylor","Somewhat should trim the tree branches at the shopping mall.,10,200,20","Mark","A coming storm but I think I would appreciate it more with more contrast.,-12,80,20","4"
"4374","","image-button-response_instructions","261","1657126","0.0-259.0","A1UDOSYE75OYYI","","0","instructions","","","","","","","","","","","","","","","","","","","","","","","",""
"1030","","image-button-response","262","1658161","0.0-260.0","A1UDOSYE75OYYI","","0","","","","","","","","","","","","","","","","","","","","","","","","",""
