"rt","url","trial_type","trial_index","time_elapsed","internal_node_id","participant_id","stimulus","button_pressed","Name","responses","response","key_press","variableName","fixationTime","condition","trial","photo","subjectRating","subjectResponse","agentsNames","agent_1_Response","agent_2_Response","agent_3_Response","agent_4_Response","agent_5_Response","agent_6_Response","kept_1_name","kept_1_response","kept_2_name","kept_2_response","kept_3_name","kept_3_response","errorCounter"
"44057","external_page_harvard.html","external-html","0","44142","0.0-0.0","A1UZN21EAN1HZ4","","","","","","","","","","","","","","","","","","","","","","","","","","",""
"2178","","image-button-response","1","46322","0.0-1.0","A1UZN21EAN1HZ4","","1","","","","","","","","","","","","","","","","","","","","","","","","",""
"2393","","image-button-response","2","48719","0.0-2.0-0.0","A1UZN21EAN1HZ4","","1","phone","","","","","","","","","","","","","","","","","","","","","","","",""
"4027","","survey-text","3","52747","0.0-3.0-0.0","A1UZN21EAN1HZ4","","","","{""Q0"":""A1UZN21EAN1HZ4""}","","","","","","","","","","","","","","","","","","","","","","",""
"7666","","image-button-response_instructions","4","60414","0.0-4.0","A1UZN21EAN1HZ4","","0","instructions","","","","","","","","","","","","","","","","","","","","","","","",""
"14634","","image-button-response_instructions","5","75049","0.0-5.0","A1UZN21EAN1HZ4","img_art/ins/popularity/ins1.png","0","instructions","","","","","","","","","","","","","","","","","","","","","","","",""
"6040","","image-button-response_instructions","6","81091","0.0-6.0","A1UZN21EAN1HZ4","img_art/ins/popularity/ins2.png","0","instructions","","","","","","","","","","","","","","","","","","","","","","","",""
"6889","","image-button-response_instructions","7","87981","0.0-7.0","A1UZN21EAN1HZ4","img_art/ins/popularity/ins2Extreme.png","0","instructions","","","","","","","","","","","","","","","","","","","","","","","",""
"22791","","image-button-response_instructions","8","110773","0.0-8.0","A1UZN21EAN1HZ4","img_art/ins/popularity/ins3KEEPpop.PNG","0","instructions","","","","","","","","","","","","","","","","","","","","","","","",""
"5040","","image-button-response_instructions","9","115814","0.0-9.0","A1UZN21EAN1HZ4","img_art/ins/popularity/ins3ANamepop.PNG","0","instructions","","","","","","","","","","","","","","","","","","","","","","","",""
"4626","","image-button-response_instructions","10","120440","0.0-10.0","A1UZN21EAN1HZ4","img_art/ins/popularity/ins3ARatingpop.png","0","instructions","","","","","","","","","","","","","","","","","","","","","","","",""
"7757","","image-button-response_instructions","11","128198","0.0-11.0","A1UZN21EAN1HZ4","img_art/ins/popularity/ins3ATextpop.png","0","instructions","","","","","","","","","","","","","","","","","","","","","","","",""
"10206","","image-button-response_instructions","12","138405","0.0-12.0","A1UZN21EAN1HZ4","img_art/ins/popularity/ins3ALikespop.png","0","instructions","","","","","","","","","","","","","","","","","","","","","","","",""
"15727","","image-button-response_instructions","13","154133","0.0-13.0","A1UZN21EAN1HZ4","img_art/ins/popularity/ins3KEEPpop.PNG","0","instructions","","","","","","","","","","","","","","","","","","","","","","","",""
"14482","","image-button-response_instructions","14","168615","0.0-14.0","A1UZN21EAN1HZ4","img_art/ins/popularity/ins3_5RED.png","0","instructions","","","","","","","","","","","","","","","","","","","","","","","",""
"3265","","image-button-response_instructions","15","171882","0.0-15.0","A1UZN21EAN1HZ4","img_art/ins/popularity/ins3KEEPpop.PNG","0","instructions","","","","","","","","","","","","","","","","","","","","","","","",""
"7680","","image-button-response_instructions","16","179563","0.0-16.0","A1UZN21EAN1HZ4","img_art/ins/popularity/ins4KEEPpop.PNG","0","instructions","","","","","","","","","","","","","","","","","","","","","","","",""
"4693","","image-button-response_instructions","17","184257","0.0-17.0","A1UZN21EAN1HZ4","img_art/ins/popularity/ins5KEEPpop.PNG","0","instructions","","","","","","","","","","","","","","","","","","","","","","","",""
"2138","","image-button-response_instructions","18","186396","0.0-18.0","A1UZN21EAN1HZ4","","0","instructions","","","","","","","","","","","","","","","","","","","","","","","",""
"8760","","survey-text","19","195176","0.0-19.0-0.0","A1UZN21EAN1HZ4","","","","{""Q0"":""but""}","","","","","","","","","","","","","","","","","","","","","","",""
"21043","","survey-text","20","216220","0.0-20.0-0.0","A1UZN21EAN1HZ4","","","","{""Q0"":""I feel nothing when I view this art.""}","","","","","","","","","","","","","","","","","","","","","","",""
"16872.100000023842","","image-slider-response","21","233095","0.0-21.0","A1UZN21EAN1HZ4","","","","","-2","","","","","","","","","","","","","","","","","","","","","",""
"null","","image-button-response","22","238102","0.0-22.0","A1UZN21EAN1HZ4","img_art/ins/1.jpg","null","","","","","","","","","","","","","","","","","","","","","","","","",""
"1262","","image-button-response","23","239365","0.0-23.0","A1UZN21EAN1HZ4","img_art/ins/1.jpg","1","","","","","","","","","","","","","","","","","","","","","","","","",""
"7143","","image-button-response","24","246510","0.0-24.0-0.0","A1UZN21EAN1HZ4","img_art/ins/1.jpg","3","","","","","","","","","","","","","","","","","","","","","","","","",""
"6532","","image-button-response","25","253045","0.0-25.0-0.0","A1UZN21EAN1HZ4","img_art/ins/1.jpg","0","","","","","","","","","","","","","","","","","","","","","","","","",""
"null","","html-keyboard-response","26","254055","0.0-26.0","A1UZN21EAN1HZ4","<p style=""font-size: 48px;"">+</p>","","","","","null","allTrialResponses","1000","1","-2","img_art/ins/1.jpg","-2","I feel nothing when I view this art.","Allison,Ashley,Beth,Dora,Erika,Jen","looks like a lot of things going on in the mist,20,20,20","I just don't get why these type of art would be popular,-32,40,20","This color reminds me of poo,-46,60,20","looks like what my niece in 3rd grade did this afternoon,-50,80,20","I like the sophisticated brushwork,40,100,20","It reminds me of a candy land dream I had,36,120,20","Ashley","I just don't get why these type of art would be popular,-32,40,20","Dora","looks like what my niece in 3rd grade did this afternoon,-50,80,20","Allison","looks like a lot of things going on in the mist,20,20,20","0"
"23940","","survey-text","27","277999","0.0-27.0-0.0","A1UZN21EAN1HZ4","","","","{""Q0"":""I like the deep red hues.""}","","","","","","","","","","","","","","","","","","","","","","",""
"10376.59999999404","","image-slider-response","28","288376","0.0-28.0","A1UZN21EAN1HZ4","","","","","15","","","","","","","","","","","","","","","","","","","","","",""
"null","","image-button-response","29","293381","0.0-29.0","A1UZN21EAN1HZ4","img_art/ins/2.jpg","null","","","","","","","","","","","","","","","","","","","","","","","","",""
"4420","","image-button-response","30","297803","0.0-30.0","A1UZN21EAN1HZ4","img_art/ins/2.jpg","4","","","","","","","","","","","","","","","","","","","","","","","","",""
"5522","","image-button-response","31","303326","0.0-31.0-0.0","A1UZN21EAN1HZ4","img_art/ins/2.jpg","0","","","","","","","","","","","","","","","","","","","","","","","","",""
"5612","","image-button-response","32","308939","0.0-32.0-0.0","A1UZN21EAN1HZ4","img_art/ins/2.jpg","1","","","","","","","","","","","","","","","","","","","","","","","","",""
"null","","html-keyboard-response","33","310446","0.0-33.0","A1UZN21EAN1HZ4","<p style=""font-size: 48px;"">+</p>","","","","","null","allTrialResponses","1500","1","-1","img_art/ins/2.jpg","15","I like the deep red hues.","Allison,Ashley,Jenna,Dora,Kara,Katie","I don't have strong feelings about this,10,20,20","Idk, it is just annoying,-32,40,20","One of my pet peevs,-48,140,20","looks too angry,-50,80,20","I like the blocks of color arrangements,30,160,20","too much color!,-28,180,20","Kara","I like the blocks of color arrangements,30,160,20","Allison","I don't have strong feelings about this,10,20,20","Ashley","Idk, it is just annoying,-32,40,20","0"
"24398","","survey-text","34","334848","0.0-34.0-0.0","A1UZN21EAN1HZ4","","","","{""Q0"":""I like this for some reason, maybe it's because of the blue hues.""}","","","","","","","","","","","","","","","","","","","","","","",""
"9924.400000035763","","image-slider-response","35","344773","0.0-35.0","A1UZN21EAN1HZ4","","","","","30","","","","","","","","","","","","","","","","","","","","","",""
"2278","","image-button-response","36","349776","0.0-36.0","A1UZN21EAN1HZ4","img_art/ins/3.jpg","0","","","","","","","","","","","","","","","","","","","","","","","","",""
"1317","","image-button-response","37","351095","0.0-37.0","A1UZN21EAN1HZ4","img_art/ins/3.jpg","0","","","","","","","","","","","","","","","","","","","","","","","","",""
"5483","","image-button-response","38","356579","0.0-38.0-0.0","A1UZN21EAN1HZ4","img_art/ins/3.jpg","2","","","","","","","","","","","","","","","","","","","","","","","","",""
"4347","","image-button-response","39","360928","0.0-39.0-0.0","A1UZN21EAN1HZ4","img_art/ins/3.jpg","4","","","","","","","","","","","","","","","","","","","","","","","","",""
"null","","html-keyboard-response","40","361431","0.0-40.0","A1UZN21EAN1HZ4","<p style=""font-size: 48px;"">+</p>","","","","","null","allTrialResponses","500","1","0","img_art/ins/3.jpg","30","I like this for some reason, maybe it's because of the blue hues.","Allison,Ashley,Mary,Leslie,Kara,Rose","enjoy the different shades of blue,22,20,20","It looks like a playground for bats,-36,40,20","I like the overlapping of brushes,41,220,20","It's an alright work,15,200,20","calming blue is very nice,36,160,20","My daily routine, it's depressing,-20,240,20","Allison","enjoy the different shades of blue,22,20,20","Mary","I like the overlapping of brushes,41,220,20","Kara","calming blue is very nice,36,160,20","0"
"7112","","image-button-response_instructions","41","368547","0.0-41.0","A1UZN21EAN1HZ4","","0","instructions","","","","","","","","","","","","","","","","","","","","","","","",""
"21557","","survey-likert","42","390105","0.0-42.0-0.0","A1UZN21EAN1HZ4","","","","{""Q0"":"""",""Q1"":0,""Q2"":1}","","","","","","","","","","","","","","","","","","","","","","",""
"6671","","survey-text","43","396783","0.0-43.0-0.0","A1UZN21EAN1HZ4","","","","{""Q0"":""rock""}","","","","","","","","","","","","","","","","","","","","","","",""
"39253","","survey-text","44","436037","0.0-44.0-0.0","A1UZN21EAN1HZ4","","","","{""Q0"":""I like the waterfall component.""}","","","","","","","","","","","","","","","","","","","","","","",""
"4473.200000047684","","image-slider-response","45","440512","0.0-45.0","A1UZN21EAN1HZ4","","","","","20","","","","","","","","","","","","","","","","","","","","","",""
"3475","","image-button-response","46","445548","0.0-46.0","A1UZN21EAN1HZ4","img_art/24.jpg","1","","","","","","","","","","","","","","","","","","","","","","","","",""
"2566","","image-button-response","47","448116","0.0-47.0","A1UZN21EAN1HZ4","img_art/24.jpg","1","","","","","","","","","","","","","","","","","","","","","","","","",""
"4600","","image-button-response","48","452717","0.0-48.0-0.0","A1UZN21EAN1HZ4","img_art/24.jpg","3","","","","","","","","","","","","","","","","","","","","","","","","",""
"7145","","image-button-response","49","459865","0.0-49.0-0.0","A1UZN21EAN1HZ4","img_art/24.jpg","4","","","","","","","","","","","","","","","","","","","","","","","","",""
"null","","html-keyboard-response","50","460367","0.0-50.0","A1UZN21EAN1HZ4","<p style=""font-size: 48px;"">+</p>","","","","","null","allTrialResponses","500","1","1","img_art/24.jpg","20","I like the waterfall component.","Cassidy,Leah,Cynthia,Cassandra,Lauren,Sierra","I don't even know. It's just kind of meh,1,140,20","Happy, the forest as I would love to see it,50,360,20","Interested in visiting this place,18,320,20","I like it...looks like a waterfall.,11,120,20","Invokes a strong sense of nature, since the piece can interpreted as a stream or an abstracted bird.,40,340,20","i like that the water seems in motion,6,260,20","Leah","Happy, the forest as I would love to see it,50,360,20","Cassandra","I like it...looks like a waterfall.,11,120,20","Lauren","Invokes a strong sense of nature, since the piece can interpreted as a stream or an abstracted bird.,40,340,20","0"
"22279","","survey-text","51","482650","0.0-51.0-0.0","A1UZN21EAN1HZ4","","","","{""Q0"":""Scribble scrabble, confusing.""}","","","","","","","","","","","","","","","","","","","","","","",""
"9859.599999964237","","image-slider-response","52","492511","0.0-52.0","A1UZN21EAN1HZ4","","","","","-20","","","","","","","","","","","","","","","","","","","","","",""
"4842","","image-button-response","53","497526","0.0-53.0","A1UZN21EAN1HZ4","img_art/19.jpg","2","","","","","","","","","","","","","","","","","","","","","","","","",""
"1226","","image-button-response","54","498755","0.0-54.0","A1UZN21EAN1HZ4","img_art/19.jpg","2","","","","","","","","","","","","","","","","","","","","","","","","",""
"6448","","image-button-response","55","505205","0.0-55.0-0.0","A1UZN21EAN1HZ4","img_art/19.jpg","5","","","","","","","","","","","","","","","","","","","","","","","","",""
"3266","","image-button-response","56","508474","0.0-56.0-0.0","A1UZN21EAN1HZ4","img_art/19.jpg","4","","","","","","","","","","","","","","","","","","","","","","","","",""
"null","","html-keyboard-response","57","509981","0.0-57.0","A1UZN21EAN1HZ4","<p style=""font-size: 48px;"">+</p>","","","","","null","allTrialResponses","1500","1","2","img_art/19.jpg","-20","Scribble scrabble, confusing.","Marissa,Leah,Chelsea,Cassandra,Lauren,Alyssa","It makes me feel like it is of a street of bakeries,15,160,20","Very abstract but I like it, it's busy, lots of colors,43,360,20","It is too busy.,-34,180,20","Nuetral...can't think of anything to say,4,120,20","The image doesn't really invoke any emotions strongly.,0,340,20","There's alot of elements to it bordering on clutter and chaotic,-20,160,20","Chelsea","It is too busy.,-34,180,20","Alyssa","There's alot of elements to it bordering on clutter and chaotic,-20,160,20","Lauren","The image doesn't really invoke any emotions strongly.,0,340,20","0"
"37309","","survey-text","58","547293","0.0-58.0-0.0","A1UZN21EAN1HZ4","","","","{""Q0"":""I got nothing to say. I don't feel anything.""}","","","","","","","","","","","","","","","","","","","","","","",""
"4498.600000023842","","image-slider-response","59","551793","0.0-59.0","A1UZN21EAN1HZ4","","","","","-30","","","","","","","","","","","","","","","","","","","","","",""
"null","","image-button-response","60","556795","0.0-60.0","A1UZN21EAN1HZ4","img_art/15.jpg","null","","","","","","","","","","","","","","","","","","","","","","","","",""
"1657","","image-button-response","61","558454","0.0-61.0","A1UZN21EAN1HZ4","img_art/15.jpg","3","","","","","","","","","","","","","","","","","","","","","","","","",""
"4400","","image-button-response","62","562856","0.0-62.0-0.0","A1UZN21EAN1HZ4","img_art/15.jpg","5","","","","","","","","","","","","","","","","","","","","","","","","",""
"2106","","image-button-response","63","564964","0.0-63.0-0.0","A1UZN21EAN1HZ4","img_art/15.jpg","2","","","","","","","","","","","","","","","","","","","","","","","","",""
"null","","html-keyboard-response","64","565966","0.0-64.0","A1UZN21EAN1HZ4","<p style=""font-size: 48px;"">+</p>","","","","","null","allTrialResponses","1000","1","3","img_art/15.jpg","-30","I got nothing to say. I don't feel anything.","Savannah,Autumn,Chelsea,Sabrina,Lauren,Alyssa","Love the accent colors in this piece!,20,200,20","Simple but not good,-34,340,20","The colors are too busy.,-39,180,20","Extreme darkness and sadness,-30,120,20","Hard to tell what I'm looking at, but it does a gives a slight impression of a of garden.,5,340,20","Uninteresting and too much black,-30,160,20","Sabrina","Extreme darkness and sadness,-30,120,20","Alyssa","Uninteresting and too much black,-30,160,20","Chelsea","The colors are too busy.,-39,180,20","0"
"67108","","survey-text","65","633077","0.0-65.0-0.0","A1UZN21EAN1HZ4","","","","{""Q0"":""Interesting. Angels and skeletal pirates on horses?""}","","","","","","","","","","","","","","","","","","","","","","",""
"4287.5","","image-slider-response","66","637366","0.0-66.0","A1UZN21EAN1HZ4","","","","","15","","","","","","","","","","","","","","","","","","","","","",""
"3828","","image-button-response","67","642370","0.0-67.0","A1UZN21EAN1HZ4","img_art/18.jpg","0","","","","","","","","","","","","","","","","","","","","","","","","",""
"1237","","image-button-response","68","643609","0.0-68.0","A1UZN21EAN1HZ4","img_art/18.jpg","0","","","","","","","","","","","","","","","","","","","","","","","","",""
"11257","","image-button-response","69","654868","0.0-69.0-0.0","A1UZN21EAN1HZ4","img_art/18.jpg","4","","","","","","","","","","","","","","","","","","","","","","","","",""
"2560","","image-button-response","70","657430","0.0-70.0-0.0","A1UZN21EAN1HZ4","img_art/18.jpg","3","","","","","","","","","","","","","","","","","","","","","","","","",""
"null","","html-keyboard-response","71","658947","0.0-71.0","A1UZN21EAN1HZ4","<p style=""font-size: 48px;"">+</p>","","","","","null","allTrialResponses","1500","1","4","img_art/18.jpg","15","Interesting. Angels and skeletal pirates on horses?","Katherine,Madeline,Chelsea,Sabrina,Kelly,Alyssa","Ok this is really badass. Like a warrior come to the last battle,50,120,20","Good concept but then scribbled on a bit?,15,40,20","I like the detail but I wouldn't hang this up on my wall.,14,180,20","I love the battle vibe in this,50,120,20","It's interesting. I'm not sure how I feel about it, but i enjoy the ghostly apparitions.,10,220,20","There are alot of elements to this painting and a good mix of colors,32,160,20","Katherine","Ok this is really badass. Like a warrior come to the last battle,50,120,20","Kelly","It's interesting. I'm not sure how I feel about it, but i enjoy the ghostly apparitions.,10,220,20","Sabrina","I love the battle vibe in this,50,120,20","0"
"24471","","survey-text","72","683421","0.0-72.0-0.0","A1UZN21EAN1HZ4","","","","{""Q0"":""Confusing, not sure what is being depicted.""}","","","","","","","","","","","","","","","","","","","","","","",""
"14092.199999988079","","image-slider-response","73","697515","0.0-73.0","A1UZN21EAN1HZ4","","","","","-14","","","","","","","","","","","","","","","","","","","","","",""
"null","","image-button-response","74","702525","0.0-74.0","A1UZN21EAN1HZ4","img_art/17.jpg","null","","","","","","","","","","","","","","","","","","","","","","","","",""
"15501","","image-button-response","75","718028","0.0-75.0","A1UZN21EAN1HZ4","img_art/17.jpg","2","","","","","","","","","","","","","","","","","","","","","","","","",""
"8849","","image-button-response","76","726878","0.0-76.0-0.0","A1UZN21EAN1HZ4","img_art/17.jpg","3","","","","","","","","","","","","","","","","","","","","","","","","",""
"5752","","image-button-response","77","732632","0.0-77.0-0.0","A1UZN21EAN1HZ4","img_art/17.jpg","4","","","","","","","","","","","","","","","","","","","","","","","","",""
"null","","html-keyboard-response","78","733640","0.0-78.0","A1UZN21EAN1HZ4","<p style=""font-size: 48px;"">+</p>","","","","","null","allTrialResponses","1000","1","5","img_art/17.jpg","-14","Confusing, not sure what is being depicted.","Katherine,Courtney,Mariah,Sabrina,Kelly,Brittany","Looks like a weird blurry heaven again! I dig,32,120,20","Some new perm we got there.,12,280,20","It feels like nature overtaking civilization.,21,140,20","Messy shadow of loss and love,50,120,20","I really like this, especially the tree.,23,220,20","I like the colors and the design.,20,40,20","Mariah","It feels like nature overtaking civilization.,21,140,20","Sabrina","Messy shadow of loss and love,50,120,20","Kelly","I really like this, especially the tree.,23,220,20","0"
"3947","","survey-text","79","737592","0.0-79.0-0.0","A1UZN21EAN1HZ4","","","","{""Q0"":""sky""}","","","","","","","","","","","","","","","","","","","","","","",""
"22548","","survey-text","80","760141","0.0-80.0-0.0","A1UZN21EAN1HZ4","","","","{""Q0"":""More scribble scrabble. Bah.""}","","","","","","","","","","","","","","","","","","","","","","",""
"4423.300000011921","","image-slider-response","81","764566","0.0-81.0","A1UZN21EAN1HZ4","","","","","-32","","","","","","","","","","","","","","","","","","","","","",""
"1947","","image-button-response","82","769576","0.0-82.0","A1UZN21EAN1HZ4","img_art/3.jpg","0","","","","","","","","","","","","","","","","","","","","","","","","",""
"694","","image-button-response","83","770271","0.0-83.0","A1UZN21EAN1HZ4","img_art/3.jpg","0","","","","","","","","","","","","","","","","","","","","","","","","",""
"3029","","image-button-response","84","773301","0.0-84.0-0.0","A1UZN21EAN1HZ4","img_art/3.jpg","1","","","","","","","","","","","","","","","","","","","","","","","","",""
"9468","","image-button-response","85","782770","0.0-85.0-0.0","A1UZN21EAN1HZ4","img_art/3.jpg","3","","","","","","","","","","","","","","","","","","","","","","","","",""
"null","","html-keyboard-response","86","784281","0.0-86.0","A1UZN21EAN1HZ4","<p style=""font-size: 48px;"">+</p>","","","","","null","allTrialResponses","1500","1","6","img_art/3.jpg","-32","More scribble scrabble. Bah.","Olivia,Jennifer,Mariah,Sabrina,Kelly,Alexa","confusing taking over,-15,40,20","This looks like something a child created in 5 minutes.,-50,380,20","The composition keeps the eye moving, the colors are satisfying.,31,140,20","I dont really feel anything from this, i cant see or understand any of it,-20,120,20","Reminds me of blood.,-28,220,20","Looks messy and too much for my eyes,-35,40,20","Olivia","confusing taking over,-15,40,20","Jennifer","This looks like something a child created in 5 minutes.,-50,380,20","Sabrina","I dont really feel anything from this, i cant see or understand any of it,-20,120,20","0"
"29213","","survey-text","87","813498","0.0-87.0-0.0","A1UZN21EAN1HZ4","","","","{""Q0"":""Calm watercolor. It's alright.""}","","","","","","","","","","","","","","","","","","","","","","",""
"5081.600000023842","","image-slider-response","88","818581","0.0-88.0","A1UZN21EAN1HZ4","","","","","10","","","","","","","","","","","","","","","","","","","","","",""
"4665","","image-button-response","89","823586","0.0-89.0","A1UZN21EAN1HZ4","img_art/26.jpg","1","","","","","","","","","","","","","","","","","","","","","","","","",""
"3642","","image-button-response","90","827229","0.0-90.0","A1UZN21EAN1HZ4","img_art/26.jpg","1","","","","","","","","","","","","","","","","","","","","","","","","",""
"11319","","image-button-response","91","838549","0.0-91.0-0.0","A1UZN21EAN1HZ4","img_art/26.jpg","3","","","","","","","","","","","","","","","","","","","","","","","","",""
"4936","","image-button-response","92","843487","0.0-92.0-0.0","A1UZN21EAN1HZ4","img_art/26.jpg","0","","","","","","","","","","","","","","","","","","","","","","","","",""
"null","","html-keyboard-response","93","844489","0.0-93.0","A1UZN21EAN1HZ4","<p style=""font-size: 48px;"">+</p>","","","","","null","allTrialResponses","1000","1","7","img_art/26.jpg","10","Calm watercolor. It's alright.","Olivia,Jennifer,Jenna,Sabrina,Samantha,Diana","reminds me of a hometown,7,40,20","This picture doesn't really stand out.,0,380,20","soft colors & brush work. very easy to look at. makes me happy.,50,360,20","I dont see any expression,-29,120,20","I like the colors and trees. Seems cheap vintage retail store art but i love it anyways,50,140,20","I'm not sure if this is the image of a furniture store or not.,-20,380,20","Jennifer","This picture doesn't really stand out.,0,380,20","Sabrina","I dont see any expression,-29,120,20","Olivia","reminds me of a hometown,7,40,20","0"
"32358","","survey-text","94","876851","0.0-94.0-0.0","A1UZN21EAN1HZ4","","","","{""Q0"":""Clamshell in the sea? Too confusing.""}","","","","","","","","","","","","","","","","","","","","","","",""
"2567.5","","image-slider-response","95","879420","0.0-95.0","A1UZN21EAN1HZ4","","","","","-25","","","","","","","","","","","","","","","","","","","","","",""
"null","","image-button-response","96","884428","0.0-96.0","A1UZN21EAN1HZ4","img_art/9.jpg","null","","","","","","","","","","","","","","","","","","","","","","","","",""
"3550","","image-button-response","97","887979","0.0-97.0","A1UZN21EAN1HZ4","img_art/9.jpg","2","","","","","","","","","","","","","","","","","","","","","","","","",""
"10413","","image-button-response","98","898394","0.0-98.0-0.0","A1UZN21EAN1HZ4","img_art/9.jpg","1","","","","","","","","","","","","","","","","","","","","","","","","",""
"6584","","image-button-response","99","904981","0.0-99.0-0.0","A1UZN21EAN1HZ4","img_art/9.jpg","5","","","","","","","","","","","","","","","","","","","","","","","","",""
"null","","html-keyboard-response","100","905995","0.0-100.0","A1UZN21EAN1HZ4","<p style=""font-size: 48px;"">+</p>","","","","","null","allTrialResponses","1000","1","8","img_art/9.jpg","-25","Clamshell in the sea? Too confusing.","Olivia,Jennifer,Makayla,Sabrina,Ashley,Kelsey","what a wild ride,11,40,20","This piece is very boring to look at.,-27,380,20","Looks like a monster's teeth , unsettling,-18,80,20","Calming and relaxing,42,120,20","Similar to the tohers, but not as clear.,11,320,20","i like the colors but not the composition,-17,240,20","Makayla","Looks like a monster's teeth , unsettling,-18,80,20","Jennifer","This piece is very boring to look at.,-27,380,20","Kelsey","i like the colors but not the composition,-17,240,20","0"
"31936","","survey-text","101","937935","0.0-101.0-0.0","A1UZN21EAN1HZ4","","","","{""Q0"":""I like colors and presentation.""}","","","","","","","","","","","","","","","","","","","","","","",""
"7740.899999976158","","image-slider-response","102","945677","0.0-102.0","A1UZN21EAN1HZ4","","","","","50","","","","","","","","","","","","","","","","","","","","","",""
"3403","","image-button-response","103","950679","0.0-103.0","A1UZN21EAN1HZ4","img_art/13.jpg","0","","","","","","","","","","","","","","","","","","","","","","","","",""
"1194","","image-button-response","104","951875","0.0-104.0","A1UZN21EAN1HZ4","img_art/13.jpg","0","","","","","","","","","","","","","","","","","","","","","","","","",""
"8366","","image-button-response","105","960242","0.0-105.0-0.0","A1UZN21EAN1HZ4","img_art/13.jpg","4","","","","","","","","","","","","","","","","","","","","","","","","",""
"4484","","image-button-response","106","964728","0.0-106.0-0.0","A1UZN21EAN1HZ4","img_art/13.jpg","1","","","","","","","","","","","","","","","","","","","","","","","","",""
"null","","html-keyboard-response","107","965230","0.0-107.0","A1UZN21EAN1HZ4","<p style=""font-size: 48px;"">+</p>","","","","","null","allTrialResponses","500","1","9","img_art/13.jpg","50","I like colors and presentation.","Caitlin,Jennifer,Makayla,Destiny,Abigail,Kelsey","Simple and in my favorite color. I actually like this one.,40,80,20","I like the color scheme,41,380,20","Reminds me of the aquarium,4,80,20","so simple and stupid this looks like what I did to my cousins wall when we repainted it for her 13th bday,0,360,20","This is easy to look at,46,20,20","its like the ocean,24,240,20","Caitlin","Simple and in my favorite color. I actually like this one.,40,80,20","Abigail","This is easy to look at,46,20,20","Jennifer","I like the color scheme,41,380,20","0"
"33587","","survey-text","108","998821","0.0-108.0-0.0","A1UZN21EAN1HZ4","","","","{""Q0"":""Not sure what this is about. Feeling annoyed.""}","","","","","","","","","","","","","","","","","","","","","","",""
"3429.400000035763","","image-slider-response","109","1002252","0.0-109.0","A1UZN21EAN1HZ4","","","","","-35","","","","","","","","","","","","","","","","","","","","","",""
"null","","image-button-response","110","1007264","0.0-110.0","A1UZN21EAN1HZ4","img_art/22.jpg","null","","","","","","","","","","","","","","","","","","","","","","","","",""
"6468","","image-button-response","111","1013734","0.0-111.0","A1UZN21EAN1HZ4","img_art/22.jpg","3","","","","","","","","","","","","","","","","","","","","","","","","",""
"1955","","image-button-response","112","1015691","0.0-112.0-0.0","A1UZN21EAN1HZ4","img_art/22.jpg","4","","","","","","","","","","","","","","","","","","","","","","","","",""
"13566","","image-button-response","113","1029259","0.0-113.0-0.0","A1UZN21EAN1HZ4","img_art/22.jpg","0","","","","","","","","","","","","","","","","","","","","","","","","",""
"null","","html-keyboard-response","114","1030269","0.0-114.0","A1UZN21EAN1HZ4","<p style=""font-size: 48px;"">+</p>","","","","","null","allTrialResponses","1000","1","10","img_art/22.jpg","-35","Not sure what this is about. Feeling annoyed.","Caitlin,Jennifer,Victoria,Amy,Abigail,Morgan","Looks like the kind of art I would see at the doctor's office.,-5,80,20","Colors are subdued yet vibrant,30,380,20","love how the colors blend,42,400,20","I appreciate the shapes but the abundance of primary colors make it seem garrish.,-10,220,20","The colors are too dark, too much red,2,20,20","Glowing city of many emotions.,10,380,20","Amy","I appreciate the shapes but the abundance of primary colors make it seem garrish.,-10,220,20","Abigail","The colors are too dark, too much red,2,20,20","Caitlin","Looks like the kind of art I would see at the doctor's office.,-5,80,20","0"
"4033","","survey-text","115","1034307","0.0-115.0-0.0","A1UZN21EAN1HZ4","","","","{""Q0"":""our""}","","","","","","","","","","","","","","","","","","","","","","",""
"28739","","survey-text","116","1063047","0.0-116.0-0.0","A1UZN21EAN1HZ4","","","","{""Q0"":""Reminds me of people standing in line.""}","","","","","","","","","","","","","","","","","","","","","","",""
"4282.199999988079","","image-slider-response","117","1067331","0.0-117.0","A1UZN21EAN1HZ4","","","","","-13","","","","","","","","","","","","","","","","","","","","","",""
"null","","image-button-response","118","1072348","0.0-118.0","A1UZN21EAN1HZ4","img_art/23.jpg","null","","","","","","","","","","","","","","","","","","","","","","","","",""
"6988","","image-button-response","119","1079337","0.0-119.0","A1UZN21EAN1HZ4","img_art/23.jpg","2","","","","","","","","","","","","","","","","","","","","","","","","",""
"6004","","image-button-response","120","1085344","0.0-120.0-0.0","A1UZN21EAN1HZ4","img_art/23.jpg","0","","","","","","","","","","","","","","","","","","","","","","","","",""
"9050","","image-button-response","121","1094396","0.0-121.0-0.0","A1UZN21EAN1HZ4","img_art/23.jpg","4","","","","","","","","","","","","","","","","","","","","","","","","",""
"null","","html-keyboard-response","122","1094898","0.0-122.0","A1UZN21EAN1HZ4","<p style=""font-size: 48px;"">+</p>","","","","","null","allTrialResponses","500","1","11","img_art/23.jpg","-13","Reminds me of people standing in line.","Caitlin,Crystal,Chloe,Amy,Abigail,Laura","SOME thought was put into this one.,5,80,20","I love the funky colors accompanied by perhaps dancing silhouettes. I love the white against the chaotic surroundings.,50,300,20","Poster shop camp.,-40,220,20","So exciting and full of the night.,20,220,20","I like the contrast,29,20,20","teeth! dancing people, celebrations,-39,320,20","Chloe","Poster shop camp.,-40,220,20","Caitlin","SOME thought was put into this one.,5,80,20","Abigail","I like the contrast,29,20,20","0"
"41199","","survey-text","123","1136100","0.0-123.0-0.0","A1UZN21EAN1HZ4","","","","{""Q0"":""Cookie dough? I feel nothing.""}","","","","","","","","","","","","","","","","","","","","","","",""
"3462.600000023842","","image-slider-response","124","1139564","0.0-124.0","A1UZN21EAN1HZ4","","","","","-29","","","","","","","","","","","","","","","","","","","","","",""
"null","","image-button-response","125","1144581","0.0-125.0","A1UZN21EAN1HZ4","img_art/7.jpg","null","","","","","","","","","","","","","","","","","","","","","","","","",""
"2485","","image-button-response","126","1147067","0.0-126.0","A1UZN21EAN1HZ4","img_art/7.jpg","4","","","","","","","","","","","","","","","","","","","","","","","","",""
"4255","","image-button-response","127","1151323","0.0-127.0-0.0","A1UZN21EAN1HZ4","img_art/7.jpg","5","","","","","","","","","","","","","","","","","","","","","","","","",""
"6822","","image-button-response","128","1158146","0.0-128.0-0.0","A1UZN21EAN1HZ4","img_art/7.jpg","3","","","","","","","","","","","","","","","","","","","","","","","","",""
"null","","html-keyboard-response","129","1159653","0.0-129.0","A1UZN21EAN1HZ4","<p style=""font-size: 48px;"">+</p>","","","","","null","allTrialResponses","1500","1","12","img_art/7.jpg","-29","Cookie dough? I feel nothing.","Caitlin,Claire,Chloe,Catherine,Abigail,Kathryn","Looks like a photo taken from the moon.,-6,80,20","reminds me of a cave wall,-21,260,20","Like the tactile quality,30,220,20","Looking through a microscope at the ground at a beach.,20,160,20","Looks like a skin disease,-31,20,20","It's off-putting because it reminds me of walking over rough sand/rocks or having scabs on my skin.,-10,140,20","Abigail","Looks like a skin disease,-31,20,20","Kathryn","It's off-putting because it reminds me of walking over rough sand/rocks or having scabs on my skin.,-10,140,20","Catherine","Looking through a microscope at the ground at a beach.,20,160,20","0"
"27804","","survey-text","130","1187461","0.0-130.0-0.0","A1UZN21EAN1HZ4","","","","{""Q0"":""Simple, tells a story. Colors and depiction are okay.""}","","","","","","","","","","","","","","","","","","","","","","",""
"4591.800000011921","","image-slider-response","131","1192055","0.0-131.0","A1UZN21EAN1HZ4","","","","","22","","","","","","","","","","","","","","","","","","","","","",""
"2954","","image-button-response","132","1197067","0.0-132.0","A1UZN21EAN1HZ4","img_art/25.jpg","0","","","","","","","","","","","","","","","","","","","","","","","","",""
"8534","","image-button-response","133","1205604","0.0-133.0","A1UZN21EAN1HZ4","img_art/25.jpg","3","","","","","","","","","","","","","","","","","","","","","","","","",""
"2238","","image-button-response","134","1207844","0.0-134.0-0.0","A1UZN21EAN1HZ4","img_art/25.jpg","0","","","","","","","","","","","","","","","","","","","","","","","","",""
"14644","","image-button-response","135","1222489","0.0-135.0-0.0","A1UZN21EAN1HZ4","img_art/25.jpg","1","","","","","","","","","","","","","","","","","","","","","","","","",""
"null","","html-keyboard-response","136","1224001","0.0-136.0","A1UZN21EAN1HZ4","<p style=""font-size: 48px;"">+</p>","","","","","null","allTrialResponses","1500","1","13","img_art/25.jpg","22","Simple, tells a story. Colors and depiction are okay.","Megan,Dominique,Madison,Catherine,Abigail,Kathryn","Beautiful color with an interesting otherworldly figure,29,200,20","Iike this picture; it speaks to me on a personal level. But seems to scare the ones around me.,7,400,20","Meh. Hardly abstract, though.,-40,60,20","culture, tradition. Village people with an honored elder.,40,160,20","This is creepy and I dont like it,-28,20,20","I feel uneasy. Like watching someone powerful ready to perform a ritual, but I don't know their intentions.,-10,140,20","Catherine","culture, tradition. Village people with an honored elder.,40,160,20","Megan","Beautiful color with an interesting otherworldly figure,29,200,20","Dominique","Iike this picture; it speaks to me on a personal level. But seems to scare the ones around me.,7,400,20","0"
"32230","","survey-text","137","1256235","0.0-137.0-0.0","A1UZN21EAN1HZ4","","","","{""Q0"":""I really like this one, colors are spot on with the imaging.""}","","","","","","","","","","","","","","","","","","","","","","",""
"2385.599999964237","","image-slider-response","138","1258622","0.0-138.0","A1UZN21EAN1HZ4","","","","","50","","","","","","","","","","","","","","","","","","","","","",""
"4744","","image-button-response","139","1263625","0.0-139.0","A1UZN21EAN1HZ4","img_art/8.jpg","1","","","","","","","","","","","","","","","","","","","","","","","","",""
"2902","","image-button-response","140","1266529","0.0-140.0","A1UZN21EAN1HZ4","img_art/8.jpg","2","","","","","","","","","","","","","","","","","","","","","","","","",""
"6743","","image-button-response","141","1273274","0.0-141.0-0.0","A1UZN21EAN1HZ4","img_art/8.jpg","4","","","","","","","","","","","","","","","","","","","","","","","","",""
"2185","","image-button-response","142","1275461","0.0-142.0-0.0","A1UZN21EAN1HZ4","img_art/8.jpg","5","","","","","","","","","","","","","","","","","","","","","","","","",""
"null","","html-keyboard-response","143","1276975","0.0-143.0","A1UZN21EAN1HZ4","<p style=""font-size: 48px;"">+</p>","","","","","null","allTrialResponses","1500","1","14","img_art/8.jpg","50","I really like this one, colors are spot on with the imaging.","Megan,Dominique,Gabriela,Catherine,Jordan,Mackenzie","Cortez's influence with fair color choices,10,200,20","This speaks volumes to me and is another favorite I'm sure by many,40,400,20","I like that it sort of looks like a cityscape,9,140,20","Lost in a big city confuse as to where to go to next. No matter if you live in a mansion or homeless. Being bigger than what is going on around you,30,160,20","very nice, i love what's going on here,21,20,20","The different shapes are fun to look for.,30,20,20","Gabriela","I like that it sort of looks like a cityscape,9,140,20","Jordan","very nice, i love what's going on here,21,20,20","Mackenzie","The different shapes are fun to look for.,30,20,20","0"
"26721","","survey-text","144","1303699","0.0-144.0-0.0","A1UZN21EAN1HZ4","","","","{""Q0"":""Kudos to anyone who made money off this... it is boring.""}","","","","","","","","","","","","","","","","","","","","","","",""
"3282.400000035763","","image-slider-response","145","1306983","0.0-145.0","A1UZN21EAN1HZ4","","","","","-29","","","","","","","","","","","","","","","","","","","","","",""
"4778","","image-button-response","146","1311991","0.0-146.0","A1UZN21EAN1HZ4","img_art/30.jpg","0","","","","","","","","","","","","","","","","","","","","","","","","",""
"1851","","image-button-response","147","1313844","0.0-147.0","A1UZN21EAN1HZ4","img_art/30.jpg","0","","","","","","","","","","","","","","","","","","","","","","","","",""
"3437","","image-button-response","148","1317282","0.0-148.0-0.0","A1UZN21EAN1HZ4","img_art/30.jpg","3","","","","","","","","","","","","","","","","","","","","","","","","",""
"1566","","image-button-response","149","1318851","0.0-149.0-0.0","A1UZN21EAN1HZ4","img_art/30.jpg","4","","","","","","","","","","","","","","","","","","","","","","","","",""
"null","","html-keyboard-response","150","1320360","0.0-150.0","A1UZN21EAN1HZ4","<p style=""font-size: 48px;"">+</p>","","","","","null","allTrialResponses","1500","1","15","img_art/30.jpg","-29","Kudos to anyone who made money off this... it is boring.","Gabrielle,Hannah,Gabriela,Kaitlyn,Jordan,Mackenzie","looks very childish, like your kid did it,-33,160,20","It's just all right.,5,240,20","I like the strong lines or brush strokes. It looks modern and bold,21,140,20","Do not like the streaks,-14,80,20","cant see the meaning behind it,-20,20,20","I like the forefront design.,10,20,20","Gabrielle","looks very childish, like your kid did it,-33,160,20","Kaitlyn","Do not like the streaks,-14,80,20","Jordan","cant see the meaning behind it,-20,20,20","0"
"4367","","survey-text","151","1324735","0.0-151.0-0.0","A1UZN21EAN1HZ4","","","","{""Q0"":""course""}","","","","","","","","","","","","","","","","","","","","","","",""
"45397","","survey-text","152","1370132","0.0-152.0-0.0","A1UZN21EAN1HZ4","","","","{""Q0"":""Abstract perfume bottle? Do not understand what this image symbolizes.""}","","","","","","","","","","","","","","","","","","","","","","",""
"3091.5","","image-slider-response","153","1373225","0.0-153.0","A1UZN21EAN1HZ4","","","","","-39","","","","","","","","","","","","","","","","","","","","","",""
"null","","image-button-response","154","1378227","0.0-154.0","A1UZN21EAN1HZ4","img_art/5.jpg","null","","","","","","","","","","","","","","","","","","","","","","","","",""
"468","","image-button-response","155","1378695","0.0-155.0","A1UZN21EAN1HZ4","img_art/5.jpg","0","","","","","","","","","","","","","","","","","","","","","","","","",""
"4547","","image-button-response","156","1383244","0.0-156.0-0.0","A1UZN21EAN1HZ4","img_art/5.jpg","4","","","","","","","","","","","","","","","","","","","","","","","","",""
"4954","","image-button-response","157","1388199","0.0-157.0-0.0","A1UZN21EAN1HZ4","img_art/5.jpg","2","","","","","","","","","","","","","","","","","","","","","","","","",""
"null","","html-keyboard-response","158","1389217","0.0-158.0","A1UZN21EAN1HZ4","<p style=""font-size: 48px;"">+</p>","","","","","null","allTrialResponses","1000","1","16","img_art/5.jpg","-39","Abstract perfume bottle? Do not understand what this image symbolizes.","Gabrielle,Erica,Jacqueline,Kaitlyn,Jordan,Melissa","looks like a 2nd grader did it,-50,160,20","positive colours; yellow calls attention,6,80,20","Seems very basic and uninteresting.,-15,300,20","Wish the background had been kept clean; distracts from main object,11,80,20","I dont really get anything from this,-25,20,20","strong appeal in contrast,27,240,20","Gabrielle","looks like a 2nd grader did it,-50,160,20","Jordan","I dont really get anything from this,-25,20,20","Jacqueline","Seems very basic and uninteresting.,-15,300,20","0"
"42135","","survey-text","159","1431356","0.0-159.0-0.0","A1UZN21EAN1HZ4","","","","{""Q0"":""More time wasted trying to figure out the depiction.""}","","","","","","","","","","","","","","","","","","","","","","",""
"5341.399999976158","","image-slider-response","160","1436699","0.0-160.0","A1UZN21EAN1HZ4","","","","","-34","","","","","","","","","","","","","","","","","","","","","",""
"3931","","image-button-response","161","1441707","0.0-161.0","A1UZN21EAN1HZ4","img_art/28.jpg","0","","","","","","","","","","","","","","","","","","","","","","","","",""
"985","","image-button-response","162","1442693","0.0-162.0","A1UZN21EAN1HZ4","img_art/28.jpg","0","","","","","","","","","","","","","","","","","","","","","","","","",""
"2551","","image-button-response","163","1445245","0.0-163.0-0.0","A1UZN21EAN1HZ4","img_art/28.jpg","1","","","","","","","","","","","","","","","","","","","","","","","","",""
"10141","","image-button-response","164","1455387","0.0-164.0-0.0","A1UZN21EAN1HZ4","img_art/28.jpg","5","","","","","","","","","","","","","","","","","","","","","","","","",""
"null","","html-keyboard-response","165","1456399","0.0-165.0","A1UZN21EAN1HZ4","<p style=""font-size: 48px;"">+</p>","","","","","null","allTrialResponses","1000","1","17","img_art/28.jpg","-34","More time wasted trying to figure out the depiction.","Gabrielle,Allison,Jacqueline,Sophia,Jordan,Christina","bland coloring but pattern interesting,2,160,20","Dislike the colors.,-20,140,20","I don't like the washed out colors.,-15,300,20","I think this may have to do with humpty dumpty?,-7,280,20","It's a bike that was left abandoned by someone who doesnt care for it,1,20,20","very blah colors and it's not fun,-27,240,20","Gabrielle","bland coloring but pattern interesting,2,160,20","Allison","Dislike the colors.,-20,140,20","Christina","very blah colors and it's not fun,-27,240,20","0"
"55810","","survey-text","166","1512212","0.0-166.0-0.0","A1UZN21EAN1HZ4","","","","{""Q0"":""Meh. Colors are okay, too much interpretation.""}","","","","","","","","","","","","","","","","","","","","","","",""
"5199.600000023842","","image-slider-response","167","1517413","0.0-167.0","A1UZN21EAN1HZ4","","","","","-11","","","","","","","","","","","","","","","","","","","","","",""
"null","","image-button-response","168","1522423","0.0-168.0","A1UZN21EAN1HZ4","img_art/21.jpg","null","","","","","","","","","","","","","","","","","","","","","","","","",""
"920","","image-button-response","169","1523345","0.0-169.0","A1UZN21EAN1HZ4","img_art/21.jpg","4","","","","","","","","","","","","","","","","","","","","","","","","",""
"14303","","image-button-response","170","1537650","0.0-170.0-0.0","A1UZN21EAN1HZ4","img_art/21.jpg","3","","","","","","","","","","","","","","","","","","","","","","","","",""
"6551","","image-button-response","171","1544202","0.0-171.0-0.0","A1UZN21EAN1HZ4","img_art/21.jpg","1","","","","","","","","","","","","","","","","","","","","","","","","",""
"null","","html-keyboard-response","172","1544705","0.0-172.0","A1UZN21EAN1HZ4","<p style=""font-size: 48px;"">+</p>","","","","","null","allTrialResponses","500","1","18","img_art/21.jpg","-11","Meh. Colors are okay, too much interpretation.","Gabrielle,Allison,Rebecca,Sarah,Paige,Christina","setting sun sky? nice colors and blending,14,160,20","I like color mix here,15,140,20","stormy with gold lining,0,100,20","I love the section of blues, the colors overall are really lovely,31,180,20","the picture is boring,1,60,20","it has a lot of happy colors and it's very classic looking,35,240,20","Paige","the picture is boring,1,60,20","Sarah","I love the section of blues, the colors overall are really lovely,31,180,20","Allison","I like color mix here,15,140,20","0"
"26736","","survey-text","173","1571445","0.0-173.0-0.0","A1UZN21EAN1HZ4","","","","{""Q0"":""Whatever it is, it looks cool.""}","","","","","","","","","","","","","","","","","","","","","","",""
"4205.800000011921","","image-slider-response","174","1575652","0.0-174.0","A1UZN21EAN1HZ4","","","","","50","","","","","","","","","","","","","","","","","","","","","",""
"4833","","image-button-response","175","1580661","0.0-175.0","A1UZN21EAN1HZ4","img_art/11.jpg","2","","","","","","","","","","","","","","","","","","","","","","","","",""
"1228","","image-button-response","176","1581891","0.0-176.0","A1UZN21EAN1HZ4","img_art/11.jpg","2","","","","","","","","","","","","","","","","","","","","","","","","",""
"2938","","image-button-response","177","1584831","0.0-177.0-0.0","A1UZN21EAN1HZ4","img_art/11.jpg","5","","","","","","","","","","","","","","","","","","","","","","","","",""
"2415","","image-button-response","178","1587248","0.0-178.0-0.0","A1UZN21EAN1HZ4","img_art/11.jpg","3","","","","","","","","","","","","","","","","","","","","","","","","",""
"null","","html-keyboard-response","179","1588253","0.0-179.0","A1UZN21EAN1HZ4","<p style=""font-size: 48px;"">+</p>","","","","","null","allTrialResponses","1000","1","19","img_art/11.jpg","50","Whatever it is, it looks cool.","Angelica,Allison,Shelby,Sarah,Paige,Danielle","This is very unappealing.,-11,280,20","Kind of reminds me of DNA.,9,140,20","The movement in this one is extremely pleasent,40,240,20","i like the gray tones with black lines and bits of color,23,180,20","gave me a sense of gloom,-21,60,20","Reminds me of some of post-apocalyptic view of street lights or maybe a city,30,340,20","Shelby","The movement in this one is extremely pleasent,40,240,20","Danielle","Reminds me of some of post-apocalyptic view of street lights or maybe a city,30,340,20","Sarah","i like the gray tones with black lines and bits of color,23,180,20","0"
"21712","","survey-text","180","1609968","0.0-180.0-0.0","A1UZN21EAN1HZ4","","","","{""Q0"":""No, just no. Gives me a headache looking at it.""}","","","","","","","","","","","","","","","","","","","","","","",""
"6390.700000047684","","image-slider-response","181","1616361","0.0-181.0","A1UZN21EAN1HZ4","","","","","-50","","","","","","","","","","","","","","","","","","","","","",""
"4239","","image-button-response","182","1621364","0.0-182.0","A1UZN21EAN1HZ4","img_art/12.jpg","2","","","","","","","","","","","","","","","","","","","","","","","","",""
"838","","image-button-response","183","1622204","0.0-183.0","A1UZN21EAN1HZ4","img_art/12.jpg","2","","","","","","","","","","","","","","","","","","","","","","","","",""
"3177","","image-button-response","184","1625383","0.0-184.0-0.0","A1UZN21EAN1HZ4","img_art/12.jpg","4","","","","","","","","","","","","","","","","","","","","","","","","",""
"9033","","image-button-response","185","1634418","0.0-185.0-0.0","A1UZN21EAN1HZ4","img_art/12.jpg","1","","","","","","","","","","","","","","","","","","","","","","","","",""
"null","","html-keyboard-response","186","1634931","0.0-186.0","A1UZN21EAN1HZ4","<p style=""font-size: 48px;"">+</p>","","","","","null","allTrialResponses","500","1","20","img_art/12.jpg","-50","No, just no. Gives me a headache looking at it.","Monica,Nicole,Shelby,Sarah,Bailey,Danielle","Reminds me of collages we made in elementary school. I like the contrast of the colors from top to bottom,43,360,20","I like all the squares and the colors but it feels too cluttered to me,20,20,20","The shapes make me feel a bit uncomfortable,-10,240,20","i think it's a good piece but it doesn't appeal to me,-18,180,20","Too many blocks. I can't see a purpose or a focal point,-44,360,20","Kind of interesting, seems almost nostalgic in a way to me.,10,340,20","Shelby","The shapes make me feel a bit uncomfortable,-10,240,20","Bailey","Too many blocks. I can't see a purpose or a focal point,-44,360,20","Nicole","I like all the squares and the colors but it feels too cluttered to me,20,20,20","0"
"2474","","survey-text","187","1637411","0.0-187.0-0.0","A1UZN21EAN1HZ4","","","","{""Q0"":""we""}","","","","","","","","","","","","","","","","","","","","","","",""
"42636","","survey-text","188","1680049","0.0-188.0-0.0","A1UZN21EAN1HZ4","","","","{""Q0"":""Bird, new plant life? Does not appeal to me.""}","","","","","","","","","","","","","","","","","","","","","","",""
"4283.800000011921","","image-slider-response","189","1684335","0.0-189.0","A1UZN21EAN1HZ4","","","","","-25","","","","","","","","","","","","","","","","","","","","","",""
"4074","","image-button-response","190","1689342","0.0-190.0","A1UZN21EAN1HZ4","img_art/6.jpg","2","","","","","","","","","","","","","","","","","","","","","","","","",""
"774","","image-button-response","191","1690118","0.0-191.0","A1UZN21EAN1HZ4","img_art/6.jpg","2","","","","","","","","","","","","","","","","","","","","","","","","",""
"6120","","image-button-response","192","1696239","0.0-192.0-0.0","A1UZN21EAN1HZ4","img_art/6.jpg","3","","","","","","","","","","","","","","","","","","","","","","","","",""
"5846","","image-button-response","193","1702087","0.0-193.0-0.0","A1UZN21EAN1HZ4","img_art/6.jpg","1","","","","","","","","","","","","","","","","","","","","","","","","",""
"null","","html-keyboard-response","194","1702589","0.0-194.0","A1UZN21EAN1HZ4","<p style=""font-size: 48px;"">+</p>","","","","","null","allTrialResponses","500","1","21","img_art/6.jpg","-25","Bird, new plant life? Does not appeal to me.","Margaret,Nicole,Shelby,Julia,Bailey,Alexandra","reminds me of a happy edgar allen poe poem,8,100,20","The colors and rough brush strokes make me nervous,-10,20,20","I dont feel much of a responce or connection to this one,0,240,20","this is too simple for me,-34,40,20","Not my favorite, but I like the empty vibe and the imagination it invokes. A skinny girl with long legs, perhaps, looking over a cliff,9,360,20","this is interesting and unique,11,60,20","Shelby","I dont feel much of a responce or connection to this one,0,240,20","Julia","this is too simple for me,-34,40,20","Nicole","The colors and rough brush strokes make me nervous,-10,20,20","0"
"27493","","survey-text","195","1730086","0.0-195.0-0.0","A1UZN21EAN1HZ4","","","","{""Q0"":""Somewhat odd, but grabbing.""}","","","","","","","","","","","","","","","","","","","","","","",""
"8565.600000023842","","image-slider-response","196","1738653","0.0-196.0","A1UZN21EAN1HZ4","","","","","25","","","","","","","","","","","","","","","","","","","","","",""
"null","","image-button-response","197","1743668","0.0-197.0","A1UZN21EAN1HZ4","img_art/29.jpg","null","","","","","","","","","","","","","","","","","","","","","","","","",""
"3391","","image-button-response","198","1747061","0.0-198.0","A1UZN21EAN1HZ4","img_art/29.jpg","3","","","","","","","","","","","","","","","","","","","","","","","","",""
"16772","","image-button-response","199","1763835","0.0-199.0-0.0","A1UZN21EAN1HZ4","img_art/29.jpg","2","","","","","","","","","","","","","","","","","","","","","","","","",""
"7186","","image-button-response","200","1771024","0.0-200.0-0.0","A1UZN21EAN1HZ4","img_art/29.jpg","1","","","","","","","","","","","","","","","","","","","","","","","","",""
"null","","html-keyboard-response","201","1772032","0.0-201.0","A1UZN21EAN1HZ4","<p style=""font-size: 48px;"">+</p>","","","","","null","allTrialResponses","1000","1","22","img_art/29.jpg","25","Somewhat odd, but grabbing.","Caroline,Nicole,Shelby,Julia,Maria,Elizabeth","Depressing and with that big red x on it just makes me not like it.,-33,100,20","This one feels scary in a good way,30,20,20","Doesnt say much for me,0,240,20","it looks like a top-down battle arena,26,40,20","the mixed medium / collage annoys me,-19,120,20","Has a haunting feel to it,22,20,20","Julia","it looks like a top-down battle arena,26,40,20","Shelby","Doesnt say much for me,0,240,20","Nicole","This one feels scary in a good way,30,20,20","0"
"23433","","survey-text","202","1795469","0.0-202.0-0.0","A1UZN21EAN1HZ4","","","","{""Q0"":""Colorful, but uninteresting.""}","","","","","","","","","","","","","","","","","","","","","","",""
"2747.599999964237","","image-slider-response","203","1798218","0.0-203.0","A1UZN21EAN1HZ4","","","","","-21","","","","","","","","","","","","","","","","","","","","","",""
"null","","image-button-response","204","1803224","0.0-204.0","A1UZN21EAN1HZ4","img_art/27.jpg","null","","","","","","","","","","","","","","","","","","","","","","","","",""
"7831","","image-button-response","205","1811056","0.0-205.0","A1UZN21EAN1HZ4","img_art/27.jpg","4","","","","","","","","","","","","","","","","","","","","","","","","",""
"3801","","image-button-response","206","1814859","0.0-206.0-0.0","A1UZN21EAN1HZ4","img_art/27.jpg","5","","","","","","","","","","","","","","","","","","","","","","","","",""
"3944","","image-button-response","207","1818805","0.0-207.0-0.0","A1UZN21EAN1HZ4","img_art/27.jpg","0","","","","","","","","","","","","","","","","","","","","","","","","",""
"null","","html-keyboard-response","208","1819817","0.0-208.0","A1UZN21EAN1HZ4","<p style=""font-size: 48px;"">+</p>","","","","","null","allTrialResponses","1000","1","23","img_art/27.jpg","-21","Colorful, but uninteresting.","Michelle,Nicole,Shelby,Julia,Miranda,Mikayla","very abstract, I don't understand it, but I like the bright, cheerful colors,14,280,20","Very cool colors and I like the contrast of lights and darks,30,20,20","The colors in this one are wonderful,20,240,20","Colors could be more pleasing, but I really like the thinner lines superimposed over the background,25,40,20","I'm not a fan. It looks like something my nephews (1 and 2) would make,-8,320,20","It kinda reminds me of sushi.,16,300,20","Miranda","I'm not a fan. It looks like something my nephews (1 and 2) would make,-8,320,20","Mikayla","It kinda reminds me of sushi.,16,300,20","Michelle","very abstract, I don't understand it, but I like the bright, cheerful colors,14,280,20","0"
"40808","","survey-text","209","1860629","0.0-209.0-0.0","A1UZN21EAN1HZ4","","","","{""Q0"":""Okay, what is it? Keeping wanting to turn the painting upside down.""}","","","","","","","","","","","","","","","","","","","","","","",""
"79224.10000002384","","image-slider-response","210","1939854","0.0-210.0","A1UZN21EAN1HZ4","","","","","-23","","","","","","","","","","","","","","","","","","","","","",""
"3501","","image-button-response","211","1944859","0.0-211.0","A1UZN21EAN1HZ4","img_art/2.jpg","0","","","","","","","","","","","","","","","","","","","","","","","","",""
"725","","image-button-response","212","1945585","0.0-212.0","A1UZN21EAN1HZ4","img_art/2.jpg","0","","","","","","","","","","","","","","","","","","","","","","","","",""
"5187","","image-button-response","213","1950774","0.0-213.0-0.0","A1UZN21EAN1HZ4","img_art/2.jpg","4","","","","","","","","","","","","","","","","","","","","","","","","",""
"3156","","image-button-response","214","1953932","0.0-214.0-0.0","A1UZN21EAN1HZ4","img_art/2.jpg","4","","","","","","","","","","","","","","","","","","","","","","","","",""
"908","","image-button-response","215","1961554","0.0-214.1-0.1","A1UZN21EAN1HZ4","img_art/2.jpg","2","","","","","","","","","","","","","","","","","","","","","","","","",""
"null","","html-keyboard-response","216","1962562","0.0-215.0","A1UZN21EAN1HZ4","<p style=""font-size: 48px;"">+</p>","","","","","null","allTrialResponses","1000","1","24","img_art/2.jpg","-23","Okay, what is it? Keeping wanting to turn the painting upside down.","Michelle,Kimberly,Brooke,Cheyenne,Miranda,Mikayla","Don't like the puke green color and also too abstact,-14,280,20","I like the green,13,260,20","Ugly version of that park painting.,-31,60,20","Colors mix nicely.,5,200,20","I don't really like this but at the same time it's cute. It looks like a little monster kid.,-9,320,20","I love the colors in this.,29,300,20","Michelle","Don't like the puke green color and also too abstact,-14,280,20","Miranda","I don't really like this but at the same time it's cute. It looks like a little monster kid.,-9,320,20","Brooke","Ugly version of that park painting.,-31,60,20","2"
"123162","","survey-text","217","2085729","0.0-216.0-0.0","A1UZN21EAN1HZ4","","","","{""Q0"":""I feel nothing, too boring.""}","","","","","","","","","","","","","","","","","","","","","","",""
"5023.900000035763","","image-slider-response","218","2090755","0.0-217.0","A1UZN21EAN1HZ4","","","","","-32","","","","","","","","","","","","","","","","","","","","","",""
"4997","","image-button-response","219","2095758","0.0-218.0","A1UZN21EAN1HZ4","img_art/14.jpg","0","","","","","","","","","","","","","","","","","","","","","","","","",""
"2135","","image-button-response","220","2097894","0.0-219.0","A1UZN21EAN1HZ4","img_art/14.jpg","0","","","","","","","","","","","","","","","","","","","","","","","","",""
"2874","","image-button-response","221","2100769","0.0-220.0-0.0","A1UZN21EAN1HZ4","img_art/14.jpg","4","","","","","","","","","","","","","","","","","","","","","","","","",""
"3686","","image-button-response","222","2104458","0.0-221.0-0.0","A1UZN21EAN1HZ4","img_art/14.jpg","5","","","","","","","","","","","","","","","","","","","","","","","","",""
"null","","html-keyboard-response","223","2105965","0.0-222.0","A1UZN21EAN1HZ4","<p style=""font-size: 48px;"">+</p>","","","","","null","allTrialResponses","1500","1","25","img_art/14.jpg","-32","I feel nothing, too boring.","Michelle,Tiffany,Brooke,Lindsey,Miranda,Brianna","Too abstract with annoying little details. Just draw a regular tree already,-6,280,20","I feel uncomfortable looking at this painting, it is a mess that needs to be cleaned up.,-16,360,20","cotton candy skies. pretty.,35,60,20","Warm, positive, growth.,8,400,20","This just looks like a kids watercolor painting.,-30,320,20","It uses interesting techniques on this picture, but I have no feelings for or against.,1,20,20","Michelle","Too abstract with annoying little details. Just draw a regular tree already,-6,280,20","Miranda","This just looks like a kids watercolor painting.,-30,320,20","Brianna","It uses interesting techniques on this picture, but I have no feelings for or against.,1,20,20","2"
"8674","","survey-text","224","2114647","0.0-223.0-0.0","A1UZN21EAN1HZ4","","","","{""Q0"":""table""}","","","","","","","","","","","","","","","","","","","","","","",""
"21864","","survey-text","225","2136512","0.0-224.0-0.0","A1UZN21EAN1HZ4","","","","{""Q0"":""Not sure what is being depicted, but I like the colors.""}","","","","","","","","","","","","","","","","","","","","","","",""
"2482.600000023842","","image-slider-response","226","2138996","0.0-225.0","A1UZN21EAN1HZ4","","","","","28","","","","","","","","","","","","","","","","","","","","","",""
"null","","image-button-response","227","2144012","0.0-226.0","A1UZN21EAN1HZ4","img_art/20.jpg","null","","","","","","","","","","","","","","","","","","","","","","","","",""
"2221","","image-button-response","228","2146235","0.0-227.0","A1UZN21EAN1HZ4","img_art/20.jpg","2","","","","","","","","","","","","","","","","","","","","","","","","",""
"7610","","image-button-response","229","2153847","0.0-228.0-0.0","A1UZN21EAN1HZ4","img_art/20.jpg","4","","","","","","","","","","","","","","","","","","","","","","","","",""
"2605","","image-button-response","230","2156454","0.0-229.0-0.0","A1UZN21EAN1HZ4","img_art/20.jpg","3","","","","","","","","","","","","","","","","","","","","","","","","",""
"null","","html-keyboard-response","231","2157958","0.0-230.0","A1UZN21EAN1HZ4","<p style=""font-size: 48px;"">+</p>","","","","","null","allTrialResponses","1500","1","26","img_art/20.jpg","28","Not sure what is being depicted, but I like the colors.","Michelle,Natalie,Jessica,Sydney,Miranda,Brianna","Reminds me of Dali for some reason, whom I don't like,-7,280,20","I like the detail on it, although I get a sad vibe to it,19,400,20","It looks painted really nicely.,5,400,20","I love the color choice.,25,320,20","A painting within a painting, the inner painting looks like a car crash with a semi truck.,21,320,20","It looks like a motorcycle and I like cars and motorcycles,30,20,20","Jessica","It looks painted really nicely.,5,400,20","Miranda","A painting within a painting, the inner painting looks like a car crash with a semi truck.,21,320,20","Sydney","I love the color choice.,25,320,20","2"
"17277","","survey-text","232","2175239","0.0-231.0-0.0","A1UZN21EAN1HZ4","","","","{""Q0"":""Twisted pretzel? Too simple.""}","","","","","","","","","","","","","","","","","","","","","","",""
"2752.699999988079","","image-slider-response","233","2177993","0.0-232.0","A1UZN21EAN1HZ4","","","","","-35","","","","","","","","","","","","","","","","","","","","","",""
"2026","","image-button-response","234","2182995","0.0-233.0","A1UZN21EAN1HZ4","img_art/4.jpg","0","","","","","","","","","","","","","","","","","","","","","","","","",""
"726","","image-button-response","235","2183722","0.0-234.0","A1UZN21EAN1HZ4","img_art/4.jpg","1","","","","","","","","","","","","","","","","","","","","","","","","",""
"1658","","image-button-response","236","2185382","0.0-235.0-0.0","A1UZN21EAN1HZ4","img_art/4.jpg","0","","","","","","","","","","","","","","","","","","","","","","","","",""
"3648","","image-button-response","237","2189031","0.0-236.0-0.0","A1UZN21EAN1HZ4","img_art/4.jpg","2","","","","","","","","","","","","","","","","","","","","","","","","",""
"null","","html-keyboard-response","238","2189532","0.0-237.0","A1UZN21EAN1HZ4","<p style=""font-size: 48px;"">+</p>","","","","","null","allTrialResponses","500","1","27","img_art/4.jpg","-35","Twisted pretzel? Too simple.","Emily,Kristen,Jessica,Sydney,Miranda,Jamie","Looks like a child did it.,-42,40,20","stresses me out, uncomfortable,-18,280,20","Looks like they just smothered on some paint and called it a day.,-17,400,20","This piece catches my eye, but it's strange to me.,10,320,20","I just don't understand this one at all, I do not like it,-43,320,20","Mustard yellow doesn't do it for me,-25,320,20","Kristen","stresses me out, uncomfortable,-18,280,20","Emily","Looks like a child did it.,-42,40,20","Jessica","Looks like they just smothered on some paint and called it a day.,-17,400,20","2"
"32926","","survey-text","239","2222464","0.0-238.0-0.0","A1UZN21EAN1HZ4","","","","{""Q0"":""Too much going on, looks a man is trying to break out of the painting.""}","","","","","","","","","","","","","","","","","","","","","","",""
"3268.199999988079","","image-slider-response","240","2225733","0.0-239.0","A1UZN21EAN1HZ4","","","","","-18","","","","","","","","","","","","","","","","","","","","","",""
"null","","image-button-response","241","2230745","0.0-240.0","A1UZN21EAN1HZ4","img_art/1.jpg","null","","","","","","","","","","","","","","","","","","","","","","","","",""
"1040","","image-button-response","242","2231787","0.0-241.0","A1UZN21EAN1HZ4","img_art/1.jpg","2","","","","","","","","","","","","","","","","","","","","","","","","",""
"2741","","image-button-response","243","2234530","0.0-242.0-0.0","A1UZN21EAN1HZ4","img_art/1.jpg","3","","","","","","","","","","","","","","","","","","","","","","","","",""
"5357","","image-button-response","244","2239890","0.0-243.0-0.0","A1UZN21EAN1HZ4","img_art/1.jpg","5","","","","","","","","","","","","","","","","","","","","","","","","",""
"null","","html-keyboard-response","245","2240895","0.0-244.0","A1UZN21EAN1HZ4","<p style=""font-size: 48px;"">+</p>","","","","","null","allTrialResponses","1000","1","28","img_art/1.jpg","-18","Too much going on, looks a man is trying to break out of the painting.","Emily,Kristen,Jessica,Andrea,Amber,Kylie","Just a mess though a better mess than some others.,-11,40,20","river, fall, cozy, warm,12,280,20","Looks like the same thing as the last piece shown to me,10,400,20","It just doesn't speak to me.,0,240,20","Really like all of the colors and how they mesh well.,27,200,20","I don't know how I feel about this,1,300,20","Jessica","Looks like the same thing as the last piece shown to me,10,400,20","Andrea","It just doesn't speak to me.,0,240,20","Kylie","I don't know how I feel about this,1,300,20","2"
"25468","","survey-text","246","2266367","0.0-245.0-0.0","A1UZN21EAN1HZ4","","","","{""Q0"":""A little creepy. Childlike collage.""}","","","","","","","","","","","","","","","","","","","","","","",""
"2101.5","","image-slider-response","247","2268470","0.0-246.0","A1UZN21EAN1HZ4","","","","","-31","","","","","","","","","","","","","","","","","","","","","",""
"3842","","image-button-response","248","2273472","0.0-247.0","A1UZN21EAN1HZ4","img_art/16.jpg","1","","","","","","","","","","","","","","","","","","","","","","","","",""
"696","","image-button-response","249","2274170","0.0-248.0","A1UZN21EAN1HZ4","img_art/16.jpg","1","","","","","","","","","","","","","","","","","","","","","","","","",""
"5051","","image-button-response","250","2279223","0.0-249.0-0.0","A1UZN21EAN1HZ4","img_art/16.jpg","4","","","","","","","","","","","","","","","","","","","","","","","","",""
"16885","","image-button-response","251","2296109","0.0-250.0-0.0","A1UZN21EAN1HZ4","img_art/16.jpg","3","","","","","","","","","","","","","","","","","","","","","","","","",""
"null","","html-keyboard-response","252","2296621","0.0-251.0","A1UZN21EAN1HZ4","<p style=""font-size: 48px;"">+</p>","","","","","null","allTrialResponses","500","1","29","img_art/16.jpg","-31","A little creepy. Childlike collage.","Kaylee,Angela,Jessica,Andrea,Kaitlin,Kylie","cool teddy bear,50,200,20","Hate this, especially the jarring contrast of the super realistic teddybear face.,-50,260,20","Cool but the bear creeps me out?,8,400,20","I think it's about child abuse. The teddy bear represents innocence and the dark shape is approaching it.,40,240,20","The teddy bear looks really scared,-30,60,20","Mixed feelings. Warm and comfy yet somewhat violent. A stark contrast,0,300,20","Angela","Hate this, especially the jarring contrast of the super realistic teddybear face.,-50,260,20","Kaitlin","The teddy bear looks really scared,-30,60,20","Andrea","I think it's about child abuse. The teddy bear represents innocence and the dark shape is approaching it.,40,240,20","2"
"37340","","survey-text","253","2333966","0.0-252.0-0.0","A1UZN21EAN1HZ4","","","","{""Q0"":""Leopard or cheetah spots with a rollercoaster? Nope.""}","","","","","","","","","","","","","","","","","","","","","","",""
"3573.099999964237","","image-slider-response","254","2337541","0.0-253.0","A1UZN21EAN1HZ4","","","","","-37","","","","","","","","","","","","","","","","","","","","","",""
"null","","image-button-response","255","2342547","0.0-254.0","A1UZN21EAN1HZ4","img_art/10.jpg","null","","","","","","","","","","","","","","","","","","","","","","","","",""
"3026","","image-button-response","256","2345575","0.0-255.0","A1UZN21EAN1HZ4","img_art/10.jpg","5","","","","","","","","","","","","","","","","","","","","","","","","",""
"13211","","image-button-response","257","2358788","0.0-256.0-0.0","A1UZN21EAN1HZ4","img_art/10.jpg","2","","","","","","","","","","","","","","","","","","","","","","","","",""
"2738","","image-button-response","258","2361528","0.0-257.0-0.0","A1UZN21EAN1HZ4","img_art/10.jpg","1","","","","","","","","","","","","","","","","","","","","","","","","",""
"null","","html-keyboard-response","259","2363037","0.0-258.0","A1UZN21EAN1HZ4","<p style=""font-size: 48px;"">+</p>","","","","","null","allTrialResponses","1500","1","30","img_art/10.jpg","-37","Leopard or cheetah spots with a rollercoaster? Nope.","Erika,Angela,Haley,Andrea,Kaitlin,Briana","Good texture, expressive,18,100,20","This makes me think of a city, specifically London.,20,260,20","Makes me want to know more about it, and potentially the artist.,20,220,20","Kraken, and I love it.,39,240,20","awww... this looks very nice,32,60,20","It confuses me. I dont know whats going on,14,400,20","Briana","It confuses me. I dont know whats going on,14,400,20","Haley","Makes me want to know more about it, and potentially the artist.,20,220,20","Angela","This makes me think of a city, specifically London.,20,260,20","2"
"4723","","image-button-response_instructions","260","2367766","0.0-259.0","A1UZN21EAN1HZ4","","0","instructions","","","","","","","","","","","","","","","","","","","","","","","",""
"1405","","image-button-response","261","2369175","0.0-260.0","A1UZN21EAN1HZ4","","0","","","","","","","","","","","","","","","","","","","","","","","","",""
