"rt","url","trial_type","trial_index","time_elapsed","internal_node_id","participant_id","stimulus","button_pressed","Name","responses","response","key_press","variableName","fixationTime","condition","trial","photo","subjectRating","subjectResponse","agentsNames","agent_1_Response","agent_2_Response","agent_3_Response","agent_4_Response","agent_5_Response","agent_6_Response","kept_1_name","kept_1_response","kept_2_name","kept_2_response","kept_3_name","kept_3_response","errorCounter"
"16408","external_page_harvard.html","external-html","0","16521","0.0-0.0","A1VE6VNQJO0U88","","","","","","","","","","","","","","","","","","","","","","","","","","",""
"2683","","image-button-response","1","19219","0.0-1.0","A1VE6VNQJO0U88","","1","","","","","","","","","","","","","","","","","","","","","","","","",""
"3304","","image-button-response","2","22539","0.0-2.0-0.0","A1VE6VNQJO0U88","","1","phone","","","","","","","","","","","","","","","","","","","","","","","",""
"10280","","survey-text","3","32819","0.0-3.0-0.0","A1VE6VNQJO0U88","","","","{""Q0"":""A1VE6VNQJO0U88""}","","","","","","","","","","","","","","","","","","","","","","",""
"25218","","image-button-response_instructions","4","58037","0.0-4.0","A1VE6VNQJO0U88","","0","instructions","","","","","","","","","","","","","","","","","","","","","","","",""
"52878","","image-button-response_instructions","5","110915","0.0-5.0","A1VE6VNQJO0U88","img_art/ins/popularity/ins1.png","0","instructions","","","","","","","","","","","","","","","","","","","","","","","",""
"11977","","image-button-response_instructions","6","122892","0.0-6.0","A1VE6VNQJO0U88","img_art/ins/popularity/ins2.png","0","instructions","","","","","","","","","","","","","","","","","","","","","","","",""
"10353","","image-button-response_instructions","7","133245","0.0-7.0","A1VE6VNQJO0U88","img_art/ins/popularity/ins2Extreme.png","0","instructions","","","","","","","","","","","","","","","","","","","","","","","",""
"12284","","image-button-response_instructions","8","145529","0.0-8.0","A1VE6VNQJO0U88","img_art/ins/popularity/ins3KEEPpop.PNG","0","instructions","","","","","","","","","","","","","","","","","","","","","","","",""
"9903","","image-button-response_instructions","9","155432","0.0-9.0","A1VE6VNQJO0U88","img_art/ins/popularity/ins3ANamepop.PNG","0","instructions","","","","","","","","","","","","","","","","","","","","","","","",""
"8345","","image-button-response_instructions","10","163777","0.0-10.0","A1VE6VNQJO0U88","img_art/ins/popularity/ins3ARatingpop.png","0","instructions","","","","","","","","","","","","","","","","","","","","","","","",""
"6186","","image-button-response_instructions","11","169979","0.0-11.0","A1VE6VNQJO0U88","img_art/ins/popularity/ins3ATextpop.png","0","instructions","","","","","","","","","","","","","","","","","","","","","","","",""
"15947","","image-button-response_instructions","12","185926","0.0-12.0","A1VE6VNQJO0U88","img_art/ins/popularity/ins3ALikespop.png","0","instructions","","","","","","","","","","","","","","","","","","","","","","","",""
"39136","","image-button-response_instructions","13","225062","0.0-13.0","A1VE6VNQJO0U88","img_art/ins/popularity/ins3KEEPpop.PNG","0","instructions","","","","","","","","","","","","","","","","","","","","","","","",""
"30601","","image-button-response_instructions","14","255663","0.0-14.0","A1VE6VNQJO0U88","img_art/ins/popularity/ins3_5RED.png","0","instructions","","","","","","","","","","","","","","","","","","","","","","","",""
"19947","","image-button-response_instructions","15","275610","0.0-15.0","A1VE6VNQJO0U88","img_art/ins/popularity/ins3KEEPpop.PNG","0","instructions","","","","","","","","","","","","","","","","","","","","","","","",""
"40014","","image-button-response_instructions","16","315624","0.0-16.0","A1VE6VNQJO0U88","img_art/ins/popularity/ins4KEEPpop.PNG","0","instructions","","","","","","","","","","","","","","","","","","","","","","","",""
"25031","","image-button-response_instructions","17","340655","0.0-17.0","A1VE6VNQJO0U88","img_art/ins/popularity/ins5KEEPpop.PNG","0","instructions","","","","","","","","","","","","","","","","","","","","","","","",""
"3703","","image-button-response_instructions","18","344358","0.0-18.0","A1VE6VNQJO0U88","","0","instructions","","","","","","","","","","","","","","","","","","","","","","","",""
"20481","","survey-text","19","364890","0.0-19.0-0.0","A1VE6VNQJO0U88","","","","{""Q0"":""but""}","","","","","","","","","","","","","","","","","","","","","","",""
"22182","","survey-text","20","387087","0.0-20.0-0.0","A1VE6VNQJO0U88","","","","{""Q0"":""too confusing and redundant""}","","","","","","","","","","","","","","","","","","","","","","",""
"27182","","image-slider-response","21","414269","0.0-21.0","A1VE6VNQJO0U88","","","","","-45","","","","","","","","","","","","","","","","","","","","","",""
"3551","","image-button-response","22","419279","0.0-22.0","A1VE6VNQJO0U88","img_art/ins/1.jpg","1","","","","","","","","","","","","","","","","","","","","","","","","",""
"18736","","image-button-response","23","438018","0.0-23.0","A1VE6VNQJO0U88","img_art/ins/1.jpg","3","","","","","","","","","","","","","","","","","","","","","","","","",""
"4151","","image-button-response","24","442201","0.0-24.0-0.0","A1VE6VNQJO0U88","img_art/ins/1.jpg","1","","","","","","","","","","","","","","","","","","","","","","","","",""
"25802","","image-button-response","25","468003","0.0-25.0-0.0","A1VE6VNQJO0U88","img_art/ins/1.jpg","2","","","","","","","","","","","","","","","","","","","","","","","","",""
"null","","html-keyboard-response","26","468504","0.0-26.0","A1VE6VNQJO0U88","<p style=""font-size: 48px;"">+</p>","","","","","null","allTrialResponses","500","1","-2","img_art/ins/1.jpg","-45","too confusing and redundant","Allison,Ashley,Beth,Dora,Erika,Jen","looks like a lot of things going on in the mist,20,20,20","I just don't get why these type of art would be popular,-32,40,20","This color reminds me of poo,-46,60,20","looks like what my niece in 3rd grade did this afternoon,-50,80,20","I like the sophisticated brushwork,40,100,20","It reminds me of a candy land dream I had,36,120,20","Dora","looks like what my niece in 3rd grade did this afternoon,-50,80,20","Ashley","I just don't get why these type of art would be popular,-32,40,20","Beth","This color reminds me of poo,-46,60,20","0"
"31095","","survey-text","27","499599","0.0-27.0-0.0","A1VE6VNQJO0U88","","","","{""Q0"":""the artist had trouble focusing""}","","","","","","","","","","","","","","","","","","","","","","",""
"19451","","image-slider-response","28","519050","0.0-28.0","A1VE6VNQJO0U88","","","","","-50","","","","","","","","","","","","","","","","","","","","","",""
"4995","","image-button-response","29","524060","0.0-29.0","A1VE6VNQJO0U88","img_art/ins/2.jpg","2","","","","","","","","","","","","","","","","","","","","","","","","",""
"4573","","image-button-response","30","528633","0.0-30.0","A1VE6VNQJO0U88","img_art/ins/2.jpg","1","","","","","","","","","","","","","","","","","","","","","","","","",""
"2134","","image-button-response","31","530767","0.0-31.0-0.0","A1VE6VNQJO0U88","img_art/ins/2.jpg","2","","","","","","","","","","","","","","","","","","","","","","","","",""
"15263","","image-button-response","32","546046","0.0-32.0-0.0","A1VE6VNQJO0U88","img_art/ins/2.jpg","0","","","","","","","","","","","","","","","","","","","","","","","","",""
"null","","html-keyboard-response","33","547546","0.0-33.0","A1VE6VNQJO0U88","<p style=""font-size: 48px;"">+</p>","","","","","null","allTrialResponses","1500","1","-1","img_art/ins/2.jpg","-50","the artist had trouble focusing","Jenna,Ashley,Beth,Dora,Kara,Katie","One of my pet peevs,-48,140,20","Idk, it is just annoying,-32,40,20","meaningless painting,-45,60,20","looks too angry,-50,80,20","I like the blocks of color arrangements,30,160,20","too much color!,-28,180,20","Ashley","Idk, it is just annoying,-32,40,20","Beth","meaningless painting,-45,60,20","Jenna","One of my pet peevs,-48,140,20","0"
"31531","","survey-text","34","579083","0.0-34.0-0.0","A1VE6VNQJO0U88","","","","{""Q0"":""might work in an ink=blotch test""}","","","","","","","","","","","","","","","","","","","","","","",""
"9013","","image-slider-response","35","588096","0.0-35.0","A1VE6VNQJO0U88","","","","","-50","","","","","","","","","","","","","","","","","","","","","",""
"3084","","image-button-response","36","593118","0.0-36.0","A1VE6VNQJO0U88","img_art/ins/3.jpg","1","","","","","","","","","","","","","","","","","","","","","","","","",""
"2730","","image-button-response","37","595848","0.0-37.0","A1VE6VNQJO0U88","img_art/ins/3.jpg","2","","","","","","","","","","","","","","","","","","","","","","","","",""
"1649","","image-button-response","38","597513","0.0-38.0-0.0","A1VE6VNQJO0U88","img_art/ins/3.jpg","1","","","","","","","","","","","","","","","","","","","","","","","","",""
"11184","","image-button-response","39","608728","0.0-39.0-0.0","A1VE6VNQJO0U88","img_art/ins/3.jpg","0","","","","","","","","","","","","","","","","","","","","","","","","",""
"null","","html-keyboard-response","40","609228","0.0-40.0","A1VE6VNQJO0U88","<p style=""font-size: 48px;"">+</p>","","","","","null","allTrialResponses","500","1","0","img_art/ins/3.jpg","-50","might work in an ink=blotch test","Jenna,Ashley,Beth,Leslie,Mary,Rose","looks like a murder room,-35,140,20","It looks like a playground for bats,-36,40,20","This thing gives me anxiety,-41,60,20","It's an alright work,15,200,20","I like the overlapping of brushes,41,220,20","My daily routine, it's depressing,-20,240,20","Beth","This thing gives me anxiety,-41,60,20","Ashley","It looks like a playground for bats,-36,40,20","Jenna","looks like a murder room,-35,140,20","0"
"9345","","image-button-response_instructions","41","618579","0.0-41.0","A1VE6VNQJO0U88","","0","instructions","","","","","","","","","","","","","","","","","","","","","","","",""
"33854","","survey-likert","42","652448","0.0-42.0-0.0","A1VE6VNQJO0U88","","","","{""Q0"":"""",""Q1"":0,""Q2"":1}","","","","","","","","","","","","","","","","","","","","","","",""
"9248","","survey-text","43","661711","0.0-43.0-0.0","A1VE6VNQJO0U88","","","","{""Q0"":""rock""}","","","","","","","","","","","","","","","","","","","","","","",""
"33198","","survey-text","44","694909","0.0-44.0-0.0","A1VE6VNQJO0U88","","","","{""Q0"":""looks bare-bones effort""}","","","","","","","","","","","","","","","","","","","","","","",""
"13167","","image-slider-response","45","708076","0.0-45.0","A1VE6VNQJO0U88","","","","","-48","","","","","","","","","","","","","","","","","","","","","",""
"3011","","image-button-response","46","713131","0.0-46.0","A1VE6VNQJO0U88","img_art/26.jpg","1","","","","","","","","","","","","","","","","","","","","","","","","",""
"1380","","image-button-response","47","714511","0.0-47.0","A1VE6VNQJO0U88","img_art/26.jpg","1","","","","","","","","","","","","","","","","","","","","","","","","",""
"1466","","image-button-response","48","715977","0.0-48.0-0.0","A1VE6VNQJO0U88","img_art/26.jpg","0","","","","","","","","","","","","","","","","","","","","","","","","",""
"1305","","image-button-response","49","717282","0.0-49.0-0.0","A1VE6VNQJO0U88","img_art/26.jpg","0","","","","","","","","","","","","","","","","","","","","","","","","",""
"7493","","image-button-response","50","733208","0.0-49.1-0.1","A1VE6VNQJO0U88","img_art/26.jpg","0","","","","","","","","","","","","","","","","","","","","","","","","",""
"1523","","image-button-response","51","738606","0.0-49.2-0.2","A1VE6VNQJO0U88","img_art/26.jpg","0","","","","","","","","","","","","","","","","","","","","","","","","",""
"4803","","image-button-response","52","746574","0.0-49.3-0.3","A1VE6VNQJO0U88","img_art/26.jpg","4","","","","","","","","","","","","","","","","","","","","","","","","",""
"null","","html-keyboard-response","53","747084","0.0-50.0","A1VE6VNQJO0U88","<p style=""font-size: 48px;"">+</p>","","","","","null","allTrialResponses","500","1","1","img_art/26.jpg","-48","looks bare-bones effort","Alexa,Bailey,Amanda,Crystal,Kaitlyn,Molly","Looks messy and like it was painted by a small child,-48,40,20","Too blocky and unfocused. It's like the inside of a house, and the outside.,-24,360,20","Pleasant to look at,28,180,20","Do not like water colors at all,-50,300,20","The colors look faded and blurry,2,80,20","Nothing to say.,0,340,20","Bailey","Too blocky and unfocused. It's like the inside of a house, and the outside.,-24,360,20","Alexa","Looks messy and like it was painted by a small child,-48,40,20","Kaitlyn","The colors look faded and blurry,2,80,20","6"
"35604","","survey-text","54","782688","0.0-51.0-0.0","A1VE6VNQJO0U88","","","","{""Q0"":""chaotic dream""}","","","","","","","","","","","","","","","","","","","","","","",""
"8867","","image-slider-response","55","791555","0.0-52.0","A1VE6VNQJO0U88","","","","","-42","","","","","","","","","","","","","","","","","","","","","",""
"null","","image-button-response","56","796569","0.0-53.0","A1VE6VNQJO0U88","img_art/8.jpg","null","","","","","","","","","","","","","","","","","","","","","","","","",""
"1503","","image-button-response","57","798072","0.0-54.0","A1VE6VNQJO0U88","img_art/8.jpg","1","","","","","","","","","","","","","","","","","","","","","","","","",""
"6934","","image-button-response","58","805006","0.0-55.0-0.0","A1VE6VNQJO0U88","img_art/8.jpg","2","","","","","","","","","","","","","","","","","","","","","","","","",""
"13481","","image-button-response","59","818487","0.0-56.0-0.0","A1VE6VNQJO0U88","img_art/8.jpg","3","","","","","","","","","","","","","","","","","","","","","","","","",""
"null","","html-keyboard-response","60","819003","0.0-57.0","A1VE6VNQJO0U88","<p style=""font-size: 48px;"">+</p>","","","","","null","allTrialResponses","500","1","2","img_art/8.jpg","-42","chaotic dream","Alexa,Bailey,Kylie,Hannah,Kaitlyn,Melissa","It's simply gorgeous. This artist is very talented,50,40,20","Not a fan of abstract looking pieces with too many focal points. The tunnel and face, for example,-31,360,20","Very abstract and seems symbolic,45,300,20","I don't understand it. Makes no sense to me.,5,240,20","There are a lot of different interesting elements in the picture.,12,80,20","crisp shapes, find more things the longer you look,17,240,20","Bailey","Not a fan of abstract looking pieces with too many focal points. The tunnel and face, for example,-31,360,20","Kylie","Very abstract and seems symbolic,45,300,20","Hannah","I don't understand it. Makes no sense to me.,5,240,20","6"
"27834","","survey-text","61","846842","0.0-58.0-0.0","A1VE6VNQJO0U88","","","","{""Q0"":""maybe worms dancing""}","","","","","","","","","","","","","","","","","","","","","","",""
"6643","","image-slider-response","62","853485","0.0-59.0","A1VE6VNQJO0U88","","","","","-42","","","","","","","","","","","","","","","","","","","","","",""
"null","","image-button-response","63","858485","0.0-60.0","A1VE6VNQJO0U88","img_art/30.jpg","null","","","","","","","","","","","","","","","","","","","","","","","","",""
"3398","","image-button-response","64","861885","0.0-61.0","A1VE6VNQJO0U88","img_art/30.jpg","2","","","","","","","","","","","","","","","","","","","","","","","","",""
"6503","","image-button-response","65","868388","0.0-62.0-0.0","A1VE6VNQJO0U88","img_art/30.jpg","4","","","","","","","","","","","","","","","","","","","","","","","","",""
"29263","","image-button-response","66","897651","0.0-63.0-0.0","A1VE6VNQJO0U88","img_art/30.jpg","0","","","","","","","","","","","","","","","","","","","","","","","","",""
"null","","html-keyboard-response","67","898151","0.0-64.0","A1VE6VNQJO0U88","<p style=""font-size: 48px;"">+</p>","","","","","null","allTrialResponses","500","1","3","img_art/30.jpg","-42","maybe worms dancing","Danielle,Bailey,Kylie,Hannah,Kelsey,Mackenzie","It's okay. It should either have stuck to the grey-blue, or added more red. Seems unorganized (maybe that's the point?),-9,340,20","No my favorite, but I do like the long strokes of color,11,360,20","I can't figure this out,25,300,20","It's just all right.,5,240,20","dont like this much at all,-30,240,20","I like the forefront design.,10,20,20","Kylie","I can't figure this out,25,300,20","Kelsey","dont like this much at all,-30,240,20","Danielle","It's okay. It should either have stuck to the grey-blue, or added more red. Seems unorganized (maybe that's the point?),-9,340,20","6"
"34525","","survey-text","68","932682","0.0-65.0-0.0","A1VE6VNQJO0U88","","","","{""Q0"":""nothing here""}","","","","","","","","","","","","","","","","","","","","","","",""
"5816","","image-slider-response","69","938498","0.0-66.0","A1VE6VNQJO0U88","","","","","-50","","","","","","","","","","","","","","","","","","","","","",""
"null","","image-button-response","70","943513","0.0-67.0","A1VE6VNQJO0U88","img_art/17.jpg","null","","","","","","","","","","","","","","","","","","","","","","","","",""
"13655","","image-button-response","71","957170","0.0-68.0","A1VE6VNQJO0U88","img_art/17.jpg","0","","","","","","","","","","","","","","","","","","","","","","","","",""
"5464","","image-button-response","72","962665","0.0-69.0-0.0","A1VE6VNQJO0U88","img_art/17.jpg","1","","","","","","","","","","","","","","","","","","","","","","","","",""
"1983","","image-button-response","73","964648","0.0-70.0-0.0","A1VE6VNQJO0U88","img_art/17.jpg","0","","","","","","","","","","","","","","","","","","","","","","","","",""
"8212","","image-button-response","74","982983","0.0-70.1-0.1","A1VE6VNQJO0U88","img_art/17.jpg","4","","","","","","","","","","","","","","","","","","","","","","","","",""
"null","","html-keyboard-response","75","983486","0.0-71.0","A1VE6VNQJO0U88","<p style=""font-size: 48px;"">+</p>","","","","","null","allTrialResponses","500","1","4","img_art/17.jpg","-50","nothing here","Danielle,Olivia,Kylie,Paige,Kelsey,Heather","It's alright, nothing I particularly like but it's just fine,-10,340,20","muted tones brings me down,-13,40,20","Looks like an explosion of pretty artwork,45,300,20","very pretty. Makes me happy,45,60,20","this ones alright,10,240,20","Beautiful simply beautiful. i would love this,,50,260,20","Danielle","It's alright, nothing I particularly like but it's just fine,-10,340,20","Olivia","muted tones brings me down,-13,40,20","Kelsey","this ones alright,10,240,20","8"
"22677","","survey-text","76","1006179","0.0-72.0-0.0","A1VE6VNQJO0U88","","","","{""Q0"":""won the weird contest""}","","","","","","","","","","","","","","","","","","","","","","",""
"6084","","image-slider-response","77","1012263","0.0-73.0","A1VE6VNQJO0U88","","","","","-50","","","","","","","","","","","","","","","","","","","","","",""
"null","","image-button-response","78","1017263","0.0-74.0","A1VE6VNQJO0U88","img_art/4.jpg","null","","","","","","","","","","","","","","","","","","","","","","","","",""
"1798","","image-button-response","79","1019063","0.0-75.0","A1VE6VNQJO0U88","img_art/4.jpg","2","","","","","","","","","","","","","","","","","","","","","","","","",""
"5418","","image-button-response","80","1024481","0.0-76.0-0.0","A1VE6VNQJO0U88","img_art/4.jpg","4","","","","","","","","","","","","","","","","","","","","","","","","",""
"3684","","image-button-response","81","1028165","0.0-77.0-0.0","A1VE6VNQJO0U88","img_art/4.jpg","5","","","","","","","","","","","","","","","","","","","","","","","","",""
"null","","html-keyboard-response","82","1029667","0.0-78.0","A1VE6VNQJO0U88","<p style=""font-size: 48px;"">+</p>","","","","","null","allTrialResponses","1500","1","5","img_art/4.jpg","-50","won the weird contest","Danielle,Olivia,Jessica,Sarah,Kelsey,Brooke","Not my preference when it comes to art styles or subjects,-10,340,20","The muted tones,-11,40,20","Looks like they just smothered on some paint and called it a day.,-17,400,20","too many red/yellow shades, its impact without a reason,-27,180,20","this is terrible,-49,240,20","Looks like the roomba got into dog poop,-30,60,20","Jessica","Looks like they just smothered on some paint and called it a day.,-17,400,20","Kelsey","this is terrible,-49,240,20","Brooke","Looks like the roomba got into dog poop,-30,60,20","8"
"6132","","survey-text","83","1035799","0.0-79.0-0.0","A1VE6VNQJO0U88","","","","{""Q0"":""sky""}","","","","","","","","","","","","","","","","","","","","","","",""
"20546","","survey-text","84","1056345","0.0-80.0-0.0","A1VE6VNQJO0U88","","","","{""Q0"":""needs to go back to art school""}","","","","","","","","","","","","","","","","","","","","","","",""
"8848","","image-slider-response","85","1065193","0.0-81.0","A1VE6VNQJO0U88","","","","","-50","","","","","","","","","","","","","","","","","","","","","",""
"3769","","image-button-response","86","1070201","0.0-82.0","A1VE6VNQJO0U88","img_art/5.jpg","1","","","","","","","","","","","","","","","","","","","","","","","","",""
"2112","","image-button-response","87","1072313","0.0-83.0","A1VE6VNQJO0U88","img_art/5.jpg","0","","","","","","","","","","","","","","","","","","","","","","","","",""
"2317","","image-button-response","88","1074630","0.0-84.0-0.0","A1VE6VNQJO0U88","img_art/5.jpg","0","","","","","","","","","","","","","","","","","","","","","","","","",""
"1661","","image-button-response","89","1079596","0.0-84.1-0.1","A1VE6VNQJO0U88","img_art/5.jpg","1","","","","","","","","","","","","","","","","","","","","","","","","",""
"4900","","image-button-response","90","1084496","0.0-85.0-0.0","A1VE6VNQJO0U88","img_art/5.jpg","2","","","","","","","","","","","","","","","","","","","","","","","","",""
"null","","html-keyboard-response","91","1085012","0.0-86.0","A1VE6VNQJO0U88","<p style=""font-size: 48px;"">+</p>","","","","","null","allTrialResponses","500","1","6","img_art/5.jpg","-50","needs to go back to art school","Marissa,Sydney,Jessica,Morgan,Kelsey,Brooke","I am confused as to what I am seeing is it a handbag, duck foot, bell?,-18,160,20","I'm reminded of a volcano with weird colors.,-5,320,20","Don't really know the point of this one.,-11,400,20","Dull pyramid that says nothing.,7,380,20","too abstract, looks like a pyramid,-22,240,20","No. What even is this? A mop?,-35,60,20","Marissa","I am confused as to what I am seeing is it a handbag, duck foot, bell?,-18,160,20","Sydney","I'm reminded of a volcano with weird colors.,-5,320,20","Jessica","Don't really know the point of this one.,-11,400,20","10"
"15691","","survey-text","92","1100709","0.0-87.0-0.0","A1VE6VNQJO0U88","","","","{""Q0"":""artist probably on something""}","","","","","","","","","","","","","","","","","","","","","","",""
"4585","","image-slider-response","93","1105294","0.0-88.0","A1VE6VNQJO0U88","","","","","-50","","","","","","","","","","","","","","","","","","","","","",""
"null","","image-button-response","94","1110295","0.0-89.0","A1VE6VNQJO0U88","img_art/3.jpg","null","","","","","","","","","","","","","","","","","","","","","","","","",""
"3347","","image-button-response","95","1113644","0.0-90.0","A1VE6VNQJO0U88","img_art/3.jpg","2","","","","","","","","","","","","","","","","","","","","","","","","",""
"5814","","image-button-response","96","1119458","0.0-91.0-0.0","A1VE6VNQJO0U88","img_art/3.jpg","3","","","","","","","","","","","","","","","","","","","","","","","","",""
"13752","","image-button-response","97","1133210","0.0-92.0-0.0","A1VE6VNQJO0U88","img_art/3.jpg","0","","","","","","","","","","","","","","","","","","","","","","","","",""
"null","","html-keyboard-response","98","1134726","0.0-93.0","A1VE6VNQJO0U88","<p style=""font-size: 48px;"">+</p>","","","","","null","allTrialResponses","1500","1","7","img_art/3.jpg","-50","artist probably on something","Marissa,Sydney,Jessica,Jennifer,Rachel,Laura","It feels like a half assed and failed imitation of Japanese signatures on old paintings,-22,160,20","This piece makes me think it has a backstory or a reason which I like.,5,320,20","Don't get the scribbles.,-13,400,20","This looks like something a child created in 5 minutes.,-50,380,20","Too red and chaotic. Not calming.,-41,80,20","wild scribbling, freedom, expression,40,320,20","Jessica","Don't get the scribbles.,-13,400,20","Jennifer","This looks like something a child created in 5 minutes.,-50,380,20","Marissa","It feels like a half assed and failed imitation of Japanese signatures on old paintings,-22,160,20","10"
"20877","","survey-text","99","1155625","0.0-94.0-0.0","A1VE6VNQJO0U88","","","","{""Q0"":""what happened here?""}","","","","","","","","","","","","","","","","","","","","","","",""
"6132","","image-slider-response","100","1161756","0.0-95.0","A1VE6VNQJO0U88","","","","","-48","","","","","","","","","","","","","","","","","","","","","",""
"3666","","image-button-response","101","1166756","0.0-96.0","A1VE6VNQJO0U88","img_art/14.jpg","1","","","","","","","","","","","","","","","","","","","","","","","","",""
"12966","","image-button-response","102","1179725","0.0-97.0","A1VE6VNQJO0U88","img_art/14.jpg","4","","","","","","","","","","","","","","","","","","","","","","","","",""
"7917","","image-button-response","103","1187642","0.0-98.0-0.0","A1VE6VNQJO0U88","img_art/14.jpg","3","","","","","","","","","","","","","","","","","","","","","","","","",""
"7216","","image-button-response","104","1194858","0.0-99.0-0.0","A1VE6VNQJO0U88","img_art/14.jpg","1","","","","","","","","","","","","","","","","","","","","","","","","",""
"null","","html-keyboard-response","105","1195358","0.0-100.0","A1VE6VNQJO0U88","<p style=""font-size: 48px;"">+</p>","","","","","null","allTrialResponses","500","1","8","img_art/14.jpg","-48","what happened here?","Marissa,Tiffany,Jessica,Jennifer,Alicia,Courtney","I like the sharpness of the lines,20,160,20","I feel uncomfortable looking at this painting, it is a mess that needs to be cleaned up.,-16,360,20","I kind of like it!,6,400,20","This piece is average compared to the others.,1,380,20","ok, gloomy though.,12,120,20","The pirates ship is sinking.,27,280,20","Alicia","ok, gloomy though.,12,120,20","Jennifer","This piece is average compared to the others.,1,380,20","Tiffany","I feel uncomfortable looking at this painting, it is a mess that needs to be cleaned up.,-16,360,20","10"
"40340","","survey-text","106","1235704","0.0-101.0-0.0","A1VE6VNQJO0U88","","","","{""Q0"":""donate it right away""}","","","","","","","","","","","","","","","","","","","","","","",""
"4885","","image-slider-response","107","1240589","0.0-102.0","A1VE6VNQJO0U88","","","","","-49","","","","","","","","","","","","","","","","","","","","","",""
"2549","","image-button-response","108","1245613","0.0-103.0","A1VE6VNQJO0U88","img_art/29.jpg","1","","","","","","","","","","","","","","","","","","","","","","","","",""
"3127","","image-button-response","109","1248756","0.0-104.0","A1VE6VNQJO0U88","img_art/29.jpg","1","","","","","","","","","","","","","","","","","","","","","","","","",""
"4051","","image-button-response","110","1252807","0.0-105.0-0.0","A1VE6VNQJO0U88","img_art/29.jpg","2","","","","","","","","","","","","","","","","","","","","","","","","",""
"4231","","image-button-response","111","1257054","0.0-106.0-0.0","A1VE6VNQJO0U88","img_art/29.jpg","5","","","","","","","","","","","","","","","","","","","","","","","","",""
"null","","html-keyboard-response","112","1258061","0.0-107.0","A1VE6VNQJO0U88","<p style=""font-size: 48px;"">+</p>","","","","","null","allTrialResponses","1000","1","9","img_art/29.jpg","-49","donate it right away","Sierra,Tiffany,Abigail,Jennifer,Alicia,Margaret","not digging the paintbrush,1,260,20","I feel a little disgust. There is something off-putting about the smooth shapes and dark colors.,-43,360,20","Messy and disorganized, to odark,-31,20,20","Very interesting composition,41,380,20","easy, too abstract for me, don't get it.,-25,120,20","this does nothing for me. hate the colors. hate the design,-50,100,20","Tiffany","I feel a little disgust. There is something off-putting about the smooth shapes and dark colors.,-43,360,20","Abigail","Messy and disorganized, to odark,-31,20,20","Margaret","this does nothing for me. hate the colors. hate the design,-50,100,20","10"
"20191","","survey-text","113","1278252","0.0-108.0-0.0","A1VE6VNQJO0U88","","","","{""Q0"":""artist needs new glasses""}","","","","","","","","","","","","","","","","","","","","","","",""
"4883","","image-slider-response","114","1283134","0.0-109.0","A1VE6VNQJO0U88","","","","","-49","","","","","","","","","","","","","","","","","","","","","",""
"null","","image-button-response","115","1288148","0.0-110.0","A1VE6VNQJO0U88","img_art/1.jpg","null","","","","","","","","","","","","","","","","","","","","","","","","",""
"9319","","image-button-response","116","1297470","0.0-111.0","A1VE6VNQJO0U88","img_art/1.jpg","5","","","","","","","","","","","","","","","","","","","","","","","","",""
"16481","","image-button-response","117","1313951","0.0-112.0-0.0","A1VE6VNQJO0U88","img_art/1.jpg","2","","","","","","","","","","","","","","","","","","","","","","","","",""
"9601","","image-button-response","118","1323567","0.0-113.0-0.0","A1VE6VNQJO0U88","img_art/1.jpg","4","","","","","","","","","","","","","","","","","","","","","","","","",""
"null","","html-keyboard-response","119","1325086","0.0-114.0","A1VE6VNQJO0U88","<p style=""font-size: 48px;"">+</p>","","","","","null","allTrialResponses","1500","1","10","img_art/1.jpg","-49","artist needs new glasses","Elizabeth,Tiffany,Abigail,Kayla,Shannon,Margaret","Absolutely love this painting,50,20,20","I feel relaxed, like I'm watching the leaves change color.,17,360,20","I like the warmth of the picture,21,20,20","Happy! Reminds me of hiking in tennesee.,18,180,20","I think that this picture has nice colors and its pleasing to the eyes.,20,220,20","basic reminds me of something a school would have on the wall,-7,100,20","Margaret","basic reminds me of something a school would have on the wall,-7,100,20","Abigail","I like the warmth of the picture,21,20,20","Shannon","I think that this picture has nice colors and its pleasing to the eyes.,20,220,20","10"
"5813","","survey-text","120","1330899","0.0-115.0-0.0","A1VE6VNQJO0U88","","","","{""Q0"":""our""}","","","","","","","","","","","","","","","","","","","","","","",""
"21001","","survey-text","121","1351900","0.0-116.0-0.0","A1VE6VNQJO0U88","","","","{""Q0"":""would work for holloween""}","","","","","","","","","","","","","","","","","","","","","","",""
"5616","","image-slider-response","122","1357516","0.0-117.0","A1VE6VNQJO0U88","","","","","-47","","","","","","","","","","","","","","","","","","","","","",""
"null","","image-button-response","123","1362516","0.0-118.0","A1VE6VNQJO0U88","img_art/25.jpg","null","","","","","","","","","","","","","","","","","","","","","","","","",""
"3434","","image-button-response","124","1365968","0.0-119.0","A1VE6VNQJO0U88","img_art/25.jpg","3","","","","","","","","","","","","","","","","","","","","","","","","",""
"7017","","image-button-response","125","1373001","0.0-120.0-0.0","A1VE6VNQJO0U88","img_art/25.jpg","2","","","","","","","","","","","","","","","","","","","","","","","","",""
"18078","","image-button-response","126","1391079","0.0-121.0-0.0","A1VE6VNQJO0U88","img_art/25.jpg","1","","","","","","","","","","","","","","","","","","","","","","","","",""
"null","","html-keyboard-response","127","1392580","0.0-122.0","A1VE6VNQJO0U88","<p style=""font-size: 48px;"">+</p>","","","","","null","allTrialResponses","1500","1","11","img_art/25.jpg","-47","would work for holloween","Destiny,Gabrielle,Abigail,Chelsea,Shannon,Margaret","creeeeeppyyyyyyy but mad cool,-26,360,20","interesting pattern and color choice, kind of unusual,2,160,20","This is creepy and I dont like it,-28,20,20","The color and image are unsettling.,-29,180,20","I like the way the persons clothes look, there could be more color though.,10,220,20","love the color and the contrast of the black on teal,50,100,20","Chelsea","The color and image are unsettling.,-29,180,20","Abigail","This is creepy and I dont like it,-28,20,20","Gabrielle","interesting pattern and color choice, kind of unusual,2,160,20","10"
"28684","","survey-text","128","1421264","0.0-123.0-0.0","A1VE6VNQJO0U88","","","","{""Q0"":""why be sane when you can be crazy?""}","","","","","","","","","","","","","","","","","","","","","","",""
"5814","","image-slider-response","129","1427078","0.0-124.0","A1VE6VNQJO0U88","","","","","-50","","","","","","","","","","","","","","","","","","","","","",""
"null","","image-button-response","130","1432078","0.0-125.0","A1VE6VNQJO0U88","img_art/2.jpg","null","","","","","","","","","","","","","","","","","","","","","","","","",""
"1352","","image-button-response","131","1433432","0.0-126.0","A1VE6VNQJO0U88","img_art/2.jpg","0","","","","","","","","","","","","","","","","","","","","","","","","",""
"23230","","image-button-response","132","1456662","0.0-127.0-0.0","A1VE6VNQJO0U88","img_art/2.jpg","1","","","","","","","","","","","","","","","","","","","","","","","","",""
"1853","","image-button-response","133","1458515","0.0-128.0-0.0","A1VE6VNQJO0U88","img_art/2.jpg","2","","","","","","","","","","","","","","","","","","","","","","","","",""
"null","","html-keyboard-response","134","1459015","0.0-129.0","A1VE6VNQJO0U88","<p style=""font-size: 48px;"">+</p>","","","","","null","allTrialResponses","500","1","12","img_art/2.jpg","-50","why be sane when you can be crazy?","Brittany,Gabrielle,Abigail,Chelsea,Monica,Brianna","This one feels rather flat and not engaging.,-15,40,20","doctor's office art work, nice colors and not offensive,23,160,20","Reminds me of my baby brother,11,20,20","Not sure what is happening. I'm not a big fan of the colors but they don't bother me either.,1,180,20","I like the blue color in the center but that's it, the green is a gross color,-3,360,20","The only parts I like is the light blue, red and black. The green color isn't very flattering.,11,20,20","Brittany","This one feels rather flat and not engaging.,-15,40,20","Gabrielle","doctor's office art work, nice colors and not offensive,23,160,20","Abigail","Reminds me of my baby brother,11,20,20","10"
"29070","","survey-text","135","1488091","0.0-130.0-0.0","A1VE6VNQJO0U88","","","","{""Q0"":""another rouge style""}","","","","","","","","","","","","","","","","","","","","","","",""
"6769","","image-slider-response","136","1494876","0.0-131.0","A1VE6VNQJO0U88","","","","","-50","","","","","","","","","","","","","","","","","","","","","",""
"null","","image-button-response","137","1499885","0.0-132.0","A1VE6VNQJO0U88","img_art/19.jpg","null","","","","","","","","","","","","","","","","","","","","","","","","",""
"2160","","image-button-response","138","1502045","0.0-133.0","A1VE6VNQJO0U88","img_art/19.jpg","0","","","","","","","","","","","","","","","","","","","","","","","","",""
"12055","","image-button-response","139","1514100","0.0-134.0-0.0","A1VE6VNQJO0U88","img_art/19.jpg","4","","","","","","","","","","","","","","","","","","","","","","","","",""
"8911","","image-button-response","140","1523011","0.0-135.0-0.0","A1VE6VNQJO0U88","img_art/19.jpg","2","","","","","","","","","","","","","","","","","","","","","","","","",""
"null","","html-keyboard-response","141","1524011","0.0-136.0","A1VE6VNQJO0U88","<p style=""font-size: 48px;"">+</p>","","","","","null","allTrialResponses","1000","1","13","img_art/19.jpg","-50","another rouge style","Brittany,Gabrielle,Abigail,Nicole,Kristen,Mariah","It looks too much of a rough sketch. Don't really enjoy looking at it.,-9,40,20","not professional looking but not bad either,13,160,20","I dont like the gray shadows, ruins it,-7,20,20","Feels like something I would hang in my dining room,42,20,20","city, stress of urbanism, slightly panicked,2,280,20","I like the watercolor and colors, do not like the deconstructed city scene feel.,0,140,20","Brittany","It looks too much of a rough sketch. Don't really enjoy looking at it.,-9,40,20","Kristen","city, stress of urbanism, slightly panicked,2,280,20","Abigail","I dont like the gray shadows, ruins it,-7,20,20","10"
"41391","","survey-text","142","1565409","0.0-137.0-0.0","A1VE6VNQJO0U88","","","","{""Q0"":""could be the work of an angry AI""}","","","","","","","","","","","","","","","","","","","","","","",""
"5316","","image-slider-response","143","1570740","0.0-138.0","A1VE6VNQJO0U88","","","","","-49","","","","","","","","","","","","","","","","","","","","","",""
"null","","image-button-response","144","1575746","0.0-139.0","A1VE6VNQJO0U88","img_art/20.jpg","null","","","","","","","","","","","","","","","","","","","","","","","","",""
"6612","","image-button-response","145","1582374","0.0-140.0","A1VE6VNQJO0U88","img_art/20.jpg","4","","","","","","","","","","","","","","","","","","","","","","","","",""
"3630","","image-button-response","146","1586004","0.0-141.0-0.0","A1VE6VNQJO0U88","img_art/20.jpg","5","","","","","","","","","","","","","","","","","","","","","","","","",""
"16456","","image-button-response","147","1602460","0.0-142.0-0.0","A1VE6VNQJO0U88","img_art/20.jpg","3","","","","","","","","","","","","","","","","","","","","","","","","",""
"null","","html-keyboard-response","148","1603960","0.0-143.0","A1VE6VNQJO0U88","<p style=""font-size: 48px;"">+</p>","","","","","null","allTrialResponses","1500","1","14","img_art/20.jpg","-49","could be the work of an angry AI","Brittany,Lindsey,Abigail,Anna,Kristen,Kathryn","The colors and the scene depicted is interesting.,13,40,20","Not sure what it is. The colors are pleasant; makes me want to figure it out. An animal skull in the desert?,10,400,20","A mountain vacation,46,20,20","I would like it more without the frame.,10,300,20","danger, car crash, stressful,-12,280,20","This looks like a ruin of what was once a thriving city.,-9,140,20","Kristen","danger, car crash, stressful,-12,280,20","Kathryn","This looks like a ruin of what was once a thriving city.,-9,140,20","Anna","I would like it more without the frame.,10,300,20","10"
"33885","","survey-text","149","1637852","0.0-144.0-0.0","A1VE6VNQJO0U88","","","","{""Q0"":""No more alcohol for this guy""}","","","","","","","","","","","","","","","","","","","","","","",""
"5551","","image-slider-response","150","1643403","0.0-145.0","A1VE6VNQJO0U88","","","","","-50","","","","","","","","","","","","","","","","","","","","","",""
"null","","image-button-response","151","1648405","0.0-146.0","A1VE6VNQJO0U88","img_art/10.jpg","null","","","","","","","","","","","","","","","","","","","","","","","","",""
"3084","","image-button-response","152","1651489","0.0-147.0","A1VE6VNQJO0U88","img_art/10.jpg","2","","","","","","","","","","","","","","","","","","","","","","","","",""
"22764","","image-button-response","153","1674269","0.0-148.0-0.0","A1VE6VNQJO0U88","img_art/10.jpg","0","","","","","","","","","","","","","","","","","","","","","","","","",""
"11934","","image-button-response","154","1686203","0.0-149.0-0.0","A1VE6VNQJO0U88","img_art/10.jpg","1","","","","","","","","","","","","","","","","","","","","","","","","",""
"null","","html-keyboard-response","155","1686718","0.0-150.0","A1VE6VNQJO0U88","<p style=""font-size: 48px;"">+</p>","","","","","null","allTrialResponses","500","1","15","img_art/10.jpg","-50","No more alcohol for this guy","Jamie,Madison,Briana,Anna,Kristen,Kathryn","Well done designs for being considered abstract,45,320,20","In proper lighting I might enjoy this,11,60,20","It confuses me. I dont know whats going on,14,400,20","I like how simple but intricate it is.,30,300,20","music, serenity, love,33,280,20","This piece makes me think of music. The music is dark; I like dark music so it edges toward good.,10,140,20","Briana","It confuses me. I dont know whats going on,14,400,20","Jamie","Well done designs for being considered abstract,45,320,20","Madison","In proper lighting I might enjoy this,11,60,20","10"
"7704","","survey-text","156","1694437","0.0-151.0-0.0","A1VE6VNQJO0U88","","","","{""Q0"":""course""}","","","","","","","","","","","","","","","","","","","","","","",""
"72797","","survey-text","157","1767234","0.0-152.0-0.0","A1VE6VNQJO0U88","","","","{""Q0"":""looks like artist threw colors over their shoulder""}","","","","","","","","","","","","","","","","","","","","","","",""
"6282","","image-slider-response","158","1773516","0.0-153.0","A1VE6VNQJO0U88","","","","","-49","","","","","","","","","","","","","","","","","","","","","",""
"null","","image-button-response","159","1778529","0.0-154.0","A1VE6VNQJO0U88","img_art/27.jpg","null","","","","","","","","","","","","","","","","","","","","","","","","",""
"6388","","image-button-response","160","1784917","0.0-155.0","A1VE6VNQJO0U88","img_art/27.jpg","2","","","","","","","","","","","","","","","","","","","","","","","","",""
"3762","","image-button-response","161","1788679","0.0-156.0-0.0","A1VE6VNQJO0U88","img_art/27.jpg","5","","","","","","","","","","","","","","","","","","","","","","","","",""
"5769","","image-button-response","162","1794464","0.0-157.0-0.0","A1VE6VNQJO0U88","img_art/27.jpg","0","","","","","","","","","","","","","","","","","","","","","","","","",""
"null","","html-keyboard-response","163","1795464","0.0-158.0","A1VE6VNQJO0U88","<p style=""font-size: 48px;"">+</p>","","","","","null","allTrialResponses","1000","1","16","img_art/27.jpg","-49","looks like artist threw colors over their shoulder","Jamie,Madison,Briana,Ashley,Hailey,Sophia","Don't like the mix of green with the warmer colors,-15,320,20","The photographing is horribly distracting. I would feel more favorable toward the original colors/ brightness,1,60,20","Unfinished something?,-30,400,20","Lots of activity, layers, imagination at work here.,29,320,20","fruity and sweet. warm and juicy,10,200,20","Yikes. I think I made this in kindergarten.,-20,280,20","Briana","Unfinished something?,-30,400,20","Sophia","Yikes. I think I made this in kindergarten.,-20,280,20","Jamie","Don't like the mix of green with the warmer colors,-15,320,20","10"
"31044","","survey-text","164","1826515","0.0-159.0-0.0","A1VE6VNQJO0U88","","","","{""Q0"":""this would make sense to someone mad""}","","","","","","","","","","","","","","","","","","","","","","",""
"6815","","image-slider-response","165","1833330","0.0-160.0","A1VE6VNQJO0U88","","","","","-50","","","","","","","","","","","","","","","","","","","","","",""
"3999","","image-button-response","166","1838338","0.0-161.0","A1VE6VNQJO0U88","img_art/12.jpg","1","","","","","","","","","","","","","","","","","","","","","","","","",""
"3274","","image-button-response","167","1841612","0.0-162.0","A1VE6VNQJO0U88","img_art/12.jpg","3","","","","","","","","","","","","","","","","","","","","","","","","",""
"7484","","image-button-response","168","1849096","0.0-163.0-0.0","A1VE6VNQJO0U88","img_art/12.jpg","5","","","","","","","","","","","","","","","","","","","","","","","","",""
"6784","","image-button-response","169","1855895","0.0-164.0-0.0","A1VE6VNQJO0U88","img_art/12.jpg","1","","","","","","","","","","","","","","","","","","","","","","","","",""
"null","","html-keyboard-response","170","1857406","0.0-165.0","A1VE6VNQJO0U88","<p style=""font-size: 48px;"">+</p>","","","","","null","allTrialResponses","1500","1","17","img_art/12.jpg","-50","this would make sense to someone mad","Jamie,Lauren,Briana,Cheyenne,Diana,Sophia","Black and white contrast with color looks nice,15,320,20","This doesn't invoke anything. Just a mosaic of random images.,0,340,20","Interesting colors. I really dont like modern art though,24,400,20","Comes off as a bit boring.,-11,200,20","This is beautiful. It looks like 1,000 different sunrises and sunsets.,44,380,20","Good technique. It's just not my thing.,2,280,20","Cheyenne","Comes off as a bit boring.,-11,200,20","Sophia","Good technique. It's just not my thing.,2,280,20","Lauren","This doesn't invoke anything. Just a mosaic of random images.,0,340,20","10"
"39663","","survey-text","171","1897076","0.0-166.0-0.0","A1VE6VNQJO0U88","","","","{""Q0"":""scenes from a nightmare""}","","","","","","","","","","","","","","","","","","","","","","",""
"5217","","image-slider-response","172","1902293","0.0-167.0","A1VE6VNQJO0U88","","","","","-50","","","","","","","","","","","","","","","","","","","","","",""
"null","","image-button-response","173","1907306","0.0-168.0","A1VE6VNQJO0U88","img_art/9.jpg","null","","","","","","","","","","","","","","","","","","","","","","","","",""
"3904","","image-button-response","174","1911210","0.0-169.0","A1VE6VNQJO0U88","img_art/9.jpg","3","","","","","","","","","","","","","","","","","","","","","","","","",""
"2599","","image-button-response","175","1913809","0.0-170.0-0.0","A1VE6VNQJO0U88","img_art/9.jpg","4","","","","","","","","","","","","","","","","","","","","","","","","",""
"2364","","image-button-response","176","1916173","0.0-171.0-0.0","A1VE6VNQJO0U88","img_art/9.jpg","5","","","","","","","","","","","","","","","","","","","","","","","","",""
"null","","html-keyboard-response","177","1916682","0.0-172.0","A1VE6VNQJO0U88","<p style=""font-size: 48px;"">+</p>","","","","","null","allTrialResponses","500","1","18","img_art/9.jpg","-50","scenes from a nightmare","Catherine,Lauren,Jenna,Cheyenne,Allison,Sophia","Cozy, In her own world. feminine .,30,160,20","I like how design can be interpreted differently, I see a person sleeping or a mountainous region.,10,340,20","gorgeous colors, love the little details,42,360,20","Too much going on, don't know what the focus is,-11,200,20","Very eclectic and messy. Not my preference, but may work for some.,-20,140,20","Yikes. I'm not sure what to make of this one.,-14,280,20","Cheyenne","Too much going on, don't know what the focus is,-11,200,20","Allison","Very eclectic and messy. Not my preference, but may work for some.,-20,140,20","Sophia","Yikes. I'm not sure what to make of this one.,-14,280,20","10"
"30165","","survey-text","178","1946847","0.0-173.0-0.0","A1VE6VNQJO0U88","","","","{""Q0"":""Gets a C for effort""}","","","","","","","","","","","","","","","","","","","","","","",""
"10176","","image-slider-response","179","1957023","0.0-174.0","A1VE6VNQJO0U88","","","","","-30","","","","","","","","","","","","","","","","","","","","","",""
"null","","image-button-response","180","1962026","0.0-175.0","A1VE6VNQJO0U88","img_art/24.jpg","null","","","","","","","","","","","","","","","","","","","","","","","","",""
"3279","","image-button-response","181","1965305","0.0-176.0","A1VE6VNQJO0U88","img_art/24.jpg","1","","","","","","","","","","","","","","","","","","","","","","","","",""
"4706","","image-button-response","182","1970026","0.0-177.0-0.0","A1VE6VNQJO0U88","img_art/24.jpg","0","","","","","","","","","","","","","","","","","","","","","","","","",""
"3563","","image-button-response","183","1973592","0.0-178.0-0.0","A1VE6VNQJO0U88","img_art/24.jpg","4","","","","","","","","","","","","","","","","","","","","","","","","",""
"null","","html-keyboard-response","184","1974592","0.0-179.0","A1VE6VNQJO0U88","<p style=""font-size: 48px;"">+</p>","","","","","null","allTrialResponses","1000","1","19","img_art/24.jpg","-30","Gets a C for effort","Vanessa,Cassidy,Gabriela,Cheyenne,Allison,Sophia","I love the colors, but I wish the water was less abstract.,17,380,20","I don't even know. It's just kind of meh,1,140,20","I love how bold and vibrant the colors are,40,140,20","I like how the colors mix in this one.,20,200,20","I appreciate the earth tones. Soothing.,5,140,20","Hmm. Don't know what to make of this one.,1,280,20","Cassidy","I don't even know. It's just kind of meh,1,140,20","Vanessa","I love the colors, but I wish the water was less abstract.,17,380,20","Allison","I appreciate the earth tones. Soothing.,5,140,20","10"
"40653","","survey-text","185","2015252","0.0-180.0-0.0","A1VE6VNQJO0U88","","","","{""Q0"":""didn't take his meds today""}","","","","","","","","","","","","","","","","","","","","","","",""
"7288","","image-slider-response","186","2022540","0.0-181.0","A1VE6VNQJO0U88","","","","","-47","","","","","","","","","","","","","","","","","","","","","",""
"4746","","image-button-response","187","2027549","0.0-182.0","A1VE6VNQJO0U88","img_art/13.jpg","3","","","","","","","","","","","","","","","","","","","","","","","","",""
"19656","","image-button-response","188","2047221","0.0-183.0","A1VE6VNQJO0U88","img_art/13.jpg","3","","","","","","","","","","","","","","","","","","","","","","","","",""
"4868","","image-button-response","189","2052089","0.0-184.0-0.0","A1VE6VNQJO0U88","img_art/13.jpg","4","","","","","","","","","","","","","","","","","","","","","","","","",""
"13733","","image-button-response","190","2065822","0.0-185.0-0.0","A1VE6VNQJO0U88","img_art/13.jpg","2","","","","","","","","","","","","","","","","","","","","","","","","",""
"null","","html-keyboard-response","191","2067322","0.0-186.0","A1VE6VNQJO0U88","<p style=""font-size: 48px;"">+</p>","","","","","null","allTrialResponses","1500","1","20","img_art/13.jpg","-47","didn't take his meds today","Vanessa,Cassidy,Madeline,Julia,Allison,Christina","I love the colors and the contrast between the different blues.,21,380,20","Great color balance. I like the splatter, and how the vertical lines go from sharper to more blended.,31,140,20","Really love the colors,11,40,20","I don't really care for splatter paintings; the spectral colors underneath are nice.,-18,40,20","Generic mix of colors. Cool and messy.,10,140,20","i like the colors but it looks like something that would hang in a hotel,18,240,20","Julia","I don't really care for splatter paintings; the spectral colors underneath are nice.,-18,40,20","Allison","Generic mix of colors. Cool and messy.,10,140,20","Madeline","Really love the colors,11,40,20","10"
"5704","","survey-text","192","2073041","0.0-187.0-0.0","A1VE6VNQJO0U88","","","","{""Q0"":""we""}","","","","","","","","","","","","","","","","","","","","","","",""
"42178","","survey-text","193","2115219","0.0-188.0-0.0","A1VE6VNQJO0U88","","","","{""Q0"":""isn't something I could live with""}","","","","","","","","","","","","","","","","","","","","","","",""
"6198","","image-slider-response","194","2121417","0.0-189.0","A1VE6VNQJO0U88","","","","","-43","","","","","","","","","","","","","","","","","","","","","",""
"null","","image-button-response","195","2126443","0.0-190.0","A1VE6VNQJO0U88","img_art/11.jpg","null","","","","","","","","","","","","","","","","","","","","","","","","",""
"1341","","image-button-response","196","2127784","0.0-191.0","A1VE6VNQJO0U88","img_art/11.jpg","3","","","","","","","","","","","","","","","","","","","","","","","","",""
"13601","","image-button-response","197","2141385","0.0-192.0-0.0","A1VE6VNQJO0U88","img_art/11.jpg","5","","","","","","","","","","","","","","","","","","","","","","","","",""
"13328","","image-button-response","198","2154713","0.0-193.0-0.0","A1VE6VNQJO0U88","img_art/11.jpg","0","","","","","","","","","","","","","","","","","","","","","","","","",""
"null","","html-keyboard-response","199","2155222","0.0-194.0","A1VE6VNQJO0U88","<p style=""font-size: 48px;"">+</p>","","","","","null","allTrialResponses","500","1","21","img_art/11.jpg","-43","isn't something I could live with","Maria,Haley,Madeline,Julia,Allison,Leah","I enjoy the kandinsky-like general vibe, but the grey brings me down a bit,27,120,20","Lovely. I could look at this for a really long time. I love the details and the composition.,40,220,20","I like the vibe of the painting,-3,40,20","this looks like a beautiful rainy day in a hellish urban mountain city,14,40,20","Kind of reminds me of DNA.,9,140,20","Even with the colors, it is dreary to me,-32,360,20","Julia","this looks like a beautiful rainy day in a hellish urban mountain city,14,40,20","Leah","Even with the colors, it is dreary to me,-32,360,20","Maria","I enjoy the kandinsky-like general vibe, but the grey brings me down a bit,27,120,20","10"
"117655","","survey-text","200","2272893","0.0-195.0-0.0","A1VE6VNQJO0U88","","","","{""Q0"":""this would work if figures were more defined""}","","","","","","","","","","","","","","","","","","","","","","",""
"6172","","image-slider-response","201","2279065","0.0-196.0","A1VE6VNQJO0U88","","","","","-21","","","","","","","","","","","","","","","","","","","","","",""
"null","","image-button-response","202","2284073","0.0-197.0","A1VE6VNQJO0U88","img_art/23.jpg","null","","","","","","","","","","","","","","","","","","","","","","","","",""
"4936","","image-button-response","203","2289009","0.0-198.0","A1VE6VNQJO0U88","img_art/23.jpg","2","","","","","","","","","","","","","","","","","","","","","","","","",""
"4388","","image-button-response","204","2293397","0.0-199.0-0.0","A1VE6VNQJO0U88","img_art/23.jpg","3","","","","","","","","","","","","","","","","","","","","","","","","",""
"17814","","image-button-response","205","2311211","0.0-200.0-0.0","A1VE6VNQJO0U88","img_art/23.jpg","5","","","","","","","","","","","","","","","","","","","","","","","","",""
"null","","html-keyboard-response","206","2312211","0.0-201.0","A1VE6VNQJO0U88","<p style=""font-size: 48px;"">+</p>","","","","","null","allTrialResponses","1000","1","22","img_art/23.jpg","-21","this would work if figures were more defined","Maria,Kelly,Grace,Julia,Victoria,Leah","the pattern of colours imbues in me a sense of infinity, which I find soothing,10,120,20","Love this. I love the white, really pops with the colors surrounding it.,44,220,20","Looks like fireworks.,21,180,20","this looks like a pop rock album cover,-10,40,20","enjoy the colors,23,400,20","Interesting, want to look at it more to identify,25,360,20","Grace","Looks like fireworks.,21,180,20","Julia","this looks like a pop rock album cover,-10,40,20","Leah","Interesting, want to look at it more to identify,25,360,20","10"
"38854","","survey-text","207","2351073","0.0-202.0-0.0","A1VE6VNQJO0U88","","","","{""Q0"":""painted while having an upset stomach""}","","","","","","","","","","","","","","","","","","","","","","",""
"7304","","image-slider-response","208","2358377","0.0-203.0","A1VE6VNQJO0U88","","","","","-48","","","","","","","","","","","","","","","","","","","","","",""
"3484","","image-button-response","209","2363393","0.0-204.0","A1VE6VNQJO0U88","img_art/28.jpg","0","","","","","","","","","","","","","","","","","","","","","","","","",""
"6665","","image-button-response","210","2370061","0.0-205.0","A1VE6VNQJO0U88","img_art/28.jpg","3","","","","","","","","","","","","","","","","","","","","","","","","",""
"3167","","image-button-response","211","2373228","0.0-206.0-0.0","A1VE6VNQJO0U88","img_art/28.jpg","4","","","","","","","","","","","","","","","","","","","","","","","","",""
"5062","","image-button-response","212","2378290","0.0-207.0-0.0","A1VE6VNQJO0U88","img_art/28.jpg","5","","","","","","","","","","","","","","","","","","","","","","","","",""
"null","","html-keyboard-response","213","2379290","0.0-208.0","A1VE6VNQJO0U88","<p style=""font-size: 48px;"">+</p>","","","","","null","allTrialResponses","1000","1","23","img_art/28.jpg","-48","painted while having an upset stomach","Erin,Natalie,Grace,Julia,Katherine,Leah","Dislike color palette and amoeba,-9,120,20","it looks alright,-1,400,20","A meeting in Old Jerusalem.,11,180,20","the people kind of scare me in this one,-15,40,20","Eh it's just kinda brown and muddy and not very nice looking,-18,120,20","Too me it's a mish mash, true abstract,-37,360,20","Julia","the people kind of scare me in this one,-15,40,20","Katherine","Eh it's just kinda brown and muddy and not very nice looking,-18,120,20","Leah","Too me it's a mish mash, true abstract,-37,360,20","10"
"54375","","survey-text","214","2433673","0.0-209.0-0.0","A1VE6VNQJO0U88","","","","{""Q0"":""whatever""}","","","","","","","","","","","","","","","","","","","","","","",""
"5264","","image-slider-response","215","2438937","0.0-210.0","A1VE6VNQJO0U88","","","","","-50","","","","","","","","","","","","","","","","","","","","","",""
"null","","image-button-response","216","2443941","0.0-211.0","A1VE6VNQJO0U88","img_art/15.jpg","null","","","","","","","","","","","","","","","","","","","","","","","","",""
"2214","","image-button-response","217","2446155","0.0-212.0","A1VE6VNQJO0U88","img_art/15.jpg","2","","","","","","","","","","","","","","","","","","","","","","","","",""
"3785","","image-button-response","218","2449940","0.0-213.0-0.0","A1VE6VNQJO0U88","img_art/15.jpg","3","","","","","","","","","","","","","","","","","","","","","","","","",""
"2831","","image-button-response","219","2452787","0.0-214.0-0.0","A1VE6VNQJO0U88","img_art/15.jpg","4","","","","","","","","","","","","","","","","","","","","","","","","",""
"null","","html-keyboard-response","220","2453287","0.0-215.0","A1VE6VNQJO0U88","<p style=""font-size: 48px;"">+</p>","","","","","null","allTrialResponses","500","1","24","img_art/15.jpg","-50","whatever","Michaela,Alexandria,Emily,Julia,Katherine,Leah","Reminds me of lilacs,26,260,20","it looks like trees but they are up to interpretation,16,80,20","Looks incomplete.,-19,40,20","This is simply too ""old-school"",-27,40,20","black dots too ant-like,-25,120,20","Pretty, like in a field of poppies,19,360,20","Emily","Looks incomplete.,-19,40,20","Julia","This is simply too ""old-school"",-27,40,20","Katherine","black dots too ant-like,-25,120,20","10"
"39591","","survey-text","221","2492886","0.0-216.0-0.0","A1VE6VNQJO0U88","","","","{""Q0"":""might be a view of some planet's surface""}","","","","","","","","","","","","","","","","","","","","","","",""
"4633","","image-slider-response","222","2497519","0.0-217.0","A1VE6VNQJO0U88","","","","","-33","","","","","","","","","","","","","","","","","","","","","",""
"4433","","image-button-response","223","2502526","0.0-218.0","A1VE6VNQJO0U88","img_art/7.jpg","1","","","","","","","","","","","","","","","","","","","","","","","","",""
"3156","","image-button-response","224","2505682","0.0-219.0","A1VE6VNQJO0U88","img_art/7.jpg","2","","","","","","","","","","","","","","","","","","","","","","","","",""
"4936","","image-button-response","225","2510618","0.0-220.0-0.0","A1VE6VNQJO0U88","img_art/7.jpg","3","","","","","","","","","","","","","","","","","","","","","","","","",""
"7550","","image-button-response","226","2518168","0.0-221.0-0.0","A1VE6VNQJO0U88","img_art/7.jpg","1","","","","","","","","","","","","","","","","","","","","","","","","",""
"null","","html-keyboard-response","227","2518668","0.0-222.0","A1VE6VNQJO0U88","<p style=""font-size: 48px;"">+</p>","","","","","null","allTrialResponses","500","1","25","img_art/7.jpg","-33","might be a view of some planet's surface","Emma,Amy,Emily,Julia,Katherine,Samantha","Cool, makes me think of archeology,15,60,20","Limited emotional reaction for me. No focus and highly abstract,-20,220,20","Ugly. I don't like the colors or the scattering.,-50,40,20","I would like this more if I could pretend it was the moon.,-26,40,20","Reminds me of bugs, I hate bugs,-7,120,20","Makes me want to feel it,19,140,20","Emily","Ugly. I don't like the colors or the scattering.,-50,40,20","Julia","I would like this more if I could pretend it was the moon.,-26,40,20","Amy","Limited emotional reaction for me. No focus and highly abstract,-20,220,20","10"
"6365","","survey-text","228","2525051","0.0-223.0-0.0","A1VE6VNQJO0U88","","","","{""Q0"":""table""}","","","","","","","","","","","","","","","","","","","","","","",""
"14385","","survey-text","229","2539436","0.0-224.0-0.0","A1VE6VNQJO0U88","","","","{""Q0"":""no go""}","","","","","","","","","","","","","","","","","","","","","","",""
"22606","","survey-text","230","2568452","0.0-224.1-0.1","A1VE6VNQJO0U88","","","","{""Q0"":""too sinister""}","","","","","","","","","","","","","","","","","","","","","","",""
"8614","","image-slider-response","231","2577066","0.0-225.0","A1VE6VNQJO0U88","","","","","-50","","","","","","","","","","","","","","","","","","","","","",""
"2752","","image-button-response","232","2582066","0.0-226.0","A1VE6VNQJO0U88","img_art/16.jpg","4","","","","","","","","","","","","","","","","","","","","","","","","",""
"2497","","image-button-response","233","2584582","0.0-227.0","A1VE6VNQJO0U88","img_art/16.jpg","2","","","","","","","","","","","","","","","","","","","","","","","","",""
"2785","","image-button-response","234","2587367","0.0-228.0-0.0","A1VE6VNQJO0U88","img_art/16.jpg","1","","","","","","","","","","","","","","","","","","","","","","","","",""
"5663","","image-button-response","235","2593030","0.0-229.0-0.0","A1VE6VNQJO0U88","img_art/16.jpg","5","","","","","","","","","","","","","","","","","","","","","","","","",""
"null","","html-keyboard-response","236","2594534","0.0-230.0","A1VE6VNQJO0U88","<p style=""font-size: 48px;"">+</p>","","","","","null","allTrialResponses","1500","1","26","img_art/16.jpg","-50","too sinister","Leslie,Amy,Emily,Julia,Makayla,Mikayla","This is making me feel nervous in an enjoyable way.,20,380,20","visceral and a little disturbing.,10,220,20","Looks like a kid did itt and ti looks disturbing.,-45,40,20","I love the teddy bear,50,40,20","It's a little unsettling,2,80,20","The teddy bear is scary as hell.,-44,300,20","Emily","Looks like a kid did itt and ti looks disturbing.,-45,40,20","Amy","visceral and a little disturbing.,10,220,20","Mikayla","The teddy bear is scary as hell.,-44,300,20","10"
"27281","","survey-text","237","2621815","0.0-231.0-0.0","A1VE6VNQJO0U88","","","","{""Q0"":""this would be a hard sell""}","","","","","","","","","","","","","","","","","","","","","","",""
"8301","","image-slider-response","238","2630116","0.0-232.0","A1VE6VNQJO0U88","","","","","-50","","","","","","","","","","","","","","","","","","","","","",""
"null","","image-button-response","239","2635137","0.0-233.0","A1VE6VNQJO0U88","img_art/22.jpg","null","","","","","","","","","","","","","","","","","","","","","","","","",""
"2996","","image-button-response","240","2638133","0.0-234.0","A1VE6VNQJO0U88","img_art/22.jpg","3","","","","","","","","","","","","","","","","","","","","","","","","",""
"2915","","image-button-response","241","2641048","0.0-235.0-0.0","A1VE6VNQJO0U88","img_art/22.jpg","4","","","","","","","","","","","","","","","","","","","","","","","","",""
"18784","","image-button-response","242","2659832","0.0-236.0-0.0","A1VE6VNQJO0U88","img_art/22.jpg","2","","","","","","","","","","","","","","","","","","","","","","","","",""
"null","","html-keyboard-response","243","2661332","0.0-237.0","A1VE6VNQJO0U88","<p style=""font-size: 48px;"">+</p>","","","","","null","allTrialResponses","1500","1","27","img_art/22.jpg","-50","this would be a hard sell","Megan,Amy,Emily,Stephanie,Jacqueline,Mikayla","Organic sun spot on a flexible grid,18,200,20","I appreciate the shapes but the abundance of primary colors make it seem garrish.,-10,220,20","There is some flow and organization.,10,40,20","I don't get much of a reaction.,11,300,20","I feel like I've seen this one already.,-9,300,20","So colorful i love it!,22,300,20","Stephanie","I don't get much of a reaction.,11,300,20","Jacqueline","I feel like I've seen this one already.,-9,300,20","Emily","There is some flow and organization.,10,40,20","10"
"23637","","survey-text","244","2684979","0.0-238.0-0.0","A1VE6VNQJO0U88","","","","{""Q0"":""I wouldn't want to be here""}","","","","","","","","","","","","","","","","","","","","","","",""
"5183","","image-slider-response","245","2690178","0.0-239.0","A1VE6VNQJO0U88","","","","","-50","","","","","","","","","","","","","","","","","","","","","",""
"2784","","image-button-response","246","2695178","0.0-240.0","A1VE6VNQJO0U88","img_art/6.jpg","1","","","","","","","","","","","","","","","","","","","","","","","","",""
"734","","image-button-response","247","2695914","0.0-241.0","A1VE6VNQJO0U88","img_art/6.jpg","0","","","","","","","","","","","","","","","","","","","","","","","","",""
"1699","","image-button-response","248","2697613","0.0-242.0-0.0","A1VE6VNQJO0U88","img_art/6.jpg","1","","","","","","","","","","","","","","","","","","","","","","","","",""
"9319","","image-button-response","249","2706932","0.0-243.0-0.0","A1VE6VNQJO0U88","img_art/6.jpg","5","","","","","","","","","","","","","","","","","","","","","","","","",""
"null","","html-keyboard-response","250","2708432","0.0-244.0","A1VE6VNQJO0U88","<p style=""font-size: 48px;"">+</p>","","","","","null","allTrialResponses","1500","1","28","img_art/6.jpg","-50","I wouldn't want to be here","Rebecca,Caroline,Emily,Stephanie,Jacqueline,Kaitlin","??????? fake floating leaf? headless bird,-28,100,20","Lonely and kinda sad,-25,100,20","Looks like a kid created it.,-50,40,20","Nevermore!  A black raven sitting on a pumpkin. Halloween,-35,300,20","It's a bit bland, but looks like a bird standing.,11,300,20","This one also confuses me a bit.,-19,60,20","Rebecca","??????? fake floating leaf? headless bird,-28,100,20","Caroline","Lonely and kinda sad,-25,100,20","Kaitlin","This one also confuses me a bit.,-19,60,20","10"
"41869","","survey-text","251","2750312","0.0-245.0-0.0","A1VE6VNQJO0U88","","","","{""Q0"":""artist was able to play with light""}","","","","","","","","","","","","","","","","","","","","","","",""
"10533","","image-slider-response","252","2760845","0.0-246.0","A1VE6VNQJO0U88","","","","","17","","","","","","","","","","","","","","","","","","","","","",""
"null","","image-button-response","253","2765848","0.0-247.0","A1VE6VNQJO0U88","img_art/21.jpg","null","","","","","","","","","","","","","","","","","","","","","","","","",""
"4240","","image-button-response","254","2770090","0.0-248.0","A1VE6VNQJO0U88","img_art/21.jpg","0","","","","","","","","","","","","","","","","","","","","","","","","",""
"10635","","image-button-response","255","2780725","0.0-249.0-0.0","A1VE6VNQJO0U88","img_art/21.jpg","5","","","","","","","","","","","","","","","","","","","","","","","","",""
"3386","","image-button-response","256","2784126","0.0-250.0-0.0","A1VE6VNQJO0U88","img_art/21.jpg","4","","","","","","","","","","","","","","","","","","","","","","","","",""
"null","","html-keyboard-response","257","2785136","0.0-251.0","A1VE6VNQJO0U88","<p style=""font-size: 48px;"">+</p>","","","","","null","allTrialResponses","1000","1","29","img_art/21.jpg","17","artist was able to play with light","Rebecca,Caroline,Isabella,Shelby,Angela,Kaitlin","stormy with gold lining,0,100,20","the colors are pretty but I did not feel any thing looking at it,33,100,20","It reminds me of war, red blood and dark blue reminds me of an army,-20,280,20","Very calming and soft, makes me feel good,31,240,20","I feel like I'm looking at two different paintings mashed together in the middle.,20,260,20","waterpaint is attractive,13,60,20","Rebecca","stormy with gold lining,0,100,20","Kaitlin","waterpaint is attractive,13,60,20","Angela","I feel like I'm looking at two different paintings mashed together in the middle.,20,260,20","10"
"70051","","survey-text","258","2855187","0.0-252.0-0.0","A1VE6VNQJO0U88","","","","{""Q0"":""can't figure anything out""}","","","","","","","","","","","","","","","","","","","","","","",""
"5018","","image-slider-response","259","2860205","0.0-253.0","A1VE6VNQJO0U88","","","","","-50","","","","","","","","","","","","","","","","","","","","","",""
"null","","image-button-response","260","2865205","0.0-254.0","A1VE6VNQJO0U88","img_art/18.jpg","null","","","","","","","","","","","","","","","","","","","","","","","","",""
"2826","","image-button-response","261","2868033","0.0-255.0","A1VE6VNQJO0U88","img_art/18.jpg","2","","","","","","","","","","","","","","","","","","","","","","","","",""
"4305","","image-button-response","262","2872338","0.0-256.0-0.0","A1VE6VNQJO0U88","img_art/18.jpg","3","","","","","","","","","","","","","","","","","","","","","","","","",""
"10918","","image-button-response","263","2883272","0.0-257.0-0.0","A1VE6VNQJO0U88","img_art/18.jpg","1","","","","","","","","","","","","","","","","","","","","","","","","",""
"null","","html-keyboard-response","264","2884272","0.0-258.0","A1VE6VNQJO0U88","<p style=""font-size: 48px;"">+</p>","","","","","null","allTrialResponses","1000","1","30","img_art/18.jpg","-50","can't figure anything out","Rebecca,Kaylee,Mary,Alexis,Angela,Kaitlin","reminds me of the little prince, with the color scheme and all,16,100,20","looks like a war,22,200,20","I like the expression of this piece. The colors are very outdated though.,-5,180,20","Crusade-feel, but a little too abstract for my taste,23,100,20","like the grays and contrast of the yellow. This piece feels a bit angry,10,260,20","I really like this one - there seems to be a story behind it,32,60,20","Mary","I like the expression of this piece. The colors are very outdated though.,-5,180,20","Alexis","Crusade-feel, but a little too abstract for my taste,23,100,20","Kaylee","looks like a war,22,200,20","10"
"10738","","image-button-response_instructions","265","2895020","0.0-259.0","A1VE6VNQJO0U88","","0","instructions","","","","","","","","","","","","","","","","","","","","","","","",""
"1835","","image-button-response","266","2896855","0.0-260.0","A1VE6VNQJO0U88","","0","","","","","","","","","","","","","","","","","","","","","","","","",""
