"rt","url","trial_type","trial_index","time_elapsed","internal_node_id","participant_id","stimulus","button_pressed","Name","responses","response","key_press","variableName","fixationTime","condition","trial","photo","subjectRating","subjectResponse","agentsNames","agent_1_Response","agent_2_Response","agent_3_Response","agent_4_Response","agent_5_Response","agent_6_Response","kept_1_name","kept_1_response","kept_2_name","kept_2_response","kept_3_name","kept_3_response","errorCounter"
"5929","external_page_harvard.html","external-html","0","6066","0.0-0.0","A1VIDXC2Z3KSCJ","","","","","","","","","","","","","","","","","","","","","","","","","","",""
"1303","","image-button-response","1","7380","0.0-1.0","A1VIDXC2Z3KSCJ","","1","","","","","","","","","","","","","","","","","","","","","","","","",""
"1167","","image-button-response","2","8574","0.0-2.0-0.0","A1VIDXC2Z3KSCJ","","1","phone","","","","","","","","","","","","","","","","","","","","","","","",""
"3693","","survey-text","3","12277","0.0-3.0-0.0","A1VIDXC2Z3KSCJ","","","","{""Q0"":""A1VIDXC2Z3KSCJ""}","","","","","","","","","","","","","","","","","","","","","","",""
"5408","","image-button-response_instructions","4","17699","0.0-4.0","A1VIDXC2Z3KSCJ","","0","instructions","","","","","","","","","","","","","","","","","","","","","","","",""
"8979","","image-button-response_instructions","5","26686","0.0-5.0","A1VIDXC2Z3KSCJ","img_art/ins/popularity/ins1.png","0","instructions","","","","","","","","","","","","","","","","","","","","","","","",""
"7028","","image-button-response_instructions","6","33722","0.0-6.0","A1VIDXC2Z3KSCJ","img_art/ins/popularity/ins2.png","0","instructions","","","","","","","","","","","","","","","","","","","","","","","",""
"5379","","image-button-response_instructions","7","39113","0.0-7.0","A1VIDXC2Z3KSCJ","img_art/ins/popularity/ins2Extreme.png","0","instructions","","","","","","","","","","","","","","","","","","","","","","","",""
"28797","","image-button-response_instructions","8","67919","0.0-8.0","A1VIDXC2Z3KSCJ","img_art/ins/popularity/ins3KEEPpop.PNG","0","instructions","","","","","","","","","","","","","","","","","","","","","","","",""
"4831","","image-button-response_instructions","9","72758","0.0-9.0","A1VIDXC2Z3KSCJ","img_art/ins/popularity/ins3ANamepop.PNG","0","instructions","","","","","","","","","","","","","","","","","","","","","","","",""
"1399","","image-button-response_instructions","10","74165","0.0-10.0","A1VIDXC2Z3KSCJ","img_art/ins/popularity/ins3ARatingpop.png","0","instructions","","","","","","","","","","","","","","","","","","","","","","","",""
"1710","","image-button-response_instructions","11","75882","0.0-11.0","A1VIDXC2Z3KSCJ","img_art/ins/popularity/ins3ATextpop.png","0","instructions","","","","","","","","","","","","","","","","","","","","","","","",""
"9001","","image-button-response_instructions","12","84890","0.0-12.0","A1VIDXC2Z3KSCJ","img_art/ins/popularity/ins3ALikespop.png","0","instructions","","","","","","","","","","","","","","","","","","","","","","","",""
"13170","","image-button-response_instructions","13","98069","0.0-13.0","A1VIDXC2Z3KSCJ","img_art/ins/popularity/ins3KEEPpop.PNG","0","instructions","","","","","","","","","","","","","","","","","","","","","","","",""
"10568","","image-button-response_instructions","14","108645","0.0-14.0","A1VIDXC2Z3KSCJ","img_art/ins/popularity/ins3_5RED.png","0","instructions","","","","","","","","","","","","","","","","","","","","","","","",""
"7728","","image-button-response_instructions","15","116382","0.0-15.0","A1VIDXC2Z3KSCJ","img_art/ins/popularity/ins3KEEPpop.PNG","0","instructions","","","","","","","","","","","","","","","","","","","","","","","",""
"15047","","image-button-response_instructions","16","131437","0.0-16.0","A1VIDXC2Z3KSCJ","img_art/ins/popularity/ins4KEEPpop.PNG","0","instructions","","","","","","","","","","","","","","","","","","","","","","","",""
"4737","","image-button-response_instructions","17","136182","0.0-17.0","A1VIDXC2Z3KSCJ","img_art/ins/popularity/ins5KEEPpop.PNG","0","instructions","","","","","","","","","","","","","","","","","","","","","","","",""
"1680","","image-button-response_instructions","18","137870","0.0-18.0","A1VIDXC2Z3KSCJ","","0","instructions","","","","","","","","","","","","","","","","","","","","","","","",""
"7119","","survey-text","19","145086","0.0-19.0-0.0","A1VIDXC2Z3KSCJ","","","","{""Q0"":""but""}","","","","","","","","","","","","","","","","","","","","","","",""
"13020","","survey-text","20","158117","0.0-20.0-0.0","A1VIDXC2Z3KSCJ","","","","{""Q0"":""sloppy and ugly colors""}","","","","","","","","","","","","","","","","","","","","","","",""
"6487.199999999255","","image-slider-response","21","164619","0.0-21.0","A1VIDXC2Z3KSCJ","","","","","-43","","","","","","","","","","","","","","","","","","","","","",""
"null","","image-button-response","22","169646","0.0-22.0","A1VIDXC2Z3KSCJ","img_art/ins/1.jpg","null","","","","","","","","","","","","","","","","","","","","","","","","",""
"2432","","image-button-response","23","172092","0.0-23.0","A1VIDXC2Z3KSCJ","img_art/ins/1.jpg","1","","","","","","","","","","","","","","","","","","","","","","","","",""
"2477","","image-button-response","24","174582","0.0-24.0-0.0","A1VIDXC2Z3KSCJ","img_art/ins/1.jpg","2","","","","","","","","","","","","","","","","","","","","","","","","",""
"6368","","image-button-response","25","180968","0.0-25.0-0.0","A1VIDXC2Z3KSCJ","img_art/ins/1.jpg","3","","","","","","","","","","","","","","","","","","","","","","","","",""
"null","","html-keyboard-response","26","182481","0.0-26.0","A1VIDXC2Z3KSCJ","<p style=""font-size: 48px;"">+</p>","","","","","null","allTrialResponses","1500","1","-2","img_art/ins/1.jpg","-43","sloppy and ugly colors","Allison,Ashley,Beth,Dora,Erika,Jen","looks like a lot of things going on in the mist,20,20,20","I just don't get why these type of art would be popular,-32,40,20","This color reminds me of poo,-46,60,20","looks like what my niece in 3rd grade did this afternoon,-50,80,20","I like the sophisticated brushwork,40,100,20","It reminds me of a candy land dream I had,36,120,20","Ashley","I just don't get why these type of art would be popular,-32,40,20","Beth","This color reminds me of poo,-46,60,20","Dora","looks like what my niece in 3rd grade did this afternoon,-50,80,20","0"
"22739","","survey-text","27","205246","0.0-27.0-0.0","A1VIDXC2Z3KSCJ","","","","{""Q0"":""looks boring""}","","","","","","","","","","","","","","","","","","","","","","",""
"4580.400000002235","","image-slider-response","28","209839","0.0-28.0","A1VIDXC2Z3KSCJ","","","","","-8","","","","","","","","","","","","","","","","","","","","","",""
"null","","image-button-response","29","214854","0.0-29.0","A1VIDXC2Z3KSCJ","img_art/ins/2.jpg","null","","","","","","","","","","","","","","","","","","","","","","","","",""
"685","","image-button-response","30","215552","0.0-30.0","A1VIDXC2Z3KSCJ","img_art/ins/2.jpg","2","","","","","","","","","","","","","","","","","","","","","","","","",""
"6978","","image-button-response","31","222558","0.0-31.0-0.0","A1VIDXC2Z3KSCJ","img_art/ins/2.jpg","1","","","","","","","","","","","","","","","","","","","","","","","","",""
"2451","","image-button-response","32","225022","0.0-32.0-0.0","A1VIDXC2Z3KSCJ","img_art/ins/2.jpg","0","","","","","","","","","","","","","","","","","","","","","","","","",""
"null","","html-keyboard-response","33","225530","0.0-33.0","A1VIDXC2Z3KSCJ","<p style=""font-size: 48px;"">+</p>","","","","","null","allTrialResponses","500","1","-1","img_art/ins/2.jpg","-8","looks boring","Jenna,Ashley,Beth,Dora,Kara,Katie","One of my pet peevs,-48,140,20","Idk, it is just annoying,-32,40,20","meaningless painting,-45,60,20","looks too angry,-50,80,20","I like the blocks of color arrangements,30,160,20","too much color!,-28,180,20","Beth","meaningless painting,-45,60,20","Ashley","Idk, it is just annoying,-32,40,20","Jenna","One of my pet peevs,-48,140,20","0"
"20138","","survey-text","34","245697","0.0-34.0-0.0","A1VIDXC2Z3KSCJ","","","","{""Q0"":""dont like it""}","","","","","","","","","","","","","","","","","","","","","","",""
"4503.89999999851","","image-slider-response","35","250212","0.0-35.0","A1VIDXC2Z3KSCJ","","","","","-23","","","","","","","","","","","","","","","","","","","","","",""
"null","","image-button-response","36","255226","0.0-36.0","A1VIDXC2Z3KSCJ","img_art/ins/3.jpg","null","","","","","","","","","","","","","","","","","","","","","","","","",""
"7349","","image-button-response","37","262590","0.0-37.0","A1VIDXC2Z3KSCJ","img_art/ins/3.jpg","5","","","","","","","","","","","","","","","","","","","","","","","","",""
"4236","","image-button-response","38","266840","0.0-38.0-0.0","A1VIDXC2Z3KSCJ","img_art/ins/3.jpg","2","","","","","","","","","","","","","","","","","","","","","","","","",""
"4144","","image-button-response","39","270999","0.0-39.0-0.0","A1VIDXC2Z3KSCJ","img_art/ins/3.jpg","0","","","","","","","","","","","","","","","","","","","","","","","","",""
"null","","html-keyboard-response","40","271508","0.0-40.0","A1VIDXC2Z3KSCJ","<p style=""font-size: 48px;"">+</p>","","","","","null","allTrialResponses","500","1","0","img_art/ins/3.jpg","-23","dont like it","Jenna,Ashley,Beth,Leslie,Mary,Rose","looks like a murder room,-35,140,20","It looks like a playground for bats,-36,40,20","This thing gives me anxiety,-41,60,20","It's an alright work,15,200,20","I like the overlapping of brushes,41,220,20","My daily routine, it's depressing,-20,240,20","Rose","My daily routine, it's depressing,-20,240,20","Beth","This thing gives me anxiety,-41,60,20","Jenna","looks like a murder room,-35,140,20","0"
"5717","","image-button-response_instructions","41","277253","0.0-41.0","A1VIDXC2Z3KSCJ","","0","instructions","","","","","","","","","","","","","","","","","","","","","","","",""
"9690","","survey-likert","42","286956","0.0-42.0-0.0","A1VIDXC2Z3KSCJ","","","","{""Q0"":"""",""Q1"":0,""Q2"":1}","","","","","","","","","","","","","","","","","","","","","","",""
"4844","","survey-text","43","291846","0.0-43.0-0.0","A1VIDXC2Z3KSCJ","","","","{""Q0"":""rock""}","","","","","","","","","","","","","","","","","","","","","","",""
"17933","","survey-text","44","309790","0.0-44.0-0.0","A1VIDXC2Z3KSCJ","","","","{""Q0"":""it is interesting""}","","","","","","","","","","","","","","","","","","","","","","",""
"4564.699999999255","","image-slider-response","45","314369","0.0-45.0","A1VIDXC2Z3KSCJ","","","","","9","","","","","","","","","","","","","","","","","","","","","",""
"null","","image-button-response","46","319464","0.0-46.0","A1VIDXC2Z3KSCJ","img_art/1.jpg","null","","","","","","","","","","","","","","","","","","","","","","","","",""
"6209","","image-button-response","47","325687","0.0-47.0","A1VIDXC2Z3KSCJ","img_art/1.jpg","0","","","","","","","","","","","","","","","","","","","","","","","","",""
"5475","","image-button-response","48","331176","0.0-48.0-0.0","A1VIDXC2Z3KSCJ","img_art/1.jpg","3","","","","","","","","","","","","","","","","","","","","","","","","",""
"1916","","image-button-response","49","333106","0.0-49.0-0.0","A1VIDXC2Z3KSCJ","img_art/1.jpg","0","","","","","","","","","","","","","","","","","","","","","","","","",""
"6099","","image-button-response","50","345955","0.0-49.1-0.1","A1VIDXC2Z3KSCJ","img_art/1.jpg","1","","","","","","","","","","","","","","","","","","","","","","","","",""
"null","","html-keyboard-response","51","346469","0.0-50.0","A1VIDXC2Z3KSCJ","<p style=""font-size: 48px;"">+</p>","","","","","null","allTrialResponses","500","1","1","img_art/1.jpg","9","it is interesting","Kaitlin,Elizabeth,Katie,Meghan,Katherine,Rebecca","I see happiness from different aspects of life,31,60,20","Absolutely love this painting,50,20,20","Too messy. Just looks like a mess of dark colors.,-20,160,20","good colors and contrast,31,220,20","Blurry but that's how emotions are a lot of the time.,27,120,20","bamboo boat in sunset,12,100,20","Kaitlin","I see happiness from different aspects of life,31,60,20","Meghan","good colors and contrast,31,220,20","Elizabeth","Absolutely love this painting,50,20,20","2"
"11047","","survey-text","52","357544","0.0-51.0-0.0","A1VIDXC2Z3KSCJ","","","","{""Q0"":""very cool!""}","","","","","","","","","","","","","","","","","","","","","","",""
"3057.60000000149","","image-slider-response","53","360613","0.0-52.0","A1VIDXC2Z3KSCJ","","","","","46","","","","","","","","","","","","","","","","","","","","","",""
"null","","image-button-response","54","365629","0.0-53.0","A1VIDXC2Z3KSCJ","img_art/25.jpg","null","","","","","","","","","","","","","","","","","","","","","","","","",""
"6002","","image-button-response","55","371645","0.0-54.0","A1VIDXC2Z3KSCJ","img_art/25.jpg","4","","","","","","","","","","","","","","","","","","","","","","","","",""
"3996","","image-button-response","56","375655","0.0-55.0-0.0","A1VIDXC2Z3KSCJ","img_art/25.jpg","1","","","","","","","","","","","","","","","","","","","","","","","","",""
"6985","","image-button-response","57","382656","0.0-56.0-0.0","A1VIDXC2Z3KSCJ","img_art/25.jpg","3","","","","","","","","","","","","","","","","","","","","","","","","",""
"null","","html-keyboard-response","58","383667","0.0-57.0","A1VIDXC2Z3KSCJ","<p style=""font-size: 48px;"">+</p>","","","","","null","allTrialResponses","1000","1","2","img_art/25.jpg","46","very cool!","Kaitlin,Elizabeth,Melissa,Meghan,Erica,Kaylee","i feel a bit dull, a bit scared,-20,60,20","Love the color hues and the texture it creates,50,20,20","do not like that color of green,-11,240,20","reminds me of a zombie,-36,220,20","reminds me of a demon,-25,80,20","is this an ancient woman?,-16,200,20","Erica","reminds me of a demon,-25,80,20","Elizabeth","Love the color hues and the texture it creates,50,20,20","Meghan","reminds me of a zombie,-36,220,20","2"
"11895","","survey-text","59","395595","0.0-58.0-0.0","A1VIDXC2Z3KSCJ","","","","{""Q0"":""very relaxing""}","","","","","","","","","","","","","","","","","","","","","","",""
"3387","","image-slider-response","60","398995","0.0-59.0","A1VIDXC2Z3KSCJ","","","","","26","","","","","","","","","","","","","","","","","","","","","",""
"3775","","image-button-response","61","404013","0.0-60.0","A1VIDXC2Z3KSCJ","img_art/17.jpg","0","","","","","","","","","","","","","","","","","","","","","","","","",""
"1072","","image-button-response","62","405099","0.0-61.0","A1VIDXC2Z3KSCJ","img_art/17.jpg","1","","","","","","","","","","","","","","","","","","","","","","","","",""
"5010","","image-button-response","63","410122","0.0-62.0-0.0","A1VIDXC2Z3KSCJ","img_art/17.jpg","4","","","","","","","","","","","","","","","","","","","","","","","","",""
"2940","","image-button-response","64","413078","0.0-63.0-0.0","A1VIDXC2Z3KSCJ","img_art/17.jpg","0","","","","","","","","","","","","","","","","","","","","","","","","",""
"null","","html-keyboard-response","65","413588","0.0-64.0","A1VIDXC2Z3KSCJ","<p style=""font-size: 48px;"">+</p>","","","","","null","allTrialResponses","500","1","3","img_art/17.jpg","26","very relaxing","Dominique,Elizabeth,Alexis,Meghan,Erica,Allison","Another favorite a relaxing day with nature a day to take it all In,34,400,20","Has a unique vibe to it,50,20,20","Love the color and nature motif,36,100,20","pretty bland in coloring,1,220,20","Makes me warm and cozy just by looking at it,29,80,20","Very washed out.,-10,140,20","Elizabeth","Has a unique vibe to it,50,20,20","Erica","Makes me warm and cozy just by looking at it,29,80,20","Dominique","Another favorite a relaxing day with nature a day to take it all In,34,400,20","2"
"56311","","survey-text","66","469924","0.0-65.0-0.0","A1VIDXC2Z3KSCJ","","","","{""Q0"":""pretty water drops""}","","","","","","","","","","","","","","","","","","","","","","",""
"3888.599999997765","","image-slider-response","67","473825","0.0-66.0","A1VIDXC2Z3KSCJ","","","","","26","","","","","","","","","","","","","","","","","","","","","",""
"4971","","image-button-response","68","478839","0.0-67.0","A1VIDXC2Z3KSCJ","img_art/13.jpg","0","","","","","","","","","","","","","","","","","","","","","","","","",""
"6483","","image-button-response","69","485356","0.0-68.0","A1VIDXC2Z3KSCJ","img_art/13.jpg","3","","","","","","","","","","","","","","","","","","","","","","","","",""
"4176","","image-button-response","70","489548","0.0-69.0-0.0","A1VIDXC2Z3KSCJ","img_art/13.jpg","1","","","","","","","","","","","","","","","","","","","","","","","","",""
"1454","","image-button-response","71","491017","0.0-70.0-0.0","A1VIDXC2Z3KSCJ","img_art/13.jpg","0","","","","","","","","","","","","","","","","","","","","","","","","",""
"null","","html-keyboard-response","72","492026","0.0-71.0","A1VIDXC2Z3KSCJ","<p style=""font-size: 48px;"">+</p>","","","","","null","allTrialResponses","1000","1","4","img_art/13.jpg","26","pretty water drops","Dominique,Elizabeth,Kelsey,Amanda,Erica,Makayla","I love the colors reminds me of a rainy day..it's calm and relaxing,32,400,20","Love the splash of colors,50,20,20","its like the ocean,24,240,20","Feels calm and could be placed in anyones house,43,180,20","Messy but organised, helps me to relax and observe,8,80,20","Reminds me of the aquarium,4,80,20","Amanda","Feels calm and could be placed in anyones house,43,180,20","Elizabeth","Love the splash of colors,50,20,20","Dominique","I love the colors reminds me of a rainy day..it's calm and relaxing,32,400,20","2"
"455960","","survey-text","73","948010","0.0-72.0-0.0","A1VIDXC2Z3KSCJ","","","","{""Q0"":""reminds me of fall""}","","","","","","","","","","","","","","","","","","","","","","",""
"5103.10000000149","","image-slider-response","74","953123","0.0-73.0","A1VIDXC2Z3KSCJ","","","","","-10","","","","","","","","","","","","","","","","","","","","","",""
"null","","image-button-response","75","958139","0.0-74.0","A1VIDXC2Z3KSCJ","img_art/27.jpg","null","","","","","","","","","","","","","","","","","","","","","","","","",""
"2239","","image-button-response","76","960391","0.0-75.0","A1VIDXC2Z3KSCJ","img_art/27.jpg","0","","","","","","","","","","","","","","","","","","","","","","","","",""
"7242","","image-button-response","77","967650","0.0-76.0-0.0","A1VIDXC2Z3KSCJ","img_art/27.jpg","5","","","","","","","","","","","","","","","","","","","","","","","","",""
"3390","","image-button-response","78","971058","0.0-77.0-0.0","A1VIDXC2Z3KSCJ","img_art/27.jpg","4","","","","","","","","","","","","","","","","","","","","","","","","",""
"null","","html-keyboard-response","79","972568","0.0-78.0","A1VIDXC2Z3KSCJ","<p style=""font-size: 48px;"">+</p>","","","","","null","allTrialResponses","1500","1","5","img_art/27.jpg","-10","reminds me of fall","Dominique,Elizabeth,Mikayla,Amanda,Mariah,Kelly","A beautiful day full of Hope and Inspiritation. The warmth of hot cocoa with the family gathering around,33,400,20","Like the abstractness of this picture,20,20,20","It kinda reminds me of sushi.,16,300,20","I love the childish aspect to it,37,180,20","The green lines disrupt the image in an unpleasant and hurried way.,-30,140,20","The green stick drawings or whatever they are ruin it for me.,-23,220,20","Dominique","A beautiful day full of Hope and Inspiritation. The warmth of hot cocoa with the family gathering around,33,400,20","Kelly","The green stick drawings or whatever they are ruin it for me.,-23,220,20","Mariah","The green lines disrupt the image in an unpleasant and hurried way.,-30,140,20","2"
"4792","","survey-text","80","977410","0.0-79.0-0.0","A1VIDXC2Z3KSCJ","","","","{""Q0"":""sky""}","","","","","","","","","","","","","","","","","","","","","","",""
"15264","","survey-text","81","992684","0.0-80.0-0.0","A1VIDXC2Z3KSCJ","","","","{""Q0"":""very cool, love it!""}","","","","","","","","","","","","","","","","","","","","","","",""
"3814.599999997765","","image-slider-response","82","996508","0.0-81.0","A1VIDXC2Z3KSCJ","","","","","48","","","","","","","","","","","","","","","","","","","","","",""
"4291","","image-button-response","83","1001522","0.0-82.0","A1VIDXC2Z3KSCJ","img_art/20.jpg","0","","","","","","","","","","","","","","","","","","","","","","","","",""
"1151","","image-button-response","84","1002684","0.0-83.0","A1VIDXC2Z3KSCJ","img_art/20.jpg","0","","","","","","","","","","","","","","","","","","","","","","","","",""
"16251","","image-button-response","85","1018949","0.0-84.0-0.0","A1VIDXC2Z3KSCJ","img_art/20.jpg","3","","","","","","","","","","","","","","","","","","","","","","","","",""
"1995","","image-button-response","86","1020958","0.0-85.0-0.0","A1VIDXC2Z3KSCJ","img_art/20.jpg","1","","","","","","","","","","","","","","","","","","","","","","","","",""
"null","","html-keyboard-response","87","1021466","0.0-86.0","A1VIDXC2Z3KSCJ","<p style=""font-size: 48px;"">+</p>","","","","","null","allTrialResponses","500","1","6","img_art/20.jpg","48","very cool, love it!","Dominique,Alexa,Hannah,Sophia,Mariah,Kelly","I love the colors and coukd spend alot of time with the picture,33,400,20","I like the calming mood of this painting,35,40,20","Reminds me of the Southwest; i.e. New Mexico or Arizona. It's interesting.,12,240,20","A truck rolled over?  I do like the pictures and the technique though.,25,280,20","It feels like it ""almost"" several things.,-10,140,20","I want to like this more, but i wish it was more detailed. It's hard for me to see what it is.,5,220,20","Dominique","I love the colors and coukd spend alot of time with the picture,33,400,20","Sophia","A truck rolled over?  I do like the pictures and the technique though.,25,280,20","Alexa","I like the calming mood of this painting,35,40,20","2"
"25512","","survey-text","88","1047012","0.0-87.0-0.0","A1VIDXC2Z3KSCJ","","","","{""Q0"":""a person in a beach town""}","","","","","","","","","","","","","","","","","","","","","","",""
"3949","","image-slider-response","89","1050974","0.0-88.0","A1VIDXC2Z3KSCJ","","","","","5","","","","","","","","","","","","","","","","","","","","","",""
"null","","image-button-response","90","1055989","0.0-89.0","A1VIDXC2Z3KSCJ","img_art/19.jpg","null","","","","","","","","","","","","","","","","","","","","","","","","",""
"8574","","image-button-response","91","1064578","0.0-90.0","A1VIDXC2Z3KSCJ","img_art/19.jpg","5","","","","","","","","","","","","","","","","","","","","","","","","",""
"3323","","image-button-response","92","1067916","0.0-91.0-0.0","A1VIDXC2Z3KSCJ","img_art/19.jpg","1","","","","","","","","","","","","","","","","","","","","","","","","",""
"953","","image-button-response","93","1068887","0.0-92.0-0.0","A1VIDXC2Z3KSCJ","img_art/19.jpg","0","","","","","","","","","","","","","","","","","","","","","","","","",""
"null","","html-keyboard-response","94","1070397","0.0-93.0","A1VIDXC2Z3KSCJ","<p style=""font-size: 48px;"">+</p>","","","","","null","allTrialResponses","1500","1","7","img_art/19.jpg","5","a person in a beach town","Dominique,Alexa,Alexandra,Sophia,Rachel,Sierra","I really like the colors and feel of this one and alot of life,41,400,20","It has a chaotic energy about it that draws me in,40,40,20","This photo has too much going on.,-19,60,20","This looks like a child's piece. I appreciate the artistic value, but not for me.,-20,280,20","Reminds me of a busy town. Chaotic in nature.,-11,80,20","green and orange are my favorite colors.  this cityscape feels warm,34,260,20","Sierra","green and orange are my favorite colors.  this cityscape feels warm,34,260,20","Alexa","It has a chaotic energy about it that draws me in,40,40,20","Dominique","I really like the colors and feel of this one and alot of life,41,400,20","2"
"11928","","survey-text","95","1082356","0.0-94.0-0.0","A1VIDXC2Z3KSCJ","","","","{""Q0"":""not sure what it is""}","","","","","","","","","","","","","","","","","","","","","","",""
"5725.199999999255","","image-slider-response","96","1088095","0.0-95.0","A1VIDXC2Z3KSCJ","","","","","-26","","","","","","","","","","","","","","","","","","","","","",""
"null","","image-button-response","97","1093111","0.0-96.0","A1VIDXC2Z3KSCJ","img_art/14.jpg","null","","","","","","","","","","","","","","","","","","","","","","","","",""
"1284","","image-button-response","98","1094407","0.0-97.0","A1VIDXC2Z3KSCJ","img_art/14.jpg","5","","","","","","","","","","","","","","","","","","","","","","","","",""
"1836","","image-button-response","99","1096257","0.0-98.0-0.0","A1VIDXC2Z3KSCJ","img_art/14.jpg","4","","","","","","","","","","","","","","","","","","","","","","","","",""
"2464","","image-button-response","100","1098735","0.0-99.0-0.0","A1VIDXC2Z3KSCJ","img_art/14.jpg","3","","","","","","","","","","","","","","","","","","","","","","","","",""
"null","","html-keyboard-response","101","1100245","0.0-100.0","A1VIDXC2Z3KSCJ","<p style=""font-size: 48px;"">+</p>","","","","","null","allTrialResponses","1500","1","8","img_art/14.jpg","-26","not sure what it is","Dominique,Alexa,Angela,Michelle,Natalie,Sierra","Reminds me of the old days with my family and my grandma,41,400,20","Very abstract and colorful,40,40,20","I like the colors and the shapes are interesting,11,260,20","Too abstract with annoying little details. Just draw a regular tree already,-6,280,20","my reaction is that the picture is wierd,-14,400,20","it put me on edge.,-11,260,20","Sierra","it put me on edge.,-11,260,20","Natalie","my reaction is that the picture is wierd,-14,400,20","Michelle","Too abstract with annoying little details. Just draw a regular tree already,-6,280,20","2"
"23867","","survey-text","102","1124141","0.0-101.0-0.0","A1VIDXC2Z3KSCJ","","","","{""Q0"":""boring and plain""}","","","","","","","","","","","","","","","","","","","","","","",""
"6254.699999999255","","image-slider-response","103","1130406","0.0-102.0","A1VIDXC2Z3KSCJ","","","","","-42","","","","","","","","","","","","","","","","","","","","","",""
"null","","image-button-response","104","1135423","0.0-103.0","A1VIDXC2Z3KSCJ","img_art/6.jpg","null","","","","","","","","","","","","","","","","","","","","","","","","",""
"5937","","image-button-response","105","1141377","0.0-104.0","A1VIDXC2Z3KSCJ","img_art/6.jpg","1","","","","","","","","","","","","","","","","","","","","","","","","",""
"1093","","image-button-response","106","1142487","0.0-105.0-0.0","A1VIDXC2Z3KSCJ","img_art/6.jpg","3","","","","","","","","","","","","","","","","","","","","","","","","",""
"2626","","image-button-response","107","1145127","0.0-106.0-0.0","A1VIDXC2Z3KSCJ","img_art/6.jpg","0","","","","","","","","","","","","","","","","","","","","","","","","",""
"null","","html-keyboard-response","108","1145635","0.0-107.0","A1VIDXC2Z3KSCJ","<p style=""font-size: 48px;"">+</p>","","","","","null","allTrialResponses","500","1","9","img_art/6.jpg","-42","boring and plain","Briana,Taylor,Erin,Michelle,Natalie,Sierra","Close up peach? Hate it,-16,400,20","Reminds me of my friend's bird,21,340,20","Blackbird in the desert,27,120,20","Definitely belongs at a doctor's office, I think it's a crow or a tree?,-3,280,20","reminds me a giant peach,19,400,20","simplistic. i love orange and green and i love the subject,50,260,20","Taylor","Reminds me of my friend's bird,21,340,20","Michelle","Definitely belongs at a doctor's office, I think it's a crow or a tree?,-3,280,20","Briana","Close up peach? Hate it,-16,400,20","2"
"12566","","survey-text","109","1158230","0.0-108.0-0.0","A1VIDXC2Z3KSCJ","","","","{""Q0"":""looks like a storm""}","","","","","","","","","","","","","","","","","","","","","","",""
"3700","","image-slider-response","110","1161942","0.0-109.0","A1VIDXC2Z3KSCJ","","","","","9","","","","","","","","","","","","","","","","","","","","","",""
"2593","","image-button-response","111","1166958","0.0-110.0","A1VIDXC2Z3KSCJ","img_art/21.jpg","4","","","","","","","","","","","","","","","","","","","","","","","","",""
"2219","","image-button-response","112","1169194","0.0-111.0","A1VIDXC2Z3KSCJ","img_art/21.jpg","4","","","","","","","","","","","","","","","","","","","","","","","","",""
"7432","","image-button-response","113","1176641","0.0-112.0-0.0","A1VIDXC2Z3KSCJ","img_art/21.jpg","2","","","","","","","","","","","","","","","","","","","","","","","","",""
"526","","image-button-response","114","1177184","0.0-113.0-0.0","A1VIDXC2Z3KSCJ","img_art/21.jpg","1","","","","","","","","","","","","","","","","","","","","","","","","",""
"null","","html-keyboard-response","115","1177693","0.0-114.0","A1VIDXC2Z3KSCJ","<p style=""font-size: 48px;"">+</p>","","","","","null","allTrialResponses","500","1","10","img_art/21.jpg","9","looks like a storm","Briana,Taylor,Kimberly,Michelle,Jenna,Michaela","Unfinished. Confusing to look at,-12,400,20","I love the contrasting tones between the two sides,36,340,20","Another swathe of ocean,31,260,20","The colors are very nice. I like the dots because they remind me of pearls,5,280,20","beautiful. reminds me of a storm brewing over sea. i love the white dots.,45,360,20","I love how vague it is but how you can imagine a story anyway, like clouds,45,260,20","Jenna","beautiful. reminds me of a storm brewing over sea. i love the white dots.,45,360,20","Kimberly","Another swathe of ocean,31,260,20","Taylor","I love the contrasting tones between the two sides,36,340,20","2"
"3884","","survey-text","116","1181614","0.0-115.0-0.0","A1VIDXC2Z3KSCJ","","","","{""Q0"":""our""}","","","","","","","","","","","","","","","","","","","","","","",""
"8595","","survey-text","117","1190222","0.0-116.0-0.0","A1VIDXC2Z3KSCJ","","","","{""Q0"":""too simple""}","","","","","","","","","","","","","","","","","","","","","","",""
"3345.300000000745","","image-slider-response","118","1193579","0.0-117.0","A1VIDXC2Z3KSCJ","","","","","-32","","","","","","","","","","","","","","","","","","","","","",""
"2837","","image-button-response","119","1198591","0.0-118.0","A1VIDXC2Z3KSCJ","img_art/2.jpg","1","","","","","","","","","","","","","","","","","","","","","","","","",""
"752","","image-button-response","120","1199356","0.0-119.0","A1VIDXC2Z3KSCJ","img_art/2.jpg","5","","","","","","","","","","","","","","","","","","","","","","","","",""
"1847","","image-button-response","121","1201214","0.0-120.0-0.0","A1VIDXC2Z3KSCJ","img_art/2.jpg","1","","","","","","","","","","","","","","","","","","","","","","","","",""
"3650","","image-button-response","122","1204879","0.0-121.0-0.0","A1VIDXC2Z3KSCJ","img_art/2.jpg","4","","","","","","","","","","","","","","","","","","","","","","","","",""
"null","","html-keyboard-response","123","1206388","0.0-122.0","A1VIDXC2Z3KSCJ","<p style=""font-size: 48px;"">+</p>","","","","","null","allTrialResponses","1500","1","11","img_art/2.jpg","-32","too simple","Erika,Taylor,Kimberly,Brianna,Jenna,Kylie","Indistinct and too bright,-21,100,20","Doesn't give me a reaction,10,340,20","I like the green,13,260,20","The only parts I like is the light blue, red and black. The green color isn't very flattering.,11,20,20","the colors are a bit odd, and the squiggly line at the top is distracting,0,360,20","Not very appealing,-5,300,20","Kylie","Not very appealing,-5,300,20","Taylor","Doesn't give me a reaction,10,340,20","Jenna","the colors are a bit odd, and the squiggly line at the top is distracting,0,360,20","2"
"18179","","survey-text","124","1224597","0.0-123.0-0.0","A1VIDXC2Z3KSCJ","","","","{""Q0"":""chicken scratch""}","","","","","","","","","","","","","","","","","","","","","","",""
"3738.5","","image-slider-response","125","1228346","0.0-124.0","A1VIDXC2Z3KSCJ","","","","","-46","","","","","","","","","","","","","","","","","","","","","",""
"4598","","image-button-response","126","1233361","0.0-125.0","A1VIDXC2Z3KSCJ","img_art/3.jpg","2","","","","","","","","","","","","","","","","","","","","","","","","",""
"883","","image-button-response","127","1234257","0.0-126.0","A1VIDXC2Z3KSCJ","img_art/3.jpg","2","","","","","","","","","","","","","","","","","","","","","","","","",""
"1127","","image-button-response","128","1235398","0.0-127.0-0.0","A1VIDXC2Z3KSCJ","img_art/3.jpg","1","","","","","","","","","","","","","","","","","","","","","","","","",""
"4290","","image-button-response","129","1239705","0.0-128.0-0.0","A1VIDXC2Z3KSCJ","img_art/3.jpg","5","","","","","","","","","","","","","","","","","","","","","","","","",""
"null","","html-keyboard-response","130","1240214","0.0-129.0","A1VIDXC2Z3KSCJ","<p style=""font-size: 48px;"">+</p>","","","","","null","allTrialResponses","500","1","12","img_art/3.jpg","-46","chicken scratch","Jacqueline,Taylor,Samantha,Cassidy,Jenna,Kylie","Looks like a bloody head with teeth.,-16,300,20","It doesn't make me think of art,-20,340,20","Too angry and scribbly,-43,140,20","Again, looks like a child's work. I don't get these types of pieces. Too simple,-47,140,20","unique & stylized. interesting. another one I could keep staring at.,50,360,20","Confusion and mayhem,-10,300,20","Samantha","Too angry and scribbly,-43,140,20","Taylor","It doesn't make me think of art,-20,340,20","Kylie","Confusion and mayhem,-10,300,20","2"
"17486","","survey-text","131","1257732","0.0-130.0-0.0","A1VIDXC2Z3KSCJ","","","","{""Q0"":""reminds me of a guitar""}","","","","","","","","","","","","","","","","","","","","","","",""
"5406.10000000149","","image-slider-response","132","1263150","0.0-131.0","A1VIDXC2Z3KSCJ","","","","","21","","","","","","","","","","","","","","","","","","","","","",""
"4839","","image-button-response","133","1268169","0.0-132.0","A1VIDXC2Z3KSCJ","img_art/10.jpg","1","","","","","","","","","","","","","","","","","","","","","","","","",""
"1896","","image-button-response","134","1270081","0.0-133.0","A1VIDXC2Z3KSCJ","img_art/10.jpg","5","","","","","","","","","","","","","","","","","","","","","","","","",""
"1285","","image-button-response","135","1271382","0.0-134.0-0.0","A1VIDXC2Z3KSCJ","img_art/10.jpg","1","","","","","","","","","","","","","","","","","","","","","","","","",""
"8231","","image-button-response","136","1279631","0.0-135.0-0.0","A1VIDXC2Z3KSCJ","img_art/10.jpg","2","","","","","","","","","","","","","","","","","","","","","","","","",""
"null","","html-keyboard-response","137","1280643","0.0-136.0","A1VIDXC2Z3KSCJ","<p style=""font-size: 48px;"">+</p>","","","","","null","allTrialResponses","1000","1","13","img_art/10.jpg","21","reminds me of a guitar","Alyssa,Taylor,Samantha,Hailey,Emily,Kylie","Bleak and uninteresting,-10,160,20","Makes me think of the exhilaration of a roller coaster,31,340,20","I like it but do not love it. It is sort of depressing,13,140,20","a fast racetrack. go, go, go,5,200,20","Ugly and low skill. I wouldn't want it.,-50,40,20","Musical guitar whimsy,45,300,20","Kylie","Musical guitar whimsy,45,300,20","Taylor","Makes me think of the exhilaration of a roller coaster,31,340,20","Samantha","I like it but do not love it. It is sort of depressing,13,140,20","2"
"16133","","survey-text","138","1296804","0.0-137.0-0.0","A1VIDXC2Z3KSCJ","","","","{""Q0"":""sort of interesting""}","","","","","","","","","","","","","","","","","","","","","","",""
"2528.900000002235","","image-slider-response","139","1299344","0.0-138.0","A1VIDXC2Z3KSCJ","","","","","8","","","","","","","","","","","","","","","","","","","","","",""
"null","","image-button-response","140","1304359","0.0-139.0","A1VIDXC2Z3KSCJ","img_art/28.jpg","null","","","","","","","","","","","","","","","","","","","","","","","","",""
"731","","image-button-response","141","1305102","0.0-140.0","A1VIDXC2Z3KSCJ","img_art/28.jpg","2","","","","","","","","","","","","","","","","","","","","","","","","",""
"8964","","image-button-response","142","1314080","0.0-141.0-0.0","A1VIDXC2Z3KSCJ","img_art/28.jpg","1","","","","","","","","","","","","","","","","","","","","","","","","",""
"4729","","image-button-response","143","1318826","0.0-142.0-0.0","A1VIDXC2Z3KSCJ","img_art/28.jpg","5","","","","","","","","","","","","","","","","","","","","","","","","",""
"null","","html-keyboard-response","144","1320334","0.0-143.0","A1VIDXC2Z3KSCJ","<p style=""font-size: 48px;"">+</p>","","","","","null","allTrialResponses","1500","1","14","img_art/28.jpg","8","sort of interesting","Gabriela,Taylor,Samantha,Morgan,Angelica,Kylie","The brown and green colors used look dull and unappealing,-30,140,20","Doesn't give me an emotional response,0,340,20","Interesting and weird. Perfect conversational piece,33,140,20","Apartment throw up.,-5,380,20","This is very ugly with poor colors.,-23,280,20","Overpopulated city,35,300,20","Samantha","Interesting and weird. Perfect conversational piece,33,140,20","Taylor","Doesn't give me an emotional response,0,340,20","Kylie","Overpopulated city,35,300,20","2"
"10240","","survey-text","145","1330608","0.0-144.0-0.0","A1VIDXC2Z3KSCJ","","","","{""Q0"":""boring rocks""}","","","","","","","","","","","","","","","","","","","","","","",""
"2790.599999997765","","image-slider-response","146","1333410","0.0-145.0","A1VIDXC2Z3KSCJ","","","","","-39","","","","","","","","","","","","","","","","","","","","","",""
"null","","image-button-response","147","1338429","0.0-146.0","A1VIDXC2Z3KSCJ","img_art/7.jpg","null","","","","","","","","","","","","","","","","","","","","","","","","",""
"3231","","image-button-response","148","1341671","0.0-147.0","A1VIDXC2Z3KSCJ","img_art/7.jpg","0","","","","","","","","","","","","","","","","","","","","","","","","",""
"8213","","image-button-response","149","1349900","0.0-148.0-0.0","A1VIDXC2Z3KSCJ","img_art/7.jpg","2","","","","","","","","","","","","","","","","","","","","","","","","",""
"1504","","image-button-response","150","1351421","0.0-149.0-0.0","A1VIDXC2Z3KSCJ","img_art/7.jpg","3","","","","","","","","","","","","","","","","","","","","","","","","",""
"null","","html-keyboard-response","151","1352430","0.0-150.0","A1VIDXC2Z3KSCJ","<p style=""font-size: 48px;"">+</p>","","","","","null","allTrialResponses","1000","1","15","img_art/7.jpg","-39","boring rocks","Lindsey,Taylor,Samantha,Mary,Emma,Kylie","It's dirty. I don't mind the colors so much as the way they are put together in this dirty-looking pattern.,-41,400,20","It makes me think of new archaeology discoveries,15,340,20","Makes me want to feel it,19,140,20","This reminds me of a close up photo of a stone wall.,-19,180,20","Cool, makes me think of archeology,15,60,20","No particular reaction to this,10,300,20","Lindsey","It's dirty. I don't mind the colors so much as the way they are put together in this dirty-looking pattern.,-41,400,20","Samantha","Makes me want to feel it,19,140,20","Mary","This reminds me of a close up photo of a stone wall.,-19,180,20","2"
"6442","","survey-text","152","1358921","0.0-151.0-0.0","A1VIDXC2Z3KSCJ","","","","{""Q0"":""course""}","","","","","","","","","","","","","","","","","","","","","","",""
"10683","","survey-text","153","1369613","0.0-152.0-0.0","A1VIDXC2Z3KSCJ","","","","{""Q0"":""it bothers me""}","","","","","","","","","","","","","","","","","","","","","","",""
"3099.599999997765","","image-slider-response","154","1372722","0.0-153.0","A1VIDXC2Z3KSCJ","","","","","-40","","","","","","","","","","","","","","","","","","","","","",""
"2895","","image-button-response","155","1377734","0.0-154.0","A1VIDXC2Z3KSCJ","img_art/12.jpg","0","","","","","","","","","","","","","","","","","","","","","","","","",""
"843","","image-button-response","156","1378588","0.0-155.0","A1VIDXC2Z3KSCJ","img_art/12.jpg","0","","","","","","","","","","","","","","","","","","","","","","","","",""
"10544","","image-button-response","157","1389144","0.0-156.0-0.0","A1VIDXC2Z3KSCJ","img_art/12.jpg","1","","","","","","","","","","","","","","","","","","","","","","","","",""
"2458","","image-button-response","158","1391618","0.0-157.0-0.0","A1VIDXC2Z3KSCJ","img_art/12.jpg","2","","","","","","","","","","","","","","","","","","","","","","","","",""
"null","","html-keyboard-response","159","1392626","0.0-158.0","A1VIDXC2Z3KSCJ","<p style=""font-size: 48px;"">+</p>","","","","","null","allTrialResponses","1000","1","16","img_art/12.jpg","-40","it bothers me","Lindsey,Victoria,Samantha,Mary,Amber,Catherine","Ugly colors and I'm just not too much a fan of cubist abstract art.,-50,400,20","to contemporary for me,3,400,20","It is interesting but seems like some cheap painting from like walmart,24,140,20","The colors are ok. The piece reminds me of the 90s era, so I kinda like it!,-4,180,20","Like how all the colors seem to blend together.,15,200,20","confused. stages of a persons life from beginning positive to ending negative.,-10,160,20","Lindsey","Ugly colors and I'm just not too much a fan of cubist abstract art.,-50,400,20","Victoria","to contemporary for me,3,400,20","Samantha","It is interesting but seems like some cheap painting from like walmart,24,140,20","2"
"14373","","survey-text","160","1407035","0.0-159.0-0.0","A1VIDXC2Z3KSCJ","","","","{""Q0"":""childish""}","","","","","","","","","","","","","","","","","","","","","","",""
"4302.300000000745","","image-slider-response","161","1411348","0.0-160.0","A1VIDXC2Z3KSCJ","","","","","-12","","","","","","","","","","","","","","","","","","","","","",""
"null","","image-button-response","162","1416364","0.0-161.0","A1VIDXC2Z3KSCJ","img_art/29.jpg","null","","","","","","","","","","","","","","","","","","","","","","","","",""
"2260","","image-button-response","163","1418637","0.0-162.0","A1VIDXC2Z3KSCJ","img_art/29.jpg","4","","","","","","","","","","","","","","","","","","","","","","","","",""
"2725","","image-button-response","164","1421378","0.0-163.0-0.0","A1VIDXC2Z3KSCJ","img_art/29.jpg","3","","","","","","","","","","","","","","","","","","","","","","","","",""
"3181","","image-button-response","165","1424575","0.0-164.0-0.0","A1VIDXC2Z3KSCJ","img_art/29.jpg","0","","","","","","","","","","","","","","","","","","","","","","","","",""
"null","","html-keyboard-response","166","1425584","0.0-165.0","A1VIDXC2Z3KSCJ","<p style=""font-size: 48px;"">+</p>","","","","","null","allTrialResponses","1000","1","17","img_art/29.jpg","-12","childish","Lindsey,Victoria,Samantha,Jessica,Brittany,Courtney","Again, ugly colors and I'm not a fan of abstract. This looks like the view into a garbage dump.,-50,400,20","makes me think of destruction,-20,400,20","I love this things almost hidden in it like paint brush and other details,50,140,20","It looks cool but I don't really get what's going on, it looks too busy,0,400,20","It looks likes there's a lot going on, but they don't fit together.,2,40,20","Thats a pretty wierd picture.,6,280,20","Brittany","It looks likes there's a lot going on, but they don't fit together.,2,40,20","Jessica","It looks cool but I don't really get what's going on, it looks too busy,0,400,20","Lindsey","Again, ugly colors and I'm not a fan of abstract. This looks like the view into a garbage dump.,-50,400,20","2"
"10779","","survey-text","167","1436397","0.0-166.0-0.0","A1VIDXC2Z3KSCJ","","","","{""Q0"":""really bizarre""}","","","","","","","","","","","","","","","","","","","","","","",""
"4603.599999997765","","image-slider-response","168","1441014","0.0-167.0","A1VIDXC2Z3KSCJ","","","","","-49","","","","","","","","","","","","","","","","","","","","","",""
"3044","","image-button-response","169","1446029","0.0-168.0","A1VIDXC2Z3KSCJ","img_art/16.jpg","1","","","","","","","","","","","","","","","","","","","","","","","","",""
"2340","","image-button-response","170","1448381","0.0-169.0","A1VIDXC2Z3KSCJ","img_art/16.jpg","1","","","","","","","","","","","","","","","","","","","","","","","","",""
"4827","","image-button-response","171","1453221","0.0-170.0-0.0","A1VIDXC2Z3KSCJ","img_art/16.jpg","5","","","","","","","","","","","","","","","","","","","","","","","","",""
"10466","","image-button-response","172","1463703","0.0-171.0-0.0","A1VIDXC2Z3KSCJ","img_art/16.jpg","2","","","","","","","","","","","","","","","","","","","","","","","","",""
"null","","html-keyboard-response","173","1464712","0.0-172.0","A1VIDXC2Z3KSCJ","<p style=""font-size: 48px;"">+</p>","","","","","null","allTrialResponses","1000","1","18","img_art/16.jpg","-49","really bizarre","Lindsey,Maria,Leah,Jessica,Brittany,Laura","It's depressing. Probably achieved its goal. But I wouldn't want it hanging in my home.,-31,400,20","feel a little creeped out,-20,120,20","Know it is a piece relating to children and gun violence. Sad,-30,360,20","Cool but the bear creeps me out?,8,400,20","Kind of dull, colors and drawings are not really interesting.,0,40,20","depressing and confrontational,-9,320,20","Maria","feel a little creeped out,-20,120,20","Laura","depressing and confrontational,-9,320,20","Leah","Know it is a piece relating to children and gun violence. Sad,-30,360,20","2"
"14591","","survey-text","174","1479337","0.0-173.0-0.0","A1VIDXC2Z3KSCJ","","","","{""Q0"":""dont like it""}","","","","","","","","","","","","","","","","","","","","","","",""
"2707.5","","image-slider-response","175","1482056","0.0-174.0","A1VIDXC2Z3KSCJ","","","","","-38","","","","","","","","","","","","","","","","","","","","","",""
"2972","","image-button-response","176","1487069","0.0-175.0","A1VIDXC2Z3KSCJ","img_art/26.jpg","1","","","","","","","","","","","","","","","","","","","","","","","","",""
"658","","image-button-response","177","1487739","0.0-176.0","A1VIDXC2Z3KSCJ","img_art/26.jpg","1","","","","","","","","","","","","","","","","","","","","","","","","",""
"5710","","image-button-response","178","1493464","0.0-177.0-0.0","A1VIDXC2Z3KSCJ","img_art/26.jpg","5","","","","","","","","","","","","","","","","","","","","","","","","",""
"6611","","image-button-response","179","1500092","0.0-178.0-0.0","A1VIDXC2Z3KSCJ","img_art/26.jpg","3","","","","","","","","","","","","","","","","","","","","","","","","",""
"null","","html-keyboard-response","180","1501602","0.0-179.0","A1VIDXC2Z3KSCJ","<p style=""font-size: 48px;"">+</p>","","","","","null","allTrialResponses","1500","1","19","img_art/26.jpg","-38","dont like it","Paige,Maria,Leah,Marissa,Sydney,Laura","somewhat happy, like being outside on a nice day,30,60,20","fairly neutral, really,8,120,20","Really like it, a very nice neighborhood scene to me,42,360,20","It feels simple and pretty,12,160,20","I wish there was more detail, but I really like this simple piece.,35,320,20","juvenile, faint and weak,-41,320,20","Maria","fairly neutral, really,8,120,20","Laura","juvenile, faint and weak,-41,320,20","Marissa","It feels simple and pretty,12,160,20","2"
"15738","","survey-text","181","1517369","0.0-180.0-0.0","A1VIDXC2Z3KSCJ","","","","{""Q0"":""its ok""}","","","","","","","","","","","","","","","","","","","","","","",""
"11380.699999999255","","image-slider-response","182","1528762","0.0-181.0","A1VIDXC2Z3KSCJ","","","","","1","","","","","","","","","","","","","","","","","","","","","",""
"4616","","image-button-response","183","1533781","0.0-182.0","A1VIDXC2Z3KSCJ","img_art/30.jpg","2","","","","","","","","","","","","","","","","","","","","","","","","",""
"807","","image-button-response","184","1534602","0.0-183.0","A1VIDXC2Z3KSCJ","img_art/30.jpg","2","","","","","","","","","","","","","","","","","","","","","","","","",""
"1771","","image-button-response","185","1536390","0.0-184.0-0.0","A1VIDXC2Z3KSCJ","img_art/30.jpg","5","","","","","","","","","","","","","","","","","","","","","","","","",""
"2205","","image-button-response","186","1538610","0.0-185.0-0.0","A1VIDXC2Z3KSCJ","img_art/30.jpg","4","","","","","","","","","","","","","","","","","","","","","","","","",""
"null","","html-keyboard-response","187","1539618","0.0-186.0","A1VIDXC2Z3KSCJ","<p style=""font-size: 48px;"">+</p>","","","","","null","allTrialResponses","1000","1","20","img_art/30.jpg","1","its ok","Cheyenne,Maria,Andrea,Marissa,Megan,Laura","A bit too dark for my liking,-10,200,20","uplifted and yet calmed,15,120,20","It feels like graffiti and the dark colors do nothing for the mood.,-5,240,20","I really like the broad and colorful strokes,21,160,20","10 year old 10 minute project ""Fun with Painting"",-42,200,20","sloppy, unintentional,-20,320,20","Andrea","It feels like graffiti and the dark colors do nothing for the mood.,-5,240,20","Laura","sloppy, unintentional,-20,320,20","Megan","10 year old 10 minute project ""Fun with Painting"",-42,200,20","2"
"2962","","survey-text","188","1542632","0.0-187.0-0.0","A1VIDXC2Z3KSCJ","","","","{""Q0"":""we""}","","","","","","","","","","","","","","","","","","","","","","",""
"15148","","survey-text","189","1557792","0.0-188.0-0.0","A1VIDXC2Z3KSCJ","","","","{""Q0"":""too busy""}","","","","","","","","","","","","","","","","","","","","","","",""
"1947.699999999255","","image-slider-response","190","1559749","0.0-189.0","A1VIDXC2Z3KSCJ","","","","","-30","","","","","","","","","","","","","","","","","","","","","",""
"4283","","image-button-response","191","1564761","0.0-190.0","A1VIDXC2Z3KSCJ","img_art/18.jpg","5","","","","","","","","","","","","","","","","","","","","","","","","",""
"116","","image-button-response","192","1564892","0.0-191.0","A1VIDXC2Z3KSCJ","img_art/18.jpg","5","","","","","","","","","","","","","","","","","","","","","","","","",""
"8279","","image-button-response","193","1573184","0.0-192.0-0.0","A1VIDXC2Z3KSCJ","img_art/18.jpg","1","","","","","","","","","","","","","","","","","","","","","","","","",""
"15856","","image-button-response","194","1589056","0.0-193.0-0.0","A1VIDXC2Z3KSCJ","img_art/18.jpg","0","","","","","","","","","","","","","","","","","","","","","","","","",""
"null","","html-keyboard-response","195","1590565","0.0-194.0","A1VIDXC2Z3KSCJ","<p style=""font-size: 48px;"">+</p>","","","","","null","allTrialResponses","1500","1","21","img_art/18.jpg","-30","too busy","Claire,Katelyn,Andrea,Olivia,Megan,Laura","reminds me of greek mythology,22,260,20","It reminds me of ghosts on a boat. Makes me nervous.,-27,100,20","I see an artistic representation of the riding of last of the four horseman. Its stunning.,45,240,20","death rides in life,-25,40,20","Nice palette with complexity becoming nice at the center,34,200,20","afraid and anxious,21,320,20","Laura","afraid and anxious,21,320,20","Katelyn","It reminds me of ghosts on a boat. Makes me nervous.,-27,100,20","Claire","reminds me of greek mythology,22,260,20","2"
"10845","","survey-text","196","1601449","0.0-195.0-0.0","A1VIDXC2Z3KSCJ","","","","{""Q0"":""looks like bugs""}","","","","","","","","","","","","","","","","","","","","","","",""
"2212.60000000149","","image-slider-response","197","1603674","0.0-196.0","A1VIDXC2Z3KSCJ","","","","","-13","","","","","","","","","","","","","","","","","","","","","",""
"4567","","image-button-response","198","1608690","0.0-197.0","A1VIDXC2Z3KSCJ","img_art/15.jpg","0","","","","","","","","","","","","","","","","","","","","","","","","",""
"1872","","image-button-response","199","1610576","0.0-198.0","A1VIDXC2Z3KSCJ","img_art/15.jpg","0","","","","","","","","","","","","","","","","","","","","","","","","",""
"3110","","image-button-response","200","1613702","0.0-199.0-0.0","A1VIDXC2Z3KSCJ","img_art/15.jpg","5","","","","","","","","","","","","","","","","","","","","","","","","",""
"1465","","image-button-response","201","1615182","0.0-200.0-0.0","A1VIDXC2Z3KSCJ","img_art/15.jpg","2","","","","","","","","","","","","","","","","","","","","","","","","",""
"null","","html-keyboard-response","202","1616192","0.0-201.0","A1VIDXC2Z3KSCJ","<p style=""font-size: 48px;"">+</p>","","","","","null","allTrialResponses","1000","1","22","img_art/15.jpg","-13","looks like bugs","Claire,Katelyn,Tiffany,Brooke,Diana,Laura","it's alright but a little cluttered,14,260,20","Doesnt trigger much of a reaction overall,-2,100,20","The painting is very relaxing, I'm reminded of sitting in a garden in the evening.,8,360,20","This one reminds me of a postage stamp, but branches and leaves. Kind of fun.,15,60,20","There should be more space between the black marks. The black comes off harsh and the blue between the trees can barely be seen.,-21,380,20","abrasive, rough, uneven,-31,320,20","Claire","it's alright but a little cluttered,14,260,20","Laura","abrasive, rough, uneven,-31,320,20","Tiffany","The painting is very relaxing, I'm reminded of sitting in a garden in the evening.,8,360,20","2"
"19656","","survey-text","203","1635880","0.0-202.0-0.0","A1VIDXC2Z3KSCJ","","","","{""Q0"":""woman lying down maybe?""}","","","","","","","","","","","","","","","","","","","","","","",""
"2524.5","","image-slider-response","204","1638414","0.0-203.0","A1VIDXC2Z3KSCJ","","","","","-17","","","","","","","","","","","","","","","","","","","","","",""
"4279","","image-button-response","205","1643426","0.0-204.0","A1VIDXC2Z3KSCJ","img_art/9.jpg","1","","","","","","","","","","","","","","","","","","","","","","","","",""
"5060","","image-button-response","206","1648501","0.0-205.0","A1VIDXC2Z3KSCJ","img_art/9.jpg","4","","","","","","","","","","","","","","","","","","","","","","","","",""
"2920","","image-button-response","207","1651435","0.0-206.0-0.0","A1VIDXC2Z3KSCJ","img_art/9.jpg","5","","","","","","","","","","","","","","","","","","","","","","","","",""
"901","","image-button-response","208","1652350","0.0-207.0-0.0","A1VIDXC2Z3KSCJ","img_art/9.jpg","1","","","","","","","","","","","","","","","","","","","","","","","","",""
"null","","html-keyboard-response","209","1653857","0.0-208.0","A1VIDXC2Z3KSCJ","<p style=""font-size: 48px;"">+</p>","","","","","null","allTrialResponses","1500","1","23","img_art/9.jpg","-17","woman lying down maybe?","Claire,Autumn,Tiffany,Miranda,Julia,Laura","the colors are nice,6,260,20","Abstract but not well made,-26,340,20","The piece of art makes me happy, it reminds me of a lively carnival.,15,360,20","It looks like someone gave a kid a coloring book page but the colors are soothing and look put together and elegant,27,320,20","I don't like the framing of this one,-25,40,20","autopsy, morgue, dead corpses - don't like the flesh tones,-43,320,20","Julia","I don't like the framing of this one,-25,40,20","Laura","autopsy, morgue, dead corpses - don't like the flesh tones,-43,320,20","Autumn","Abstract but not well made,-26,340,20","2"
"17654","","survey-text","210","1671550","0.0-209.0-0.0","A1VIDXC2Z3KSCJ","","","","{""Q0"":""gives me a good feeling""}","","","","","","","","","","","","","","","","","","","","","","",""
"2606.400000002235","","image-slider-response","211","1674169","0.0-210.0","A1VIDXC2Z3KSCJ","","","","","27","","","","","","","","","","","","","","","","","","","","","",""
"2947","","image-button-response","212","1679184","0.0-211.0","A1VIDXC2Z3KSCJ","img_art/5.jpg","4","","","","","","","","","","","","","","","","","","","","","","","","",""
"941","","image-button-response","213","1680139","0.0-212.0","A1VIDXC2Z3KSCJ","img_art/5.jpg","5","","","","","","","","","","","","","","","","","","","","","","","","",""
"706","","image-button-response","214","1680860","0.0-213.0-0.0","A1VIDXC2Z3KSCJ","img_art/5.jpg","4","","","","","","","","","","","","","","","","","","","","","","","","",""
"4096","","image-button-response","215","1684971","0.0-214.0-0.0","A1VIDXC2Z3KSCJ","img_art/5.jpg","1","","","","","","","","","","","","","","","","","","","","","","","","",""
"null","","html-keyboard-response","216","1685480","0.0-215.0","A1VIDXC2Z3KSCJ","<p style=""font-size: 48px;"">+</p>","","","","","null","allTrialResponses","500","1","24","img_art/5.jpg","27","gives me a good feeling","Sabrina,Autumn,Abigail,Molly,Julia,Laura","Very messy and not a lot of thought,-29,120,20","Appealing but shapeless,24,340,20","Reminds me of a broken umbrella,-9,20,20","Very non-dynamic painting, dislike it.,-10,340,20","I like this one but wish it had more context around it,18,40,20","fresh and fun - bright and active,16,320,20","Laura","fresh and fun - bright and active,16,320,20","Julia","I like this one but wish it had more context around it,18,40,20","Autumn","Appealing but shapeless,24,340,20","2"
"13559","","survey-text","217","1699070","0.0-216.0-0.0","A1VIDXC2Z3KSCJ","","","","{""Q0"":""no reaction really""}","","","","","","","","","","","","","","","","","","","","","","",""
"3182.5","","image-slider-response","218","1702266","0.0-217.0","A1VIDXC2Z3KSCJ","","","","","-1","","","","","","","","","","","","","","","","","","","","","",""
"null","","image-button-response","219","1707281","0.0-218.0","A1VIDXC2Z3KSCJ","img_art/4.jpg","null","","","","","","","","","","","","","","","","","","","","","","","","",""
"1245","","image-button-response","220","1708540","0.0-219.0","A1VIDXC2Z3KSCJ","img_art/4.jpg","3","","","","","","","","","","","","","","","","","","","","","","","","",""
"1720","","image-button-response","221","1710277","0.0-220.0-0.0","A1VIDXC2Z3KSCJ","img_art/4.jpg","0","","","","","","","","","","","","","","","","","","","","","","","","",""
"1688","","image-button-response","222","1711980","0.0-221.0-0.0","A1VIDXC2Z3KSCJ","img_art/4.jpg","1","","","","","","","","","","","","","","","","","","","","","","","","",""
"null","","html-keyboard-response","223","1712990","0.0-222.0","A1VIDXC2Z3KSCJ","<p style=""font-size: 48px;"">+</p>","","","","","null","allTrialResponses","1000","1","25","img_art/4.jpg","-1","no reaction really","Jasmine,Autumn,Amy,Shelby,Julia,Laura","It's quite meh to me,0,340,20","I don't like murky colors.,-40,340,20","disturbing and uncomfortable.,10,220,20","The colors feel a bit off to me,-10,240,20","it reminds me of McDonalds, and not in a good way.,-34,40,20","spontaneous, without hesitation,22,320,20","Shelby","The colors feel a bit off to me,-10,240,20","Jasmine","It's quite meh to me,0,340,20","Autumn","I don't like murky colors.,-40,340,20","2"
"5788","","survey-text","224","1718832","0.0-223.0-0.0","A1VIDXC2Z3KSCJ","","","","{""Q0"":""table""}","","","","","","","","","","","","","","","","","","","","","","",""
"18856","","survey-text","225","1737697","0.0-224.0-0.0","A1VIDXC2Z3KSCJ","","","","{""Q0"":""i really like it""}","","","","","","","","","","","","","","","","","","","","","","",""
"3839.39999999851","","image-slider-response","226","1741547","0.0-225.0","A1VIDXC2Z3KSCJ","","","","","37","","","","","","","","","","","","","","","","","","","","","",""
"3890","","image-button-response","227","1746560","0.0-226.0","A1VIDXC2Z3KSCJ","img_art/11.jpg","0","","","","","","","","","","","","","","","","","","","","","","","","",""
"735","","image-button-response","228","1747307","0.0-227.0","A1VIDXC2Z3KSCJ","img_art/11.jpg","2","","","","","","","","","","","","","","","","","","","","","","","","",""
"4115","","image-button-response","229","1751437","0.0-228.0-0.0","A1VIDXC2Z3KSCJ","img_art/11.jpg","4","","","","","","","","","","","","","","","","","","","","","","","","",""
"1822","","image-button-response","230","1753275","0.0-229.0-0.0","A1VIDXC2Z3KSCJ","img_art/11.jpg","3","","","","","","","","","","","","","","","","","","","","","","","","",""
"null","","html-keyboard-response","231","1754783","0.0-230.0","A1VIDXC2Z3KSCJ","<p style=""font-size: 48px;"">+</p>","","","","","null","allTrialResponses","1500","1","26","img_art/11.jpg","37","i really like it","Jasmine,Autumn,Sarah,Shelby,Jordan,Kayla","Reminds me of a city on a grey/rainy winter's day,25,340,20","Good but not eye catching,14,340,20","i like the gray tones with black lines and bits of color,23,180,20","The movement in this one is extremely pleasent,40,240,20","Oh, I love this one, it says to me that life is very busy,50,20,20","I like that it could be train tracks, or telephone wires, etc. It's always a means of getting from a to b.,15,180,20","Sarah","i like the gray tones with black lines and bits of color,23,180,20","Jordan","Oh, I love this one, it says to me that life is very busy,50,20,20","Shelby","The movement in this one is extremely pleasent,40,240,20","2"
"10058","","survey-text","232","1764887","0.0-231.0-0.0","A1VIDXC2Z3KSCJ","","","","{""Q0"":""boring and bad colors""}","","","","","","","","","","","","","","","","","","","","","","",""
"3116.900000002235","","image-slider-response","233","1768016","0.0-232.0","A1VIDXC2Z3KSCJ","","","","","-42","","","","","","","","","","","","","","","","","","","","","",""
"null","","image-button-response","234","1773036","0.0-233.0","A1VIDXC2Z3KSCJ","img_art/22.jpg","null","","","","","","","","","","","","","","","","","","","","","","","","",""
"374","","image-button-response","235","1773424","0.0-234.0","A1VIDXC2Z3KSCJ","img_art/22.jpg","2","","","","","","","","","","","","","","","","","","","","","","","","",""
"3429","","image-button-response","236","1776869","0.0-235.0-0.0","A1VIDXC2Z3KSCJ","img_art/22.jpg","4","","","","","","","","","","","","","","","","","","","","","","","","",""
"6344","","image-button-response","237","1783230","0.0-236.0-0.0","A1VIDXC2Z3KSCJ","img_art/22.jpg","3","","","","","","","","","","","","","","","","","","","","","","","","",""
"null","","html-keyboard-response","238","1784239","0.0-237.0","A1VIDXC2Z3KSCJ","<p style=""font-size: 48px;"">+</p>","","","","","null","allTrialResponses","1000","1","27","img_art/22.jpg","-42","boring and bad colors","Madison,Shannon,Sarah,Shelby,Jordan,Alicia","Like the colors, and the even blur. The more I look, the more a story forms. A very narrative image.,18,60,20","I think this picture looks interesting because of the way the colors work together.,20,220,20","boring, too many red and yellow tones for my taste,-15,180,20","This painting has a very nostalgic feel,20,240,20","not a fan of this, it's boring,1,20,20","Could be interpreted so many ways, bold. I like it.,29,120,20","Sarah","boring, too many red and yellow tones for my taste,-15,180,20","Jordan","not a fan of this, it's boring,1,20,20","Shelby","This painting has a very nostalgic feel,20,240,20","2"
"15878","","survey-text","239","1800159","0.0-238.0-0.0","A1VIDXC2Z3KSCJ","","","","{""Q0"":""not unique""}","","","","","","","","","","","","","","","","","","","","","","",""
"3355.2999999970198","","image-slider-response","240","1803527","0.0-239.0","A1VIDXC2Z3KSCJ","","","","","6","","","","","","","","","","","","","","","","","","","","","",""
"4294","","image-button-response","241","1808541","0.0-240.0","A1VIDXC2Z3KSCJ","img_art/24.jpg","2","","","","","","","","","","","","","","","","","","","","","","","","",""
"218","","image-button-response","242","1808771","0.0-241.0","A1VIDXC2Z3KSCJ","img_art/24.jpg","2","","","","","","","","","","","","","","","","","","","","","","","","",""
"5436","","image-button-response","243","1814220","0.0-242.0-0.0","A1VIDXC2Z3KSCJ","img_art/24.jpg","1","","","","","","","","","","","","","","","","","","","","","","","","",""
"1008","","image-button-response","244","1815244","0.0-243.0-0.0","A1VIDXC2Z3KSCJ","img_art/24.jpg","0","","","","","","","","","","","","","","","","","","","","","","","","",""
"null","","html-keyboard-response","245","1815752","0.0-244.0","A1VIDXC2Z3KSCJ","<p style=""font-size: 48px;"">+</p>","","","","","null","allTrialResponses","500","1","28","img_art/24.jpg","6","not unique","Heather,Kristen,Sarah,Shelby,Jordan,Breanna","i feel peace and wanting. i love waterfalls,50,260,20","calm, nature, safe, happy place,,50,280,20","it's fine, the colors are pleasing, but not my taste,9,180,20","Earthy wonderful, love everything about it,50,240,20","It's beautiful! I love it! I see a waterfall, and they are my favorite things in the world,50,20,20","Like it, nice attention to details,31,380,20","Sarah","it's fine, the colors are pleasing, but not my taste,9,180,20","Kristen","calm, nature, safe, happy place,,50,280,20","Heather","i feel peace and wanting. i love waterfalls,50,260,20","2"
"19581","","survey-text","246","1835370","0.0-245.0-0.0","A1VIDXC2Z3KSCJ","","","","{""Q0"":""nice colors and interesting""}","","","","","","","","","","","","","","","","","","","","","","",""
"3119.7999999970198","","image-slider-response","247","1838503","0.0-246.0","A1VIDXC2Z3KSCJ","","","","","27","","","","","","","","","","","","","","","","","","","","","",""
"null","","image-button-response","248","1843518","0.0-247.0","A1VIDXC2Z3KSCJ","img_art/8.jpg","null","","","","","","","","","","","","","","","","","","","","","","","","",""
"2705","","image-button-response","249","1846236","0.0-248.0","A1VIDXC2Z3KSCJ","img_art/8.jpg","4","","","","","","","","","","","","","","","","","","","","","","","","",""
"1082","","image-button-response","250","1847333","0.0-249.0-0.0","A1VIDXC2Z3KSCJ","img_art/8.jpg","3","","","","","","","","","","","","","","","","","","","","","","","","",""
"5182","","image-button-response","251","1852529","0.0-250.0-0.0","A1VIDXC2Z3KSCJ","img_art/8.jpg","5","","","","","","","","","","","","","","","","","","","","","","","","",""
"null","","html-keyboard-response","252","1853538","0.0-251.0","A1VIDXC2Z3KSCJ","<p style=""font-size: 48px;"">+</p>","","","","","null","allTrialResponses","1000","1","29","img_art/8.jpg","27","nice colors and interesting","Heather,Kristen,Sarah,Cassandra,Margaret,Ashley","woman looking over a the community,1,260,20","mothe nature/godess, watching over you,21,280,20","it's interesting but i don't enjoy the style,-5,180,20","I like the colors and the scene.,24,120,20","its pretty exciting to look at, there is alot going on,15,100,20","Escher? Dali? Could be their lovechild?,50,320,20","Margaret","its pretty exciting to look at, there is alot going on,15,100,20","Cassandra","I like the colors and the scene.,24,120,20","Ashley","Escher? Dali? Could be their lovechild?,50,320,20","2"
"11596","","survey-text","253","1865177","0.0-252.0-0.0","A1VIDXC2Z3KSCJ","","","","{""Q0"":""hurts my brain""}","","","","","","","","","","","","","","","","","","","","","","",""
"3357.10000000149","","image-slider-response","254","1868546","0.0-253.0","A1VIDXC2Z3KSCJ","","","","","-39","","","","","","","","","","","","","","","","","","","","","",""
"3804","","image-button-response","255","1873562","0.0-254.0","A1VIDXC2Z3KSCJ","img_art/23.jpg","2","","","","","","","","","","","","","","","","","","","","","","","","",""
"5304","","image-button-response","256","1878879","0.0-255.0","A1VIDXC2Z3KSCJ","img_art/23.jpg","4","","","","","","","","","","","","","","","","","","","","","","","","",""
"3063","","image-button-response","257","1881955","0.0-256.0-0.0","A1VIDXC2Z3KSCJ","img_art/23.jpg","2","","","","","","","","","","","","","","","","","","","","","","","","",""
"7791","","image-button-response","258","1889759","0.0-257.0-0.0","A1VIDXC2Z3KSCJ","img_art/23.jpg","0","","","","","","","","","","","","","","","","","","","","","","","","",""
"null","","html-keyboard-response","259","1891266","0.0-258.0","A1VIDXC2Z3KSCJ","<p style=""font-size: 48px;"">+</p>","","","","","null","allTrialResponses","1500","1","30","img_art/23.jpg","-39","hurts my brain","Gabrielle,Christina,Vanessa,Cassandra,Margaret,Ashley","it's OK, but just OK, kind of interesting but I wouldn't spend money on it,4,160,20","nice bright colors but looks like it's from the 90's,6,240,20","This is ugly and weird.,-50,380,20","I had a very neutral feeling to this,no feelings at all.,1,120,20","white reminds me of screamo music band tshirts when they have their name in the unreadable lettering,-9,100,20","A line dance, it's really strinkingly beautiful.,50,320,20","Margaret","white reminds me of screamo music band tshirts when they have their name in the unreadable lettering,-9,100,20","Vanessa","This is ugly and weird.,-50,380,20","Gabrielle","it's OK, but just OK, kind of interesting but I wouldn't spend money on it,4,160,20","2"
"5025","","image-button-response_instructions","260","1896337","0.0-259.0","A1VIDXC2Z3KSCJ","","0","instructions","","","","","","","","","","","","","","","","","","","","","","","",""
"1047","","image-button-response","261","1897417","0.0-260.0","A1VIDXC2Z3KSCJ","","0","","","","","","","","","","","","","","","","","","","","","","","","",""
