"rt","url","trial_type","trial_index","time_elapsed","internal_node_id","participant_id","stimulus","button_pressed","Name","responses","response","key_press","variableName","fixationTime","condition","trial","photo","subjectRating","subjectResponse","agentsNames","agent_1_Response","agent_2_Response","agent_3_Response","agent_4_Response","agent_5_Response","agent_6_Response","kept_1_name","kept_1_response","kept_2_name","kept_2_response","kept_3_name","kept_3_response","errorCounter"
"12791","external_page_harvard.html","external-html","0","14310","0.0-0.0","A1W850QN9RK019","","","","","","","","","","","","","","","","","","","","","","","","","","",""
"7308","","image-button-response","1","21623","0.0-1.0","A1W850QN9RK019","","0","","","","","","","","","","","","","","","","","","","","","","","","",""
"3274","","image-button-response","2","24910","0.0-2.0-0.0","A1W850QN9RK019","","1","phone","","","","","","","","","","","","","","","","","","","","","","","",""
"4492","","survey-text","3","29405","0.0-3.0-0.0","A1W850QN9RK019","","","","{""Q0"":""A1W850QN9RK019""}","","","","","","","","","","","","","","","","","","","","","","",""
"5052","","image-button-response_instructions","4","34461","0.0-4.0","A1W850QN9RK019","","0","instructions","","","","","","","","","","","","","","","","","","","","","","","",""
"276366","","image-button-response_instructions","5","310829","0.0-5.0","A1W850QN9RK019","img_art/ins/popularity/ins1.png","0","instructions","","","","","","","","","","","","","","","","","","","","","","","",""
"7527","","image-button-response_instructions","6","318357","0.0-6.0","A1W850QN9RK019","img_art/ins/popularity/ins2.png","0","instructions","","","","","","","","","","","","","","","","","","","","","","","",""
"5078","","image-button-response_instructions","7","323437","0.0-7.0","A1W850QN9RK019","img_art/ins/popularity/ins2Extreme.png","0","instructions","","","","","","","","","","","","","","","","","","","","","","","",""
"8598","","image-button-response_instructions","8","332037","0.0-8.0","A1W850QN9RK019","img_art/ins/popularity/ins3KEEPpop.PNG","0","instructions","","","","","","","","","","","","","","","","","","","","","","","",""
"18656","","image-button-response_instructions","9","350694","0.0-9.0","A1W850QN9RK019","img_art/ins/popularity/ins3ANamepop.PNG","0","instructions","","","","","","","","","","","","","","","","","","","","","","","",""
"587423","","image-button-response_instructions","10","938119","0.0-10.0","A1W850QN9RK019","img_art/ins/popularity/ins3ARatingpop.png","0","instructions","","","","","","","","","","","","","","","","","","","","","","","",""
"3485","","image-button-response_instructions","11","941605","0.0-11.0","A1W850QN9RK019","img_art/ins/popularity/ins3ATextpop.png","0","instructions","","","","","","","","","","","","","","","","","","","","","","","",""
"6007","","image-button-response_instructions","12","947613","0.0-12.0","A1W850QN9RK019","img_art/ins/popularity/ins3ALikespop.png","0","instructions","","","","","","","","","","","","","","","","","","","","","","","",""
"6695","","image-button-response_instructions","13","954309","0.0-13.0","A1W850QN9RK019","img_art/ins/popularity/ins3KEEPpop.PNG","0","instructions","","","","","","","","","","","","","","","","","","","","","","","",""
"18495","","image-button-response_instructions","14","972806","0.0-14.0","A1W850QN9RK019","img_art/ins/popularity/ins3_5RED.png","0","instructions","","","","","","","","","","","","","","","","","","","","","","","",""
"6247","","image-button-response_instructions","15","979054","0.0-15.0","A1W850QN9RK019","img_art/ins/popularity/ins3KEEPpop.PNG","0","instructions","","","","","","","","","","","","","","","","","","","","","","","",""
"7335","","image-button-response_instructions","16","986390","0.0-16.0","A1W850QN9RK019","img_art/ins/popularity/ins4KEEPpop.PNG","0","instructions","","","","","","","","","","","","","","","","","","","","","","","",""
"29799","","image-button-response_instructions","17","1016189","0.0-17.0","A1W850QN9RK019","img_art/ins/popularity/ins5KEEPpop.PNG","0","instructions","","","","","","","","","","","","","","","","","","","","","","","",""
"310126","","image-button-response_instructions","18","1326317","0.0-18.0","A1W850QN9RK019","","0","instructions","","","","","","","","","","","","","","","","","","","","","","","",""
"29913","","survey-text","19","1356277","0.0-19.0-0.0","A1W850QN9RK019","","","","{""Q0"":""but""}","","","","","","","","","","","","","","","","","","","","","","",""
"26781","","survey-text","20","1383061","0.0-20.0-0.0","A1W850QN9RK019","","","","{""Q0"":""Unique""}","","","","","","","","","","","","","","","","","","","","","","",""
"3685.4000000953674","","image-slider-response","21","1386750","0.0-21.0","A1W850QN9RK019","","","","","21","","","","","","","","","","","","","","","","","","","","","",""
"4541","","image-button-response","22","1391754","0.0-22.0","A1W850QN9RK019","img_art/ins/1.jpg","4","","","","","","","","","","","","","","","","","","","","","","","","",""
"2440","","image-button-response","23","1394198","0.0-23.0","A1W850QN9RK019","img_art/ins/1.jpg","3","","","","","","","","","","","","","","","","","","","","","","","","",""
"877","","image-button-response","24","1395078","0.0-24.0-0.0","A1W850QN9RK019","img_art/ins/1.jpg","0","","","","","","","","","","","","","","","","","","","","","","","","",""
"581","","image-button-response","25","1395662","0.0-25.0-0.0","A1W850QN9RK019","img_art/ins/1.jpg","1","","","","","","","","","","","","","","","","","","","","","","","","",""
"null","","html-keyboard-response","26","1396166","0.0-26.0","A1W850QN9RK019","<p style=""font-size: 48px;"">+</p>","","","","","null","allTrialResponses","500","1","-2","img_art/ins/1.jpg","21","Unique","Adam,Alex,Ben,Carl,Daniel,Jack","Seems like doodles,-20,20,20","very creative work.,36,40,20","This color reminds me of poo,-46,60,20","very calming artwork,42,80,20","It looks like a murder scene.,-48,100,20","I like the sophisticated brushwork,40,120,20","Carl","very calming artwork,42,80,20","Adam","Seems like doodles,-20,20,20","Alex","very creative work.,36,40,20","0"
"8576","","survey-text","27","1404753","0.0-27.0-0.0","A1W850QN9RK019","","","","{""Q0"":""nice""}","","","","","","","","","","","","","","","","","","","","","","",""
"11997","","survey-text","28","1423262","0.0-27.1-0.1","A1W850QN9RK019","","","","{""Q0"":""it is nice""}","","","","","","","","","","","","","","","","","","","","","","",""
"3102","","image-slider-response","29","1426366","0.0-28.0","A1W850QN9RK019","","","","","15","","","","","","","","","","","","","","","","","","","","","",""
"1783","","image-button-response","30","1431369","0.0-29.0","A1W850QN9RK019","img_art/ins/2.jpg","0","","","","","","","","","","","","","","","","","","","","","","","","",""
"889","","image-button-response","31","1432262","0.0-30.0","A1W850QN9RK019","img_art/ins/2.jpg","5","","","","","","","","","","","","","","","","","","","","","","","","",""
"2070","","image-button-response","32","1434335","0.0-31.0-0.0","A1W850QN9RK019","img_art/ins/2.jpg","2","","","","","","","","","","","","","","","","","","","","","","","","",""
"804","","image-button-response","33","1435142","0.0-32.0-0.0","A1W850QN9RK019","img_art/ins/2.jpg","1","","","","","","","","","","","","","","","","","","","","","","","","",""
"null","","html-keyboard-response","34","1436143","0.0-33.0","A1W850QN9RK019","<p style=""font-size: 48px;"">+</p>","","","","","null","allTrialResponses","1000","1","-1","img_art/ins/2.jpg","15","it is nice","Adam,Alex,James,Carl,John,Kyle","too much color,-18,20,20","I like the blocks of color arrangements,30,40,20","looks too angry,-50,140,20","I can feel the artist's passion in it,45,80,20","love the texture of paint,48,160,20","Idk, it is just annoying,-32,180,20","Kyle","Idk, it is just annoying,-32,180,20","James","looks too angry,-50,140,20","Alex","I like the blocks of color arrangements,30,40,20","0"
"11442","","survey-text","35","1447598","0.0-34.0-0.0","A1W850QN9RK019","","","","{""Q0"":""It is colourful""}","","","","","","","","","","","","","","","","","","","","","","",""
"5862.100000143051","","image-slider-response","36","1453462","0.0-35.0","A1W850QN9RK019","","","","","17","","","","","","","","","","","","","","","","","","","","","",""
"null","","image-button-response","37","1459402","0.0-36.0","A1W850QN9RK019","img_art/ins/3.jpg","null","","","","","","","","","","","","","","","","","","","","","","","","",""
"4992","","image-button-response","38","1464398","0.0-37.0","A1W850QN9RK019","img_art/ins/3.jpg","4","","","","","","","","","","","","","","","","","","","","","","","","",""
"789","","image-button-response","39","1465190","0.0-38.0-0.0","A1W850QN9RK019","img_art/ins/3.jpg","5","","","","","","","","","","","","","","","","","","","","","","","","",""
"621","","image-button-response","40","1465814","0.0-39.0-0.0","A1W850QN9RK019","img_art/ins/3.jpg","3","","","","","","","","","","","","","","","","","","","","","","","","",""
"null","","html-keyboard-response","41","1466829","0.0-40.0","A1W850QN9RK019","<p style=""font-size: 48px;"">+</p>","","","","","null","allTrialResponses","1000","1","0","img_art/ins/3.jpg","17","It is colourful","Sam,Alex,James,Mike,Ron,Kyle","I can feel a rainy day from this painting,18,240,20","calming blue is very nice,36,40,20","My worst nightmare,-42,140,20","enjoy the different shades of blue,22,200,20","It looks depressing,-26,220,20","It looks like a playground for bats,-36,180,20","Ron","It looks depressing,-26,220,20","Kyle","It looks like a playground for bats,-36,180,20","Mike","enjoy the different shades of blue,22,200,20","0"
"7349","","image-button-response_instructions","42","1474190","0.0-41.0","A1W850QN9RK019","","0","instructions","","","","","","","","","","","","","","","","","","","","","","","",""
"30055","","survey-likert","43","1504246","0.0-42.0-0.0","A1W850QN9RK019","","","","{""Q0"":"""",""Q1"":1,""Q2"":1}","","","","","","","","","","","","","","","","","","","","","","",""
"4430","","survey-likert","44","1512462","0.0-42.1-0.1","A1W850QN9RK019","","","","{""Q0"":"""",""Q1"":0,""Q2"":1}","","","","","","","","","","","","","","","","","","","","","","",""
"6874","","survey-text","45","1519342","0.0-43.0-0.0","A1W850QN9RK019","","","","{""Q0"":""rock""}","","","","","","","","","","","","","","","","","","","","","","",""
"12111","","survey-text","46","1531454","0.0-44.0-0.0","A1W850QN9RK019","","","","{""Q0"":""It is very nice""}","","","","","","","","","","","","","","","","","","","","","","",""
"6197.399999856949","","image-slider-response","47","1537654","0.0-45.0","A1W850QN9RK019","","","","","13","","","","","","","","","","","","","","","","","","","","","",""
"4686","","image-button-response","48","1542689","0.0-46.0","A1W850QN9RK019","img_art/19.jpg","4","","","","","","","","","","","","","","","","","","","","","","","","",""
"1199","","image-button-response","49","1543894","0.0-47.0","A1W850QN9RK019","img_art/19.jpg","1","","","","","","","","","","","","","","","","","","","","","","","","",""
"862","","image-button-response","50","1544758","0.0-48.0-0.0","A1W850QN9RK019","img_art/19.jpg","0","","","","","","","","","","","","","","","","","","","","","","","","",""
"846","","image-button-response","51","1545606","0.0-49.0-0.0","A1W850QN9RK019","img_art/19.jpg","2","","","","","","","","","","","","","","","","","","","","","","","","",""
"null","","html-keyboard-response","52","1546110","0.0-50.0","A1W850QN9RK019","<p style=""font-size: 48px;"">+</p>","","","","","null","allTrialResponses","500","1","1","img_art/19.jpg","13","It is very nice","Justin,Alex,Hunter,Stephen,Richard,Jason","It looks too much of a rough sketch. Don't really enjoy looking at it.,-9,280,20","I like the water but again, the small lines with no detail are irritating,3,100,20","feels free and loose,3,240,20","Solid use of colors but wished it looked more realistic.,12,140,20","not professional looking but not bad either,13,340,20","The picture contains a lot of brown and weird drips,-4,20,20","Alex","I like the water but again, the small lines with no detail are irritating,3,100,20","Justin","It looks too much of a rough sketch. Don't really enjoy looking at it.,-9,280,20","Hunter","feels free and loose,3,240,20","1"
"5353","","survey-text","53","1551469","0.0-51.0-0.0","A1W850QN9RK019","","","","{""Q0"":""It is colourful""}","","","","","","","","","","","","","","","","","","","","","","",""
"4414.200000047684","","image-slider-response","54","1555885","0.0-52.0","A1W850QN9RK019","","","","","8","","","","","","","","","","","","","","","","","","","","","",""
"2103","","image-button-response","55","1560894","0.0-53.0","A1W850QN9RK019","img_art/27.jpg","1","","","","","","","","","","","","","","","","","","","","","","","","",""
"877","","image-button-response","56","1561774","0.0-54.0","A1W850QN9RK019","img_art/27.jpg","3","","","","","","","","","","","","","","","","","","","","","","","","",""
"694","","image-button-response","57","1562470","0.0-55.0-0.0","A1W850QN9RK019","img_art/27.jpg","4","","","","","","","","","","","","","","","","","","","","","","","","",""
"629","","image-button-response","58","1563102","0.0-56.0-0.0","A1W850QN9RK019","img_art/27.jpg","5","","","","","","","","","","","","","","","","","","","","","","","","",""
"null","","html-keyboard-response","59","1564105","0.0-57.0","A1W850QN9RK019","<p style=""font-size: 48px;"">+</p>","","","","","null","allTrialResponses","1000","1","2","img_art/27.jpg","8","It is colourful","Justin,Alex,Hunter,Patrick,Evan,Nathaniel","The colors are put together in an interesting way.,-9,280,20","very abstract, I don't understand it, but I like the bright, cheerful colors,14,100,20","reminds me of kandinsky,10,240,20","Not cohesive design,-31,280,20","I am bothered by the green doodles,-20,140,20","Looks like a splash of different colors and designs without purpose,-44,220,20","Patrick","Not cohesive design,-31,280,20","Evan","I am bothered by the green doodles,-20,140,20","Nathaniel","Looks like a splash of different colors and designs without purpose,-44,220,20","1"
"11395","","survey-text","60","1575509","0.0-58.0-0.0","A1W850QN9RK019","","","","{""Q0"":""creativity""}","","","","","","","","","","","","","","","","","","","","","","",""
"3694.0999999046326","","image-slider-response","61","1579205","0.0-59.0","A1W850QN9RK019","","","","","32","","","","","","","","","","","","","","","","","","","","","",""
"null","","image-button-response","62","1584210","0.0-60.0","A1W850QN9RK019","img_art/17.jpg","null","","","","","","","","","","","","","","","","","","","","","","","","",""
"2431","","image-button-response","63","1586645","0.0-61.0","A1W850QN9RK019","img_art/17.jpg","0","","","","","","","","","","","","","","","","","","","","","","","","",""
"613","","image-button-response","64","1587261","0.0-62.0-0.0","A1W850QN9RK019","img_art/17.jpg","1","","","","","","","","","","","","","","","","","","","","","","","","",""
"525","","image-button-response","65","1587789","0.0-63.0-0.0","A1W850QN9RK019","img_art/17.jpg","2","","","","","","","","","","","","","","","","","","","","","","","","",""
"null","","html-keyboard-response","66","1588796","0.0-64.0","A1W850QN9RK019","<p style=""font-size: 48px;"">+</p>","","","","","null","allTrialResponses","1000","1","3","img_art/17.jpg","32","creativity","Carlos,Isaac,Kyle,Patrick,Evan,Nathaniel","It feels like nature overtaking civilization.,21,80,20","The colors are soft.,32,280,20","I like the use of color in this and how you can actually see shapes form. Seems thoughtful,22,340,20","Beautiful patterns but evokes sad emotions in me due to the color shades,31,280,20","This reminds me of spring,24,140,20","I like the artistic sketching pattern.,24,220,20","Carlos","It feels like nature overtaking civilization.,21,80,20","Isaac","The colors are soft.,32,280,20","Kyle","I like the use of color in this and how you can actually see shapes form. Seems thoughtful,22,340,20","1"
"7270","","survey-text","67","1596077","0.0-65.0-0.0","A1W850QN9RK019","","","","{""Q0"":""splendid""}","","","","","","","","","","","","","","","","","","","","","","",""
"2918","","image-slider-response","68","1598997","0.0-66.0","A1W850QN9RK019","","","","","16","","","","","","","","","","","","","","","","","","","","","",""
"null","","image-button-response","69","1604007","0.0-67.0","A1W850QN9RK019","img_art/24.jpg","null","","","","","","","","","","","","","","","","","","","","","","","","",""
"8860","","image-button-response","70","1612869","0.0-68.0","A1W850QN9RK019","img_art/24.jpg","3","","","","","","","","","","","","","","","","","","","","","","","","",""
"462","","image-button-response","71","1613333","0.0-69.0-0.0","A1W850QN9RK019","img_art/24.jpg","4","","","","","","","","","","","","","","","","","","","","","","","","",""
"533","","image-button-response","72","1613869","0.0-70.0-0.0","A1W850QN9RK019","img_art/24.jpg","5","","","","","","","","","","","","","","","","","","","","","","","","",""
"null","","html-keyboard-response","73","1615377","0.0-71.0","A1W850QN9RK019","<p style=""font-size: 48px;"">+</p>","","","","","null","allTrialResponses","1500","1","4","img_art/24.jpg","16","splendid","Carlos,Isaac,Kyle,Brandon,Bryan,Gabriel","It is like a really bad impressionist painting.,-40,80,20","The colors are relaxing and cheerful.,32,280,20","This one is nice because it reminds me of nature,18,340,20","Simple. Not too abstract. Love the different flower colors.,20,320,20","Abstract falls & nature.,41,400,20","this one is just a bit too harsh,-13,160,20","Brandon","Simple. Not too abstract. Love the different flower colors.,20,320,20","Bryan","Abstract falls & nature.,41,400,20","Gabriel","this one is just a bit too harsh,-13,160,20","1"
"14416","","survey-text","74","1629805","0.0-72.0-0.0","A1W850QN9RK019","","","","{""Q0"":""so cool""}","","","","","","","","","","","","","","","","","","","","","","",""
"5054.200000047684","","image-slider-response","75","1634861","0.0-73.0","A1W850QN9RK019","","","","","14","","","","","","","","","","","","","","","","","","","","","",""
"2518","","image-button-response","76","1639870","0.0-74.0","A1W850QN9RK019","img_art/1.jpg","0","","","","","","","","","","","","","","","","","","","","","","","","",""
"1324","","image-button-response","77","1641197","0.0-75.0","A1W850QN9RK019","img_art/1.jpg","0","","","","","","","","","","","","","","","","","","","","","","","","",""
"518","","image-button-response","78","1641717","0.0-76.0-0.0","A1W850QN9RK019","img_art/1.jpg","1","","","","","","","","","","","","","","","","","","","","","","","","",""
"542","","image-button-response","79","1642262","0.0-77.0-0.0","A1W850QN9RK019","img_art/1.jpg","2","","","","","","","","","","","","","","","","","","","","","","","","",""
"null","","html-keyboard-response","80","1642764","0.0-78.0","A1W850QN9RK019","<p style=""font-size: 48px;"">+</p>","","","","","null","allTrialResponses","500","1","5","img_art/1.jpg","14","so cool","Adam,Taylor,Eric,Brandon,Bryan,Gabriel","Messy mix of primary colors.,-10,40,20","Deja vu. Haven't I seen this one before? Not bad for those living in the backwoods.,10,200,20","I like the way that the colors blend.,35,100,20","Taco Bell wallpaper. Doesn't really make me feel anything,3,320,20","Again, like the colors & abstractness.,29,400,20","this ones alright,10,160,20","Adam","Messy mix of primary colors.,-10,40,20","Taylor","Deja vu. Haven't I seen this one before? Not bad for those living in the backwoods.,10,200,20","Eric","I like the way that the colors blend.,35,100,20","1"
"7145","","survey-text","81","1649941","0.0-79.0-0.0","A1W850QN9RK019","","","","{""Q0"":""sky""}","","","","","","","","","","","","","","","","","","","","","","",""
"7910","","survey-text","82","1657853","0.0-80.0-0.0","A1W850QN9RK019","","","","{""Q0"":""creative""}","","","","","","","","","","","","","","","","","","","","","","",""
"2997.2000000476837","","image-slider-response","83","1660853","0.0-81.0","A1W850QN9RK019","","","","","8","","","","","","","","","","","","","","","","","","","","","",""
"1310","","image-button-response","84","1665856","0.0-82.0","A1W850QN9RK019","img_art/6.jpg","3","","","","","","","","","","","","","","","","","","","","","","","","",""
"1346","","image-button-response","85","1667205","0.0-83.0","A1W850QN9RK019","img_art/6.jpg","0","","","","","","","","","","","","","","","","","","","","","","","","",""
"398","","image-button-response","86","1667605","0.0-84.0-0.0","A1W850QN9RK019","img_art/6.jpg","1","","","","","","","","","","","","","","","","","","","","","","","","",""
"543","","image-button-response","87","1668149","0.0-85.0-0.0","A1W850QN9RK019","img_art/6.jpg","2","","","","","","","","","","","","","","","","","","","","","","","","",""
"null","","html-keyboard-response","88","1669151","0.0-86.0","A1W850QN9RK019","<p style=""font-size: 48px;"">+</p>","","","","","null","allTrialResponses","1000","1","6","img_art/6.jpg","8","creative","Adam,Taylor,Eric,Cole,Jeremy,Shawn","Simple desert scene.,5,40,20","A crow on one leg?,-10,200,20","This piece reminds me of the lorax.,5,100,20","Close up peach? Hate it,-16,200,20","Kind of boring. I don't care for many abstracts,1,60,20","Cute and evocative,11,100,20","Adam","Simple desert scene.,5,40,20","Taylor","A crow on one leg?,-10,200,20","Eric","This piece reminds me of the lorax.,5,100,20","1"
"11250","","survey-text","89","1680413","0.0-87.0-0.0","A1W850QN9RK019","","","","{""Q0"":""I LOVE THIS""}","","","","","","","","","","","","","","","","","","","","","","",""
"3373.300000190735","","image-slider-response","90","1683789","0.0-88.0","A1W850QN9RK019","","","","","18","","","","","","","","","","","","","","","","","","","","","",""
"null","","image-button-response","91","1688804","0.0-89.0","A1W850QN9RK019","img_art/20.jpg","null","","","","","","","","","","","","","","","","","","","","","","","","",""
"63759","","image-button-response","92","1752566","0.0-90.0","A1W850QN9RK019","img_art/20.jpg","3","","","","","","","","","","","","","","","","","","","","","","","","",""
"382","","image-button-response","93","1752950","0.0-91.0-0.0","A1W850QN9RK019","img_art/20.jpg","4","","","","","","","","","","","","","","","","","","","","","","","","",""
"430","","image-button-response","94","1753382","0.0-92.0-0.0","A1W850QN9RK019","img_art/20.jpg","5","","","","","","","","","","","","","","","","","","","","","","","","",""
"null","","html-keyboard-response","95","1754385","0.0-93.0","A1W850QN9RK019","<p style=""font-size: 48px;"">+</p>","","","","","null","allTrialResponses","1000","1","7","img_art/20.jpg","18","I LOVE THIS","Adam,Taylor,Eric,Miguel,Alejandro,Jared","Melty picture. Reminiscent of Dali.,10,40,20","Not bad for all the southwestern people.,15,200,20","I love the color choice.,25,100,20","It's ok. Very abstract.,18,160,20","The pulling and sagging nature is very beautiful.,30,80,20","i like the rounded edges,18,400,20","Miguel","It's ok. Very abstract.,18,160,20","Alejandro","The pulling and sagging nature is very beautiful.,30,80,20","Jared","i like the rounded edges,18,400,20","1"
"19429","","survey-text","96","1773821","0.0-94.0-0.0","A1W850QN9RK019","","","","{""Q0"":""superb""}","","","","","","","","","","","","","","","","","","","","","","",""
"2374.300000190735","","image-slider-response","97","1776197","0.0-95.0","A1W850QN9RK019","","","","","26","","","","","","","","","","","","","","","","","","","","","",""
"null","","image-button-response","98","1781206","0.0-96.0","A1W850QN9RK019","img_art/10.jpg","null","","","","","","","","","","","","","","","","","","","","","","","","",""
"24908","","image-button-response","99","1806118","0.0-97.0","A1W850QN9RK019","img_art/10.jpg","3","","","","","","","","","","","","","","","","","","","","","","","","",""
"653","","image-button-response","100","1806774","0.0-98.0-0.0","A1W850QN9RK019","img_art/10.jpg","4","","","","","","","","","","","","","","","","","","","","","","","","",""
"524","","image-button-response","101","1807301","0.0-99.0-0.0","A1W850QN9RK019","img_art/10.jpg","5","","","","","","","","","","","","","","","","","","","","","","","","",""
"null","","html-keyboard-response","102","1807814","0.0-100.0","A1W850QN9RK019","<p style=""font-size: 48px;"">+</p>","","","","","null","allTrialResponses","500","1","8","img_art/10.jpg","26","superb","Jake,Samuel,Aaron,Miguel,Alejandro,Jared","This is odd and ugly.,-9,360,20","feeling the turmoil and ride,12,400,20","I like how simple but intricate it is.,30,20,20","It just looks like a dirty stain.,-38,160,20","The contrast between the messy dots/dabs vs the straight affluent lines is unappealing,-20,80,20","it just doesnt appeal to me.,-10,400,20","Miguel","It just looks like a dirty stain.,-38,160,20","Alejandro","The contrast between the messy dots/dabs vs the straight affluent lines is unappealing,-20,80,20","Jared","it just doesnt appeal to me.,-10,400,20","1"
"19016","","survey-text","103","1826841","0.0-101.0-0.0","A1W850QN9RK019","","","","{""Q0"":""superb""}","","","","","","","","","","","","","","","","","","","","","","",""
"4406.200000047684","","image-slider-response","104","1831249","0.0-102.0","A1W850QN9RK019","","","","","16","","","","","","","","","","","","","","","","","","","","","",""
"3222","","image-button-response","105","1836252","0.0-103.0","A1W850QN9RK019","img_art/23.jpg","4","","","","","","","","","","","","","","","","","","","","","","","","",""
"651","","image-button-response","106","1836906","0.0-104.0","A1W850QN9RK019","img_art/23.jpg","0","","","","","","","","","","","","","","","","","","","","","","","","",""
"445","","image-button-response","107","1837354","0.0-105.0-0.0","A1W850QN9RK019","img_art/23.jpg","1","","","","","","","","","","","","","","","","","","","","","","","","",""
"526","","image-button-response","108","1837882","0.0-106.0-0.0","A1W850QN9RK019","img_art/23.jpg","2","","","","","","","","","","","","","","","","","","","","","","","","",""
"null","","html-keyboard-response","109","1838892","0.0-107.0","A1W850QN9RK019","<p style=""font-size: 48px;"">+</p>","","","","","null","allTrialResponses","1000","1","9","img_art/23.jpg","16","superb","Juan,Tanner,Mark,Miguel,Alejandro,Jared","This is ugly and weird.,-50,260,20","fsiries, happy, spiritual,16,180,20","I see souls in torment and that makes me feel uneasy.,-21,80,20","Awesome abstraction love it.,30,160,20","I love the funky colors accompanied by perhaps dancing silhouettes. I love the white against the chaotic surroundings.,50,80,20","it makes me aggitated,-21,400,20","Juan","This is ugly and weird.,-50,260,20","Tanner","fsiries, happy, spiritual,16,180,20","Mark","I see souls in torment and that makes me feel uneasy.,-21,80,20","1"
"38095","","survey-text","110","1876997","0.0-108.0-0.0","A1W850QN9RK019","","","","{""Q0"":""creativity""}","","","","","","","","","","","","","","","","","","","","","","",""
"9781.899999856949","","image-slider-response","111","1886781","0.0-109.0","A1W850QN9RK019","","","","","16","","","","","","","","","","","","","","","","","","","","","",""
"null","","image-button-response","112","1891795","0.0-110.0","A1W850QN9RK019","img_art/5.jpg","null","","","","","","","","","","","","","","","","","","","","","","","","",""
"1215","","image-button-response","113","1893014","0.0-111.0","A1W850QN9RK019","img_art/5.jpg","3","","","","","","","","","","","","","","","","","","","","","","","","",""
"414","","image-button-response","114","1893430","0.0-112.0-0.0","A1W850QN9RK019","img_art/5.jpg","4","","","","","","","","","","","","","","","","","","","","","","","","",""
"477","","image-button-response","115","1893910","0.0-113.0-0.0","A1W850QN9RK019","img_art/5.jpg","5","","","","","","","","","","","","","","","","","","","","","","","","",""
"null","","html-keyboard-response","116","1894913","0.0-114.0","A1W850QN9RK019","<p style=""font-size: 48px;"">+</p>","","","","","null","allTrialResponses","1000","1","10","img_art/5.jpg","16","creativity","Juan,Tanner,Mark,Connor,Austin,Caleb","The yellow is garish and the picture doesn't look liked anything.,-49,260,20","sharp, painful yet playful,-5,180,20","Perfume bottle, reminds of fancy nights out.,11,80,20","Flame, candle, wind,30,240,20","Perfect for art exhibition,39,240,20","Boring and appears low effort,-41,40,20","Connor","Flame, candle, wind,30,240,20","Austin","Perfect for art exhibition,39,240,20","Caleb","Boring and appears low effort,-41,40,20","1"
"7977","","survey-text","117","1902917","0.0-115.0-0.0","A1W850QN9RK019","","","","{""Q0"":""our""}","","","","","","","","","","","","","","","","","","","","","","",""
"35334","","survey-text","118","1938253","0.0-116.0-0.0","A1W850QN9RK019","","","","{""Q0"":""so cool""}","","","","","","","","","","","","","","","","","","","","","","",""
"3093.7000000476837","","image-slider-response","119","1941349","0.0-117.0","A1W850QN9RK019","","","","","6","","","","","","","","","","","","","","","","","","","","","",""
"4990","","image-button-response","120","1946352","0.0-118.0","A1W850QN9RK019","img_art/11.jpg","3","","","","","","","","","","","","","","","","","","","","","","","","",""
"355","","image-button-response","121","1946709","0.0-119.0","A1W850QN9RK019","img_art/11.jpg","4","","","","","","","","","","","","","","","","","","","","","","","","",""
"679","","image-button-response","122","1947389","0.0-120.0-0.0","A1W850QN9RK019","img_art/11.jpg","5","","","","","","","","","","","","","","","","","","","","","","","","",""
"574","","image-button-response","123","1947965","0.0-121.0-0.0","A1W850QN9RK019","img_art/11.jpg","3","","","","","","","","","","","","","","","","","","","","","","","","",""
"null","","html-keyboard-response","124","1948467","0.0-122.0","A1W850QN9RK019","<p style=""font-size: 48px;"">+</p>","","","","","null","allTrialResponses","500","1","11","img_art/11.jpg","6","so cool","Joseph,Alexander,Chase,Connor,Austin,Caleb","I like that it could be train tracks, or telephone wires, etc. It's always a means of getting from a to b.,15,220,20","Waves of signs.,15,120,20","It's too dark and dingy.,-30,120,20","Frank Lloyd Wright, music,24,240,20","Very unique piece of art,50,240,20","Not quite as abstract as I'd like- It's clearly a dingy city.,-18,40,20","Austin","Very unique piece of art,50,240,20","Caleb","Not quite as abstract as I'd like- It's clearly a dingy city.,-18,40,20","Connor","Frank Lloyd Wright, music,24,240,20","1"
"5062","","survey-text","125","1953541","0.0-123.0-0.0","A1W850QN9RK019","","","","{""Q0"":""It is colourful""}","","","","","","","","","","","","","","","","","","","","","","",""
"2982.7000000476837","","image-slider-response","126","1956525","0.0-124.0","A1W850QN9RK019","","","","","6","","","","","","","","","","","","","","","","","","","","","",""
"null","","image-button-response","127","1961531","0.0-125.0","A1W850QN9RK019","img_art/26.jpg","null","","","","","","","","","","","","","","","","","","","","","","","","",""
"5632","","image-button-response","128","1967166","0.0-126.0","A1W850QN9RK019","img_art/26.jpg","0","","","","","","","","","","","","","","","","","","","","","","","","",""
"326","","image-button-response","129","1967494","0.0-127.0-0.0","A1W850QN9RK019","img_art/26.jpg","1","","","","","","","","","","","","","","","","","","","","","","","","",""
"366","","image-button-response","130","1967861","0.0-128.0-0.0","A1W850QN9RK019","img_art/26.jpg","2","","","","","","","","","","","","","","","","","","","","","","","","",""
"null","","html-keyboard-response","131","1968864","0.0-129.0","A1W850QN9RK019","<p style=""font-size: 48px;"">+</p>","","","","","null","allTrialResponses","1000","1","12","img_art/26.jpg","6","It is colourful","Christian,Dylan,Jorge,Connor,Austin,Caleb","love the ""lowkey"" vibrant colors that are colorful but at the same time greyscale,12,140,20","I like the colors but it is still a little boring,22,40,20","dull and boring,-6,180,20","City scene in a park,23,240,20","Like the soft blend of colors,26,240,20","Appears childish and unfinished.,-20,40,20","Christian","love the ""lowkey"" vibrant colors that are colorful but at the same time greyscale,12,140,20","Dylan","I like the colors but it is still a little boring,22,40,20","Jorge","dull and boring,-6,180,20","1"
"15132","","survey-text","132","1984005","0.0-130.0-0.0","A1W850QN9RK019","","","","{""Q0"":""It is colourful""}","","","","","","","","","","","","","","","","","","","","","","",""
"2774","","image-slider-response","133","1986781","0.0-131.0","A1W850QN9RK019","","","","","11","","","","","","","","","","","","","","","","","","","","","",""
"3254","","image-button-response","134","1991792","0.0-132.0","A1W850QN9RK019","img_art/22.jpg","4","","","","","","","","","","","","","","","","","","","","","","","","",""
"7275","","image-button-response","135","1999070","0.0-133.0","A1W850QN9RK019","img_art/22.jpg","3","","","","","","","","","","","","","","","","","","","","","","","","",""
"286","","image-button-response","136","1999358","0.0-134.0-0.0","A1W850QN9RK019","img_art/22.jpg","4","","","","","","","","","","","","","","","","","","","","","","","","",""
"469","","image-button-response","137","1999830","0.0-135.0-0.0","A1W850QN9RK019","img_art/22.jpg","5","","","","","","","","","","","","","","","","","","","","","","","","",""
"null","","html-keyboard-response","138","2000332","0.0-136.0","A1W850QN9RK019","<p style=""font-size: 48px;"">+</p>","","","","","null","allTrialResponses","500","1","13","img_art/22.jpg","11","It is colourful","Christian,Dylan,Jorge,Matthew,Peter,Cameron","colorful water (in front of castle?),17,140,20","The colors in this picture are nice.,32,40,20","A key to the unknown,15,180,20","Another servicable piece of abstract art?,20,120,20","Just neutral no feelings,2,320,20","Like this one, like a sunset,30,60,20","Matthew","Another servicable piece of abstract art?,20,120,20","Peter","Just neutral no feelings,2,320,20","Cameron","Like this one, like a sunset,30,60,20","1"
"21892","","survey-text","139","2022238","0.0-137.0-0.0","A1W850QN9RK019","","","","{""Q0"":""superb""}","","","","","","","","","","","","","","","","","","","","","","",""
"19230","","image-slider-response","140","2041469","0.0-138.0","A1W850QN9RK019","","","","","15","","","","","","","","","","","","","","","","","","","","","",""
"4134","","image-button-response","141","2046477","0.0-139.0","A1W850QN9RK019","img_art/21.jpg","0","","","","","","","","","","","","","","","","","","","","","","","","",""
"17237","","image-button-response","142","2063718","0.0-140.0","A1W850QN9RK019","img_art/21.jpg","0","","","","","","","","","","","","","","","","","","","","","","","","",""
"367","","image-button-response","143","2064086","0.0-141.0-0.0","A1W850QN9RK019","img_art/21.jpg","1","","","","","","","","","","","","","","","","","","","","","","","","",""
"486","","image-button-response","144","2064574","0.0-142.0-0.0","A1W850QN9RK019","img_art/21.jpg","2","","","","","","","","","","","","","","","","","","","","","","","","",""
"null","","html-keyboard-response","145","2065076","0.0-143.0","A1W850QN9RK019","<p style=""font-size: 48px;"">+</p>","","","","","null","allTrialResponses","500","1","14","img_art/21.jpg","15","superb","Michael,Jesse,David,Matthew,Peter,Cameron","What's the point?,-30,140,20","I dont like how nothing is defined and the colors dont work for me,-5,80,20","I like how the piece has the possibility of depicting some type of story.,30,340,20","Disturbing, land meets ocean, lvoely really.,43,120,20","I like the two sides meeting, like a movie scene,15,320,20","Like the colors. Don't like the white dots on the right side of the painting though.,15,60,20","Michael","What's the point?,-30,140,20","Jesse","I dont like how nothing is defined and the colors dont work for me,-5,80,20","David","I like how the piece has the possibility of depicting some type of story.,30,340,20","1"
"21524","","survey-text","146","2086614","0.0-144.0-0.0","A1W850QN9RK019","","","","{""Q0"":""so goodlooking""}","","","","","","","","","","","","","","","","","","","","","","",""
"3437.9000000953674","","image-slider-response","147","2090054","0.0-145.0","A1W850QN9RK019","","","","","10","","","","","","","","","","","","","","","","","","","","","",""
"null","","image-button-response","148","2095058","0.0-146.0","A1W850QN9RK019","img_art/12.jpg","null","","","","","","","","","","","","","","","","","","","","","","","","",""
"401","","image-button-response","149","2095462","0.0-147.0","A1W850QN9RK019","img_art/12.jpg","3","","","","","","","","","","","","","","","","","","","","","","","","",""
"470","","image-button-response","150","2095934","0.0-148.0-0.0","A1W850QN9RK019","img_art/12.jpg","4","","","","","","","","","","","","","","","","","","","","","","","","",""
"461","","image-button-response","151","2096398","0.0-149.0-0.0","A1W850QN9RK019","img_art/12.jpg","5","","","","","","","","","","","","","","","","","","","","","","","","",""
"null","","html-keyboard-response","152","2097401","0.0-150.0","A1W850QN9RK019","<p style=""font-size: 48px;"">+</p>","","","","","null","allTrialResponses","1000","1","15","img_art/12.jpg","10","so goodlooking","Michael,Jesse,David,Mason,Corey,Devin","Not quite my style but there more of a pattern and it is interesting to look at.,15,140,20","Just confuses me overall,-11,80,20","This doesn't invoke anything. Just a mosaic of random images.,0,340,20","it's ok, but blocky, looks old.,3,100,20","I like the bottom half and hate the top half,7,260,20","Love the shapes here,12,380,20","Mason","it's ok, but blocky, looks old.,3,100,20","Corey","I like the bottom half and hate the top half,7,260,20","Devin","Love the shapes here,12,380,20","1"
"9170","","survey-text","153","2106598","0.0-151.0-0.0","A1W850QN9RK019","","","","{""Q0"":""course""}","","","","","","","","","","","","","","","","","","","","","","",""
"33158","","survey-text","154","2139757","0.0-152.0-0.0","A1W850QN9RK019","","","","{""Q0"":""this is good""}","","","","","","","","","","","","","","","","","","","","","","",""
"3445","","image-slider-response","155","2143205","0.0-153.0","A1W850QN9RK019","","","","","38","","","","","","","","","","","","","","","","","","","","","",""
"null","","image-button-response","156","2148216","0.0-154.0","A1W850QN9RK019","img_art/8.jpg","null","","","","","","","","","","","","","","","","","","","","","","","","",""
"3490","","image-button-response","157","2151710","0.0-155.0","A1W850QN9RK019","img_art/8.jpg","3","","","","","","","","","","","","","","","","","","","","","","","","",""
"398","","image-button-response","158","2152110","0.0-156.0-0.0","A1W850QN9RK019","img_art/8.jpg","4","","","","","","","","","","","","","","","","","","","","","","","","",""
"438","","image-button-response","159","2152550","0.0-157.0-0.0","A1W850QN9RK019","img_art/8.jpg","5","","","","","","","","","","","","","","","","","","","","","","","","",""
"null","","html-keyboard-response","160","2153564","0.0-158.0","A1W850QN9RK019","<p style=""font-size: 48px;"">+</p>","","","","","null","allTrialResponses","1000","1","16","img_art/8.jpg","38","this is good","Dustin,Jordan,Jesus,Mason,Corey,Devin","I like the colors. But I don't like the faces, they look distraught. Faces and sharp shapes make me anxious,1,20,20","I did not like the face,-10,160,20","The different shapes are fun to look for.,30,100,20","wow. blocky, angled, neat colors. The faces are what makes it. love it.,45,100,20","its pretty exciting to look at, there is alot going on,15,260,20","Very nice detail and colors!,10,380,20","Mason","wow. blocky, angled, neat colors. The faces are what makes it. love it.,45,100,20","Corey","its pretty exciting to look at, there is alot going on,15,260,20","Devin","Very nice detail and colors!,10,380,20","1"
"7828","","survey-text","161","2161405","0.0-159.0-0.0","A1W850QN9RK019","","","","{""Q0"":""creative""}","","","","","","","","","","","","","","","","","","","","","","",""
"18005.5","","image-slider-response","162","2179413","0.0-160.0","A1W850QN9RK019","","","","","16","","","","","","","","","","","","","","","","","","","","","",""
"null","","image-button-response","163","2184417","0.0-161.0","A1W850QN9RK019","img_art/2.jpg","null","","","","","","","","","","","","","","","","","","","","","","","","",""
"664","","image-button-response","164","2185086","0.0-162.0","A1W850QN9RK019","img_art/2.jpg","3","","","","","","","","","","","","","","","","","","","","","","","","",""
"383","","image-button-response","165","2185471","0.0-163.0-0.0","A1W850QN9RK019","img_art/2.jpg","4","","","","","","","","","","","","","","","","","","","","","","","","",""
"605","","image-button-response","166","2186078","0.0-164.0-0.0","A1W850QN9RK019","img_art/2.jpg","5","","","","","","","","","","","","","","","","","","","","","","","","",""
"null","","html-keyboard-response","167","2187093","0.0-165.0","A1W850QN9RK019","<p style=""font-size: 48px;"">+</p>","","","","","null","allTrialResponses","1000","1","17","img_art/2.jpg","16","creative","Nicholas,Timothy,Isaiah,Mason,Corey,Devin","Cute and happy,22,240,20","The contrasting colors are a bit harsh,-10,240,20","I feel claustrophobic. I'm looking at a busy shop, but the simple shapes and continuous colors make it hectic.,-8,300,20","retro, amateurish, not a fan of the colors together.,-10,100,20","doesn't do anything for me,-7,260,20","I don't really like this style,-5,380,20","Mason","retro, amateurish, not a fan of the colors together.,-10,100,20","Corey","doesn't do anything for me,-7,260,20","Devin","I don't really like this style,-5,380,20","1"
"18419","","survey-text","168","2205525","0.0-166.0-0.0","A1W850QN9RK019","","","","{""Q0"":""creativity at its peak""}","","","","","","","","","","","","","","","","","","","","","","",""
"3934.100000143051","","image-slider-response","169","2209461","0.0-167.0","A1W850QN9RK019","","","","","32","","","","","","","","","","","","","","","","","","","","","",""
"null","","image-button-response","170","2214465","0.0-168.0","A1W850QN9RK019","img_art/13.jpg","null","","","","","","","","","","","","","","","","","","","","","","","","",""
"1019","","image-button-response","171","2215487","0.0-169.0","A1W850QN9RK019","img_art/13.jpg","3","","","","","","","","","","","","","","","","","","","","","","","","",""
"334","","image-button-response","172","2215823","0.0-170.0-0.0","A1W850QN9RK019","img_art/13.jpg","4","","","","","","","","","","","","","","","","","","","","","","","","",""
"620","","image-button-response","173","2216446","0.0-171.0-0.0","A1W850QN9RK019","img_art/13.jpg","5","","","","","","","","","","","","","","","","","","","","","","","","",""
"null","","html-keyboard-response","174","2216949","0.0-172.0","A1W850QN9RK019","<p style=""font-size: 48px;"">+</p>","","","","","null","allTrialResponses","500","1","18","img_art/13.jpg","32","creativity at its peak","Jeffrey,Antonio,Christopher,Mason,Corey,Devin","Messy but organised, helps me to relax and observe,8,40,20","Pretty but didnt cause a reaction,33,220,20","this is an appealing mix of textures to me and the color scheme is harmonious,36,160,20","meh, 80's. retro,-9,100,20","i like the splatters and the colors,21,260,20","Really love the colors,11,380,20","Mason","meh, 80's. retro,-9,100,20","Corey","i like the splatters and the colors,21,260,20","Devin","Really love the colors,11,380,20","1"
"10116","","survey-text","175","2227077","0.0-173.0-0.0","A1W850QN9RK019","","","","{""Q0"":""so good""}","","","","","","","","","","","","","","","","","","","","","","",""
"4557.900000095367","","image-slider-response","176","2231638","0.0-174.0","A1W850QN9RK019","","","","","14","","","","","","","","","","","","","","","","","","","","","",""
"4342","","image-button-response","177","2236641","0.0-175.0","A1W850QN9RK019","img_art/28.jpg","4","","","","","","","","","","","","","","","","","","","","","","","","",""
"3050","","image-button-response","178","2239694","0.0-176.0","A1W850QN9RK019","img_art/28.jpg","3","","","","","","","","","","","","","","","","","","","","","","","","",""
"317","","image-button-response","179","2240014","0.0-177.0-0.0","A1W850QN9RK019","img_art/28.jpg","4","","","","","","","","","","","","","","","","","","","","","","","","",""
"357","","image-button-response","180","2240374","0.0-178.0-0.0","A1W850QN9RK019","img_art/28.jpg","5","","","","","","","","","","","","","","","","","","","","","","","","",""
"null","","html-keyboard-response","181","2241376","0.0-179.0","A1W850QN9RK019","<p style=""font-size: 48px;"">+</p>","","","","","null","allTrialResponses","1000","1","19","img_art/28.jpg","14","so good","Thomas,Charles,Mitchell,Mason,Corey,Devin","I can't explain why, but I really love this one,50,220,20","The thing on the right is kind of weird/fetus-y,-12,100,20","A mom protecting her child because something scary, (perhaps imaginary) wants to take the child.,-10,180,20","bland busy ugly,-31,100,20","i like the neutral color pallette but i dont know what i am looking at,26,260,20","It is a bit drab,-10,380,20","Mason","bland busy ugly,-31,100,20","Corey","i like the neutral color pallette but i dont know what i am looking at,26,260,20","Devin","It is a bit drab,-10,380,20","1"
"20152","","survey-text","182","2261541","0.0-180.0-0.0","A1W850QN9RK019","","","","{""Q0"":""traditional""}","","","","","","","","","","","","","","","","","","","","","","",""
"4414.099999904633","","image-slider-response","183","2265957","0.0-181.0","A1W850QN9RK019","","","","","10","","","","","","","","","","","","","","","","","","","","","",""
"4974","","image-button-response","184","2270966","0.0-182.0","A1W850QN9RK019","img_art/25.jpg","3","","","","","","","","","","","","","","","","","","","","","","","","",""
"355","","image-button-response","185","2271326","0.0-183.0","A1W850QN9RK019","img_art/25.jpg","4","","","","","","","","","","","","","","","","","","","","","","","","",""
"1389","","image-button-response","186","2272717","0.0-184.0-0.0","A1W850QN9RK019","img_art/25.jpg","3","","","","","","","","","","","","","","","","","","","","","","","","",""
"1014","","image-button-response","187","2273734","0.0-185.0-0.0","A1W850QN9RK019","img_art/25.jpg","5","","","","","","","","","","","","","","","","","","","","","","","","",""
"null","","html-keyboard-response","188","2274737","0.0-186.0","A1W850QN9RK019","<p style=""font-size: 48px;"">+</p>","","","","","null","allTrialResponses","1000","1","20","img_art/25.jpg","10","traditional","Cody,Jose,Luke,Mason,Corey,Devin","Like the colors and the figure,30,180,20","That's pretty awesome. I love the green and black combo, reminds me of one of those cartoon creepy movies,47,200,20","the contrasting colors are very interesting,24,20,20","death. childish nightmare.,-29,100,20","love the color and the contrast of the black on teal,50,260,20","It looks a bit strange to me, neck too long,-19,380,20","Corey","love the color and the contrast of the black on teal,50,260,20","Mason","death. childish nightmare.,-29,100,20","Devin","It looks a bit strange to me, neck too long,-19,380,20","1"
"4156","","survey-text","189","2278918","0.0-187.0-0.0","A1W850QN9RK019","","","","{""Q0"":""we""}","","","","","","","","","","","","","","","","","","","","","","",""
"14686","","survey-text","190","2293605","0.0-188.0-0.0","A1W850QN9RK019","","","","{""Q0"":""so good""}","","","","","","","","","","","","","","","","","","","","","","",""
"5206.099999904633","","image-slider-response","191","2298813","0.0-189.0","A1W850QN9RK019","","","","","15","","","","","","","","","","","","","","","","","","","","","",""
"null","","image-button-response","192","2303827","0.0-190.0","A1W850QN9RK019","img_art/16.jpg","null","","","","","","","","","","","","","","","","","","","","","","","","",""
"1759","","image-button-response","193","2305590","0.0-191.0","A1W850QN9RK019","img_art/16.jpg","0","","","","","","","","","","","","","","","","","","","","","","","","",""
"375","","image-button-response","194","2305966","0.0-192.0-0.0","A1W850QN9RK019","img_art/16.jpg","1","","","","","","","","","","","","","","","","","","","","","","","","",""
"509","","image-button-response","195","2306478","0.0-193.0-0.0","A1W850QN9RK019","img_art/16.jpg","2","","","","","","","","","","","","","","","","","","","","","","","","",""
"null","","html-keyboard-response","196","2307480","0.0-194.0","A1W850QN9RK019","<p style=""font-size: 48px;"">+</p>","","","","","null","allTrialResponses","1000","1","21","img_art/16.jpg","15","so good","Blake,Jack,James,Mason,Corey,Devin","cute and warm. i like the bear,15,280,20","very bizarre and confusing, but that feels purposeful, so i don't completely hate it.,-25,320,20","It is interesting to say the least,0,380,20","Don't get it. Hate it. ugly.,-44,100,20","i like how it incorporates mixed visual art with the photo of the bear and the drawings,30,260,20","That bear looks unfitting!,-8,380,20","Blake","cute and warm. i like the bear,15,280,20","Jack","very bizarre and confusing, but that feels purposeful, so i don't completely hate it.,-25,320,20","James","It is interesting to say the least,0,380,20","1"
"18297","","survey-text","197","2325790","0.0-195.0-0.0","A1W850QN9RK019","","","","{""Q0"":""superb""}","","","","","","","","","","","","","","","","","","","","","","",""
"5941.799999952316","","image-slider-response","198","2331734","0.0-196.0","A1W850QN9RK019","","","","","15","","","","","","","","","","","","","","","","","","","","","",""
"null","","image-button-response","199","2336743","0.0-197.0","A1W850QN9RK019","img_art/30.jpg","null","","","","","","","","","","","","","","","","","","","","","","","","",""
"1491","","image-button-response","200","2338238","0.0-198.0","A1W850QN9RK019","img_art/30.jpg","3","","","","","","","","","","","","","","","","","","","","","","","","",""
"399","","image-button-response","201","2338639","0.0-199.0-0.0","A1W850QN9RK019","img_art/30.jpg","4","","","","","","","","","","","","","","","","","","","","","","","","",""
"389","","image-button-response","202","2339030","0.0-200.0-0.0","A1W850QN9RK019","img_art/30.jpg","5","","","","","","","","","","","","","","","","","","","","","","","","",""
"null","","html-keyboard-response","203","2339538","0.0-201.0","A1W850QN9RK019","<p style=""font-size: 48px;"">+</p>","","","","","null","allTrialResponses","500","1","22","img_art/30.jpg","15","superb","Blake,Jack,James,Adrian,Devon,Steven","snakes in the grass, I don't like it,-17,280,20","love the movement of the brush strokes. very interesting piece.,38,320,20","I like the fact that it's a painting.,21,380,20","Interesting. Not sure what I'm seeing but it makes me want to figure it out.,5,60,20","the different roads to take in life,10,400,20","cant see the meaning behind it,-20,160,20","Adrian","Interesting. Not sure what I'm seeing but it makes me want to figure it out.,5,60,20","Devon","the different roads to take in life,10,400,20","Steven","cant see the meaning behind it,-20,160,20","1"
"13964","","survey-text","204","2353518","0.0-202.0-0.0","A1W850QN9RK019","","","","{""Q0"":""brand new design""}","","","","","","","","","","","","","","","","","","","","","","",""
"3462.0999999046326","","image-slider-response","205","2356982","0.0-203.0","A1W850QN9RK019","","","","","16","","","","","","","","","","","","","","","","","","","","","",""
"null","","image-button-response","206","2361989","0.0-204.0","A1W850QN9RK019","img_art/7.jpg","null","","","","","","","","","","","","","","","","","","","","","","","","",""
"15485","","image-button-response","207","2377478","0.0-205.0","A1W850QN9RK019","img_art/7.jpg","3","","","","","","","","","","","","","","","","","","","","","","","","",""
"358","","image-button-response","208","2377838","0.0-206.0-0.0","A1W850QN9RK019","img_art/7.jpg","4","","","","","","","","","","","","","","","","","","","","","","","","",""
"621","","image-button-response","209","2378462","0.0-207.0-0.0","A1W850QN9RK019","img_art/7.jpg","5","","","","","","","","","","","","","","","","","","","","","","","","",""
"null","","html-keyboard-response","210","2379972","0.0-208.0","A1W850QN9RK019","<p style=""font-size: 48px;"">+</p>","","","","","null","allTrialResponses","1500","1","23","img_art/7.jpg","16","brand new design","Vincent,John,Jonathan,Adrian,Devon,Steven","One I would love to own . Calm relaxing spiritual and full of love,41,360,20","It looks like someone took a picture of a muddy ground and called it art.,-41,120,20","Looks like the surface of mars,29,140,20","It's dirty. I don't mind the colors so much as the way they are put together in this dirty-looking pattern.,-41,60,20","I'm not too sure about this one,-10,400,20","looks like the surface of the moon.,1,160,20","Adrian","It's dirty. I don't mind the colors so much as the way they are put together in this dirty-looking pattern.,-41,60,20","Devon","I'm not too sure about this one,-10,400,20","Steven","looks like the surface of the moon.,1,160,20","1"
"8986","","survey-text","211","2388973","0.0-209.0-0.0","A1W850QN9RK019","","","","{""Q0"":""creative""}","","","","","","","","","","","","","","","","","","","","","","",""
"2262.5999999046326","","image-slider-response","212","2391238","0.0-210.0","A1W850QN9RK019","","","","","12","","","","","","","","","","","","","","","","","","","","","",""
"4759","","image-button-response","213","2396250","0.0-211.0","A1W850QN9RK019","img_art/18.jpg","0","","","","","","","","","","","","","","","","","","","","","","","","",""
"113","","image-button-response","214","2396366","0.0-212.0","A1W850QN9RK019","img_art/18.jpg","1","","","","","","","","","","","","","","","","","","","","","","","","",""
"613","","image-button-response","215","2396982","0.0-213.0-0.0","A1W850QN9RK019","img_art/18.jpg","2","","","","","","","","","","","","","","","","","","","","","","","","",""
"1349","","image-button-response","216","2398334","0.0-214.0-0.0","A1W850QN9RK019","img_art/18.jpg","4","","","","","","","","","","","","","","","","","","","","","","","","",""
"null","","html-keyboard-response","217","2399836","0.0-215.0","A1W850QN9RK019","<p style=""font-size: 48px;"">+</p>","","","","","null","allTrialResponses","1500","1","24","img_art/18.jpg","12","creative","Colton,Angel,Brendan,Adrian,Devon,Steven","reminds me of greek mythology,22,220,20","Like riding into battle. A sense of confidence, but also trepidation for what's coming. Could be a personification of death.,-10,180,20","looks like a war,22,340,20","Interesting piece - gives you more the more you look at it. I like it but wouldn't buy it.,11,60,20","I really like this one - there seems to be a story behind it,32,400,20","Oh heck yes! I see two warriors riding down from valhalla, awesome painting,50,160,20","Angel","Like riding into battle. A sense of confidence, but also trepidation for what's coming. Could be a personification of death.,-10,180,20","Brendan","looks like a war,22,340,20","Devon","I really like this one - there seems to be a story behind it,32,400,20","1"
"6082","","survey-text","218","2405934","0.0-216.0-0.0","A1W850QN9RK019","","","","{""Q0"":""so good""}","","","","","","","","","","","","","","","","","","","","","","",""
"24076.799999952316","","image-slider-response","219","2430014","0.0-217.0","A1W850QN9RK019","","","","","15","","","","","","","","","","","","","","","","","","","","","",""
"4166","","image-button-response","220","2435019","0.0-218.0","A1W850QN9RK019","img_art/29.jpg","3","","","","","","","","","","","","","","","","","","","","","","","","",""
"743","","image-button-response","221","2435766","0.0-219.0","A1W850QN9RK019","img_art/29.jpg","4","","","","","","","","","","","","","","","","","","","","","","","","",""
"318","","image-button-response","222","2436086","0.0-220.0-0.0","A1W850QN9RK019","img_art/29.jpg","3","","","","","","","","","","","","","","","","","","","","","","","","",""
"573","","image-button-response","223","2436662","0.0-221.0-0.0","A1W850QN9RK019","img_art/29.jpg","5","","","","","","","","","","","","","","","","","","","","","","","","",""
"null","","html-keyboard-response","224","2437663","0.0-222.0","A1W850QN9RK019","<p style=""font-size: 48px;"">+</p>","","","","","null","allTrialResponses","1000","1","25","img_art/29.jpg","15","so good","Scott,Angel,Brendan,Noah,Devon,Paul","feels random and not thoughtout,-37,20,20","This piece feels gross. Makes me think of pollution/litter strewn across a dirty street.,-20,180,20","it looks like a prison,-33,340,20","the mixed medium / collage annoys me,-19,260,20","seems fun, looks like a battle zone,22,400,20","There's too much black and it looks sloppy,-35,300,20","Devon","seems fun, looks like a battle zone,22,400,20","Noah","the mixed medium / collage annoys me,-19,260,20","Paul","There's too much black and it looks sloppy,-35,300,20","1"
"5087","","survey-text","225","2442782","0.0-223.0-0.0","A1W850QN9RK019","","","","{""Q0"":""table""}","","","","","","","","","","","","","","","","","","","","","","",""
"29598","","survey-text","226","2472382","0.0-224.0-0.0","A1W850QN9RK019","","","","{""Q0"":""so cool""}","","","","","","","","","","","","","","","","","","","","","","",""
"7653.900000095367","","image-slider-response","227","2480038","0.0-225.0","A1W850QN9RK019","","","","","6","","","","","","","","","","","","","","","","","","","","","",""
"null","","image-button-response","228","2485041","0.0-226.0","A1W850QN9RK019","img_art/14.jpg","null","","","","","","","","","","","","","","","","","","","","","","","","",""
"1898","","image-button-response","229","2486942","0.0-227.0","A1W850QN9RK019","img_art/14.jpg","3","","","","","","","","","","","","","","","","","","","","","","","","",""
"406","","image-button-response","230","2487350","0.0-228.0-0.0","A1W850QN9RK019","img_art/14.jpg","4","","","","","","","","","","","","","","","","","","","","","","","","",""
"686","","image-button-response","231","2488038","0.0-229.0-0.0","A1W850QN9RK019","img_art/14.jpg","5","","","","","","","","","","","","","","","","","","","","","","","","",""
"null","","html-keyboard-response","232","2488540","0.0-230.0","A1W850QN9RK019","<p style=""font-size: 48px;"">+</p>","","","","","null","allTrialResponses","500","1","26","img_art/14.jpg","6","so cool","Logan,Marcus,William,Noah,Devon,Paul","I dont really vibe with the grayish color palette,-7,360,20","I like the colors and the shapes are interesting,11,60,20","calming to look at,37,380,20","I enjoy what comes across as a playful take on nature themes,26,260,20","this would make a very beautiful art project,22,400,20","Just don't like it, maybe it's the bleeding colors on the left of the tree-looking thing in the center or the faded background,-10,300,20","Noah","I enjoy what comes across as a playful take on nature themes,26,260,20","Devon","this would make a very beautiful art project,22,400,20","Paul","Just don't like it, maybe it's the bleeding colors on the left of the tree-looking thing in the center or the faded background,-10,300,20","1"
"6032","","survey-text","233","2494590","0.0-231.0-0.0","A1W850QN9RK019","","","","{""Q0"":""so good""}","","","","","","","","","","","","","","","","","","","","","","",""
"4814.200000047684","","image-slider-response","234","2499406","0.0-232.0","A1W850QN9RK019","","","","","0","","","","","","","","","","","","","","","","","","","","","",""
"null","","image-button-response","235","2504415","0.0-233.0","A1W850QN9RK019","img_art/15.jpg","null","","","","","","","","","","","","","","","","","","","","","","","","",""
"4675","","image-button-response","236","2509094","0.0-234.0","A1W850QN9RK019","img_art/15.jpg","3","","","","","","","","","","","","","","","","","","","","","","","","",""
"548","","image-button-response","237","2509646","0.0-235.0-0.0","A1W850QN9RK019","img_art/15.jpg","4","","","","","","","","","","","","","","","","","","","","","","","","",""
"525","","image-button-response","238","2510174","0.0-236.0-0.0","A1W850QN9RK019","img_art/15.jpg","5","","","","","","","","","","","","","","","","","","","","","","","","",""
"null","","html-keyboard-response","239","2511681","0.0-237.0","A1W850QN9RK019","<p style=""font-size: 48px;"">+</p>","","","","","null","allTrialResponses","1500","1","27","img_art/15.jpg","0","so good","Benjamin,Andrew,Sean,Noah,Devon,Paul","Reminds me of blueberry bushes.,7,260,20","The blues are soothing,21,160,20","my response to the picture is that I dont know what I am looking at,-25,40,20","i enjoy its apaprent simplicity (of colour and shape),32,260,20","This one seems a bit frightening,-19,400,20","I don't feel much of anything when looking at this, it's just a random pattern,1,300,20","Noah","i enjoy its apaprent simplicity (of colour and shape),32,260,20","Devon","This one seems a bit frightening,-19,400,20","Paul","I don't feel much of anything when looking at this, it's just a random pattern,1,300,20","1"
"13255","","survey-text","240","2524950","0.0-238.0-0.0","A1W850QN9RK019","","","","{""Q0"":""nice piece of art""}","","","","","","","","","","","","","","","","","","","","","","",""
"12629.900000095367","","image-slider-response","241","2537582","0.0-239.0","A1W850QN9RK019","","","","","13","","","","","","","","","","","","","","","","","","","","","",""
"null","","image-button-response","242","2542595","0.0-240.0","A1W850QN9RK019","img_art/4.jpg","null","","","","","","","","","","","","","","","","","","","","","","","","",""
"2464","","image-button-response","243","2545063","0.0-241.0","A1W850QN9RK019","img_art/4.jpg","3","","","","","","","","","","","","","","","","","","","","","","","","",""
"1134","","image-button-response","244","2546198","0.0-242.0-0.0","A1W850QN9RK019","img_art/4.jpg","1","","","","","","","","","","","","","","","","","","","","","","","","",""
"1414","","image-button-response","245","2547615","0.0-243.0-0.0","A1W850QN9RK019","img_art/4.jpg","2","","","","","","","","","","","","","","","","","","","","","","","","",""
"null","","html-keyboard-response","246","2548123","0.0-244.0","A1W850QN9RK019","<p style=""font-size: 48px;"">+</p>","","","","","null","allTrialResponses","500","1","28","img_art/4.jpg","13","nice piece of art","Travis,Dakota,Ethan,Noah,Devon,Paul","I don't like this...a mustardy scibble.,-47,260,20","spontaneous, without hesitation,22,280,20","This looks like a child got into his diaper.,-46,120,20","no strong feelings about this one,2,260,20","heart symbol - this tells a story of hidden love,30,400,20","The dark yellow color makes me think of mustard, which I dislike,-27,300,20","Noah","no strong feelings about this one,2,260,20","Dakota","spontaneous, without hesitation,22,280,20","Ethan","This looks like a child got into his diaper.,-46,120,20","1"
"15337","","survey-text","247","2563477","0.0-245.0-0.0","A1W850QN9RK019","","","","{""Q0"":""creative""}","","","","","","","","","","","","","","","","","","","","","","",""
"3398.0999999046326","","image-slider-response","248","2566877","0.0-246.0","A1W850QN9RK019","","","","","9","","","","","","","","","","","","","","","","","","","","","",""
"null","","image-button-response","249","2571881","0.0-247.0","A1W850QN9RK019","img_art/9.jpg","null","","","","","","","","","","","","","","","","","","","","","","","","",""
"674","","image-button-response","250","2572558","0.0-248.0","A1W850QN9RK019","img_art/9.jpg","1","","","","","","","","","","","","","","","","","","","","","","","","",""
"1526","","image-button-response","251","2574086","0.0-249.0-0.0","A1W850QN9RK019","img_art/9.jpg","3","","","","","","","","","","","","","","","","","","","","","","","","",""
"573","","image-button-response","252","2574662","0.0-250.0-0.0","A1W850QN9RK019","img_art/9.jpg","5","","","","","","","","","","","","","","","","","","","","","","","","",""
"null","","html-keyboard-response","253","2575164","0.0-251.0","A1W850QN9RK019","<p style=""font-size: 48px;"">+</p>","","","","","null","allTrialResponses","500","1","29","img_art/9.jpg","9","creative","Daniel,Dakota,Ethan,Noah,Bradley,Lucas","A troubled painter was influenced by anger and mad at the woman in the middle, color not bad,-32,320,20","autopsy, morgue, dead corpses - don't like the flesh tones,-43,280,20","How neat is this piece?  I love the angry expressive lines. Emotion is captured in it.,26,120,20","while I don't dispute the art, it feels childish,-20,260,20","Yikes. I'm not sure what to make of this one.,-14,300,20","I like the way the artist has painted his painting.,20,380,20","Dakota","autopsy, morgue, dead corpses - don't like the flesh tones,-43,280,20","Noah","while I don't dispute the art, it feels childish,-20,260,20","Lucas","I like the way the artist has painted his painting.,20,380,20","1"
"6224","","survey-text","254","2581405","0.0-252.0-0.0","A1W850QN9RK019","","","","{""Q0"":""so good""}","","","","","","","","","","","","","","","","","","","","","","",""
"10854.200000047684","","image-slider-response","255","2592262","0.0-253.0","A1W850QN9RK019","","","","","13","","","","","","","","","","","","","","","","","","","","","",""
"null","","image-button-response","256","2597272","0.0-254.0","A1W850QN9RK019","img_art/3.jpg","null","","","","","","","","","","","","","","","","","","","","","","","","",""
"13899","","image-button-response","257","2611174","0.0-255.0","A1W850QN9RK019","img_art/3.jpg","0","","","","","","","","","","","","","","","","","","","","","","","","",""
"998","","image-button-response","258","2612174","0.0-256.0-0.0","A1W850QN9RK019","img_art/3.jpg","4","","","","","","","","","","","","","","","","","","","","","","","","",""
"494","","image-button-response","259","2612670","0.0-257.0-0.0","A1W850QN9RK019","img_art/3.jpg","3","","","","","","","","","","","","","","","","","","","","","","","","",""
"null","","html-keyboard-response","260","2614181","0.0-258.0","A1W850QN9RK019","<p style=""font-size: 48px;"">+</p>","","","","","null","allTrialResponses","1500","1","30","img_art/3.jpg","13","so good","Kenneth,Dakota,Tyler,Noah,Grant,Lucas","Reminds me of blood.,-28,300,20","wild scribbling, freedom, expression,40,280,20","This doesn't grab me. Perhaps the red is meant to be provocative; I find it gimmicky.,-9,320,20","I struggle to see the art,-20,260,20","It looks like the artist was trying too hard to make it chaotic and emotional.,-25,200,20","Mysterious, remarkable.,30,380,20","Kenneth","Reminds me of blood.,-28,300,20","Grant","It looks like the artist was trying too hard to make it chaotic and emotional.,-25,200,20","Noah","I struggle to see the art,-20,260,20","1"
"34431","","image-button-response_instructions","261","2648630","0.0-259.0","A1W850QN9RK019","","0","instructions","","","","","","","","","","","","","","","","","","","","","","","",""
