"rt","url","trial_type","trial_index","time_elapsed","internal_node_id","participant_id","stimulus","button_pressed","Name","responses","response","key_press","variableName","fixationTime","condition","trial","photo","subjectRating","subjectResponse","agentsNames","agent_1_Response","agent_2_Response","agent_3_Response","agent_4_Response","agent_5_Response","agent_6_Response","kept_1_name","kept_1_response","kept_2_name","kept_2_response","kept_3_name","kept_3_response","errorCounter"
"19722","external_page_harvard.html","external-html","0","20317","0.0-0.0","A1X2NKYJNHB1A5","","","","","","","","","","","","","","","","","","","","","","","","","","",""
"1789","","image-button-response","1","22108","0.0-1.0","A1X2NKYJNHB1A5","","1","","","","","","","","","","","","","","","","","","","","","","","","",""
"1972","","image-button-response","2","24083","0.0-2.0-0.0","A1X2NKYJNHB1A5","","1","phone","","","","","","","","","","","","","","","","","","","","","","","",""
"6719","","survey-text","3","30803","0.0-3.0-0.0","A1X2NKYJNHB1A5","","","","{""Q0"":""A1X2NKYJNHB1A5""}","","","","","","","","","","","","","","","","","","","","","","",""
"13310","","image-button-response_instructions","4","44116","0.0-4.0","A1X2NKYJNHB1A5","","0","instructions","","","","","","","","","","","","","","","","","","","","","","","",""
"24543","","image-button-response_instructions","5","68660","0.0-5.0","A1X2NKYJNHB1A5","img_art/ins/popularity/ins1.png","0","instructions","","","","","","","","","","","","","","","","","","","","","","","",""
"6039","","image-button-response_instructions","6","74699","0.0-6.0","A1X2NKYJNHB1A5","img_art/ins/popularity/ins2.png","0","instructions","","","","","","","","","","","","","","","","","","","","","","","",""
"6303","","image-button-response_instructions","7","81003","0.0-7.0","A1X2NKYJNHB1A5","img_art/ins/popularity/ins2Extreme.png","0","instructions","","","","","","","","","","","","","","","","","","","","","","","",""
"4535","","image-button-response_instructions","8","85539","0.0-8.0","A1X2NKYJNHB1A5","img_art/ins/popularity/ins3KEEPpop.PNG","0","instructions","","","","","","","","","","","","","","","","","","","","","","","",""
"4279","","image-button-response_instructions","9","89819","0.0-9.0","A1X2NKYJNHB1A5","img_art/ins/popularity/ins3ANamepop.PNG","0","instructions","","","","","","","","","","","","","","","","","","","","","","","",""
"3807","","image-button-response_instructions","10","93627","0.0-10.0","A1X2NKYJNHB1A5","img_art/ins/popularity/ins3ARatingpop.png","0","instructions","","","","","","","","","","","","","","","","","","","","","","","",""
"2632","","image-button-response_instructions","11","96259","0.0-11.0","A1X2NKYJNHB1A5","img_art/ins/popularity/ins3ATextpop.png","0","instructions","","","","","","","","","","","","","","","","","","","","","","","",""
"7296","","image-button-response_instructions","12","103555","0.0-12.0","A1X2NKYJNHB1A5","img_art/ins/popularity/ins3ALikespop.png","0","instructions","","","","","","","","","","","","","","","","","","","","","","","",""
"10846","","image-button-response_instructions","13","114403","0.0-13.0","A1X2NKYJNHB1A5","img_art/ins/popularity/ins3KEEPpop.PNG","0","instructions","","","","","","","","","","","","","","","","","","","","","","","",""
"6872","","image-button-response_instructions","14","121275","0.0-14.0","A1X2NKYJNHB1A5","img_art/ins/popularity/ins3_5RED.png","0","instructions","","","","","","","","","","","","","","","","","","","","","","","",""
"3351","","image-button-response_instructions","15","124626","0.0-15.0","A1X2NKYJNHB1A5","img_art/ins/popularity/ins3KEEPpop.PNG","0","instructions","","","","","","","","","","","","","","","","","","","","","","","",""
"7655","","image-button-response_instructions","16","132282","0.0-16.0","A1X2NKYJNHB1A5","img_art/ins/popularity/ins4KEEPpop.PNG","0","instructions","","","","","","","","","","","","","","","","","","","","","","","",""
"4375","","image-button-response_instructions","17","136658","0.0-17.0","A1X2NKYJNHB1A5","img_art/ins/popularity/ins5KEEPpop.PNG","0","instructions","","","","","","","","","","","","","","","","","","","","","","","",""
"1231","","image-button-response_instructions","18","137890","0.0-18.0","A1X2NKYJNHB1A5","","0","instructions","","","","","","","","","","","","","","","","","","","","","","","",""
"13328","","survey-text","19","151235","0.0-19.0-0.0","A1X2NKYJNHB1A5","","","","{""Q0"":""but""}","","","","","","","","","","","","","","","","","","","","","","",""
"17430","","survey-text","20","168666","0.0-20.0-0.0","A1X2NKYJNHB1A5","","","","{""Q0"":""feels sloppy, not cohesive""}","","","","","","","","","","","","","","","","","","","","","","",""
"6366.199999988079","","image-slider-response","21","175034","0.0-21.0","A1X2NKYJNHB1A5","","","","","-14","","","","","","","","","","","","","","","","","","","","","",""
"null","","image-button-response","22","180037","0.0-22.0","A1X2NKYJNHB1A5","img_art/ins/1.jpg","null","","","","","","","","","","","","","","","","","","","","","","","","",""
"8427","","image-button-response","23","188466","0.0-23.0","A1X2NKYJNHB1A5","img_art/ins/1.jpg","1","","","","","","","","","","","","","","","","","","","","","","","","",""
"6135","","image-button-response","24","194602","0.0-24.0-0.0","A1X2NKYJNHB1A5","img_art/ins/1.jpg","5","","","","","","","","","","","","","","","","","","","","","","","","",""
"4397","","image-button-response","25","199002","0.0-25.0-0.0","A1X2NKYJNHB1A5","img_art/ins/1.jpg","0","","","","","","","","","","","","","","","","","","","","","","","","",""
"null","","html-keyboard-response","26","200019","0.0-26.0","A1X2NKYJNHB1A5","<p style=""font-size: 48px;"">+</p>","","","","","null","allTrialResponses","1000","1","-2","img_art/ins/1.jpg","-14","feels sloppy, not cohesive","Allison,Ashley,Beth,Dora,Erika,Jen","looks like a lot of things going on in the mist,20,20,20","I just don't get why these type of art would be popular,-32,40,20","This color reminds me of poo,-46,60,20","looks like what my niece in 3rd grade did this afternoon,-50,80,20","I like the sophisticated brushwork,40,100,20","It reminds me of a candy land dream I had,36,120,20","Ashley","I just don't get why these type of art would be popular,-32,40,20","Jen","It reminds me of a candy land dream I had,36,120,20","Allison","looks like a lot of things going on in the mist,20,20,20","0"
"24548","","survey-text","27","224570","0.0-27.0-0.0","A1X2NKYJNHB1A5","","","","{""Q0"":""love the bright colors  and box shapes through the painting""}","","","","","","","","","","","","","","","","","","","","","","",""
"3478.900000035763","","image-slider-response","28","228050","0.0-28.0","A1X2NKYJNHB1A5","","","","","23","","","","","","","","","","","","","","","","","","","","","",""
"null","","image-button-response","29","233064","0.0-29.0","A1X2NKYJNHB1A5","img_art/ins/2.jpg","null","","","","","","","","","","","","","","","","","","","","","","","","",""
"241","","image-button-response","30","233306","0.0-30.0","A1X2NKYJNHB1A5","img_art/ins/2.jpg","4","","","","","","","","","","","","","","","","","","","","","","","","",""
"2134","","image-button-response","31","235441","0.0-31.0-0.0","A1X2NKYJNHB1A5","img_art/ins/2.jpg","5","","","","","","","","","","","","","","","","","","","","","","","","",""
"5839","","image-button-response","32","241281","0.0-32.0-0.0","A1X2NKYJNHB1A5","img_art/ins/2.jpg","0","","","","","","","","","","","","","","","","","","","","","","","","",""
"null","","html-keyboard-response","33","241783","0.0-33.0","A1X2NKYJNHB1A5","<p style=""font-size: 48px;"">+</p>","","","","","null","allTrialResponses","500","1","-1","img_art/ins/2.jpg","23","love the bright colors  and box shapes through the painting","Allison,Ashley,Katie,Jenna,Kara,Jen","I don't have strong feelings about this,10,20,20","Idk, it is just annoying,-32,40,20","too much color!,-28,180,20","One of my pet peevs,-48,140,20","I like the blocks of color arrangements,30,160,20","It reminds me of a fireplace,36,120,20","Kara","I like the blocks of color arrangements,30,160,20","Jen","It reminds me of a fireplace,36,120,20","Allison","I don't have strong feelings about this,10,20,20","0"
"26816","","survey-text","34","268601","0.0-34.0-0.0","A1X2NKYJNHB1A5","","","","{""Q0"":""reminds me off a heavy snowfall with giant flakes""}","","","","","","","","","","","","","","","","","","","","","","",""
"6846.600000023842","","image-slider-response","35","275449","0.0-35.0","A1X2NKYJNHB1A5","","","","","5","","","","","","","","","","","","","","","","","","","","","",""
"1975","","image-button-response","36","280451","0.0-36.0","A1X2NKYJNHB1A5","img_art/ins/3.jpg","0","","","","","","","","","","","","","","","","","","","","","","","","",""
"1445","","image-button-response","37","281897","0.0-37.0","A1X2NKYJNHB1A5","img_art/ins/3.jpg","4","","","","","","","","","","","","","","","","","","","","","","","","",""
"1751","","image-button-response","38","283649","0.0-38.0-0.0","A1X2NKYJNHB1A5","img_art/ins/3.jpg","0","","","","","","","","","","","","","","","","","","","","","","","","",""
"4623","","image-button-response","39","288273","0.0-39.0-0.0","A1X2NKYJNHB1A5","img_art/ins/3.jpg","5","","","","","","","","","","","","","","","","","","","","","","","","",""
"null","","html-keyboard-response","40","288785","0.0-40.0","A1X2NKYJNHB1A5","<p style=""font-size: 48px;"">+</p>","","","","","null","allTrialResponses","500","1","0","img_art/ins/3.jpg","5","reminds me off a heavy snowfall with giant flakes","Allison,Rose,Mary,Leslie,Kara,Jen","enjoy the different shades of blue,22,20,20","My daily routine, it's depressing,-20,240,20","I like the overlapping of brushes,41,220,20","It's an alright work,15,200,20","calming blue is very nice,36,160,20","I can feel a rainy day from this painting,18,120,20","Kara","calming blue is very nice,36,160,20","Allison","enjoy the different shades of blue,22,20,20","Jen","I can feel a rainy day from this painting,18,120,20","0"
"11036","","image-button-response_instructions","41","299825","0.0-41.0","A1X2NKYJNHB1A5","","0","instructions","","","","","","","","","","","","","","","","","","","","","","","",""
"18487","","survey-likert","42","318313","0.0-42.0-0.0","A1X2NKYJNHB1A5","","","","{""Q0"":"""",""Q1"":0,""Q2"":1}","","","","","","","","","","","","","","","","","","","","","","",""
"5285","","survey-text","43","323601","0.0-43.0-0.0","A1X2NKYJNHB1A5","","","","{""Q0"":""rock""}","","","","","","","","","","","","","","","","","","","","","","",""
"28207","","survey-text","44","351808","0.0-44.0-0.0","A1X2NKYJNHB1A5","","","","{""Q0"":""this reminds me of the ocean with mountains beside it. ""}","","","","","","","","","","","","","","","","","","","","","","",""
"2983","","image-slider-response","45","354793","0.0-45.0","A1X2NKYJNHB1A5","","","","","12","","","","","","","","","","","","","","","","","","","","","",""
"4083","","image-button-response","46","359815","0.0-46.0","A1X2NKYJNHB1A5","img_art/21.jpg","0","","","","","","","","","","","","","","","","","","","","","","","","",""
"4201","","image-button-response","47","364018","0.0-47.0","A1X2NKYJNHB1A5","img_art/21.jpg","5","","","","","","","","","","","","","","","","","","","","","","","","",""
"3230","","image-button-response","48","367249","0.0-48.0-0.0","A1X2NKYJNHB1A5","img_art/21.jpg","3","","","","","","","","","","","","","","","","","","","","","","","","",""
"943","","image-button-response","49","368194","0.0-49.0-0.0","A1X2NKYJNHB1A5","img_art/21.jpg","4","","","","","","","","","","","","","","","","","","","","","","","","",""
"null","","html-keyboard-response","50","369704","0.0-50.0","A1X2NKYJNHB1A5","<p style=""font-size: 48px;"">+</p>","","","","","null","allTrialResponses","1500","1","1","img_art/21.jpg","12","this reminds me of the ocean with mountains beside it. ","Cassandra,Caroline,Paige,Erica,Heather,Chelsea","I liked it...it looked like a storm raging.,12,120,20","the colors are pretty but I did not feel any thing looking at it,33,100,20","the picture is boring,1,60,20","Relaxing and easy to look at,27,80,20","The color spectrum is just beautiful.,32,260,20","I like the colors. It looks dramatic.,5,180,20","Chelsea","I like the colors. It looks dramatic.,5,180,20","Erica","Relaxing and easy to look at,27,80,20","Heather","The color spectrum is just beautiful.,32,260,20","0"
"26343","","survey-text","51","396049","0.0-51.0-0.0","A1X2NKYJNHB1A5","","","","{""Q0"":""this appears to be a sloppy painting of a face. dont like the  colors""}","","","","","","","","","","","","","","","","","","","","","","",""
"3198.5","","image-slider-response","52","399248","0.0-52.0","A1X2NKYJNHB1A5","","","","","-41","","","","","","","","","","","","","","","","","","","","","",""
"null","","image-button-response","53","404259","0.0-53.0","A1X2NKYJNHB1A5","img_art/2.jpg","null","","","","","","","","","","","","","","","","","","","","","","","","",""
"7212","","image-button-response","54","411473","0.0-54.0","A1X2NKYJNHB1A5","img_art/2.jpg","0","","","","","","","","","","","","","","","","","","","","","","","","",""
"1246","","image-button-response","55","412721","0.0-55.0-0.0","A1X2NKYJNHB1A5","img_art/2.jpg","5","","","","","","","","","","","","","","","","","","","","","","","","",""
"4822","","image-button-response","56","417545","0.0-56.0-0.0","A1X2NKYJNHB1A5","img_art/2.jpg","2","","","","","","","","","","","","","","","","","","","","","","","","",""
"null","","html-keyboard-response","57","418546","0.0-57.0","A1X2NKYJNHB1A5","<p style=""font-size: 48px;"">+</p>","","","","","null","allTrialResponses","1000","1","2","img_art/2.jpg","-41","this appears to be a sloppy painting of a face. dont like the  colors","Kelly,Laura,Katherine,Erica,Heather,Chelsea","I cant tell whats happening here and that shade of green is just not my thing.,-17,220,20","active and kinetic- simplified,14,320,20","The color combo is kind of ugly but there's something charming about it still,17,120,20","positive, seems like someone really happy and colourful is looking at me,22,80,20","i like the colors and again can make out my own picture,38,260,20","Not sure what is happening. I'm not a big fan of the colors but they don't bother me either.,1,180,20","Kelly","I cant tell whats happening here and that shade of green is just not my thing.,-17,220,20","Chelsea","Not sure what is happening. I'm not a big fan of the colors but they don't bother me either.,1,180,20","Katherine","The color combo is kind of ugly but there's something charming about it still,17,120,20","0"
"19531","","survey-text","58","438080","0.0-58.0-0.0","A1X2NKYJNHB1A5","","","","{""Q0"":""dont like the colors used but the square shape pattern is nice""}","","","","","","","","","","","","","","","","","","","","","","",""
"2751.099999964237","","image-slider-response","59","440833","0.0-59.0","A1X2NKYJNHB1A5","","","","","4","","","","","","","","","","","","","","","","","","","","","",""
"null","","image-button-response","60","445834","0.0-60.0","A1X2NKYJNHB1A5","img_art/12.jpg","null","","","","","","","","","","","","","","","","","","","","","","","","",""
"8918","","image-button-response","61","454752","0.0-61.0","A1X2NKYJNHB1A5","img_art/12.jpg","0","","","","","","","","","","","","","","","","","","","","","","","","",""
"10063","","image-button-response","62","464817","0.0-62.0-0.0","A1X2NKYJNHB1A5","img_art/12.jpg","5","","","","","","","","","","","","","","","","","","","","","","","","",""
"5742","","image-button-response","63","470561","0.0-63.0-0.0","A1X2NKYJNHB1A5","img_art/12.jpg","2","","","","","","","","","","","","","","","","","","","","","","","","",""
"null","","html-keyboard-response","64","471573","0.0-64.0","A1X2NKYJNHB1A5","<p style=""font-size: 48px;"">+</p>","","","","","null","allTrialResponses","1000","1","3","img_art/12.jpg","4","dont like the colors used but the square shape pattern is nice","Kelly,Katie,Katherine,Cassidy,Megan,Chelsea","It's pretty, I find it interesting to look at.,10,220,20","Squares are rigid. I'm ambivalent.,1,160,20","Not sure why but this is my favorite. I'd put it on my wall,50,120,20","I like the colors and pattern,21,140,20","Blocky windowed, safe and selfish,-41,200,20","I like the gradient of little color on the top to colorful on the bottom.,24,180,20","Kelly","It's pretty, I find it interesting to look at.,10,220,20","Chelsea","I like the gradient of little color on the top to colorful on the bottom.,24,180,20","Katherine","Not sure why but this is my favorite. I'd put it on my wall,50,120,20","0"
"35520","","survey-text","65","507095","0.0-65.0-0.0","A1X2NKYJNHB1A5","","","","{""Q0"":""I like the black and white coloring but the actual picture makes me feel hectic""}","","","","","","","","","","","","","","","","","","","","","","",""
"3054.699999988079","","image-slider-response","66","510151","0.0-66.0","A1X2NKYJNHB1A5","","","","","-21","","","","","","","","","","","","","","","","","","","","","",""
"null","","image-button-response","67","515153","0.0-67.0","A1X2NKYJNHB1A5","img_art/10.jpg","null","","","","","","","","","","","","","","","","","","","","","","","","",""
"2725","","image-button-response","68","517879","0.0-68.0","A1X2NKYJNHB1A5","img_art/10.jpg","4","","","","","","","","","","","","","","","","","","","","","","","","",""
"5399","","image-button-response","69","523279","0.0-69.0-0.0","A1X2NKYJNHB1A5","img_art/10.jpg","1","","","","","","","","","","","","","","","","","","","","","","","","",""
"1087","","image-button-response","70","524367","0.0-70.0-0.0","A1X2NKYJNHB1A5","img_art/10.jpg","5","","","","","","","","","","","","","","","","","","","","","","","","",""
"null","","html-keyboard-response","71","525875","0.0-71.0","A1X2NKYJNHB1A5","<p style=""font-size: 48px;"">+</p>","","","","","null","allTrialResponses","1500","1","4","img_art/10.jpg","-21","I like the black and white coloring but the actual picture makes me feel hectic","Kelly,Dominique,Katherine,Kristen,Molly,Chelsea","I cant tell what this is supposed to be, but I enjoy the simplicity of it.,28,220,20","A very conversational piece could be of many different ideas,38,400,20","This is pretty rad. The outline looks like a music staff,15,120,20","music, serenity, love,33,280,20","For me, it looks like a giant ship on the sea and it's astonishing.,30,340,20","It looks intricate.,15,180,20","Molly","For me, it looks like a giant ship on the sea and it's astonishing.,30,340,20","Dominique","A very conversational piece could be of many different ideas,38,400,20","Chelsea","It looks intricate.,15,180,20","0"
"14386","","survey-text","72","540263","0.0-72.0-0.0","A1X2NKYJNHB1A5","","","","{""Q0"":""for some reason this is the most calming to me so far""}","","","","","","","","","","","","","","","","","","","","","","",""
"2599.099999964237","","image-slider-response","73","542863","0.0-73.0","A1X2NKYJNHB1A5","","","","","32","","","","","","","","","","","","","","","","","","","","","",""
"2231","","image-button-response","74","547878","0.0-74.0","A1X2NKYJNHB1A5","img_art/14.jpg","1","","","","","","","","","","","","","","","","","","","","","","","","",""
"1664","","image-button-response","75","549543","0.0-75.0","A1X2NKYJNHB1A5","img_art/14.jpg","5","","","","","","","","","","","","","","","","","","","","","","","","",""
"2127","","image-button-response","76","551671","0.0-76.0-0.0","A1X2NKYJNHB1A5","img_art/14.jpg","3","","","","","","","","","","","","","","","","","","","","","","","","",""
"4943","","image-button-response","77","556616","0.0-77.0-0.0","A1X2NKYJNHB1A5","img_art/14.jpg","1","","","","","","","","","","","","","","","","","","","","","","","","",""
"null","","html-keyboard-response","78","557630","0.0-78.0","A1X2NKYJNHB1A5","<p style=""font-size: 48px;"">+</p>","","","","","null","allTrialResponses","1000","1","5","img_art/14.jpg","32","for some reason this is the most calming to me so far","Cynthia,Dominique,Kimberly,Kaitlin,Molly,Chelsea","unsure and dull feeling,-1,320,20","Reminds me of the old days with my family and my grandma,41,400,20","In some ways it looks natural, but I'm just not feeling it,0,260,20","this would make a very beautiful art project,22,60,20","In my opinion it's spectacular.,35,340,20","The colors are pleasing.,29,180,20","Chelsea","The colors are pleasing.,29,180,20","Kaitlin","this would make a very beautiful art project,22,60,20","Dominique","Reminds me of the old days with my family and my grandma,41,400,20","0"
"8077","","survey-text","79","565711","0.0-79.0-0.0","A1X2NKYJNHB1A5","","","","{""Q0"":""sky""}","","","","","","","","","","","","","","","","","","","","","","",""
"31959","","survey-text","80","597671","0.0-80.0-0.0","A1X2NKYJNHB1A5","","","","{""Q0"":""love the colors used. it appears to be a man painting to me""}","","","","","","","","","","","","","","","","","","","","","","",""
"3718.699999988079","","image-slider-response","81","601391","0.0-81.0","A1X2NKYJNHB1A5","","","","","24","","","","","","","","","","","","","","","","","","","","","",""
"2486","","image-button-response","82","606393","0.0-82.0","A1X2NKYJNHB1A5","img_art/28.jpg","1","","","","","","","","","","","","","","","","","","","","","","","","",""
"877","","image-button-response","83","607271","0.0-83.0","A1X2NKYJNHB1A5","img_art/28.jpg","2","","","","","","","","","","","","","","","","","","","","","","","","",""
"3350","","image-button-response","84","610623","0.0-84.0-0.0","A1X2NKYJNHB1A5","img_art/28.jpg","4","","","","","","","","","","","","","","","","","","","","","","","","",""
"3942","","image-button-response","85","614566","0.0-85.0-0.0","A1X2NKYJNHB1A5","img_art/28.jpg","0","","","","","","","","","","","","","","","","","","","","","","","","",""
"null","","html-keyboard-response","86","616078","0.0-86.0","A1X2NKYJNHB1A5","<p style=""font-size: 48px;"">+</p>","","","","","null","allTrialResponses","1500","1","6","img_art/28.jpg","24","love the colors used. it appears to be a man painting to me","Gabrielle,Dominique,Danielle,Kaitlin,Diana,Chelsea","bland coloring but pattern interesting,2,160,20","This is one of my favorites. It says to me to take time for people,37,400,20","I enjoy the color themes, they seem gloomy and mysterious, and content in their own way, which I love.,20,340,20","i'm not too impressed with this one.,-10,60,20","I think this piece is interesting. I love the faces drawn into it.,29,380,20","It is too messy.,-38,180,20","Danielle","I enjoy the color themes, they seem gloomy and mysterious, and content in their own way, which I love.,20,340,20","Diana","I think this piece is interesting. I love the faces drawn into it.,29,380,20","Gabrielle","bland coloring but pattern interesting,2,160,20","0"
"23501","","survey-text","87","639582","0.0-87.0-0.0","A1X2NKYJNHB1A5","","","","{""Q0"":""way to simplistic and sloppy. no feeling in this one to me""}","","","","","","","","","","","","","","","","","","","","","","",""
"3047.099999964237","","image-slider-response","88","642631","0.0-88.0","A1X2NKYJNHB1A5","","","","","-49","","","","","","","","","","","","","","","","","","","","","",""
"3991","","image-button-response","89","647633","0.0-89.0","A1X2NKYJNHB1A5","img_art/5.jpg","1","","","","","","","","","","","","","","","","","","","","","","","","",""
"1220","","image-button-response","90","648854","0.0-90.0","A1X2NKYJNHB1A5","img_art/5.jpg","5","","","","","","","","","","","","","","","","","","","","","","","","",""
"3119","","image-button-response","91","651974","0.0-91.0-0.0","A1X2NKYJNHB1A5","img_art/5.jpg","3","","","","","","","","","","","","","","","","","","","","","","","","",""
"1159","","image-button-response","92","653134","0.0-92.0-0.0","A1X2NKYJNHB1A5","img_art/5.jpg","2","","","","","","","","","","","","","","","","","","","","","","","","",""
"null","","html-keyboard-response","93","653636","0.0-93.0","A1X2NKYJNHB1A5","<p style=""font-size: 48px;"">+</p>","","","","","null","allTrialResponses","500","1","7","img_art/5.jpg","-49","way to simplistic and sloppy. no feeling in this one to me","Gabrielle,Michelle,Danielle,Gabriela,Diana,Caitlin","looks like a 2nd grader did it,-50,160,20","What is this? It looks like no effort was put into this work,-2,280,20","Not a fan of the themes,-30,340,20","I am confused as to what this is supposed to be,6,140,20","I didn't care for this art piece. I wasn't sure about the color choice.,-15,380,20","More kindergarten art class. Who buys this stuff?,-45,80,20","Caitlin","More kindergarten art class. Who buys this stuff?,-45,80,20","Gabriela","I am confused as to what this is supposed to be,6,140,20","Danielle","Not a fan of the themes,-30,340,20","0"
"32095","","survey-text","94","685733","0.0-94.0-0.0","A1X2NKYJNHB1A5","","","","{""Q0"":""love the relaxing color. I also love the lines and squares. ""}","","","","","","","","","","","","","","","","","","","","","","",""
"2510.900000035763","","image-slider-response","95","688245","0.0-95.0","A1X2NKYJNHB1A5","","","","","50","","","","","","","","","","","","","","","","","","","","","",""
"4231","","image-button-response","96","693248","0.0-96.0","A1X2NKYJNHB1A5","img_art/17.jpg","0","","","","","","","","","","","","","","","","","","","","","","","","",""
"845","","image-button-response","97","694094","0.0-97.0","A1X2NKYJNHB1A5","img_art/17.jpg","3","","","","","","","","","","","","","","","","","","","","","","","","",""
"1903","","image-button-response","98","695998","0.0-98.0-0.0","A1X2NKYJNHB1A5","img_art/17.jpg","4","","","","","","","","","","","","","","","","","","","","","","","","",""
"2542","","image-button-response","99","698542","0.0-99.0-0.0","A1X2NKYJNHB1A5","img_art/17.jpg","1","","","","","","","","","","","","","","","","","","","","","","","","",""
"null","","html-keyboard-response","100","700043","0.0-100.0","A1X2NKYJNHB1A5","<p style=""font-size: 48px;"">+</p>","","","","","null","allTrialResponses","1500","1","8","img_art/17.jpg","50","love the relaxing color. I also love the lines and squares. ","Hailey,Shelby,Danielle,Gabriela,Sophia,Caitlin","soft and warm light colors are relaxing,12,200,20","This feels like creativity and limitlessness,30,240,20","It's alright, nothing I particularly like but it's just fine,-10,340,20","This makes me feel inspired and happy. I love everything about this portrait,45,140,20","It kind of pulls you in to float away with it.,9,280,20","Somewhat should trim the tree branches at the shopping mall.,10,80,20","Gabriela","This makes me feel inspired and happy. I love everything about this portrait,45,140,20","Sophia","It kind of pulls you in to float away with it.,9,280,20","Shelby","This feels like creativity and limitlessness,30,240,20","0"
"34783","","survey-text","101","734830","0.0-101.0-0.0","A1X2NKYJNHB1A5","","","","{""Q0"":""the colors and the  dots are just too much. I like  the middle though. it seems like a bunch or figures""}","","","","","","","","","","","","","","","","","","","","","","",""
"3350.800000011921","","image-slider-response","102","738182","0.0-102.0","A1X2NKYJNHB1A5","","","","","-9","","","","","","","","","","","","","","","","","","","","","",""
"2879","","image-button-response","103","743183","0.0-103.0","A1X2NKYJNHB1A5","img_art/23.jpg","4","","","","","","","","","","","","","","","","","","","","","","","","",""
"301","","image-button-response","104","743486","0.0-104.0","A1X2NKYJNHB1A5","img_art/23.jpg","3","","","","","","","","","","","","","","","","","","","","","","","","",""
"2598","","image-button-response","105","746086","0.0-105.0-0.0","A1X2NKYJNHB1A5","img_art/23.jpg","0","","","","","","","","","","","","","","","","","","","","","","","","",""
"3430","","image-button-response","106","749518","0.0-106.0-0.0","A1X2NKYJNHB1A5","img_art/23.jpg","5","","","","","","","","","","","","","","","","","","","","","","","","",""
"null","","html-keyboard-response","107","751022","0.0-107.0","A1X2NKYJNHB1A5","<p style=""font-size: 48px;"">+</p>","","","","","null","allTrialResponses","1500","1","9","img_art/23.jpg","-9","the colors and the  dots are just too much. I like  the middle though. it seems like a bunch or figures","Brittany,Shelby,Natalie,Gabriela,Sophia,Sabrina","The white paint through the middle really draws the eye.,30,40,20","This feels so energized, i love it,50,240,20","so much detail .,31,400,20","It looks like a parade of musicians full of excitement. Makes me feel upbeat,33,140,20","I like the contrast and the bright colors in this one.,6,280,20","I dont like the chaos of this,-20,120,20","Gabriela","It looks like a parade of musicians full of excitement. Makes me feel upbeat,33,140,20","Brittany","The white paint through the middle really draws the eye.,30,40,20","Sabrina","I dont like the chaos of this,-20,120,20","0"
"26469","","survey-text","108","777493","0.0-108.0-0.0","A1X2NKYJNHB1A5","","","","{""Q0"":""dont really like the coloring. this seems like very dark work""}","","","","","","","","","","","","","","","","","","","","","","",""
"3150.899999976158","","image-slider-response","109","780645","0.0-109.0","A1X2NKYJNHB1A5","","","","","-43","","","","","","","","","","","","","","","","","","","","","",""
"2278","","image-button-response","110","785656","0.0-110.0","A1X2NKYJNHB1A5","img_art/25.jpg","2","","","","","","","","","","","","","","","","","","","","","","","","",""
"483","","image-button-response","111","786141","0.0-111.0","A1X2NKYJNHB1A5","img_art/25.jpg","3","","","","","","","","","","","","","","","","","","","","","","","","",""
"1815","","image-button-response","112","787957","0.0-112.0-0.0","A1X2NKYJNHB1A5","img_art/25.jpg","0","","","","","","","","","","","","","","","","","","","","","","","","",""
"2671","","image-button-response","113","790629","0.0-113.0-0.0","A1X2NKYJNHB1A5","img_art/25.jpg","2","","","","","","","","","","","","","","","","","","","","","","","","",""
"null","","html-keyboard-response","114","792135","0.0-114.0","A1X2NKYJNHB1A5","<p style=""font-size: 48px;"">+</p>","","","","","null","allTrialResponses","1500","1","10","img_art/25.jpg","-43","dont really like the coloring. this seems like very dark work","Brittany,Claire,Lauren,Gabriela,Jenna,Sabrina","It's a rather intriguing design,12,40,20","the colors are pretty,11,260,20","Depicts something negative, such as ritual. I'm not a fan.,-10,340,20","It looks like a person at a graveyard,18,140,20","beautiful in a primitive way,10,360,20","New life, rising from your personal battles,50,120,20","Gabriela","It looks like a person at a graveyard,18,140,20","Brittany","It's a rather intriguing design,12,40,20","Lauren","Depicts something negative, such as ritual. I'm not a fan.,-10,340,20","0"
"5841","","survey-text","115","797981","0.0-115.0-0.0","A1X2NKYJNHB1A5","","","","{""Q0"":""our""}","","","","","","","","","","","","","","","","","","","","","","",""
"29310","","survey-text","116","827292","0.0-116.0-0.0","A1X2NKYJNHB1A5","","","","{""Q0"":""do not like the grey background but I do like the line work with the splashes of color""}","","","","","","","","","","","","","","","","","","","","","","",""
"3391.5","","image-slider-response","117","830685","0.0-117.0","A1X2NKYJNHB1A5","","","","","3","","","","","","","","","","","","","","","","","","","","","",""
"3550","","image-button-response","118","835687","0.0-118.0","A1X2NKYJNHB1A5","img_art/11.jpg","3","","","","","","","","","","","","","","","","","","","","","","","","",""
"1390","","image-button-response","119","837077","0.0-119.0","A1X2NKYJNHB1A5","img_art/11.jpg","5","","","","","","","","","","","","","","","","","","","","","","","","",""
"4039","","image-button-response","120","841117","0.0-120.0-0.0","A1X2NKYJNHB1A5","img_art/11.jpg","4","","","","","","","","","","","","","","","","","","","","","","","","",""
"1686","","image-button-response","121","842805","0.0-121.0-0.0","A1X2NKYJNHB1A5","img_art/11.jpg","2","","","","","","","","","","","","","","","","","","","","","","","","",""
"null","","html-keyboard-response","122","843306","0.0-122.0","A1X2NKYJNHB1A5","<p style=""font-size: 48px;"">+</p>","","","","","null","allTrialResponses","500","1","11","img_art/11.jpg","3","do not like the grey background but I do like the line work with the splashes of color","Brittany,Jordan,Lauren,Gabriela,Brooke,Leah","It reminds me of telephone wires.,1,40,20","Oh, I love this one, it says to me that life is very busy,50,20,20","I like how this piece can be interpreted in different ways, such as a village on hilly terrain.,10,340,20","This photo makes me feel bleak,-16,140,20","futuristic arching railways,25,60,20","Even with the colors, it is dreary to me,-32,360,20","Leah","Even with the colors, it is dreary to me,-32,360,20","Brooke","futuristic arching railways,25,60,20","Lauren","I like how this piece can be interpreted in different ways, such as a village on hilly terrain.,10,340,20","0"
"11328","","survey-text","123","854637","0.0-123.0-0.0","A1X2NKYJNHB1A5","","","","{""Q0"":""these colors remind me of fall. ""}","","","","","","","","","","","","","","","","","","","","","","",""
"3575.099999964237","","image-slider-response","124","858213","0.0-124.0","A1X2NKYJNHB1A5","","","","","7","","","","","","","","","","","","","","","","","","","","","",""
"3975","","image-button-response","125","863215","0.0-125.0","A1X2NKYJNHB1A5","img_art/1.jpg","3","","","","","","","","","","","","","","","","","","","","","","","","",""
"381","","image-button-response","126","863597","0.0-126.0","A1X2NKYJNHB1A5","img_art/1.jpg","4","","","","","","","","","","","","","","","","","","","","","","","","",""
"1847","","image-button-response","127","865445","0.0-127.0-0.0","A1X2NKYJNHB1A5","img_art/1.jpg","5","","","","","","","","","","","","","","","","","","","","","","","","",""
"2702","","image-button-response","128","868149","0.0-128.0-0.0","A1X2NKYJNHB1A5","img_art/1.jpg","0","","","","","","","","","","","","","","","","","","","","","","","","",""
"null","","html-keyboard-response","129","869652","0.0-129.0","A1X2NKYJNHB1A5","<p style=""font-size: 48px;"">+</p>","","","","","null","allTrialResponses","1500","1","12","img_art/1.jpg","7","these colors remind me of fall. ","Maria,Angelica,Lauren,Meghan,Brooke,Leah","the bright colours evoke the 90s, and not their best part,-10,120,20","This is ugly with bad colors.,-6,280,20","This image doesn't invoke much in me.,0,340,20","good colors and contrast,31,220,20","It's okay, colors remind me of autumn.,10,60,20","Pretty intermeshing of colors, happy,32,360,20","Brooke","It's okay, colors remind me of autumn.,10,60,20","Leah","Pretty intermeshing of colors, happy,32,360,20","Maria","the bright colours evoke the 90s, and not their best part,-10,120,20","0"
"15111","","survey-text","130","884765","0.0-130.0-0.0","A1X2NKYJNHB1A5","","","","{""Q0"":""i like the coloring but the picture is just blah!""}","","","","","","","","","","","","","","","","","","","","","","",""
"2902.5","","image-slider-response","131","887668","0.0-131.0","A1X2NKYJNHB1A5","","","","","-37","","","","","","","","","","","","","","","","","","","","","",""
"null","","image-button-response","132","892680","0.0-132.0","A1X2NKYJNHB1A5","img_art/6.jpg","null","","","","","","","","","","","","","","","","","","","","","","","","",""
"4131","","image-button-response","133","896813","0.0-133.0","A1X2NKYJNHB1A5","img_art/6.jpg","5","","","","","","","","","","","","","","","","","","","","","","","","",""
"2381","","image-button-response","134","899196","0.0-134.0-0.0","A1X2NKYJNHB1A5","img_art/6.jpg","2","","","","","","","","","","","","","","","","","","","","","","","","",""
"1302","","image-button-response","135","900500","0.0-135.0-0.0","A1X2NKYJNHB1A5","img_art/6.jpg","1","","","","","","","","","","","","","","","","","","","","","","","","",""
"null","","html-keyboard-response","136","901006","0.0-136.0","A1X2NKYJNHB1A5","<p style=""font-size: 48px;"">+</p>","","","","","null","allTrialResponses","500","1","13","img_art/6.jpg","-37","i like the coloring but the picture is just blah!","Maria,Nicole,Alexis,Amber,Brooke,Leah","intrigues me - not sure what I'm seeing, but I like combination of colour and texture,21,120,20","The colors and rough brush strokes make me nervous,-10,20,20","The feeling of isolation with so little objects. Great,20,100,20","Something very simplistic about it. The colors mesh well.,10,200,20","Kind of neat, but then that's a weird looking bird. too weird.,0,60,20","Boring, looks like a sad tree in wind,-37,360,20","Leah","Boring, looks like a sad tree in wind,-37,360,20","Alexis","The feeling of isolation with so little objects. Great,20,100,20","Nicole","The colors and rough brush strokes make me nervous,-10,20,20","0"
"211456","","survey-text","137","1112467","0.0-137.0-0.0","A1X2NKYJNHB1A5","","","","{""Q0"":""very dull. its like animal prints in the sand""}","","","","","","","","","","","","","","","","","","","","","","",""
"6199.200000047684","","image-slider-response","138","1118667","0.0-138.0","A1X2NKYJNHB1A5","","","","","-44","","","","","","","","","","","","","","","","","","","","","",""
"null","","image-button-response","139","1123669","0.0-139.0","A1X2NKYJNHB1A5","img_art/7.jpg","null","","","","","","","","","","","","","","","","","","","","","","","","",""
"388","","image-button-response","140","1124059","0.0-140.0","A1X2NKYJNHB1A5","img_art/7.jpg","2","","","","","","","","","","","","","","","","","","","","","","","","",""
"2927","","image-button-response","141","1126987","0.0-141.0-0.0","A1X2NKYJNHB1A5","img_art/7.jpg","4","","","","","","","","","","","","","","","","","","","","","","","","",""
"3646","","image-button-response","142","1130635","0.0-142.0-0.0","A1X2NKYJNHB1A5","img_art/7.jpg","0","","","","","","","","","","","","","","","","","","","","","","","","",""
"null","","html-keyboard-response","143","1132141","0.0-143.0","A1X2NKYJNHB1A5","<p style=""font-size: 48px;"">+</p>","","","","","null","allTrialResponses","1500","1","14","img_art/7.jpg","-44","very dull. its like animal prints in the sand","Christina,Nicole,Alexis,Julia,Miranda,Leah","looks like the surface of the moon,-28,240,20","Looks like the surface of mars,29,20,20","Looks like bad wallpaper,-29,100,20","I would like this more if I could pretend it was the moon.,-26,40,20","This looks like a literal picture of the ground so I'm really not too sure about this one.,-42,320,20","I love it, it looks like a landscape photograph in desert or rocky mountain,50,360,20","Alexis","Looks like bad wallpaper,-29,100,20","Miranda","This looks like a literal picture of the ground so I'm really not too sure about this one.,-42,320,20","Christina","looks like the surface of the moon,-28,240,20","0"
"27610","","survey-text","144","1159754","0.0-144.0-0.0","A1X2NKYJNHB1A5","","","","{""Q0"":""Not sure why but this reminds me of horror. I like the coloring but I feel like it is showing death""}","","","","","","","","","","","","","","","","","","","","","","",""
"3854.800000011921","","image-slider-response","145","1163610","0.0-145.0","A1X2NKYJNHB1A5","","","","","-38","","","","","","","","","","","","","","","","","","","","","",""
"3975","","image-button-response","146","1168611","0.0-146.0","A1X2NKYJNHB1A5","img_art/29.jpg","1","","","","","","","","","","","","","","","","","","","","","","","","",""
"1918","","image-button-response","147","1170530","0.0-147.0","A1X2NKYJNHB1A5","img_art/29.jpg","4","","","","","","","","","","","","","","","","","","","","","","","","",""
"1311","","image-button-response","148","1171843","0.0-148.0-0.0","A1X2NKYJNHB1A5","img_art/29.jpg","5","","","","","","","","","","","","","","","","","","","","","","","","",""
"815","","image-button-response","149","1172658","0.0-149.0-0.0","A1X2NKYJNHB1A5","img_art/29.jpg","1","","","","","","","","","","","","","","","","","","","","","","","","",""
"null","","html-keyboard-response","150","1173160","0.0-150.0","A1X2NKYJNHB1A5","<p style=""font-size: 48px;"">+</p>","","","","","null","allTrialResponses","500","1","15","img_art/29.jpg","-38","Not sure why but this reminds me of horror. I like the coloring but I feel like it is showing death","Christina,Kaylee,Alexis,Cheyenne,Miranda,Madeline","It's too on trend with the gray and doesn't look like a lasting piece,-4,240,20","it looks like a prison,-33,200,20","The black color is great, but I'm really not a fan of this hectic style,-40,100,20","Really enjoy everything about this one.,50,200,20","This feels chaotic and I like the energy that it gives off.,21,320,20","Looks a bit messy,-13,40,20","Miranda","This feels chaotic and I like the energy that it gives off.,21,320,20","Madeline","Looks a bit messy,-13,40,20","Kaylee","it looks like a prison,-33,200,20","0"
"4117","","survey-text","151","1177282","0.0-151.0-0.0","A1X2NKYJNHB1A5","","","","{""Q0"":""course""}","","","","","","","","","","","","","","","","","","","","","","",""
"30230","","survey-text","152","1207514","0.0-152.0-0.0","A1X2NKYJNHB1A5","","","","{""Q0"":""honestly this looks like dried pudding on paper. I really dislike this one.""}","","","","","","","","","","","","","","","","","","","","","","",""
"2310.7999999523163","","image-slider-response","153","1209826","0.0-153.0","A1X2NKYJNHB1A5","","","","","-50","","","","","","","","","","","","","","","","","","","","","",""
"3167","","image-button-response","154","1214836","0.0-154.0","A1X2NKYJNHB1A5","img_art/4.jpg","5","","","","","","","","","","","","","","","","","","","","","","","","",""
"2228","","image-button-response","155","1217066","0.0-155.0","A1X2NKYJNHB1A5","img_art/4.jpg","1","","","","","","","","","","","","","","","","","","","","","","","","",""
"1680","","image-button-response","156","1218746","0.0-156.0-0.0","A1X2NKYJNHB1A5","img_art/4.jpg","2","","","","","","","","","","","","","","","","","","","","","","","","",""
"1943","","image-button-response","157","1220690","0.0-157.0-0.0","A1X2NKYJNHB1A5","img_art/4.jpg","2","","","","","","","","","","","","","","","","","","","","","","","","",""
"727","","image-button-response","158","1224450","0.0-157.1-0.1","A1X2NKYJNHB1A5","img_art/4.jpg","4","","","","","","","","","","","","","","","","","","","","","","","","",""
"null","","html-keyboard-response","159","1225962","0.0-158.0","A1X2NKYJNHB1A5","<p style=""font-size: 48px;"">+</p>","","","","","null","allTrialResponses","1500","1","16","img_art/4.jpg","-50","honestly this looks like dried pudding on paper. I really dislike this one.","Mariah,Kaylee,Ashley,Chloe,Miranda,Madeline","Movement. Snakes. Hair. The uncertainty makes my eye return.,21,140,20","just a scuffed hand,-15,200,20","It looks like a hand.,25,320,20","Great movement but don't love the yellowy tones.,31,220,20","I just don't understand this one at all, I do not like it,-43,320,20","Not impressed really,-20,40,20","Kaylee","just a scuffed hand,-15,200,20","Ashley","It looks like a hand.,25,320,20","Miranda","I just don't understand this one at all, I do not like it,-43,320,20","2"
"15852","","survey-text","160","1241817","0.0-159.0-0.0","A1X2NKYJNHB1A5","","","","{""Q0"":""like the colors. it reminds me of a small town by the water""}","","","","","","","","","","","","","","","","","","","","","","",""
"3375.099999964237","","image-slider-response","161","1245193","0.0-160.0","A1X2NKYJNHB1A5","","","","","39","","","","","","","","","","","","","","","","","","","","","",""
"4079","","image-button-response","162","1250205","0.0-161.0","A1X2NKYJNHB1A5","img_art/19.jpg","0","","","","","","","","","","","","","","","","","","","","","","","","",""
"4852","","image-button-response","163","1255058","0.0-162.0","A1X2NKYJNHB1A5","img_art/19.jpg","2","","","","","","","","","","","","","","","","","","","","","","","","",""
"1070","","image-button-response","164","1256130","0.0-163.0-0.0","A1X2NKYJNHB1A5","img_art/19.jpg","1","","","","","","","","","","","","","","","","","","","","","","","","",""
"654","","image-button-response","165","1256786","0.0-164.0-0.0","A1X2NKYJNHB1A5","img_art/19.jpg","0","","","","","","","","","","","","","","","","","","","","","","","","",""
"null","","html-keyboard-response","166","1257287","0.0-165.0","A1X2NKYJNHB1A5","<p style=""font-size: 48px;"">+</p>","","","","","null","allTrialResponses","500","1","17","img_art/19.jpg","39","like the colors. it reminds me of a small town by the water","Andrea,Kaylee,Ashley,Emma,Miranda,Sarah","Feels like a cafe in Paris.,35,240,20","beautiful old town,37,200,20","someone at the beach maybe?,27,320,20","Interesting, leaves you wondering what it is,40,60,20","It looks cool but at the time looks like it was done by a talented 5 year old.,13,320,20","too much of a mix of lines and shading,-22,180,20","Ashley","someone at the beach maybe?,27,320,20","Kaylee","beautiful old town,37,200,20","Andrea","Feels like a cafe in Paris.,35,240,20","2"
"17024","","survey-text","167","1274313","0.0-166.0-0.0","A1X2NKYJNHB1A5","","","","{""Q0"":""really dislike this. the bears head throws it all off. ""}","","","","","","","","","","","","","","","","","","","","","","",""
"2502.599999964237","","image-slider-response","168","1276817","0.0-167.0","A1X2NKYJNHB1A5","","","","","-50","","","","","","","","","","","","","","","","","","","","","",""
"4718","","image-button-response","169","1281832","0.0-168.0","A1X2NKYJNHB1A5","img_art/16.jpg","3","","","","","","","","","","","","","","","","","","","","","","","","",""
"2015","","image-button-response","170","1283849","0.0-169.0","A1X2NKYJNHB1A5","img_art/16.jpg","0","","","","","","","","","","","","","","","","","","","","","","","","",""
"4927","","image-button-response","171","1288777","0.0-170.0-0.0","A1X2NKYJNHB1A5","img_art/16.jpg","3","","","","","","","","","","","","","","","","","","","","","","","","",""
"1358","","image-button-response","172","1290137","0.0-171.0-0.0","A1X2NKYJNHB1A5","img_art/16.jpg","2","","","","","","","","","","","","","","","","","","","","","","","","",""
"null","","html-keyboard-response","173","1291139","0.0-172.0","A1X2NKYJNHB1A5","<p style=""font-size: 48px;"">+</p>","","","","","null","allTrialResponses","1000","1","18","img_art/16.jpg","-50","really dislike this. the bears head throws it all off. ","Andrea,Kaylee,Ashley,Kaitlyn,Haley,Autumn","I think it's about child abuse. The teddy bear represents innocence and the dark shape is approaching it.,40,240,20","cool teddy bear,50,200,20","A lot fo these could abstract or childrens work.,23,320,20","The bear is a weird choice,-22,80,20","Makes me want to know more,5,220,20","Very cool abstraction.,19,340,20","Andrea","I think it's about child abuse. The teddy bear represents innocence and the dark shape is approaching it.,40,240,20","Kaitlyn","The bear is a weird choice,-22,80,20","Ashley","A lot fo these could abstract or childrens work.,23,320,20","2"
"31875","","survey-text","174","1323017","0.0-173.0-0.0","A1X2NKYJNHB1A5","","","","{""Q0"":""I love this picture. I love the colors and shapes. It looks like a really cool stone building""}","","","","","","","","","","","","","","","","","","","","","","",""
"2902.800000011921","","image-slider-response","175","1325921","0.0-174.0","A1X2NKYJNHB1A5","","","","","50","","","","","","","","","","","","","","","","","","","","","",""
"3326","","image-button-response","176","1330923","0.0-175.0","A1X2NKYJNHB1A5","img_art/8.jpg","2","","","","","","","","","","","","","","","","","","","","","","","","",""
"2557","","image-button-response","177","1333481","0.0-176.0","A1X2NKYJNHB1A5","img_art/8.jpg","3","","","","","","","","","","","","","","","","","","","","","","","","",""
"1878","","image-button-response","178","1335361","0.0-177.0-0.0","A1X2NKYJNHB1A5","img_art/8.jpg","5","","","","","","","","","","","","","","","","","","","","","","","","",""
"2686","","image-button-response","179","1338049","0.0-178.0-0.0","A1X2NKYJNHB1A5","img_art/8.jpg","0","","","","","","","","","","","","","","","","","","","","","","","","",""
"null","","html-keyboard-response","180","1339550","0.0-179.0","A1X2NKYJNHB1A5","<p style=""font-size: 48px;"">+</p>","","","","","null","allTrialResponses","1500","1","19","img_art/8.jpg","50","I love this picture. I love the colors and shapes. It looks like a really cool stone building","Andrea,Alexandra,Ashley,Kaitlyn,Jasmine,Grace","The face makes me think its a statement of the almighty of big brother watching us. onfuCsion limits my enjoyment.,6,240,20","The colors are nice but the big face in the sky is creepy,-11,60,20","Escher? Dali? Could be their lovechild?,50,320,20","There are a lot of different interesting elements in the picture.,12,80,20","Not too bad despite the chaos.,16,340,20","Like the colors & the imagery - old city, native peoples maybe.,20,180,20","Kaitlyn","There are a lot of different interesting elements in the picture.,12,80,20","Grace","Like the colors & the imagery - old city, native peoples maybe.,20,180,20","Andrea","The face makes me think its a statement of the almighty of big brother watching us. onfuCsion limits my enjoyment.,6,240,20","2"
"46710","","survey-text","181","1386264","0.0-180.0-0.0","A1X2NKYJNHB1A5","","","","{""Q0"":""I do not like this at all!!! this appears to be an accident between a big truck and possible motorcycle.  really do not like it""}","","","","","","","","","","","","","","","","","","","","","","",""
"2735.300000011921","","image-slider-response","182","1389000","0.0-181.0","A1X2NKYJNHB1A5","","","","","-50","","","","","","","","","","","","","","","","","","","","","",""
"4911","","image-button-response","183","1394013","0.0-182.0","A1X2NKYJNHB1A5","img_art/20.jpg","3","","","","","","","","","","","","","","","","","","","","","","","","",""
"2218","","image-button-response","184","1396232","0.0-183.0","A1X2NKYJNHB1A5","img_art/20.jpg","1","","","","","","","","","","","","","","","","","","","","","","","","",""
"4415","","image-button-response","185","1400648","0.0-184.0-0.0","A1X2NKYJNHB1A5","img_art/20.jpg","3","","","","","","","","","","","","","","","","","","","","","","","","",""
"5366","","image-button-response","186","1406016","0.0-185.0-0.0","A1X2NKYJNHB1A5","img_art/20.jpg","5","","","","","","","","","","","","","","","","","","","","","","","","",""
"null","","html-keyboard-response","187","1407019","0.0-186.0","A1X2NKYJNHB1A5","<p style=""font-size: 48px;"">+</p>","","","","","null","allTrialResponses","1000","1","20","img_art/20.jpg","-50","I do not like this at all!!! this appears to be an accident between a big truck and possible motorcycle.  really do not like it","Andrea,Anna,Savannah,Kaitlyn,Rebecca,Grace","Reminds me of persistance of time (a favorite of mine).,30,240,20","I would like it more without the frame.,10,300,20","Lovely composition, colors, and message.,35,200,20","The picture looks smudged and dirty,-4,80,20","reminds me of georgia o'keeffe's skull,22,100,20","Reminds me of Georgia O'Keefe.,11,180,20","Anna","I would like it more without the frame.,10,300,20","Kaitlyn","The picture looks smudged and dirty,-4,80,20","Grace","Reminds me of Georgia O'Keefe.,11,180,20","2"
"4238","","survey-text","188","1411264","0.0-187.0-0.0","A1X2NKYJNHB1A5","","","","{""Q0"":""we""}","","","","","","","","","","","","","","","","","","","","","","",""
"39839","","survey-text","189","1451103","0.0-188.0-0.0","A1X2NKYJNHB1A5","","","","{""Q0"":""the colors are quite calming. I love these fall colors. it almost feels like a picture of a forest with the leaves turning""}","","","","","","","","","","","","","","","","","","","","","","",""
"2614.7000000476837","","image-slider-response","190","1453719","0.0-189.0","A1X2NKYJNHB1A5","","","","","24","","","","","","","","","","","","","","","","","","","","","",""
"3767","","image-button-response","191","1458721","0.0-190.0","A1X2NKYJNHB1A5","img_art/27.jpg","4","","","","","","","","","","","","","","","","","","","","","","","","",""
"1333","","image-button-response","192","1460056","0.0-191.0","A1X2NKYJNHB1A5","img_art/27.jpg","2","","","","","","","","","","","","","","","","","","","","","","","","",""
"3542","","image-button-response","193","1463599","0.0-192.0-0.0","A1X2NKYJNHB1A5","img_art/27.jpg","3","","","","","","","","","","","","","","","","","","","","","","","","",""
"2255","","image-button-response","194","1465855","0.0-193.0-0.0","A1X2NKYJNHB1A5","img_art/27.jpg","4","","","","","","","","","","","","","","","","","","","","","","","","",""
"null","","html-keyboard-response","195","1467360","0.0-194.0","A1X2NKYJNHB1A5","<p style=""font-size: 48px;"">+</p>","","","","","null","allTrialResponses","1500","1","21","img_art/27.jpg","24","the colors are quite calming. I love these fall colors. it almost feels like a picture of a forest with the leaves turning","Sydney,Anna,Courtney,Kaitlyn,Allison,Grace","This piece reminds me of a summer day.,30,320,20","It looks like when my little sister took magic markers to the wall.,-11,300,20","A fall mess going on here,2,280,20","The variation of orange is nice,9,80,20","Warn colors are pretty, but too blotchy for me.,3,140,20","Not fond of the bad pencil drawing mixed with the drab colors.,-21,180,20","Courtney","A fall mess going on here,2,280,20","Kaitlyn","The variation of orange is nice,9,80,20","Allison","Warn colors are pretty, but too blotchy for me.,3,140,20","2"
"36227","","survey-text","196","1503591","0.0-195.0-0.0","A1X2NKYJNHB1A5","","","","{""Q0"":""this reminds me of a beautiful and calming waterfall. i love the forest look in the background""}","","","","","","","","","","","","","","","","","","","","","","",""
"2662.800000011921","","image-slider-response","197","1506255","0.0-196.0","A1X2NKYJNHB1A5","","","","","44","","","","","","","","","","","","","","","","","","","","","",""
"3815","","image-button-response","198","1511263","0.0-197.0","A1X2NKYJNHB1A5","img_art/24.jpg","3","","","","","","","","","","","","","","","","","","","","","","","","",""
"1327","","image-button-response","199","1512591","0.0-198.0","A1X2NKYJNHB1A5","img_art/24.jpg","0","","","","","","","","","","","","","","","","","","","","","","","","",""
"1215","","image-button-response","200","1513808","0.0-199.0-0.0","A1X2NKYJNHB1A5","img_art/24.jpg","2","","","","","","","","","","","","","","","","","","","","","","","","",""
"1270","","image-button-response","201","1515080","0.0-200.0-0.0","A1X2NKYJNHB1A5","img_art/24.jpg","5","","","","","","","","","","","","","","","","","","","","","","","","",""
"null","","html-keyboard-response","202","1515580","0.0-201.0","A1X2NKYJNHB1A5","<p style=""font-size: 48px;"">+</p>","","","","","null","allTrialResponses","500","1","22","img_art/24.jpg","44","this reminds me of a beautiful and calming waterfall. i love the forest look in the background","Monica,Lindsey,Courtney,Kaitlyn,Allison,Victoria","It looks alive, like I can hear the water flowing,41,360,20","I like the colors and see a stream in a wooded setting. Makes me feel calm and cheerful.,27,400,20","What a nice refreshing waterfall.,39,280,20","I like the bright colors,16,80,20","I appreciate the earth tones. Soothing.,5,140,20","very peaceful and serene,47,400,20","Monica","It looks alive, like I can hear the water flowing,41,360,20","Courtney","What a nice refreshing waterfall.,39,280,20","Victoria","very peaceful and serene,47,400,20","2"
"11151","","survey-text","203","1526735","0.0-202.0-0.0","A1X2NKYJNHB1A5","","","","{""Q0"":""just a bunch of smeared lines in paint. do not like""}","","","","","","","","","","","","","","","","","","","","","","",""
"2430.899999976158","","image-slider-response","204","1529167","0.0-203.0","A1X2NKYJNHB1A5","","","","","-43","","","","","","","","","","","","","","","","","","","","","",""
"4823","","image-button-response","205","1534169","0.0-204.0","A1X2NKYJNHB1A5","img_art/30.jpg","3","","","","","","","","","","","","","","","","","","","","","","","","",""
"1238","","image-button-response","206","1535407","0.0-205.0","A1X2NKYJNHB1A5","img_art/30.jpg","0","","","","","","","","","","","","","","","","","","","","","","","","",""
"2503","","image-button-response","207","1537911","0.0-206.0-0.0","A1X2NKYJNHB1A5","img_art/30.jpg","3","","","","","","","","","","","","","","","","","","","","","","","","",""
"743","","image-button-response","208","1538655","0.0-207.0-0.0","A1X2NKYJNHB1A5","img_art/30.jpg","4","","","","","","","","","","","","","","","","","","","","","","","","",""
"null","","html-keyboard-response","209","1540156","0.0-208.0","A1X2NKYJNHB1A5","<p style=""font-size: 48px;"">+</p>","","","","","null","allTrialResponses","1500","1","23","img_art/30.jpg","-43","just a bunch of smeared lines in paint. do not like","Monica,Taylor,Courtney,Kelsey,Briana,Victoria","It looked like a random scribble but I can see a person's face in it now and I think it's clever,13,360,20","It's a really interesting piece,20,340,20","Some people dancing.,-7,280,20","dont like this much at all,-30,240,20","Its ugly. Too simple,-23,400,20","to dark and dreary,-28,400,20","Monica","It looked like a random scribble but I can see a person's face in it now and I think it's clever,13,360,20","Kelsey","dont like this much at all,-30,240,20","Briana","Its ugly. Too simple,-23,400,20","2"
"38063","","survey-text","210","1578223","0.0-209.0-0.0","A1X2NKYJNHB1A5","","","","{""Q0"":""i like the pops of the yellow color. I can't really make out what this might be.""}","","","","","","","","","","","","","","","","","","","","","","",""
"2822.900000035763","","image-slider-response","211","1581047","0.0-210.0","A1X2NKYJNHB1A5","","","","","4","","","","","","","","","","","","","","","","","","","","","",""
"2182","","image-button-response","212","1586049","0.0-211.0","A1X2NKYJNHB1A5","img_art/18.jpg","1","","","","","","","","","","","","","","","","","","","","","","","","",""
"1965","","image-button-response","213","1588015","0.0-212.0","A1X2NKYJNHB1A5","img_art/18.jpg","4","","","","","","","","","","","","","","","","","","","","","","","","",""
"1206","","image-button-response","214","1589223","0.0-213.0-0.0","A1X2NKYJNHB1A5","img_art/18.jpg","5","","","","","","","","","","","","","","","","","","","","","","","","",""
"1471","","image-button-response","215","1590695","0.0-214.0-0.0","A1X2NKYJNHB1A5","img_art/18.jpg","1","","","","","","","","","","","","","","","","","","","","","","","","",""
"null","","html-keyboard-response","216","1592196","0.0-215.0","A1X2NKYJNHB1A5","<p style=""font-size: 48px;"">+</p>","","","","","null","allTrialResponses","1500","1","24","img_art/18.jpg","4","i like the pops of the yellow color. I can't really make out what this might be.","Monica,Sara,Alexa,Kelsey,Briana,Kylie","It doesn't look like much, the colors are dark and it doesn't really make me feel anything.,-2,360,20","Too abstract and swirly,-21,160,20","Very wild and abstract. I love it and would definitely hang this up in my home,50,40,20","its messy, it seems angry,-21,240,20","Two people fighting with one watching,17,400,20","Kind of weird in a confusing way,10,300,20","Briana","Two people fighting with one watching,17,400,20","Kylie","Kind of weird in a confusing way,10,300,20","Sara","Too abstract and swirly,-21,160,20","2"
"19655","","survey-text","217","1611854","0.0-216.0-0.0","A1X2NKYJNHB1A5","","","","{""Q0"":""not too bad. the coloring is calming. it reminds me of a small town""}","","","","","","","","","","","","","","","","","","","","","","",""
"4263","","image-slider-response","218","1616118","0.0-217.0","A1X2NKYJNHB1A5","","","","","24","","","","","","","","","","","","","","","","","","","","","",""
"4047","","image-button-response","219","1621133","0.0-218.0","A1X2NKYJNHB1A5","img_art/26.jpg","2","","","","","","","","","","","","","","","","","","","","","","","","",""
"592","","image-button-response","220","1621727","0.0-219.0","A1X2NKYJNHB1A5","img_art/26.jpg","1","","","","","","","","","","","","","","","","","","","","","","","","",""
"1159","","image-button-response","221","1622887","0.0-220.0-0.0","A1X2NKYJNHB1A5","img_art/26.jpg","5","","","","","","","","","","","","","","","","","","","","","","","","",""
"4678","","image-button-response","222","1627567","0.0-221.0-0.0","A1X2NKYJNHB1A5","img_art/26.jpg","4","","","","","","","","","","","","","","","","","","","","","","","","",""
"null","","html-keyboard-response","223","1629068","0.0-222.0","A1X2NKYJNHB1A5","<p style=""font-size: 48px;"">+</p>","","","","","null","allTrialResponses","1500","1","25","img_art/26.jpg","24","not too bad. the coloring is calming. it reminds me of a small town","Bailey,Sara,Isabella,Jennifer,Briana,Kylie","Too blocky and unfocused. It's like the inside of a house, and the outside.,-24,360,20","I can somewhat city a city in this drawing,11,160,20","Colors are full and reminds me of a messy room,-9,280,20","This picture doesn't really stand out.,0,380,20","Another blob on a landscape. A city street?,9,400,20","Picturesque little town,45,300,20","Sara","I can somewhat city a city in this drawing,11,160,20","Kylie","Picturesque little town,45,300,20","Briana","Another blob on a landscape. A city street?,9,400,20","2"
"4643","","survey-text","224","1633718","0.0-223.0-0.0","A1X2NKYJNHB1A5","","","","{""Q0"":""table""}","","","","","","","","","","","","","","","","","","","","","","",""
"24103","","survey-text","225","1657822","0.0-224.0-0.0","A1X2NKYJNHB1A5","","","","{""Q0"":""too much darkness. the pattern is not bad but needs more color""}","","","","","","","","","","","","","","","","","","","","","","",""
"2598.800000011921","","image-slider-response","226","1660422","0.0-225.0","A1X2NKYJNHB1A5","","","","","-17","","","","","","","","","","","","","","","","","","","","","",""
"4447","","image-button-response","227","1665424","0.0-226.0","A1X2NKYJNHB1A5","img_art/15.jpg","5","","","","","","","","","","","","","","","","","","","","","","","","",""
"565","","image-button-response","228","1665991","0.0-227.0","A1X2NKYJNHB1A5","img_art/15.jpg","3","","","","","","","","","","","","","","","","","","","","","","","","",""
"2327","","image-button-response","229","1668318","0.0-228.0-0.0","A1X2NKYJNHB1A5","img_art/15.jpg","1","","","","","","","","","","","","","","","","","","","","","","","","",""
"2111","","image-button-response","230","1670430","0.0-229.0-0.0","A1X2NKYJNHB1A5","img_art/15.jpg","5","","","","","","","","","","","","","","","","","","","","","","","","",""
"null","","html-keyboard-response","231","1671431","0.0-230.0","A1X2NKYJNHB1A5","<p style=""font-size: 48px;"">+</p>","","","","","null","allTrialResponses","1000","1","26","img_art/15.jpg","-17","too much darkness. the pattern is not bad but needs more color","Michaela,Sara,Destiny,Shannon,Briana,Kylie","Reminds me of lilacs,26,260,20","I don't like the black dots,-19,160,20","I couldn't tell you why but I'm really into this,39,360,20","Not enough colors to make it interesting and doesn't look like anything is happening.,-20,220,20","It reminds me of when you look up into a tree,21,400,20","I don't know how I feel about this,31,300,20","Shannon","Not enough colors to make it interesting and doesn't look like anything is happening.,-20,220,20","Sara","I don't like the black dots,-19,160,20","Kylie","I don't know how I feel about this,31,300,20","2"
"19619","","survey-text","232","1691054","0.0-231.0-0.0","A1X2NKYJNHB1A5","","","","{""Q0"":""it reminds me of a fairytale princess lying in her bed""}","","","","","","","","","","","","","","","","","","","","","","",""
"2350.600000023842","","image-slider-response","233","1693406","0.0-232.0","A1X2NKYJNHB1A5","","","","","21","","","","","","","","","","","","","","","","","","","","","",""
"1903","","image-button-response","234","1698407","0.0-233.0","A1X2NKYJNHB1A5","img_art/9.jpg","5","","","","","","","","","","","","","","","","","","","","","","","","",""
"718","","image-button-response","235","1699126","0.0-234.0","A1X2NKYJNHB1A5","img_art/9.jpg","3","","","","","","","","","","","","","","","","","","","","","","","","",""
"959","","image-button-response","236","1700086","0.0-235.0-0.0","A1X2NKYJNHB1A5","img_art/9.jpg","5","","","","","","","","","","","","","","","","","","","","","","","","",""
"655","","image-button-response","237","1700742","0.0-236.0-0.0","A1X2NKYJNHB1A5","img_art/9.jpg","4","","","","","","","","","","","","","","","","","","","","","","","","",""
"null","","html-keyboard-response","238","1701751","0.0-237.0","A1X2NKYJNHB1A5","<p style=""font-size: 48px;"">+</p>","","","","","null","allTrialResponses","1000","1","27","img_art/9.jpg","21","it reminds me of a fairytale princess lying in her bed","Alexandria,Sara,Breanna,Shannon,Hannah,Kylie","it makes me feel excited and draws my eye around,24,80,20","Spiral patterns are not my thing,-30,160,20","It's a mix of paint splash and scribbling,-33,380,20","This looks like someone sleeping in a bed, and I think the colors make it look interesting.,20,220,20","Someone lying in bed?  Don't care for it.,-14,240,20","Peaceful dreaming,40,300,20","Shannon","This looks like someone sleeping in a bed, and I think the colors make it look interesting.,20,220,20","Kylie","Peaceful dreaming,40,300,20","Hannah","Someone lying in bed?  Don't care for it.,-14,240,20","2"
"13179","","survey-text","239","1714934","0.0-238.0-0.0","A1X2NKYJNHB1A5","","","","{""Q0"":""no no and no!! reminds me of a murder scence""}","","","","","","","","","","","","","","","","","","","","","","",""
"2630.300000011921","","image-slider-response","240","1717566","0.0-239.0","A1X2NKYJNHB1A5","","","","","-50","","","","","","","","","","","","","","","","","","","","","",""
"3328","","image-button-response","241","1722567","0.0-240.0","A1X2NKYJNHB1A5","img_art/3.jpg","2","","","","","","","","","","","","","","","","","","","","","","","","",""
"245","","image-button-response","242","1722814","0.0-241.0","A1X2NKYJNHB1A5","img_art/3.jpg","5","","","","","","","","","","","","","","","","","","","","","","","","",""
"960","","image-button-response","243","1723774","0.0-242.0-0.0","A1X2NKYJNHB1A5","img_art/3.jpg","2","","","","","","","","","","","","","","","","","","","","","","","","",""
"806","","image-button-response","244","1724582","0.0-243.0-0.0","A1X2NKYJNHB1A5","img_art/3.jpg","1","","","","","","","","","","","","","","","","","","","","","","","","",""
"null","","html-keyboard-response","245","1725083","0.0-244.0","A1X2NKYJNHB1A5","<p style=""font-size: 48px;"">+</p>","","","","","null","allTrialResponses","500","1","28","img_art/3.jpg","-50","no no and no!! reminds me of a murder scence","Catherine,Tiffany,Emily,Shannon,Hannah,Kylie","Anger, like something a serial killer may paint.,-30,160,20","I feel uncomfortable, like I am looking at a crime scene.,-17,360,20","Looks like someone mentalyl unstable drew and is ready to go a a killing spree.,-50,40,20","I can't tell what this image is supposed to be it looks extremely ugly and color variety is boring.,-50,220,20","Looks like a Basquiat but just not my cup of tea.,-29,240,20","Confusion and mayhem,-10,300,20","Kylie","Confusion and mayhem,-10,300,20","Emily","Looks like someone mentalyl unstable drew and is ready to go a a killing spree.,-50,40,20","Tiffany","I feel uncomfortable, like I am looking at a crime scene.,-17,360,20","2"
"19823","","survey-text","246","1744910","0.0-245.0-0.0","A1X2NKYJNHB1A5","","","","{""Q0"":""i like the circle in the middle and I love the coloring""}","","","","","","","","","","","","","","","","","","","","","","",""
"2750.699999988079","","image-slider-response","247","1747661","0.0-246.0","A1X2NKYJNHB1A5","","","","","43","","","","","","","","","","","","","","","","","","","","","",""
"2911","","image-button-response","248","1752663","0.0-247.0","A1X2NKYJNHB1A5","img_art/22.jpg","4","","","","","","","","","","","","","","","","","","","","","","","","",""
"1686","","image-button-response","249","1754350","0.0-248.0","A1X2NKYJNHB1A5","img_art/22.jpg","2","","","","","","","","","","","","","","","","","","","","","","","","",""
"1199","","image-button-response","250","1755549","0.0-249.0-0.0","A1X2NKYJNHB1A5","img_art/22.jpg","5","","","","","","","","","","","","","","","","","","","","","","","","",""
"711","","image-button-response","251","1756261","0.0-250.0-0.0","A1X2NKYJNHB1A5","img_art/22.jpg","4","","","","","","","","","","","","","","","","","","","","","","","","",""
"null","","html-keyboard-response","252","1757763","0.0-251.0","A1X2NKYJNHB1A5","<p style=""font-size: 48px;"">+</p>","","","","","null","allTrialResponses","1500","1","29","img_art/22.jpg","43","i like the circle in the middle and I love the coloring","Vanessa,Tiffany,Emily,Amy,Jamie,Kylie","I don't like the colors or the way they've been arranged.,-20,380,20","The painting makes me feel a little sad.,12,360,20","There is some flow and organization.,10,40,20","I appreciate the shapes but the abundance of primary colors make it seem garrish.,-10,220,20","Like the mix of warm and cool colors,15,320,20","Climate change in a big city,35,300,20","Emily","There is some flow and organization.,10,40,20","Kylie","Climate change in a big city,35,300,20","Jamie","Like the mix of warm and cool colors,15,320,20","2"
"20750","","survey-text","253","1778517","0.0-252.0-0.0","A1X2NKYJNHB1A5","","","","{""Q0"":""reminds me of looking out a window when it is storming. the colors are calming""}","","","","","","","","","","","","","","","","","","","","","","",""
"3582.800000011921","","image-slider-response","254","1782101","0.0-253.0","A1X2NKYJNHB1A5","","","","","20","","","","","","","","","","","","","","","","","","","","","",""
"null","","image-button-response","255","1787111","0.0-254.0","A1X2NKYJNHB1A5","img_art/13.jpg","null","","","","","","","","","","","","","","","","","","","","","","","","",""
"357","","image-button-response","256","1787469","0.0-255.0","A1X2NKYJNHB1A5","img_art/13.jpg","1","","","","","","","","","","","","","","","","","","","","","","","","",""
"3399","","image-button-response","257","1790869","0.0-256.0-0.0","A1X2NKYJNHB1A5","img_art/13.jpg","4","","","","","","","","","","","","","","","","","","","","","","","","",""
"687","","image-button-response","258","1791557","0.0-257.0-0.0","A1X2NKYJNHB1A5","img_art/13.jpg","5","","","","","","","","","","","","","","","","","","","","","","","","",""
"null","","html-keyboard-response","259","1792562","0.0-258.0","A1X2NKYJNHB1A5","<p style=""font-size: 48px;"">+</p>","","","","","null","allTrialResponses","1000","1","30","img_art/13.jpg","20","reminds me of looking out a window when it is storming. the colors are calming","Erika,Madison,Emily,Melissa,Jamie,Kylie","Gorgeous contrast and color choice, very pleasing,50,100,20","Pollock? Love the juxtaposition of colors. Soothing and stirring, a beautiful inexplicable paradox.,50,60,20","I don't car for it but it does seem organized and like it took considereably more skill that others.,9,40,20","feels sterile/manufactured,1,240,20","Cool colors and looks like rain on a window,45,320,20","Very abstract and soothing,40,300,20","Madison","Pollock? Love the juxtaposition of colors. Soothing and stirring, a beautiful inexplicable paradox.,50,60,20","Jamie","Cool colors and looks like rain on a window,45,320,20","Kylie","Very abstract and soothing,40,300,20","2"
"3655","","image-button-response_instructions","260","1796221","0.0-259.0","A1X2NKYJNHB1A5","","0","instructions","","","","","","","","","","","","","","","","","","","","","","","",""
"1132","","image-button-response","261","1797357","0.0-260.0","A1X2NKYJNHB1A5","","0","","","","","","","","","","","","","","","","","","","","","","","","",""
