"rt","url","trial_type","trial_index","time_elapsed","internal_node_id","participant_id","stimulus","button_pressed","Name","responses","response","key_press","variableName","fixationTime","condition","trial","photo","subjectRating","subjectResponse","agentsNames","agent_1_Response","agent_2_Response","agent_3_Response","agent_4_Response","agent_5_Response","agent_6_Response","kept_1_name","kept_1_response","kept_2_name","kept_2_response","kept_3_name","kept_3_response","errorCounter"
"15925","external_page_harvard.html","external-html","0","16030","0.0-0.0","A1XRWOK00HK1J4","","","","","","","","","","","","","","","","","","","","","","","","","","",""
"1766","","image-button-response","1","17804","0.0-1.0","A1XRWOK00HK1J4","","1","","","","","","","","","","","","","","","","","","","","","","","","",""
"2345","","image-button-response","2","20166","0.0-2.0-0.0","A1XRWOK00HK1J4","","1","phone","","","","","","","","","","","","","","","","","","","","","","","",""
"4772","","survey-text","3","24959","0.0-3.0-0.0","A1XRWOK00HK1J4","","","","{""Q0"":""A1XRWOK00HK1J4""}","","","","","","","","","","","","","","","","","","","","","","",""
"11159","","image-button-response_instructions","4","36125","0.0-4.0","A1XRWOK00HK1J4","","0","instructions","","","","","","","","","","","","","","","","","","","","","","","",""
"20892","","image-button-response_instructions","5","57021","0.0-5.0","A1XRWOK00HK1J4","img_art/ins/popularity/ins1.png","0","instructions","","","","","","","","","","","","","","","","","","","","","","","",""
"10364","","image-button-response_instructions","6","67390","0.0-6.0","A1XRWOK00HK1J4","img_art/ins/popularity/ins2.png","0","instructions","","","","","","","","","","","","","","","","","","","","","","","",""
"16750","","image-button-response_instructions","7","84143","0.0-7.0","A1XRWOK00HK1J4","img_art/ins/popularity/ins2Extreme.png","0","instructions","","","","","","","","","","","","","","","","","","","","","","","",""
"26933","","image-button-response_instructions","8","111078","0.0-8.0","A1XRWOK00HK1J4","img_art/ins/popularity/ins3KEEPpop.PNG","0","instructions","","","","","","","","","","","","","","","","","","","","","","","",""
"7861","","image-button-response_instructions","9","118945","0.0-9.0","A1XRWOK00HK1J4","img_art/ins/popularity/ins3ANamepop.PNG","0","instructions","","","","","","","","","","","","","","","","","","","","","","","",""
"4940","","image-button-response_instructions","10","123888","0.0-10.0","A1XRWOK00HK1J4","img_art/ins/popularity/ins3ARatingpop.png","0","instructions","","","","","","","","","","","","","","","","","","","","","","","",""
"2644","","image-button-response_instructions","11","126534","0.0-11.0","A1XRWOK00HK1J4","img_art/ins/popularity/ins3ATextpop.png","0","instructions","","","","","","","","","","","","","","","","","","","","","","","",""
"7990","","image-button-response_instructions","12","134526","0.0-12.0","A1XRWOK00HK1J4","img_art/ins/popularity/ins3ALikespop.png","0","instructions","","","","","","","","","","","","","","","","","","","","","","","",""
"14869","","image-button-response_instructions","13","149398","0.0-13.0","A1XRWOK00HK1J4","img_art/ins/popularity/ins3KEEPpop.PNG","0","instructions","","","","","","","","","","","","","","","","","","","","","","","",""
"14869","","image-button-response_instructions","14","164270","0.0-14.0","A1XRWOK00HK1J4","img_art/ins/popularity/ins3_5RED.png","0","instructions","","","","","","","","","","","","","","","","","","","","","","","",""
"7095","","image-button-response_instructions","15","171367","0.0-15.0","A1XRWOK00HK1J4","img_art/ins/popularity/ins3KEEPpop.PNG","0","instructions","","","","","","","","","","","","","","","","","","","","","","","",""
"18554","","image-button-response_instructions","16","189924","0.0-16.0","A1XRWOK00HK1J4","img_art/ins/popularity/ins4KEEPpop.PNG","0","instructions","","","","","","","","","","","","","","","","","","","","","","","",""
"7264","","image-button-response_instructions","17","197193","0.0-17.0","A1XRWOK00HK1J4","img_art/ins/popularity/ins5KEEPpop.PNG","0","instructions","","","","","","","","","","","","","","","","","","","","","","","",""
"2352","","image-button-response_instructions","18","199548","0.0-18.0","A1XRWOK00HK1J4","","0","instructions","","","","","","","","","","","","","","","","","","","","","","","",""
"8504","","survey-text","19","208098","0.0-19.0-0.0","A1XRWOK00HK1J4","","","","{""Q0"":""but""}","","","","","","","","","","","","","","","","","","","","","","",""
"15436","","survey-text","20","223538","0.0-20.0-0.0","A1XRWOK00HK1J4","","","","{""Q0"":""It reminds me of vomit ""}","","","","","","","","","","","","","","","","","","","","","","",""
"9115.89999999106","","image-slider-response","21","232659","0.0-21.0","A1XRWOK00HK1J4","","","","","-46","","","","","","","","","","","","","","","","","","","","","",""
"null","","image-button-response","22","237666","0.0-22.0","A1XRWOK00HK1J4","img_art/ins/1.jpg","null","","","","","","","","","","","","","","","","","","","","","","","","",""
"1554","","image-button-response","23","239227","0.0-23.0","A1XRWOK00HK1J4","img_art/ins/1.jpg","2","","","","","","","","","","","","","","","","","","","","","","","","",""
"6140","","image-button-response","24","245371","0.0-24.0-0.0","A1XRWOK00HK1J4","img_art/ins/1.jpg","1","","","","","","","","","","","","","","","","","","","","","","","","",""
"2398","","image-button-response","25","247774","0.0-25.0-0.0","A1XRWOK00HK1J4","img_art/ins/1.jpg","3","","","","","","","","","","","","","","","","","","","","","","","","",""
"null","","html-keyboard-response","26","248779","0.0-26.0","A1XRWOK00HK1J4","<p style=""font-size: 48px;"">+</p>","","","","","null","allTrialResponses","1000","1","-2","img_art/ins/1.jpg","-46","It reminds me of vomit ","Allison,Ashley,Beth,Dora,Erika,Jen","looks like a lot of things going on in the mist,20,20,20","I just don't get why these type of art would be popular,-32,40,20","This color reminds me of poo,-46,60,20","looks like what my niece in 3rd grade did this afternoon,-50,80,20","I like the sophisticated brushwork,40,100,20","It reminds me of a candy land dream I had,36,120,20","Beth","This color reminds me of poo,-46,60,20","Ashley","I just don't get why these type of art would be popular,-32,40,20","Dora","looks like what my niece in 3rd grade did this afternoon,-50,80,20","0"
"13323","","survey-text","27","262117","0.0-27.0-0.0","A1XRWOK00HK1J4","","","","{""Q0"":""Looks like an underground cave""}","","","","","","","","","","","","","","","","","","","","","","",""
"8366.29999999702","","image-slider-response","28","270491","0.0-28.0","A1XRWOK00HK1J4","","","","","25","","","","","","","","","","","","","","","","","","","","","",""
"null","","image-button-response","29","275498","0.0-29.0","A1XRWOK00HK1J4","img_art/ins/2.jpg","null","","","","","","","","","","","","","","","","","","","","","","","","",""
"2197","","image-button-response","30","277699","0.0-30.0","A1XRWOK00HK1J4","img_art/ins/2.jpg","4","","","","","","","","","","","","","","","","","","","","","","","","",""
"9748","","image-button-response","31","287453","0.0-31.0-0.0","A1XRWOK00HK1J4","img_art/ins/2.jpg","5","","","","","","","","","","","","","","","","","","","","","","","","",""
"1306","","image-button-response","32","288765","0.0-32.0-0.0","A1XRWOK00HK1J4","img_art/ins/2.jpg","2","","","","","","","","","","","","","","","","","","","","","","","","",""
"null","","html-keyboard-response","33","290268","0.0-33.0","A1XRWOK00HK1J4","<p style=""font-size: 48px;"">+</p>","","","","","null","allTrialResponses","1500","1","-1","img_art/ins/2.jpg","25","Looks like an underground cave","Jenna,Ashley,Beth,Dora,Kara,Katie","One of my pet peevs,-48,140,20","Idk, it is just annoying,-32,40,20","meaningless painting,-45,60,20","looks too angry,-50,80,20","I like the blocks of color arrangements,30,160,20","too much color!,-28,180,20","Kara","I like the blocks of color arrangements,30,160,20","Katie","too much color!,-28,180,20","Beth","meaningless painting,-45,60,20","0"
"11227","","survey-text","34","301506","0.0-34.0-0.0","A1XRWOK00HK1J4","","","","{""Q0"":""An ice castle""}","","","","","","","","","","","","","","","","","","","","","","",""
"6786","","image-slider-response","35","308295","0.0-35.0","A1XRWOK00HK1J4","","","","","20","","","","","","","","","","","","","","","","","","","","","",""
"2020","","image-button-response","36","313299","0.0-36.0","A1XRWOK00HK1J4","img_art/ins/3.jpg","4","","","","","","","","","","","","","","","","","","","","","","","","",""
"6741","","image-button-response","37","320046","0.0-37.0","A1XRWOK00HK1J4","img_art/ins/3.jpg","4","","","","","","","","","","","","","","","","","","","","","","","","",""
"1257","","image-button-response","38","321309","0.0-38.0-0.0","A1XRWOK00HK1J4","img_art/ins/3.jpg","3","","","","","","","","","","","","","","","","","","","","","","","","",""
"1750","","image-button-response","39","323062","0.0-39.0-0.0","A1XRWOK00HK1J4","img_art/ins/3.jpg","1","","","","","","","","","","","","","","","","","","","","","","","","",""
"null","","html-keyboard-response","40","323565","0.0-40.0","A1XRWOK00HK1J4","<p style=""font-size: 48px;"">+</p>","","","","","null","allTrialResponses","500","1","0","img_art/ins/3.jpg","20","An ice castle","Rose,Mary,Beth,Leslie,Kara,Katie","My daily routine, it's depressing,-20,240,20","I like the overlapping of brushes,41,220,20","This thing gives me anxiety,-41,60,20","It's an alright work,15,200,20","calming blue is very nice,36,160,20","It looks depressing,-26,180,20","Kara","calming blue is very nice,36,160,20","Leslie","It's an alright work,15,200,20","Mary","I like the overlapping of brushes,41,220,20","0"
"6686","","image-button-response_instructions","41","330259","0.0-41.0","A1XRWOK00HK1J4","","0","instructions","","","","","","","","","","","","","","","","","","","","","","","",""
"19705","","survey-likert","42","349968","0.0-42.0-0.0","A1XRWOK00HK1J4","","","","{""Q0"":"""",""Q1"":0,""Q2"":1}","","","","","","","","","","","","","","","","","","","","","","",""
"6033","","survey-text","43","356023","0.0-43.0-0.0","A1XRWOK00HK1J4","","","","{""Q0"":""rock""}","","","","","","","","","","","","","","","","","","","","","","",""
"25981","","survey-text","44","382007","0.0-44.0-0.0","A1XRWOK00HK1J4","","","","{""Q0"":""This painting is a mess with too much going on""}","","","","","","","","","","","","","","","","","","","","","","",""
"4386.4000000059605","","image-slider-response","45","386397","0.0-45.0","A1XRWOK00HK1J4","","","","","-23","","","","","","","","","","","","","","","","","","","","","",""
"null","","image-button-response","46","391460","0.0-46.0","A1XRWOK00HK1J4","img_art/18.jpg","null","","","","","","","","","","","","","","","","","","","","","","","","",""
"12775","","image-button-response","47","404240","0.0-47.0","A1XRWOK00HK1J4","img_art/18.jpg","0","","","","","","","","","","","","","","","","","","","","","","","","",""
"2571","","image-button-response","48","406815","0.0-48.0-0.0","A1XRWOK00HK1J4","img_art/18.jpg","0","","","","","","","","","","","","","","","","","","","","","","","","",""
"1990","","image-button-response","49","411938","0.0-48.1-0.1","A1XRWOK00HK1J4","img_art/18.jpg","4","","","","","","","","","","","","","","","","","","","","","","","","",""
"5530","","image-button-response","50","417473","0.0-49.0-0.0","A1XRWOK00HK1J4","img_art/18.jpg","3","","","","","","","","","","","","","","","","","","","","","","","","",""
"null","","html-keyboard-response","51","417984","0.0-50.0","A1XRWOK00HK1J4","<p style=""font-size: 48px;"">+</p>","","","","","null","allTrialResponses","500","1","1","img_art/18.jpg","-23","This painting is a mess with too much going on","Angela,Gabrielle,Caroline,Sara,Erin,Abigail","like the grays and contrast of the yellow. This piece feels a bit angry,10,260,20","interesting piece, I like the horse and people inserted in spots,22,160,20","I think of the ocean and a boat tossed about on the waves. In the upper left is a figure. It is pleasant,30,100,20","Too abstract and swirly,-21,160,20","See a weird horse,-22,120,20","Interesting and capitvating to look at,19,20,20","Angela","like the grays and contrast of the yellow. This piece feels a bit angry,10,260,20","Erin","See a weird horse,-22,120,20","Sara","Too abstract and swirly,-21,160,20","2"
"13558","","survey-text","52","431557","0.0-51.0-0.0","A1XRWOK00HK1J4","","","","{""Q0"":""This looks like something a kid would make""}","","","","","","","","","","","","","","","","","","","","","","",""
"3745.7999999970198","","image-slider-response","53","435307","0.0-52.0","A1XRWOK00HK1J4","","","","","-46","","","","","","","","","","","","","","","","","","","","","",""
"null","","image-button-response","54","440312","0.0-53.0","A1XRWOK00HK1J4","img_art/16.jpg","null","","","","","","","","","","","","","","","","","","","","","","","","",""
"2043","","image-button-response","55","442357","0.0-54.0","A1XRWOK00HK1J4","img_art/16.jpg","4","","","","","","","","","","","","","","","","","","","","","","","","",""
"2738","","image-button-response","56","445099","0.0-55.0-0.0","A1XRWOK00HK1J4","img_art/16.jpg","3","","","","","","","","","","","","","","","","","","","","","","","","",""
"4133","","image-button-response","57","449242","0.0-56.0-0.0","A1XRWOK00HK1J4","img_art/16.jpg","0","","","","","","","","","","","","","","","","","","","","","","","","",""
"null","","html-keyboard-response","58","450776","0.0-57.0","A1XRWOK00HK1J4","<p style=""font-size: 48px;"">+</p>","","","","","null","allTrialResponses","1500","1","2","img_art/16.jpg","-46","This looks like something a kid would make","Angela,Natalie,Allison,Sara,Erin,Julia","Hate this, especially the jarring contrast of the super realistic teddybear face.,-50,260,20","my reaction is that the picture is creepy,-19,400,20","Hard contrast, but no emotions towards any of the objects.,-6,140,20","This painting is too random,-30,160,20","Not original. Bear is odd,-50,120,20","I love the teddy bear,50,40,20","Erin","Not original. Bear is odd,-50,120,20","Sara","This painting is too random,-30,160,20","Angela","Hate this, especially the jarring contrast of the super realistic teddybear face.,-50,260,20","2"
"20422","","survey-text","59","471206","0.0-58.0-0.0","A1XRWOK00HK1J4","","","","{""Q0"":""I kind of like the contrast from dark to colorful""}","","","","","","","","","","","","","","","","","","","","","","",""
"3405.9000000059605","","image-slider-response","60","474616","0.0-59.0","A1XRWOK00HK1J4","","","","","11","","","","","","","","","","","","","","","","","","","","","",""
"null","","image-button-response","61","479622","0.0-60.0","A1XRWOK00HK1J4","img_art/12.jpg","null","","","","","","","","","","","","","","","","","","","","","","","","",""
"5869","","image-button-response","62","485495","0.0-61.0","A1XRWOK00HK1J4","img_art/12.jpg","0","","","","","","","","","","","","","","","","","","","","","","","","",""
"2827","","image-button-response","63","488333","0.0-62.0-0.0","A1XRWOK00HK1J4","img_art/12.jpg","5","","","","","","","","","","","","","","","","","","","","","","","","",""
"1478","","image-button-response","64","489817","0.0-63.0-0.0","A1XRWOK00HK1J4","img_art/12.jpg","5","","","","","","","","","","","","","","","","","","","","","","","","",""
"874","","image-button-response","65","497030","0.0-63.1-0.1","A1XRWOK00HK1J4","img_art/12.jpg","4","","","","","","","","","","","","","","","","","","","","","","","","",""
"null","","html-keyboard-response","66","498534","0.0-64.0","A1XRWOK00HK1J4","<p style=""font-size: 48px;"">+</p>","","","","","null","allTrialResponses","1500","1","3","img_art/12.jpg","11","I kind of like the contrast from dark to colorful","Angela,Marissa,Alyssa,Sara,Erin,Taylor","I like the colors in the bottom half of the painting,10,260,20","It reminds me of the documentary Paris is Burning, though I'm not sure why,11,160,20","Its cool,reminiscent of Andy Warhol type of style,10,160,20","I don't like the blocking,-20,160,20","City scape but palette is odd,4,120,20","It's kind of ominous,-15,340,20","Angela","I like the colors in the bottom half of the painting,10,260,20","Taylor","It's kind of ominous,-15,340,20","Erin","City scape but palette is odd,4,120,20","4"
"10951","","survey-text","67","509496","0.0-65.0-0.0","A1XRWOK00HK1J4","","","","{""Q0"":""Looks like a snake""}","","","","","","","","","","","","","","","","","","","","","","",""
"6397.29999999702","","image-slider-response","68","515902","0.0-66.0","A1XRWOK00HK1J4","","","","","-33","","","","","","","","","","","","","","","","","","","","","",""
"null","","image-button-response","69","520921","0.0-67.0","A1XRWOK00HK1J4","img_art/10.jpg","null","","","","","","","","","","","","","","","","","","","","","","","","",""
"9047","","image-button-response","70","529972","0.0-68.0","A1XRWOK00HK1J4","img_art/10.jpg","4","","","","","","","","","","","","","","","","","","","","","","","","",""
"1388","","image-button-response","71","531365","0.0-69.0-0.0","A1XRWOK00HK1J4","img_art/10.jpg","2","","","","","","","","","","","","","","","","","","","","","","","","",""
"5820","","image-button-response","72","537189","0.0-70.0-0.0","A1XRWOK00HK1J4","img_art/10.jpg","5","","","","","","","","","","","","","","","","","","","","","","","","",""
"null","","html-keyboard-response","73","538692","0.0-71.0","A1XRWOK00HK1J4","<p style=""font-size: 48px;"">+</p>","","","","","null","allTrialResponses","1500","1","4","img_art/10.jpg","-33","Looks like a snake","Angela,Michaela,Jordan,Hannah,Erin,Taylor","This makes me think of a city, specifically London.,20,260,20","It looks like it's sinking but it could also be a view from above,40,260,20","I dont like it, there is too much going on,-19,20,20","This one is interesting. I like it.,11,240,20","Cello music instrument,11,120,20","Makes me think of the exhilaration of a roller coaster,31,340,20","Erin","Cello music instrument,11,120,20","Jordan","I dont like it, there is too much going on,-19,20,20","Taylor","Makes me think of the exhilaration of a roller coaster,31,340,20","4"
"24470","","survey-text","74","563171","0.0-72.0-0.0","A1XRWOK00HK1J4","","","","{""Q0"":""This makes me think of clouds and a sunset""}","","","","","","","","","","","","","","","","","","","","","","",""
"2974.199999988079","","image-slider-response","75","566149","0.0-73.0","A1XRWOK00HK1J4","","","","","17","","","","","","","","","","","","","","","","","","","","","",""
"null","","image-button-response","76","571160","0.0-74.0","A1XRWOK00HK1J4","img_art/27.jpg","null","","","","","","","","","","","","","","","","","","","","","","","","",""
"8927","","image-button-response","77","580091","0.0-75.0","A1XRWOK00HK1J4","img_art/27.jpg","1","","","","","","","","","","","","","","","","","","","","","","","","",""
"1409","","image-button-response","78","581505","0.0-76.0-0.0","A1XRWOK00HK1J4","img_art/27.jpg","0","","","","","","","","","","","","","","","","","","","","","","","","",""
"6340","","image-button-response","79","587852","0.0-77.0-0.0","A1XRWOK00HK1J4","img_art/27.jpg","5","","","","","","","","","","","","","","","","","","","","","","","","",""
"null","","html-keyboard-response","80","588369","0.0-78.0","A1XRWOK00HK1J4","<p style=""font-size: 48px;"">+</p>","","","","","null","allTrialResponses","500","1","5","img_art/27.jpg","17","This makes me think of clouds and a sunset","Emma,Cheyenne,Jordan,Katie,Erin,Taylor","Not sure how I feel about this. Messy, even for art. But good colors.,0,60,20","This one does nothing for me.,2,200,20","two warring cities, separated by a small desert,50,20,20","Fire, explosion. Red/orange colors are fire/explosion. White is smoke. Makes me worried/scared/anxious,-20,160,20","Looks like someone vandalized the original piece with a marker,-36,120,20","Reminds me of a town on fire,-15,340,20","Cheyenne","This one does nothing for me.,2,200,20","Emma","Not sure how I feel about this. Messy, even for art. But good colors.,0,60,20","Taylor","Reminds me of a town on fire,-15,340,20","4"
"4371","","survey-text","81","592752","0.0-79.0-0.0","A1XRWOK00HK1J4","","","","{""Q0"":""sky""}","","","","","","","","","","","","","","","","","","","","","","",""
"15748","","survey-text","82","608506","0.0-80.0-0.0","A1XRWOK00HK1J4","","","","{""Q0"":""Looks like finger painting""}","","","","","","","","","","","","","","","","","","","","","","",""
"5277.800000011921","","image-slider-response","83","613788","0.0-81.0","A1XRWOK00HK1J4","","","","","-46","","","","","","","","","","","","","","","","","","","","","",""
"null","","image-button-response","84","618792","0.0-82.0","A1XRWOK00HK1J4","img_art/30.jpg","null","","","","","","","","","","","","","","","","","","","","","","","","",""
"3517","","image-button-response","85","622314","0.0-83.0","A1XRWOK00HK1J4","img_art/30.jpg","3","","","","","","","","","","","","","","","","","","","","","","","","",""
"987","","image-button-response","86","623305","0.0-84.0-0.0","A1XRWOK00HK1J4","img_art/30.jpg","4","","","","","","","","","","","","","","","","","","","","","","","","",""
"4627","","image-button-response","87","627937","0.0-85.0-0.0","A1XRWOK00HK1J4","img_art/30.jpg","1","","","","","","","","","","","","","","","","","","","","","","","","",""
"null","","html-keyboard-response","88","628441","0.0-86.0","A1XRWOK00HK1J4","<p style=""font-size: 48px;"">+</p>","","","","","null","allTrialResponses","500","1","6","img_art/30.jpg","-46","Looks like finger painting","Emma,Cheyenne,Morgan,Michelle,Victoria,Taylor","Like the design, not a big fan of the colors,20,60,20","A bit too dark for my liking,-10,200,20","Sleek eel in the abstract ocean.,30,380,20","Don't like it at all, looks like a someone smeared paint with their fingers,-25,280,20","to dark and dreary,-28,400,20","It's a really interesting piece,20,340,20","Michelle","Don't like it at all, looks like a someone smeared paint with their fingers,-25,280,20","Victoria","to dark and dreary,-28,400,20","Cheyenne","A bit too dark for my liking,-10,200,20","4"
"12518","","survey-text","89","640971","0.0-87.0-0.0","A1XRWOK00HK1J4","","","","{""Q0"":""I don't like the style at all""}","","","","","","","","","","","","","","","","","","","","","","",""
"3828.5","","image-slider-response","90","644803","0.0-88.0","A1XRWOK00HK1J4","","","","","-50","","","","","","","","","","","","","","","","","","","","","",""
"null","","image-button-response","91","649807","0.0-89.0","A1XRWOK00HK1J4","img_art/7.jpg","null","","","","","","","","","","","","","","","","","","","","","","","","",""
"1057","","image-button-response","92","650868","0.0-90.0","A1XRWOK00HK1J4","img_art/7.jpg","5","","","","","","","","","","","","","","","","","","","","","","","","",""
"1509","","image-button-response","93","652380","0.0-91.0-0.0","A1XRWOK00HK1J4","img_art/7.jpg","0","","","","","","","","","","","","","","","","","","","","","","","","",""
"2783","","image-button-response","94","655168","0.0-92.0-0.0","A1XRWOK00HK1J4","img_art/7.jpg","4","","","","","","","","","","","","","","","","","","","","","","","","",""
"null","","html-keyboard-response","95","655672","0.0-93.0","A1XRWOK00HK1J4","<p style=""font-size: 48px;"">+</p>","","","","","null","allTrialResponses","500","1","7","img_art/7.jpg","-50","I don't like the style at all","Katherine,Cheyenne,Dominique,Michelle,Victoria,Margaret","Reminds me of bugs, I hate bugs,-7,120,20","Nice realistic feel but nothing stands out.,4,200,20","One I would love to own . Calm relaxing spiritual and full of love,41,400,20","Hmm interesting, looks like mars or something terrestrial. Too abstract for me and too much brown,4,280,20","looks like a photograph,-4,400,20","looks like a close up of irritated skin under a microscope,-49,100,20","Margaret","looks like a close up of irritated skin under a microscope,-49,100,20","Katherine","Reminds me of bugs, I hate bugs,-7,120,20","Victoria","looks like a photograph,-4,400,20","4"
"16502","","survey-text","96","672183","0.0-94.0-0.0","A1XRWOK00HK1J4","","","","{""Q0"":""This is interesting because of the two different styles""}","","","","","","","","","","","","","","","","","","","","","","",""
"4288.5999999940395","","image-slider-response","97","676474","0.0-95.0","A1XRWOK00HK1J4","","","","","30","","","","","","","","","","","","","","","","","","","","","",""
"null","","image-button-response","98","681478","0.0-96.0","A1XRWOK00HK1J4","img_art/13.jpg","null","","","","","","","","","","","","","","","","","","","","","","","","",""
"2764","","image-button-response","99","684246","0.0-97.0","A1XRWOK00HK1J4","img_art/13.jpg","3","","","","","","","","","","","","","","","","","","","","","","","","",""
"3927","","image-button-response","100","688176","0.0-98.0-0.0","A1XRWOK00HK1J4","img_art/13.jpg","4","","","","","","","","","","","","","","","","","","","","","","","","",""
"3389","","image-button-response","101","691575","0.0-99.0-0.0","A1XRWOK00HK1J4","img_art/13.jpg","0","","","","","","","","","","","","","","","","","","","","","","","","",""
"null","","html-keyboard-response","102","693078","0.0-100.0","A1XRWOK00HK1J4","<p style=""font-size: 48px;"">+</p>","","","","","null","allTrialResponses","1500","1","8","img_art/13.jpg","30","This is interesting because of the two different styles","Katherine,Kelly,Erica,Meghan,Victoria,Margaret","Best color combo. i love this.,50,120,20","I would hang this photo in my room.,21,220,20","Messy but organised, helps me to relax and observe,8,80,20","I like the transition to other colors,24,220,20","reminds me of rain,36,400,20","i like the splatters and the colors,21,100,20","Meghan","I like the transition to other colors,24,220,20","Victoria","reminds me of rain,36,400,20","Katherine","Best color combo. i love this.,50,120,20","4"
"13175","","survey-text","103","706261","0.0-101.0-0.0","A1XRWOK00HK1J4","","","","{""Q0"":""Looks like someone smears poop""}","","","","","","","","","","","","","","","","","","","","","","",""
"3466.7000000029802","","image-slider-response","104","709732","0.0-102.0","A1XRWOK00HK1J4","","","","","-50","","","","","","","","","","","","","","","","","","","","","",""
"null","","image-button-response","105","714737","0.0-103.0","A1XRWOK00HK1J4","img_art/4.jpg","null","","","","","","","","","","","","","","","","","","","","","","","","",""
"2372","","image-button-response","106","717112","0.0-104.0","A1XRWOK00HK1J4","img_art/4.jpg","2","","","","","","","","","","","","","","","","","","","","","","","","",""
"3817","","image-button-response","107","720932","0.0-105.0-0.0","A1XRWOK00HK1J4","img_art/4.jpg","5","","","","","","","","","","","","","","","","","","","","","","","","",""
"947","","image-button-response","108","721886","0.0-106.0-0.0","A1XRWOK00HK1J4","img_art/4.jpg","4","","","","","","","","","","","","","","","","","","","","","","","","",""
"null","","html-keyboard-response","109","722889","0.0-107.0","A1XRWOK00HK1J4","<p style=""font-size: 48px;"">+</p>","","","","","null","allTrialResponses","1000","1","9","img_art/4.jpg","-50","Looks like someone smears poop","Katherine,Catherine,Jessica,Meghan,Victoria,Angelica","I like how many different ways there are to interpret this.,27,120,20","Hearts, family connected. They are standing on a narrow base and could fall to pieces at anytime.,40,160,20","Looks like they just smothered on some paint and called it a day.,-17,400,20","feels free flowing and relaxed,21,220,20","dont like the colors,-31,400,20","This is ugly in color and in terms of the shape on it.,-32,280,20","Jessica","Looks like they just smothered on some paint and called it a day.,-17,400,20","Angelica","This is ugly in color and in terms of the shape on it.,-32,280,20","Victoria","dont like the colors,-31,400,20","4"
"14175","","survey-text","110","737074","0.0-108.0-0.0","A1XRWOK00HK1J4","","","","{""Q0"":""This is a very interesting style of painting""}","","","","","","","","","","","","","","","","","","","","","","",""
"2814.2999999970198","","image-slider-response","111","739891","0.0-109.0","A1XRWOK00HK1J4","","","","","10","","","","","","","","","","","","","","","","","","","","","",""
"null","","image-button-response","112","744897","0.0-110.0","A1XRWOK00HK1J4","img_art/8.jpg","null","","","","","","","","","","","","","","","","","","","","","","","","",""
"5210","","image-button-response","113","750110","0.0-111.0","A1XRWOK00HK1J4","img_art/8.jpg","1","","","","","","","","","","","","","","","","","","","","","","","","",""
"1477","","image-button-response","114","751593","0.0-112.0-0.0","A1XRWOK00HK1J4","img_art/8.jpg","2","","","","","","","","","","","","","","","","","","","","","","","","",""
"4487","","image-button-response","115","756084","0.0-113.0-0.0","A1XRWOK00HK1J4","img_art/8.jpg","4","","","","","","","","","","","","","","","","","","","","","","","","",""
"null","","html-keyboard-response","116","756590","0.0-114.0","A1XRWOK00HK1J4","<p style=""font-size: 48px;"">+</p>","","","","","null","allTrialResponses","500","1","10","img_art/8.jpg","10","This is a very interesting style of painting","Destiny,Rachel,Jessica,Mary,Victoria,Angelica","a cute little cute with some protectors,25,360,20","I like all of the faces that can be found in this piece. Interesting.,35,80,20","Very cool! I like this piece,9,400,20","Very inspiring piece. I love how it's at angle. It gives it character.,23,180,20","makes me think of a busy city,-18,400,20","It's a poor rendition of an MC Escher inspired piece.,-25,280,20","Rachel","I like all of the faces that can be found in this piece. Interesting.,35,80,20","Jessica","Very cool! I like this piece,9,400,20","Victoria","makes me think of a busy city,-18,400,20","4"
"4052","","survey-text","117","760677","0.0-115.0-0.0","A1XRWOK00HK1J4","","","","{""Q0"":""our""}","","","","","","","","","","","","","","","","","","","","","","",""
"12908","","survey-text","118","773588","0.0-116.0-0.0","A1XRWOK00HK1J4","","","","{""Q0"":""This looks like a five year old made it""}","","","","","","","","","","","","","","","","","","","","","","",""
"3984.2000000029802","","image-slider-response","119","777577","0.0-117.0","A1XRWOK00HK1J4","","","","","-35","","","","","","","","","","","","","","","","","","","","","",""
"null","","image-button-response","120","782581","0.0-118.0","A1XRWOK00HK1J4","img_art/2.jpg","null","","","","","","","","","","","","","","","","","","","","","","","","",""
"1135","","image-button-response","121","783719","0.0-119.0","A1XRWOK00HK1J4","img_art/2.jpg","0","","","","","","","","","","","","","","","","","","","","","","","","",""
"2516","","image-button-response","122","786240","0.0-120.0-0.0","A1XRWOK00HK1J4","img_art/2.jpg","2","","","","","","","","","","","","","","","","","","","","","","","","",""
"2268","","image-button-response","123","788515","0.0-121.0-0.0","A1XRWOK00HK1J4","img_art/2.jpg","3","","","","","","","","","","","","","","","","","","","","","","","","",""
"null","","html-keyboard-response","124","790019","0.0-122.0","A1XRWOK00HK1J4","<p style=""font-size: 48px;"">+</p>","","","","","null","allTrialResponses","1500","1","11","img_art/2.jpg","-35","This looks like a five year old made it","Jamie,Rachel,Jessica,Danielle,Victoria,Kaitlyn","Awful color coordination and design,-35,320,20","I am not a fan of the color story. I am confused by the piece and therefore do not like it.,-21,80,20","I don't get the meaning of this piece either.,-13,400,20","Not a fan of this style,-30,340,20","I like the colors,22,400,20","Too jumbled and disorienting,-13,80,20","Jamie","Awful color coordination and design,-35,320,20","Jessica","I don't get the meaning of this piece either.,-13,400,20","Danielle","Not a fan of this style,-30,340,20","4"
"19554","","survey-text","125","809591","0.0-123.0-0.0","A1XRWOK00HK1J4","","","","{""Q0"":""The colors are really bright and vibrant in this one""}","","","","","","","","","","","","","","","","","","","","","","",""
"4597.4000000059605","","image-slider-response","126","814193","0.0-124.0","A1XRWOK00HK1J4","","","","","16","","","","","","","","","","","","","","","","","","","","","",""
"null","","image-button-response","127","819201","0.0-125.0","A1XRWOK00HK1J4","img_art/22.jpg","null","","","","","","","","","","","","","","","","","","","","","","","","",""
"1905","","image-button-response","128","821113","0.0-126.0","A1XRWOK00HK1J4","img_art/22.jpg","2","","","","","","","","","","","","","","","","","","","","","","","","",""
"1098","","image-button-response","129","822214","0.0-127.0-0.0","A1XRWOK00HK1J4","img_art/22.jpg","0","","","","","","","","","","","","","","","","","","","","","","","","",""
"1109","","image-button-response","130","823328","0.0-128.0-0.0","A1XRWOK00HK1J4","img_art/22.jpg","1","","","","","","","","","","","","","","","","","","","","","","","","",""
"null","","html-keyboard-response","131","823831","0.0-129.0","A1XRWOK00HK1J4","<p style=""font-size: 48px;"">+</p>","","","","","null","allTrialResponses","500","1","12","img_art/22.jpg","16","The colors are really bright and vibrant in this one","Jamie,Brittany,Jessica,Danielle,Jacqueline,Isabella","Like the mix of warm and cool colors,15,320,20","It reminds me of sunsets and dusks.,22,40,20","I like the mixing of the primary colors.,8,400,20","A bit colorful, but slightly enjoyable, almost gives off castle/sunset vibes,10,340,20","I feel like I've seen this one already.,-9,300,20","Sunsets at the beach,42,280,20","Jessica","I like the mixing of the primary colors.,8,400,20","Jamie","Like the mix of warm and cool colors,15,320,20","Brittany","It reminds me of sunsets and dusks.,22,40,20","4"
"15548","","survey-text","132","839390","0.0-130.0-0.0","A1XRWOK00HK1J4","","","","{""Q0"":""This is just a bunch of scribbles""}","","","","","","","","","","","","","","","","","","","","","","",""
"4207.29999999702","","image-slider-response","133","843602","0.0-131.0","A1XRWOK00HK1J4","","","","","-50","","","","","","","","","","","","","","","","","","","","","",""
"null","","image-button-response","134","848606","0.0-132.0","A1XRWOK00HK1J4","img_art/3.jpg","null","","","","","","","","","","","","","","","","","","","","","","","","",""
"1838","","image-button-response","135","850448","0.0-133.0","A1XRWOK00HK1J4","img_art/3.jpg","0","","","","","","","","","","","","","","","","","","","","","","","","",""
"2021","","image-button-response","136","852473","0.0-134.0-0.0","A1XRWOK00HK1J4","img_art/3.jpg","4","","","","","","","","","","","","","","","","","","","","","","","","",""
"2082","","image-button-response","137","854563","0.0-135.0-0.0","A1XRWOK00HK1J4","img_art/3.jpg","5","","","","","","","","","","","","","","","","","","","","","","","","",""
"null","","html-keyboard-response","138","855567","0.0-136.0","A1XRWOK00HK1J4","<p style=""font-size: 48px;"">+</p>","","","","","null","allTrialResponses","1000","1","13","img_art/3.jpg","-50","This is just a bunch of scribbles","Jamie,Brittany,Jessica,Amy,Alexandra,Hailey","Looks like somebody squirted ketchup everywhere,-40,320,20","I don't care for art that looks like it was just scribbled.,-19,40,20","Don't get the scribbles.,-13,400,20","i like the colors particulairly the contrast of foreground to background. Exciting and thoughtful.,10,220,20","I could scribble on paper and mimic this,-48,60,20","painted by a 2 year old. cold and boring,-30,200,20","Jamie","Looks like somebody squirted ketchup everywhere,-40,320,20","Alexandra","I could scribble on paper and mimic this,-48,60,20","Hailey","painted by a 2 year old. cold and boring,-30,200,20","4"
"27052","","survey-text","139","882636","0.0-137.0-0.0","A1XRWOK00HK1J4","","","","{""Q0"":""I like the color combo in this one""}","","","","","","","","","","","","","","","","","","","","","","",""
"3907.9000000059605","","image-slider-response","140","886548","0.0-138.0","A1XRWOK00HK1J4","","","","","32","","","","","","","","","","","","","","","","","","","","","",""
"null","","image-button-response","141","891563","0.0-139.0","A1XRWOK00HK1J4","img_art/1.jpg","null","","","","","","","","","","","","","","","","","","","","","","","","",""
"2291","","image-button-response","142","893857","0.0-140.0","A1XRWOK00HK1J4","img_art/1.jpg","2","","","","","","","","","","","","","","","","","","","","","","","","",""
"2151","","image-button-response","143","896012","0.0-141.0-0.0","A1XRWOK00HK1J4","img_art/1.jpg","4","","","","","","","","","","","","","","","","","","","","","","","","",""
"2199","","image-button-response","144","898217","0.0-142.0-0.0","A1XRWOK00HK1J4","img_art/1.jpg","3","","","","","","","","","","","","","","","","","","","","","","","","",""
"null","","html-keyboard-response","145","898719","0.0-143.0","A1XRWOK00HK1J4","<p style=""font-size: 48px;"">+</p>","","","","","null","allTrialResponses","500","1","14","img_art/1.jpg","32","I like the color combo in this one","Jamie,Courtney,Brooke,Amanda,Alexandra,Hailey","Looks like just a bunch of colors with no real point,-5,320,20","I cant make anything of this one.,-7,280,20","It's okay, colors remind me of autumn.,10,60,20","Seems like one i previously saw in this survey,27,180,20","I love the warm colors of the art,32,60,20","colors that are fairly warm. its ok,8,200,20","Brooke","It's okay, colors remind me of autumn.,10,60,20","Alexandra","I love the warm colors of the art,32,60,20","Amanda","Seems like one i previously saw in this survey,27,180,20","4"
"13073","","survey-text","146","911819","0.0-144.0-0.0","A1XRWOK00HK1J4","","","","{""Q0"":""Looks like a space shuttle taking flight""}","","","","","","","","","","","","","","","","","","","","","","",""
"3053.4000000059605","","image-slider-response","147","914875","0.0-145.0","A1XRWOK00HK1J4","","","","","17","","","","","","","","","","","","","","","","","","","","","",""
"null","","image-button-response","148","919879","0.0-146.0","A1XRWOK00HK1J4","img_art/20.jpg","null","","","","","","","","","","","","","","","","","","","","","","","","",""
"7262","","image-button-response","149","927144","0.0-147.0","A1XRWOK00HK1J4","img_art/20.jpg","5","","","","","","","","","","","","","","","","","","","","","","","","",""
"2714","","image-button-response","150","929862","0.0-148.0-0.0","A1XRWOK00HK1J4","img_art/20.jpg","1","","","","","","","","","","","","","","","","","","","","","","","","",""
"2297","","image-button-response","151","932164","0.0-149.0-0.0","A1XRWOK00HK1J4","img_art/20.jpg","4","","","","","","","","","","","","","","","","","","","","","","","","",""
"null","","html-keyboard-response","152","933166","0.0-150.0","A1XRWOK00HK1J4","<p style=""font-size: 48px;"">+</p>","","","","","null","allTrialResponses","1000","1","15","img_art/20.jpg","17","Looks like a space shuttle taking flight","Vanessa,Caitlin,Brooke,Amanda,Alexandra,Autumn","I like the deep blues, but I don't like the way this picture makes me feel.,-13,380,20","Not bad for all the southwestern people.,15,80,20","Dinosaur skill and some dark shadow above,-30,60,20","Too negative looks like a car and plane crash,-50,180,20","The white blob looks like a face and it's creepy,-30,60,20","It's ok. Very abstract.,18,340,20","Autumn","It's ok. Very abstract.,18,340,20","Caitlin","Not bad for all the southwestern people.,15,80,20","Alexandra","The white blob looks like a face and it's creepy,-30,60,20","4"
"4637","","survey-text","153","937827","0.0-151.0-0.0","A1XRWOK00HK1J4","","","","{""Q0"":""course""}","","","","","","","","","","","","","","","","","","","","","","",""
"14249","","survey-text","154","952079","0.0-152.0-0.0","A1XRWOK00HK1J4","","","","{""Q0"":""Looks like a monsters smile""}","","","","","","","","","","","","","","","","","","","","","","",""
"4515.79999999702","","image-slider-response","155","956598","0.0-153.0","A1XRWOK00HK1J4","","","","","8","","","","","","","","","","","","","","","","","","","","","",""
"null","","image-button-response","156","961602","0.0-154.0","A1XRWOK00HK1J4","img_art/23.jpg","null","","","","","","","","","","","","","","","","","","","","","","","","",""
"4213","","image-button-response","157","965818","0.0-155.0","A1XRWOK00HK1J4","img_art/23.jpg","0","","","","","","","","","","","","","","","","","","","","","","","","",""
"5518","","image-button-response","158","971340","0.0-156.0-0.0","A1XRWOK00HK1J4","img_art/23.jpg","4","","","","","","","","","","","","","","","","","","","","","","","","",""
"1289","","image-button-response","159","972633","0.0-157.0-0.0","A1XRWOK00HK1J4","img_art/23.jpg","3","","","","","","","","","","","","","","","","","","","","","","","","",""
"null","","html-keyboard-response","160","973635","0.0-158.0","A1XRWOK00HK1J4","<p style=""font-size: 48px;"">+</p>","","","","","null","allTrialResponses","1000","1","16","img_art/23.jpg","8","Looks like a monsters smile","Samantha,Caitlin,Mackenzie,Leah,Alexandra,Autumn","The more i look at it the more i like it  the dots of color and very interesting,50,140,20","SOME thought was put into this one.,5,80,20","The usage of color is great, but not my style.,-15,20,20","Interesting, want to look at it more to identify,25,360,20","This is my favorite of them all. I love the colors.,41,60,20","Awesome abstraction love it.,30,340,20","Samantha","The more i look at it the more i like it  the dots of color and very interesting,50,140,20","Alexandra","This is my favorite of them all. I love the colors.,41,60,20","Leah","Interesting, want to look at it more to identify,25,360,20","4"
"21562","","survey-text","161","995212","0.0-159.0-0.0","A1XRWOK00HK1J4","","","","{""Q0"":""Seems like a breakfast table in the kitchen""}","","","","","","","","","","","","","","","","","","","","","","",""
"4035.800000011921","","image-slider-response","162","999252","0.0-160.0","A1XRWOK00HK1J4","","","","","7","","","","","","","","","","","","","","","","","","","","","",""
"null","","image-button-response","163","1004257","0.0-161.0","A1XRWOK00HK1J4","img_art/19.jpg","null","","","","","","","","","","","","","","","","","","","","","","","","",""
"2287","","image-button-response","164","1006547","0.0-162.0","A1XRWOK00HK1J4","img_art/19.jpg","5","","","","","","","","","","","","","","","","","","","","","","","","",""
"1400","","image-button-response","165","1007951","0.0-163.0-0.0","A1XRWOK00HK1J4","img_art/19.jpg","0","","","","","","","","","","","","","","","","","","","","","","","","",""
"6469","","image-button-response","166","1014424","0.0-164.0-0.0","A1XRWOK00HK1J4","img_art/19.jpg","4","","","","","","","","","","","","","","","","","","","","","","","","",""
"null","","html-keyboard-response","167","1015428","0.0-165.0","A1XRWOK00HK1J4","<p style=""font-size: 48px;"">+</p>","","","","","null","allTrialResponses","1000","1","17","img_art/19.jpg","7","Seems like a breakfast table in the kitchen","Samantha,Christina,Chelsea,Leah,Alexandra,Makayla","Intersting but not for me,21,140,20","i like the colors and the way it looks like an actual scene,18,240,20","It is too busy.,-34,180,20","Very abstract but I like it, it's busy, lots of colors,43,360,20","This photo has too much going on.,-19,60,20","Looks like hustle and bustle ,,3,80,20","Makayla","Looks like hustle and bustle ,,3,80,20","Samantha","Intersting but not for me,21,140,20","Alexandra","This photo has too much going on.,-19,60,20","4"
"17943","","survey-text","168","1033381","0.0-166.0-0.0","A1XRWOK00HK1J4","","","","{""Q0"":""I don't like the dull dark feeling this gives""}","","","","","","","","","","","","","","","","","","","","","","",""
"2975.1000000089407","","image-slider-response","169","1036360","0.0-167.0","A1XRWOK00HK1J4","","","","","-19","","","","","","","","","","","","","","","","","","","","","",""
"null","","image-button-response","170","1041367","0.0-168.0","A1XRWOK00HK1J4","img_art/28.jpg","null","","","","","","","","","","","","","","","","","","","","","","","","",""
"1444","","image-button-response","171","1042814","0.0-169.0","A1XRWOK00HK1J4","img_art/28.jpg","1","","","","","","","","","","","","","","","","","","","","","","","","",""
"3490","","image-button-response","172","1046309","0.0-170.0-0.0","A1XRWOK00HK1J4","img_art/28.jpg","5","","","","","","","","","","","","","","","","","","","","","","","","",""
"1406","","image-button-response","173","1047726","0.0-171.0-0.0","A1XRWOK00HK1J4","img_art/28.jpg","4","","","","","","","","","","","","","","","","","","","","","","","","",""
"null","","html-keyboard-response","174","1049228","0.0-172.0","A1XRWOK00HK1J4","<p style=""font-size: 48px;"">+</p>","","","","","null","allTrialResponses","1500","1","18","img_art/28.jpg","-19","I don't like the dull dark feeling this gives","Samantha,Kayla,Haley,Ashley,Alexandra,Makayla","Interesting and weird. Perfect conversational piece,33,140,20","Don't love it, don't hate it. It's just there.,1,180,20","I can't explain why, but I really love this one,50,220,20","Normally don't react well to abstract art, but it looks almost like something's there.,28,320,20","Boring, looks like it belongs in a coffee shop,-20,60,20","The earthy colors smeared around looks like prison food tray,-17,80,20","Kayla","Don't love it, don't hate it. It's just there.,1,180,20","Makayla","The earthy colors smeared around looks like prison food tray,-17,80,20","Alexandra","Boring, looks like it belongs in a coffee shop,-20,60,20","4"
"12864","","survey-text","175","1062110","0.0-173.0-0.0","A1XRWOK00HK1J4","","","","{""Q0"":""The colors seem really dull in this one""}","","","","","","","","","","","","","","","","","","","","","","",""
"3172.7999999970198","","image-slider-response","176","1065286","0.0-174.0","A1XRWOK00HK1J4","","","","","-13","","","","","","","","","","","","","","","","","","","","","",""
"null","","image-button-response","177","1070290","0.0-175.0","A1XRWOK00HK1J4","img_art/26.jpg","null","","","","","","","","","","","","","","","","","","","","","","","","",""
"2857","","image-button-response","178","1073156","0.0-176.0","A1XRWOK00HK1J4","img_art/26.jpg","4","","","","","","","","","","","","","","","","","","","","","","","","",""
"1291","","image-button-response","179","1074450","0.0-177.0-0.0","A1XRWOK00HK1J4","img_art/26.jpg","2","","","","","","","","","","","","","","","","","","","","","","","","",""
"4200","","image-button-response","180","1078661","0.0-178.0-0.0","A1XRWOK00HK1J4","img_art/26.jpg","3","","","","","","","","","","","","","","","","","","","","","","","","",""
"null","","html-keyboard-response","181","1080165","0.0-179.0","A1XRWOK00HK1J4","<p style=""font-size: 48px;"">+</p>","","","","","null","allTrialResponses","1500","1","19","img_art/26.jpg","-13","The colors seem really dull in this one","Elizabeth,Kayla,Madeline,Olivia,Alexandra,Makayla","Like the soft blend of colors,26,20,20","Looks like the suburbs. I live in those.,13,180,20","I like the shapes but needs more detail i think,3,40,20","reminds me of a hometown,7,40,20","I like the colors but it is still a little boring,22,60,20","Reminds me of a European street, I desire to walk in this picture,28,80,20","Alexandra","I like the colors but it is still a little boring,22,60,20","Madeline","I like the shapes but needs more detail i think,3,40,20","Olivia","reminds me of a hometown,7,40,20","4"
"27277","","survey-text","182","1107467","0.0-180.0-0.0","A1XRWOK00HK1J4","","","","{""Q0"":""Looks like a bag of treasure, rather strange""}","","","","","","","","","","","","","","","","","","","","","","",""
"3666.4000000059605","","image-slider-response","183","1111137","0.0-181.0","A1XRWOK00HK1J4","","","","","-21","","","","","","","","","","","","","","","","","","","","","",""
"null","","image-button-response","184","1116141","0.0-182.0","A1XRWOK00HK1J4","img_art/5.jpg","null","","","","","","","","","","","","","","","","","","","","","","","","",""
"6368","","image-button-response","185","1122513","0.0-183.0","A1XRWOK00HK1J4","img_art/5.jpg","4","","","","","","","","","","","","","","","","","","","","","","","","",""
"1175","","image-button-response","186","1123696","0.0-184.0-0.0","A1XRWOK00HK1J4","img_art/5.jpg","5","","","","","","","","","","","","","","","","","","","","","","","","",""
"3293","","image-button-response","187","1126993","0.0-185.0-0.0","A1XRWOK00HK1J4","img_art/5.jpg","0","","","","","","","","","","","","","","","","","","","","","","","","",""
"null","","html-keyboard-response","188","1128006","0.0-186.0","A1XRWOK00HK1J4","<p style=""font-size: 48px;"">+</p>","","","","","null","allTrialResponses","1000","1","20","img_art/5.jpg","-21","Looks like a bag of treasure, rather strange","Bailey,Alexis,Madeline,Olivia,Alexandra,Emily","Not sure what that even is. Looks like a 2-year old drawing,-40,360,20","Kindergarten art. I really don't like this style.,-50,100,20","A bit too messy in my eyes,-4,40,20","a brush in time,-14,40,20","This looks like a twelve year old did it,-40,60,20","Complete garbage. Looks like a kid drew it.,-50,40,20","Alexandra","This looks like a twelve year old did it,-40,60,20","Emily","Complete garbage. Looks like a kid drew it.,-50,40,20","Bailey","Not sure what that even is. Looks like a 2-year old drawing,-40,360,20","4"
"9236","","survey-text","189","1137258","0.0-187.0-0.0","A1XRWOK00HK1J4","","","","{""Q0"":""we""}","","","","","","","","","","","","","","","","","","","","","","",""
"23054","","survey-text","190","1160315","0.0-188.0-0.0","A1XRWOK00HK1J4","","","","{""Q0"":""This looks like a beautiful waterfall""}","","","","","","","","","","","","","","","","","","","","","","",""
"5740.79999999702","","image-slider-response","191","1166059","0.0-189.0","A1XRWOK00HK1J4","","","","","19","","","","","","","","","","","","","","","","","","","","","",""
"null","","image-button-response","192","1171062","0.0-190.0","A1XRWOK00HK1J4","img_art/24.jpg","null","","","","","","","","","","","","","","","","","","","","","","","","",""
"688","","image-button-response","193","1171754","0.0-191.0","A1XRWOK00HK1J4","img_art/24.jpg","4","","","","","","","","","","","","","","","","","","","","","","","","",""
"2523","","image-button-response","194","1174280","0.0-192.0-0.0","A1XRWOK00HK1J4","img_art/24.jpg","5","","","","","","","","","","","","","","","","","","","","","","","","",""
"2191","","image-button-response","195","1176475","0.0-193.0-0.0","A1XRWOK00HK1J4","img_art/24.jpg","2","","","","","","","","","","","","","","","","","","","","","","","","",""
"null","","html-keyboard-response","196","1177478","0.0-194.0","A1XRWOK00HK1J4","<p style=""font-size: 48px;"">+</p>","","","","","null","allTrialResponses","1000","1","21","img_art/24.jpg","19","This looks like a beautiful waterfall","Bailey,Lauren,Brianna,Alexa,Alexandra,Emily","Feels surreal, in a way, and vibrant,37,360,20","Invokes a strong sense of nature, since the piece can interpreted as a stream or an abstracted bird.,40,340,20","The waterfall looks peaceful,11,20,20","I absolutely adore this painting. The colors, designs, everything. It's phenomenal,50,40,20","This reminds me of a creek or a river. It puts me a peace,42,60,20","It's not super high uality  but there is some skill and talent in it I see.,15,40,20","Alexandra","This reminds me of a creek or a river. It puts me a peace,42,60,20","Emily","It's not super high uality  but there is some skill and talent in it I see.,15,40,20","Brianna","The waterfall looks peaceful,11,20,20","4"
"16768","","survey-text","197","1194262","0.0-195.0-0.0","A1XRWOK00HK1J4","","","","{""Q0"":""I love the color and the subject""}","","","","","","","","","","","","","","","","","","","","","","",""
"3162.7000000029802","","image-slider-response","198","1197429","0.0-196.0","A1XRWOK00HK1J4","","","","","50","","","","","","","","","","","","","","","","","","","","","",""
"null","","image-button-response","199","1202432","0.0-197.0","A1XRWOK00HK1J4","img_art/25.jpg","null","","","","","","","","","","","","","","","","","","","","","","","","",""
"1219","","image-button-response","200","1203654","0.0-198.0","A1XRWOK00HK1J4","img_art/25.jpg","2","","","","","","","","","","","","","","","","","","","","","","","","",""
"2161","","image-button-response","201","1205819","0.0-199.0-0.0","A1XRWOK00HK1J4","img_art/25.jpg","3","","","","","","","","","","","","","","","","","","","","","","","","",""
"1548","","image-button-response","202","1207373","0.0-200.0-0.0","A1XRWOK00HK1J4","img_art/25.jpg","0","","","","","","","","","","","","","","","","","","","","","","","","",""
"null","","html-keyboard-response","203","1208375","0.0-201.0","A1XRWOK00HK1J4","<p style=""font-size: 48px;"">+</p>","","","","","null","allTrialResponses","1000","1","22","img_art/25.jpg","50","I love the color and the subject","Kristen,Amber,Brianna,Shannon,Alexandra,Emily","reminds me of the grim reaper,3,280,20","Regal. Reminds me of Egyptian art.,11,200,20","This would definitely be hanging in my bedroom in my house,50,20,20","I like the way the persons clothes look, there could be more color though.,10,220,20","This is too dark and creepy. I also hate the color,-30,60,20","Low skill not impressed.,-14,40,20","Brianna","This would definitely be hanging in my bedroom in my house,50,20,20","Shannon","I like the way the persons clothes look, there could be more color though.,10,220,20","Kristen","reminds me of the grim reaper,3,280,20","4"
"20012","","survey-text","204","1228407","0.0-202.0-0.0","A1XRWOK00HK1J4","","","","{""Q0"":""I don't like how this reminds me of looking up someone's nose""}","","","","","","","","","","","","","","","","","","","","","","",""
"3323.8999999910593","","image-slider-response","205","1231736","0.0-203.0","A1XRWOK00HK1J4","","","","","-50","","","","","","","","","","","","","","","","","","","","","",""
"null","","image-button-response","206","1236740","0.0-204.0","A1XRWOK00HK1J4","img_art/9.jpg","null","","","","","","","","","","","","","","","","","","","","","","","","",""
"2953","","image-button-response","207","1239696","0.0-205.0","A1XRWOK00HK1J4","img_art/9.jpg","5","","","","","","","","","","","","","","","","","","","","","","","","",""
"2883","","image-button-response","208","1242582","0.0-206.0-0.0","A1XRWOK00HK1J4","img_art/9.jpg","4","","","","","","","","","","","","","","","","","","","","","","","","",""
"4187","","image-button-response","209","1246773","0.0-207.0-0.0","A1XRWOK00HK1J4","img_art/9.jpg","2","","","","","","","","","","","","","","","","","","","","","","","","",""
"null","","html-keyboard-response","210","1247276","0.0-208.0","A1XRWOK00HK1J4","<p style=""font-size: 48px;"">+</p>","","","","","null","allTrialResponses","500","1","23","img_art/9.jpg","-50","I don't like how this reminds me of looking up someone's nose","Kristen,Erika,Brianna,Shannon,Cynthia,Diana","sleep, calm, safe,12,280,20","Colorful and expressive,15,100,20","This has some of my favorite colors, and I like it,21,20,20","This looks like someone sleeping in a bed, and I think the colors make it look interesting.,20,220,20","curious and unsure,12,320,20","I think it's sleeping beauty but I'm not sure. I didn't care for this piece.,-30,380,20","Diana","I think it's sleeping beauty but I'm not sure. I didn't care for this piece.,-30,380,20","Cynthia","curious and unsure,12,320,20","Brianna","This has some of my favorite colors, and I like it,21,20,20","4"
"10913","","survey-text","211","1258204","0.0-209.0-0.0","A1XRWOK00HK1J4","","","","{""Q0"":""Dark and strange ""}","","","","","","","","","","","","","","","","","","","","","","",""
"3370.5","","image-slider-response","212","1261580","0.0-210.0","A1XRWOK00HK1J4","","","","","-33","","","","","","","","","","","","","","","","","","","","","",""
"null","","image-button-response","213","1266585","0.0-211.0","A1XRWOK00HK1J4","img_art/15.jpg","null","","","","","","","","","","","","","","","","","","","","","","","","",""
"956","","image-button-response","214","1267546","0.0-212.0","A1XRWOK00HK1J4","img_art/15.jpg","2","","","","","","","","","","","","","","","","","","","","","","","","",""
"3885","","image-button-response","215","1271438","0.0-213.0-0.0","A1XRWOK00HK1J4","img_art/15.jpg","3","","","","","","","","","","","","","","","","","","","","","","","","",""
"1408","","image-button-response","216","1272853","0.0-214.0-0.0","A1XRWOK00HK1J4","img_art/15.jpg","5","","","","","","","","","","","","","","","","","","","","","","","","",""
"null","","html-keyboard-response","217","1273858","0.0-215.0","A1XRWOK00HK1J4","<p style=""font-size: 48px;"">+</p>","","","","","null","allTrialResponses","1000","1","24","img_art/15.jpg","-33","Dark and strange ","Kaylee,Heather,Brianna,Megan,Cynthia,Diana","some trees in the forest,15,200,20","black leaves makes the blue birds stand out.,1,260,20","No opinion truthfully,1,20,20","Dark, drab asymmetrical floral piece,-26,200,20","interested in this transformation,20,320,20","There should be more space between the black marks. The black comes off harsh and the blue between the trees can barely be seen.,-21,380,20","Brianna","No opinion truthfully,1,20,20","Megan","Dark, drab asymmetrical floral piece,-26,200,20","Diana","There should be more space between the black marks. The black comes off harsh and the blue between the trees can barely be seen.,-21,380,20","4"
"18620","","survey-text","218","1292492","0.0-216.0-0.0","A1XRWOK00HK1J4","","","","{""Q0"":""Very aesthetically pleasing ""}","","","","","","","","","","","","","","","","","","","","","","",""
"3083.5","","image-slider-response","219","1295586","0.0-217.0","A1XRWOK00HK1J4","","","","","22","","","","","","","","","","","","","","","","","","","","","",""
"null","","image-button-response","220","1300590","0.0-218.0","A1XRWOK00HK1J4","img_art/11.jpg","null","","","","","","","","","","","","","","","","","","","","","","","","",""
"1319","","image-button-response","221","1301913","0.0-219.0","A1XRWOK00HK1J4","img_art/11.jpg","0","","","","","","","","","","","","","","","","","","","","","","","","",""
"1677","","image-button-response","222","1303598","0.0-220.0-0.0","A1XRWOK00HK1J4","img_art/11.jpg","2","","","","","","","","","","","","","","","","","","","","","","","","",""
"1711","","image-button-response","223","1305312","0.0-221.0-0.0","A1XRWOK00HK1J4","img_art/11.jpg","4","","","","","","","","","","","","","","","","","","","","","","","","",""
"null","","html-keyboard-response","224","1306815","0.0-222.0","A1XRWOK00HK1J4","<p style=""font-size: 48px;"">+</p>","","","","","null","allTrialResponses","1500","1","25","img_art/11.jpg","22","Very aesthetically pleasing ","Alicia,Kathryn,Brianna,Megan,Andrea,Diana","dna, odd but nice.,25,120,20","This is disorienting, like motion sickness.,-20,140,20","I like dark colors.,31,20,20","Some interesting color but scratchy train mess.,-14,200,20","My initial thought was roller coasters but I see ship masts on a cloudy day too.,35,240,20","It makes my head feel dizzy. So I rated it lower.,-25,380,20","Alicia","dna, odd but nice.,25,120,20","Brianna","I like dark colors.,31,20,20","Andrea","My initial thought was roller coasters but I see ship masts on a cloudy day too.,35,240,20","4"
"3829","","survey-text","225","1310680","0.0-223.0-0.0","A1XRWOK00HK1J4","","","","{""Q0"":""table""}","","","","","","","","","","","","","","","","","","","","","","",""
"17371","","survey-text","226","1328059","0.0-224.0-0.0","A1XRWOK00HK1J4","","","","{""Q0"":""dark space exploration""}","","","","","","","","","","","","","","","","","","","","","","",""
"2943.800000011921","","image-slider-response","227","1331007","0.0-225.0","A1XRWOK00HK1J4","","","","","10","","","","","","","","","","","","","","","","","","","","","",""
"null","","image-button-response","228","1336011","0.0-226.0","A1XRWOK00HK1J4","img_art/29.jpg","null","","","","","","","","","","","","","","","","","","","","","","","","",""
"5190","","image-button-response","229","1341207","0.0-227.0","A1XRWOK00HK1J4","img_art/29.jpg","3","","","","","","","","","","","","","","","","","","","","","","","","",""
"1186","","image-button-response","230","1342398","0.0-228.0-0.0","A1XRWOK00HK1J4","img_art/29.jpg","4","","","","","","","","","","","","","","","","","","","","","","","","",""
"3364","","image-button-response","231","1345766","0.0-229.0-0.0","A1XRWOK00HK1J4","img_art/29.jpg","0","","","","","","","","","","","","","","","","","","","","","","","","",""
"null","","html-keyboard-response","232","1346769","0.0-230.0","A1XRWOK00HK1J4","<p style=""font-size: 48px;"">+</p>","","","","","null","allTrialResponses","1000","1","26","img_art/29.jpg","10","dark space exploration","Alicia,Mikayla,Brianna,Shelby,Andrea,Sabrina","easy, too abstract for me, don't get it.,-25,120,20","Its kinda scary,-35,300,20","It has a red X on there, and x's mean bad in my perspective,-29,20,20","Doesnt say much for me,0,240,20","Bottomless pit and prison. Feels like its saying time is precious.,11,240,20","I love the representation of a mess,50,120,20","Shelby","Doesnt say much for me,0,240,20","Andrea","Bottomless pit and prison. Feels like its saying time is precious.,11,240,20","Alicia","easy, too abstract for me, don't get it.,-25,120,20","4"
"10833","","survey-text","233","1357617","0.0-231.0-0.0","A1XRWOK00HK1J4","","","","{""Q0"":""A colorful watercolor""}","","","","","","","","","","","","","","","","","","","","","","",""
"3083.199999988079","","image-slider-response","234","1360704","0.0-232.0","A1XRWOK00HK1J4","","","","","16","","","","","","","","","","","","","","","","","","","","","",""
"null","","image-button-response","235","1365709","0.0-233.0","A1XRWOK00HK1J4","img_art/21.jpg","null","","","","","","","","","","","","","","","","","","","","","","","","",""
"1779","","image-button-response","236","1367492","0.0-234.0","A1XRWOK00HK1J4","img_art/21.jpg","2","","","","","","","","","","","","","","","","","","","","","","","","",""
"1337","","image-button-response","237","1368844","0.0-235.0-0.0","A1XRWOK00HK1J4","img_art/21.jpg","3","","","","","","","","","","","","","","","","","","","","","","","","",""
"5139","","image-button-response","238","1373987","0.0-236.0-0.0","A1XRWOK00HK1J4","img_art/21.jpg","5","","","","","","","","","","","","","","","","","","","","","","","","",""
"null","","html-keyboard-response","239","1374990","0.0-237.0","A1XRWOK00HK1J4","<p style=""font-size: 48px;"">+</p>","","","","","null","allTrialResponses","1000","1","27","img_art/21.jpg","16","A colorful watercolor","Alicia,Gabriela,Alexandria,Shelby,Andrea,Maria","Don't know why I like it, cant describe, maybe many landscapes?,47,120,20","It makes me feel mellow or ""chill"". It makes me have a positive and calm mood,42,140,20","the vast colors make me happy,15,80,20","Very calming and soft, makes me feel good,31,240,20","It feels like a day at sea but the pink is slightly jarring and holding my eye.,26,240,20","brings up imagery of the sea and clashing, though not in a negative way,31,120,20","Alexandria","the vast colors make me happy,15,80,20","Shelby","Very calming and soft, makes me feel good,31,240,20","Maria","brings up imagery of the sea and clashing, though not in a negative way,31,120,20","4"
"9775","","survey-text","240","1384781","0.0-238.0-0.0","A1XRWOK00HK1J4","","","","{""Q0"":""A crow stands alone""}","","","","","","","","","","","","","","","","","","","","","","",""
"4736.79999999702","","image-slider-response","241","1389522","0.0-239.0","A1XRWOK00HK1J4","","","","","6","","","","","","","","","","","","","","","","","","","","","",""
"null","","image-button-response","242","1394530","0.0-240.0","A1XRWOK00HK1J4","img_art/6.jpg","null","","","","","","","","","","","","","","","","","","","","","","","","",""
"2899","","image-button-response","243","1397435","0.0-241.0","A1XRWOK00HK1J4","img_art/6.jpg","0","","","","","","","","","","","","","","","","","","","","","","","","",""
"2529","","image-button-response","244","1399970","0.0-242.0-0.0","A1XRWOK00HK1J4","img_art/6.jpg","3","","","","","","","","","","","","","","","","","","","","","","","","",""
"3233","","image-button-response","245","1403210","0.0-243.0-0.0","A1XRWOK00HK1J4","img_art/6.jpg","2","","","","","","","","","","","","","","","","","","","","","","","","",""
"null","","html-keyboard-response","246","1404714","0.0-244.0","A1XRWOK00HK1J4","<p style=""font-size: 48px;"">+</p>","","","","","null","allTrialResponses","1500","1","28","img_art/6.jpg","6","A crow stands alone","Sydney,Lindsey,Alexandria,Shelby,Leslie,Maria","This piece reminds me of the lorax.,5,320,20","Simple, warm, hopeful.,12,400,20","i like it but it is very neutral,9,80,20","I dont feel much of a responce or connection to this one,0,240,20","The limited colors make me feel lonely.,36,380,20","intrigues me - not sure what I'm seeing, but I like combination of colour and texture,21,120,20","Sydney","This piece reminds me of the lorax.,5,320,20","Shelby","I dont feel much of a responce or connection to this one,0,240,20","Alexandria","i like it but it is very neutral,9,80,20","4"
"9941","","survey-text","247","1414677","0.0-245.0-0.0","A1XRWOK00HK1J4","","","","{""Q0"":""This looks like a fern""}","","","","","","","","","","","","","","","","","","","","","","",""
"6482.399999991059","","image-slider-response","248","1421163","0.0-246.0","A1XRWOK00HK1J4","","","","","-4","","","","","","","","","","","","","","","","","","","","","",""
"null","","image-button-response","249","1426167","0.0-247.0","A1XRWOK00HK1J4","img_art/17.jpg","null","","","","","","","","","","","","","","","","","","","","","","","","",""
"3263","","image-button-response","250","1429433","0.0-248.0","A1XRWOK00HK1J4","img_art/17.jpg","0","","","","","","","","","","","","","","","","","","","","","","","","",""
"1020","","image-button-response","251","1430459","0.0-249.0-0.0","A1XRWOK00HK1J4","img_art/17.jpg","1","","","","","","","","","","","","","","","","","","","","","","","","",""
"3231","","image-button-response","252","1433703","0.0-250.0-0.0","A1XRWOK00HK1J4","img_art/17.jpg","5","","","","","","","","","","","","","","","","","","","","","","","","",""
"null","","html-keyboard-response","253","1434706","0.0-251.0","A1XRWOK00HK1J4","<p style=""font-size: 48px;"">+</p>","","","","","null","allTrialResponses","1000","1","29","img_art/17.jpg","-4","This looks like a fern","Sydney,Cassidy,Alexandria,Shelby,Sierra,Paige","This picture is calming to me, and I love the colors.,45,320,20","cool. Sharp and blocky below, light and flowing on top. Overall pleasing to look at,32,140,20","it looks very intricate and colorful,50,80,20","This feels like creativity and limitlessness,30,240,20","the colors, the arch and the wall,15,260,20","very pretty. Makes me happy,45,60,20","Sydney","This picture is calming to me, and I love the colors.,45,320,20","Cassidy","cool. Sharp and blocky below, light and flowing on top. Overall pleasing to look at,32,140,20","Paige","very pretty. Makes me happy,45,60,20","4"
"19119","","survey-text","254","1453866","0.0-252.0-0.0","A1XRWOK00HK1J4","","","","{""Q0"":""I'm not a fan of the color and way it's painted""}","","","","","","","","","","","","","","","","","","","","","","",""
"2939.7999999970198","","image-slider-response","255","1456810","0.0-253.0","A1XRWOK00HK1J4","","","","","-22","","","","","","","","","","","","","","","","","","","","","",""
"null","","image-button-response","256","1461819","0.0-254.0","A1XRWOK00HK1J4","img_art/14.jpg","null","","","","","","","","","","","","","","","","","","","","","","","","",""
"752","","image-button-response","257","1462573","0.0-255.0","A1XRWOK00HK1J4","img_art/14.jpg","1","","","","","","","","","","","","","","","","","","","","","","","","",""
"2141","","image-button-response","258","1464718","0.0-256.0-0.0","A1XRWOK00HK1J4","img_art/14.jpg","2","","","","","","","","","","","","","","","","","","","","","","","","",""
"1350","","image-button-response","259","1466072","0.0-257.0-0.0","A1XRWOK00HK1J4","img_art/14.jpg","3","","","","","","","","","","","","","","","","","","","","","","","","",""
"null","","html-keyboard-response","260","1467074","0.0-258.0","A1XRWOK00HK1J4","<p style=""font-size: 48px;"">+</p>","","","","","null","allTrialResponses","1000","1","30","img_art/14.jpg","-22","I'm not a fan of the color and way it's painted","Sydney,Cassidy,Stephanie,Jasmine,Katelyn,Paige","I'm imagining a flower bouquet with pretty colors which I like.,35,320,20","Meh. Pleasant to look at. Colors are nice,6,140,20","Late Winter when things are just starting to bloom.,21,300,20","The colors are nice and it reminds me of a shrub or tree,10,340,20","Its cute. Not striking but i would keep it in my home.,10,100,20","It didn't really do anything to excite me.,21,60,20","Cassidy","Meh. Pleasant to look at. Colors are nice,6,140,20","Stephanie","Late Winter when things are just starting to bloom.,21,300,20","Jasmine","The colors are nice and it reminds me of a shrub or tree,10,340,20","4"
"6933","","image-button-response_instructions","261","1474021","0.0-259.0","A1XRWOK00HK1J4","","0","instructions","","","","","","","","","","","","","","","","","","","","","","","",""
"1366","","image-button-response","262","1475403","0.0-260.0","A1XRWOK00HK1J4","","0","","","","","","","","","","","","","","","","","","","","","","","","",""
