"rt","url","trial_type","trial_index","time_elapsed","internal_node_id","participant_id","stimulus","button_pressed","Name","responses","response","key_press","variableName","fixationTime","condition","trial","photo","subjectRating","subjectResponse","agentsNames","agent_1_Response","agent_2_Response","agent_3_Response","agent_4_Response","agent_5_Response","agent_6_Response","kept_1_name","kept_1_response","kept_2_name","kept_2_response","kept_3_name","kept_3_response","errorCounter"
"58428","external_page_harvard.html","external-html","0","59480","0.0-0.0","A1Z12SGB1WMXHK","","","","","","","","","","","","","","","","","","","","","","","","","","",""
"2481","","image-button-response","1","61964","0.0-1.0","A1Z12SGB1WMXHK","","0","","","","","","","","","","","","","","","","","","","","","","","","",""
"1935","","image-button-response","2","63915","0.0-2.0-0.0","A1Z12SGB1WMXHK","","1","phone","","","","","","","","","","","","","","","","","","","","","","","",""
"5562","","survey-text","3","69481","0.0-3.0-0.0","A1Z12SGB1WMXHK","","","","{""Q0"":""A1Z12SGB1WMXHK""}","","","","","","","","","","","","","","","","","","","","","","",""
"25436","","image-button-response_instructions","4","94922","0.0-4.0","A1Z12SGB1WMXHK","","0","instructions","","","","","","","","","","","","","","","","","","","","","","","",""
"1649269","","image-button-response_instructions","5","1744192","0.0-5.0","A1Z12SGB1WMXHK","img_art/ins/popularity/ins1.png","0","instructions","","","","","","","","","","","","","","","","","","","","","","","",""
"8879","","image-button-response_instructions","6","1753077","0.0-6.0","A1Z12SGB1WMXHK","img_art/ins/popularity/ins2.png","0","instructions","","","","","","","","","","","","","","","","","","","","","","","",""
"6821","","image-button-response_instructions","7","1759899","0.0-7.0","A1Z12SGB1WMXHK","img_art/ins/popularity/ins2Extreme.png","0","instructions","","","","","","","","","","","","","","","","","","","","","","","",""
"10831","","image-button-response_instructions","8","1770731","0.0-8.0","A1Z12SGB1WMXHK","img_art/ins/popularity/ins3KEEPpop.PNG","0","instructions","","","","","","","","","","","","","","","","","","","","","","","",""
"8452","","image-button-response_instructions","9","1779185","0.0-9.0","A1Z12SGB1WMXHK","img_art/ins/popularity/ins3ANamepop.PNG","0","instructions","","","","","","","","","","","","","","","","","","","","","","","",""
"3978","","image-button-response_instructions","10","1783165","0.0-10.0","A1Z12SGB1WMXHK","img_art/ins/popularity/ins3ARatingpop.png","0","instructions","","","","","","","","","","","","","","","","","","","","","","","",""
"3385","","image-button-response_instructions","11","1786551","0.0-11.0","A1Z12SGB1WMXHK","img_art/ins/popularity/ins3ATextpop.png","0","instructions","","","","","","","","","","","","","","","","","","","","","","","",""
"3891","","image-button-response_instructions","12","1790443","0.0-12.0","A1Z12SGB1WMXHK","img_art/ins/popularity/ins3ALikespop.png","0","instructions","","","","","","","","","","","","","","","","","","","","","","","",""
"3757","","image-button-response_instructions","13","1794201","0.0-13.0","A1Z12SGB1WMXHK","img_art/ins/popularity/ins3KEEPpop.PNG","0","instructions","","","","","","","","","","","","","","","","","","","","","","","",""
"8585","","image-button-response_instructions","14","1802787","0.0-14.0","A1Z12SGB1WMXHK","img_art/ins/popularity/ins3_5RED.png","0","instructions","","","","","","","","","","","","","","","","","","","","","","","",""
"5722","","image-button-response_instructions","15","1808511","0.0-15.0","A1Z12SGB1WMXHK","img_art/ins/popularity/ins3KEEPpop.PNG","0","instructions","","","","","","","","","","","","","","","","","","","","","","","",""
"10075","","image-button-response_instructions","16","1818586","0.0-16.0","A1Z12SGB1WMXHK","img_art/ins/popularity/ins4KEEPpop.PNG","0","instructions","","","","","","","","","","","","","","","","","","","","","","","",""
"6143","","image-button-response_instructions","17","1824731","0.0-17.0","A1Z12SGB1WMXHK","img_art/ins/popularity/ins5KEEPpop.PNG","0","instructions","","","","","","","","","","","","","","","","","","","","","","","",""
"4229","","image-button-response_instructions","18","1828961","0.0-18.0","A1Z12SGB1WMXHK","","0","instructions","","","","","","","","","","","","","","","","","","","","","","","",""
"6198","","survey-text","19","1835187","0.0-19.0-0.0","A1Z12SGB1WMXHK","","","","{""Q0"":""but""}","","","","","","","","","","","","","","","","","","","","","","",""
"7659","","survey-text","20","1842849","0.0-20.0-0.0","A1Z12SGB1WMXHK","","","","{""Q0"":""Like colors""}","","","","","","","","","","","","","","","","","","","","","","",""
"3845.175000024028","","image-slider-response","21","1846697","0.0-21.0","A1Z12SGB1WMXHK","","","","","7","","","","","","","","","","","","","","","","","","","","","",""
"null","","image-button-response","22","1851707","0.0-22.0","A1Z12SGB1WMXHK","img_art/ins/1.jpg","null","","","","","","","","","","","","","","","","","","","","","","","","",""
"5181","","image-button-response","23","1856891","0.0-23.0","A1Z12SGB1WMXHK","img_art/ins/1.jpg","3","","","","","","","","","","","","","","","","","","","","","","","","",""
"5134","","image-button-response","24","1862030","0.0-24.0-0.0","A1Z12SGB1WMXHK","img_art/ins/1.jpg","5","","","","","","","","","","","","","","","","","","","","","","","","",""
"10589","","image-button-response","25","1872623","0.0-25.0-0.0","A1Z12SGB1WMXHK","img_art/ins/1.jpg","4","","","","","","","","","","","","","","","","","","","","","","","","",""
"null","","html-keyboard-response","26","1873127","0.0-26.0","A1Z12SGB1WMXHK","<p style=""font-size: 48px;"">+</p>","","","","","null","allTrialResponses","500","1","-2","img_art/ins/1.jpg","7","Like colors","Adam,Alex,Ben,Carl,Daniel,Jack","Seems like doodles,-20,20,20","very creative work.,36,40,20","This color reminds me of poo,-46,60,20","very calming artwork,42,80,20","It looks like a murder scene.,-48,100,20","I like the sophisticated brushwork,40,120,20","Carl","very calming artwork,42,80,20","Jack","I like the sophisticated brushwork,40,120,20","Daniel","It looks like a murder scene.,-48,100,20","0"
"29315","","survey-text","27","1902446","0.0-27.0-0.0","A1Z12SGB1WMXHK","","","","{""Q0"":""Like color scheme ""}","","","","","","","","","","","","","","","","","","","","","","",""
"25443.940000026487","","image-slider-response","28","1927892","0.0-28.0","A1Z12SGB1WMXHK","","","","","14","","","","","","","","","","","","","","","","","","","","","",""
"null","","image-button-response","29","1932895","0.0-29.0","A1Z12SGB1WMXHK","img_art/ins/2.jpg","null","","","","","","","","","","","","","","","","","","","","","","","","",""
"3626","","image-button-response","30","1936526","0.0-30.0","A1Z12SGB1WMXHK","img_art/ins/2.jpg","3","","","","","","","","","","","","","","","","","","","","","","","","",""
"3649","","image-button-response","31","1940177","0.0-31.0-0.0","A1Z12SGB1WMXHK","img_art/ins/2.jpg","0","","","","","","","","","","","","","","","","","","","","","","","","",""
"3806","","image-button-response","32","1943986","0.0-32.0-0.0","A1Z12SGB1WMXHK","img_art/ins/2.jpg","1","","","","","","","","","","","","","","","","","","","","","","","","",""
"null","","html-keyboard-response","33","1945489","0.0-33.0","A1Z12SGB1WMXHK","<p style=""font-size: 48px;"">+</p>","","","","","null","allTrialResponses","1500","1","-1","img_art/ins/2.jpg","14","Like color scheme ","James,John,Kyle,Carl,Daniel,Jack","looks too angry,-50,140,20","love the texture of paint,48,160,20","Idk, it is just annoying,-32,180,20","I can feel the artist's passion in it,45,80,20","One of my pet peevs,-48,100,20","I would never be able to compose a sophisticated pallete like this,48,120,20","Carl","I can feel the artist's passion in it,45,80,20","James","looks too angry,-50,140,20","John","love the texture of paint,48,160,20","0"
"11165","","survey-text","34","1956664","0.0-34.0-0.0","A1Z12SGB1WMXHK","","","","{""Q0"":""Reminds me of a cold winter""}","","","","","","","","","","","","","","","","","","","","","","",""
"2773.700000019744","","image-slider-response","35","1959440","0.0-35.0","A1Z12SGB1WMXHK","","","","","50","","","","","","","","","","","","","","","","","","","","","",""
"4980","","image-button-response","36","1964444","0.0-36.0","A1Z12SGB1WMXHK","img_art/ins/3.jpg","5","","","","","","","","","","","","","","","","","","","","","","","","",""
"1881","","image-button-response","37","1966327","0.0-37.0","A1Z12SGB1WMXHK","img_art/ins/3.jpg","5","","","","","","","","","","","","","","","","","","","","","","","","",""
"2792","","image-button-response","38","1969120","0.0-38.0-0.0","A1Z12SGB1WMXHK","img_art/ins/3.jpg","1","","","","","","","","","","","","","","","","","","","","","","","","",""
"1242","","image-button-response","39","1970365","0.0-39.0-0.0","A1Z12SGB1WMXHK","img_art/ins/3.jpg","2","","","","","","","","","","","","","","","","","","","","","","","","",""
"null","","html-keyboard-response","40","1970868","0.0-40.0","A1Z12SGB1WMXHK","<p style=""font-size: 48px;"">+</p>","","","","","null","allTrialResponses","500","1","0","img_art/ins/3.jpg","50","Reminds me of a cold winter","James,John,Mike,Carl,Ron,Sam","My worst nightmare,-42,140,20","I like the overlapping of brushes,41,160,20","enjoy the different shades of blue,22,200,20","It's an alright work,15,80,20","It looks depressing,-26,220,20","I can feel a rainy day from this painting,18,240,20","Sam","I can feel a rainy day from this painting,18,240,20","John","I like the overlapping of brushes,41,160,20","Mike","enjoy the different shades of blue,22,200,20","0"
"6488","","image-button-response_instructions","41","1977358","0.0-41.0","A1Z12SGB1WMXHK","","0","instructions","","","","","","","","","","","","","","","","","","","","","","","",""
"10492","","survey-likert","42","1987852","0.0-42.0-0.0","A1Z12SGB1WMXHK","","","","{""Q0"":"""",""Q1"":0,""Q2"":1}","","","","","","","","","","","","","","","","","","","","","","",""
"4338","","survey-text","43","1992196","0.0-43.0-0.0","A1Z12SGB1WMXHK","","","","{""Q0"":""rock""}","","","","","","","","","","","","","","","","","","","","","","",""
"20289","","survey-text","44","2012486","0.0-44.0-0.0","A1Z12SGB1WMXHK","","","","{""Q0"":""This one does not make much cense to me. ""}","","","","","","","","","","","","","","","","","","","","","","",""
"4308.124999981374","","image-slider-response","45","2016796","0.0-45.0","A1Z12SGB1WMXHK","","","","","-10","","","","","","","","","","","","","","","","","","","","","",""
"2251","","image-button-response","46","2021823","0.0-46.0","A1Z12SGB1WMXHK","img_art/7.jpg","0","","","","","","","","","","","","","","","","","","","","","","","","",""
"215","","image-button-response","47","2022041","0.0-47.0","A1Z12SGB1WMXHK","img_art/7.jpg","0","","","","","","","","","","","","","","","","","","","","","","","","",""
"2105","","image-button-response","48","2024148","0.0-48.0-0.0","A1Z12SGB1WMXHK","img_art/7.jpg","2","","","","","","","","","","","","","","","","","","","","","","","","",""
"3832","","image-button-response","49","2027983","0.0-49.0-0.0","A1Z12SGB1WMXHK","img_art/7.jpg","4","","","","","","","","","","","","","","","","","","","","","","","","",""
"null","","html-keyboard-response","50","2028986","0.0-50.0","A1Z12SGB1WMXHK","<p style=""font-size: 48px;"">+</p>","","","","","null","allTrialResponses","1000","1","1","img_art/7.jpg","-10","This one does not make much cense to me. ","Travis,Tanner,Jesus,Peter,Devon,Evan","Just neutral...looks like sand at the beach.,3,260,20","sand, beach, tranquil,10,180,20","Is simple in color and texture,11,100,20","It's just like sand from the beach,2,320,20","I'm not too sure about this one,-10,400,20","I feel confused, am I looking at a painting or a close up picture of some sort of fly stone?,-19,140,20","Travis","Just neutral...looks like sand at the beach.,3,260,20","Jesus","Is simple in color and texture,11,100,20","Devon","I'm not too sure about this one,-10,400,20","0"
"38585","","survey-text","51","2067576","0.0-51.0-0.0","A1Z12SGB1WMXHK","","","","{""Q0"":""Like this one, lets you use creativity to determine what is in the art piece.""}","","","","","","","","","","","","","","","","","","","","","","",""
"1882.1199999656528","","image-slider-response","52","2069460","0.0-52.0","A1Z12SGB1WMXHK","","","","","29","","","","","","","","","","","","","","","","","","","","","",""
"1645","","image-button-response","53","2074464","0.0-53.0","A1Z12SGB1WMXHK","img_art/11.jpg","4","","","","","","","","","","","","","","","","","","","","","","","","",""
"740","","image-button-response","54","2075206","0.0-54.0","A1Z12SGB1WMXHK","img_art/11.jpg","4","","","","","","","","","","","","","","","","","","","","","","","","",""
"1613","","image-button-response","55","2076822","0.0-55.0-0.0","A1Z12SGB1WMXHK","img_art/11.jpg","2","","","","","","","","","","","","","","","","","","","","","","","","",""
"3580","","image-button-response","56","2080404","0.0-56.0-0.0","A1Z12SGB1WMXHK","img_art/11.jpg","0","","","","","","","","","","","","","","","","","","","","","","","","",""
"null","","html-keyboard-response","57","2081907","0.0-57.0","A1Z12SGB1WMXHK","<p style=""font-size: 48px;"">+</p>","","","","","null","allTrialResponses","1500","1","2","img_art/11.jpg","29","Like this one, lets you use creativity to determine what is in the art piece.","Travis,Blake,Jesus,Jesse,Devon,Corey","I liked it it looked like an roller coasters at an amusment park.,16,260,20","a train going around the country,14,280,20","The different textures and colors make this pleasing to look at.,30,100,20","I like the dark lines and it interests me,13,80,20","a beautiful piece of art,33,400,20","dont like the colors. Its a gloomy day in london and this is the transit system,-26,260,20","Devon","a beautiful piece of art,33,400,20","Jesus","The different textures and colors make this pleasing to look at.,30,100,20","Travis","I liked it it looked like an roller coasters at an amusment park.,16,260,20","0"
"10868","","survey-text","58","2092786","0.0-58.0-0.0","A1Z12SGB1WMXHK","","","","{""Q0"":""Looks very basic ""}","","","","","","","","","","","","","","","","","","","","","","",""
"2137.474999995902","","image-slider-response","59","2094926","0.0-59.0","A1Z12SGB1WMXHK","","","","","-17","","","","","","","","","","","","","","","","","","","","","",""
"3132","","image-button-response","60","2099929","0.0-60.0","A1Z12SGB1WMXHK","img_art/16.jpg","1","","","","","","","","","","","","","","","","","","","","","","","","",""
"1041","","image-button-response","61","2100973","0.0-61.0","A1Z12SGB1WMXHK","img_art/16.jpg","3","","","","","","","","","","","","","","","","","","","","","","","","",""
"3839","","image-button-response","62","2104814","0.0-62.0-0.0","A1Z12SGB1WMXHK","img_art/16.jpg","5","","","","","","","","","","","","","","","","","","","","","","","","",""
"1285","","image-button-response","63","2106102","0.0-63.0-0.0","A1Z12SGB1WMXHK","img_art/16.jpg","1","","","","","","","","","","","","","","","","","","","","","","","","",""
"null","","html-keyboard-response","64","2107604","0.0-64.0","A1Z12SGB1WMXHK","<p style=""font-size: 48px;"">+</p>","","","","","null","allTrialResponses","1500","1","3","img_art/16.jpg","-17","Looks very basic ","Travis,Noah,Jesus,Patrick,Devon,Alexander","I like the teddy bear,but a neutral feeling,5,260,20","feel a little creeped out,-20,260,20","I like the mixture of images,23,100,20","This painting is too random,-30,280,20","The teddy bear looks really scared,-30,400,20","Strange and bleak.,-20,120,20","Patrick","This painting is too random,-30,280,20","Alexander","Strange and bleak.,-20,120,20","Noah","feel a little creeped out,-20,260,20","0"
"23385","","survey-text","65","2130996","0.0-65.0-0.0","A1Z12SGB1WMXHK","","","","{""Q0"":""Looks like storm at sea""}","","","","","","","","","","","","","","","","","","","","","","",""
"3518.6499999836087","","image-slider-response","66","2134516","0.0-66.0","A1Z12SGB1WMXHK","","","","","14","","","","","","","","","","","","","","","","","","","","","",""
"3463","","image-button-response","67","2139520","0.0-67.0","A1Z12SGB1WMXHK","img_art/21.jpg","0","","","","","","","","","","","","","","","","","","","","","","","","",""
"822","","image-button-response","68","2140346","0.0-68.0","A1Z12SGB1WMXHK","img_art/21.jpg","0","","","","","","","","","","","","","","","","","","","","","","","","",""
"884","","image-button-response","69","2141234","0.0-69.0-0.0","A1Z12SGB1WMXHK","img_art/21.jpg","1","","","","","","","","","","","","","","","","","","","","","","","","",""
"6631","","image-button-response","70","2147868","0.0-70.0-0.0","A1Z12SGB1WMXHK","img_art/21.jpg","5","","","","","","","","","","","","","","","","","","","","","","","","",""
"null","","html-keyboard-response","71","2149371","0.0-71.0","A1Z12SGB1WMXHK","<p style=""font-size: 48px;"">+</p>","","","","","null","allTrialResponses","1500","1","4","img_art/21.jpg","14","Looks like storm at sea","Nathaniel,Noah,Vincent,Patrick,Joshua,Alexander","Looks like two ships on fire. Cool image.,12,220,20","brings up imagery of the sea and clashing, though not in a negative way,31,260,20","Love the colors have to say this is my favorite above all,37,360,20","It looks confusing,-21,280,20","Boring colors and look. Too much 1980s.,-20,240,20","Survivable storm on the open sea.,27,120,20","Nathaniel","Looks like two ships on fire. Cool image.,12,220,20","Noah","brings up imagery of the sea and clashing, though not in a negative way,31,260,20","Alexander","Survivable storm on the open sea.,27,120,20","0"
"8602","","survey-text","72","2157986","0.0-72.0-0.0","A1Z12SGB1WMXHK","","","","{""Q0"":""looks very boring ""}","","","","","","","","","","","","","","","","","","","","","","",""
"2360.4899999918416","","image-slider-response","73","2160348","0.0-73.0","A1Z12SGB1WMXHK","","","","","-22","","","","","","","","","","","","","","","","","","","","","",""
"2841","","image-button-response","74","2165350","0.0-74.0","A1Z12SGB1WMXHK","img_art/30.jpg","2","","","","","","","","","","","","","","","","","","","","","","","","",""
"1095","","image-button-response","75","2166448","0.0-75.0","A1Z12SGB1WMXHK","img_art/30.jpg","2","","","","","","","","","","","","","","","","","","","","","","","","",""
"1740","","image-button-response","76","2168190","0.0-76.0-0.0","A1Z12SGB1WMXHK","img_art/30.jpg","3","","","","","","","","","","","","","","","","","","","","","","","","",""
"10267","","image-button-response","77","2178460","0.0-77.0-0.0","A1Z12SGB1WMXHK","img_art/30.jpg","0","","","","","","","","","","","","","","","","","","","","","","","","",""
"null","","html-keyboard-response","78","2178961","0.0-78.0","A1Z12SGB1WMXHK","<p style=""font-size: 48px;"">+</p>","","","","","null","allTrialResponses","500","1","5","img_art/30.jpg","-22","looks very boring ","Nathaniel,Noah,Brendan,John,Paul,Alexander","No my favorite, but I do like the long strokes of color,11,220,20","uplifted and yet calmed,15,260,20","i cant really get it,-35,340,20","ugly nasty colors,-10,120,20","It looked like a random scribble but I can see a person's face in it now and I think it's clever,13,300,20","Sleek eel in the abstract ocean.,30,120,20","Brendan","i cant really get it,-35,340,20","John","ugly nasty colors,-10,120,20","Nathaniel","No my favorite, but I do like the long strokes of color,11,220,20","0"
"4445","","survey-text","79","2183415","0.0-79.0-0.0","A1Z12SGB1WMXHK","","","","{""Q0"":""sky""}","","","","","","","","","","","","","","","","","","","","","","",""
"14571","","survey-text","80","2197988","0.0-80.0-0.0","A1Z12SGB1WMXHK","","","","{""Q0"":""Looks like end of world""}","","","","","","","","","","","","","","","","","","","","","","",""
"4331.2900000019","","image-slider-response","81","2202321","0.0-81.0","A1Z12SGB1WMXHK","","","","","5","","","","","","","","","","","","","","","","","","","","","",""
"4822","","image-button-response","82","2207325","0.0-82.0","A1Z12SGB1WMXHK","img_art/20.jpg","0","","","","","","","","","","","","","","","","","","","","","","","","",""
"5180","","image-button-response","83","2212508","0.0-83.0","A1Z12SGB1WMXHK","img_art/20.jpg","2","","","","","","","","","","","","","","","","","","","","","","","","",""
"597","","image-button-response","84","2213107","0.0-84.0-0.0","A1Z12SGB1WMXHK","img_art/20.jpg","0","","","","","","","","","","","","","","","","","","","","","","","","",""
"1646","","image-button-response","85","2214756","0.0-85.0-0.0","A1Z12SGB1WMXHK","img_art/20.jpg","0","","","","","","","","","","","","","","","","","","","","","","","","",""
"4398","","image-button-response","86","2222782","0.0-85.1-0.1","A1Z12SGB1WMXHK","img_art/20.jpg","4","","","","","","","","","","","","","","","","","","","","","","","","",""
"null","","html-keyboard-response","87","2223784","0.0-86.0","A1Z12SGB1WMXHK","<p style=""font-size: 48px;"">+</p>","","","","","null","allTrialResponses","1000","1","6","img_art/20.jpg","5","Looks like end of world","Nathaniel,Brandon,Brendan,John,Joseph,Alejandro","A bit hectic, but it does have a bit of coolness to it,6,220,20","I like the proportion of the car to the desert city, but too abstract for me,15,320,20","i can see a car crash,13,340,20","Its interesting.It almost seems like a painting of a landscape,14,120,20","Something fell over and is burning, but it's kinda dope, you know?,14,220,20","The pulling and sagging nature is very beautiful.,30,80,20","Brendan","i can see a car crash,13,340,20","Nathaniel","A bit hectic, but it does have a bit of coolness to it,6,220,20","Joseph","Something fell over and is burning, but it's kinda dope, you know?,14,220,20","2"
"10377","","survey-text","88","2234173","0.0-87.0-0.0","A1Z12SGB1WMXHK","","","","{""Q0"":""to hectic for my taste""}","","","","","","","","","","","","","","","","","","","","","","",""
"1957.1849999483675","","image-slider-response","89","2236133","0.0-88.0","A1Z12SGB1WMXHK","","","","","-13","","","","","","","","","","","","","","","","","","","","","",""
"null","","image-button-response","90","2241135","0.0-89.0","A1Z12SGB1WMXHK","img_art/2.jpg","null","","","","","","","","","","","","","","","","","","","","","","","","",""
"303","","image-button-response","91","2241440","0.0-90.0","A1Z12SGB1WMXHK","img_art/2.jpg","0","","","","","","","","","","","","","","","","","","","","","","","","",""
"2913","","image-button-response","92","2244356","0.0-91.0-0.0","A1Z12SGB1WMXHK","img_art/2.jpg","2","","","","","","","","","","","","","","","","","","","","","","","","",""
"1733","","image-button-response","93","2246092","0.0-92.0-0.0","A1Z12SGB1WMXHK","img_art/2.jpg","1","","","","","","","","","","","","","","","","","","","","","","","","",""
"null","","html-keyboard-response","94","2247094","0.0-93.0","A1Z12SGB1WMXHK","<p style=""font-size: 48px;"">+</p>","","","","","null","allTrialResponses","1000","1","7","img_art/2.jpg","-13","to hectic for my taste","Nathaniel,Spencer,Brendan,Edward,Joseph,Dalton","Too gloopy and unfocused,-38,220,20","Kind of looks upside down, I need a focal point,-29,120,20","its ugly af to be honest,-50,340,20","My immediate reaction was it looked like a class but then I saw a smile in the middle,11,60,20","Different cultures. I like that it brings differences together.,4,220,20","i like the colors and again can make out my own picture,38,300,20","Nathaniel","Too gloopy and unfocused,-38,220,20","Brendan","its ugly af to be honest,-50,340,20","Spencer","Kind of looks upside down, I need a focal point,-29,120,20","2"
"20903","","survey-text","95","2268001","0.0-94.0-0.0","A1Z12SGB1WMXHK","","","","{""Q0"":""do not like patterns or colors, looks strange ""}","","","","","","","","","","","","","","","","","","","","","","",""
"2206.125000026077","","image-slider-response","96","2270209","0.0-95.0","A1Z12SGB1WMXHK","","","","","-17","","","","","","","","","","","","","","","","","","","","","",""
"3184","","image-button-response","97","2275213","0.0-96.0","A1Z12SGB1WMXHK","img_art/22.jpg","4","","","","","","","","","","","","","","","","","","","","","","","","",""
"520","","image-button-response","98","2275735","0.0-97.0","A1Z12SGB1WMXHK","img_art/22.jpg","2","","","","","","","","","","","","","","","","","","","","","","","","",""
"3318","","image-button-response","99","2279056","0.0-98.0-0.0","A1Z12SGB1WMXHK","img_art/22.jpg","0","","","","","","","","","","","","","","","","","","","","","","","","",""
"1352","","image-button-response","100","2280410","0.0-99.0-0.0","A1Z12SGB1WMXHK","img_art/22.jpg","4","","","","","","","","","","","","","","","","","","","","","","","","",""
"null","","html-keyboard-response","101","2281413","0.0-100.0","A1Z12SGB1WMXHK","<p style=""font-size: 48px;"">+</p>","","","","","null","allTrialResponses","1000","1","8","img_art/22.jpg","-17","do not like patterns or colors, looks strange ","Nathaniel,Spencer,Brendan,Austin,Kyle,Malik","Looks like a giant blob,-45,220,20","Pretty colors but too blocky for me,-19,120,20","its just ugly for me,-50,340,20","Great color palette,29,240,20","I appreciate the artistic effort but it's not for me,0,340,20","Beautiful forms, using color to define shape,14,40,20","Brendan","its just ugly for me,-50,340,20","Nathaniel","Looks like a giant blob,-45,220,20","Kyle","I appreciate the artistic effort but it's not for me,0,340,20","2"
"10898","","survey-text","102","2292319","0.0-101.0-0.0","A1Z12SGB1WMXHK","","","","{""Q0"":""makes no cense""}","","","","","","","","","","","","","","","","","","","","","","",""
"2122.555000009015","","image-slider-response","103","2294443","0.0-102.0","A1Z12SGB1WMXHK","","","","","-21","","","","","","","","","","","","","","","","","","","","","",""
"1827","","image-button-response","104","2299447","0.0-103.0","A1Z12SGB1WMXHK","img_art/27.jpg","0","","","","","","","","","","","","","","","","","","","","","","","","",""
"1293","","image-button-response","105","2300745","0.0-104.0","A1Z12SGB1WMXHK","img_art/27.jpg","3","","","","","","","","","","","","","","","","","","","","","","","","",""
"2616","","image-button-response","106","2303363","0.0-105.0-0.0","A1Z12SGB1WMXHK","img_art/27.jpg","4","","","","","","","","","","","","","","","","","","","","","","","","",""
"1913","","image-button-response","107","2305279","0.0-106.0-0.0","A1Z12SGB1WMXHK","img_art/27.jpg","0","","","","","","","","","","","","","","","","","","","","","","","","",""
"null","","html-keyboard-response","108","2305782","0.0-107.0","A1Z12SGB1WMXHK","<p style=""font-size: 48px;"">+</p>","","","","","null","allTrialResponses","500","1","9","img_art/27.jpg","-21","makes no cense","Nathaniel,Nicholas,Brendan,Nathan,Kyle,Brian","Looks like a splash of different colors and designs without purpose,-44,220,20","I like all it has going but i wouldnt put it in my house unless my child did it,25,240,20","nice firestorm on desert,23,340,20","Looks a bit like a child's project with unsatisfying colors,-31,200,20","I have no strong reactions to this,-1,340,20","Colors could be more pleasing, but I really like the thinner lines superimposed over the background,25,380,20","Nathan","Looks a bit like a child's project with unsatisfying colors,-31,200,20","Kyle","I have no strong reactions to this,-1,340,20","Nathaniel","Looks like a splash of different colors and designs without purpose,-44,220,20","2"
"24677","","survey-text","109","2330465","0.0-108.0-0.0","A1Z12SGB1WMXHK","","","","{""Q0"":""My 8 year old can do better job""}","","","","","","","","","","","","","","","","","","","","","","",""
"1986.3149999873713","","image-slider-response","110","2332453","0.0-109.0","A1Z12SGB1WMXHK","","","","","-50","","","","","","","","","","","","","","","","","","","","","",""
"1566","","image-button-response","111","2337456","0.0-110.0","A1Z12SGB1WMXHK","img_art/3.jpg","0","","","","","","","","","","","","","","","","","","","","","","","","",""
"606","","image-button-response","112","2338067","0.0-111.0","A1Z12SGB1WMXHK","img_art/3.jpg","5","","","","","","","","","","","","","","","","","","","","","","","","",""
"4442","","image-button-response","113","2342511","0.0-112.0-0.0","A1Z12SGB1WMXHK","img_art/3.jpg","2","","","","","","","","","","","","","","","","","","","","","","","","",""
"2123","","image-button-response","114","2344637","0.0-113.0-0.0","A1Z12SGB1WMXHK","img_art/3.jpg","0","","","","","","","","","","","","","","","","","","","","","","","","",""
"null","","html-keyboard-response","115","2345638","0.0-114.0","A1Z12SGB1WMXHK","<p style=""font-size: 48px;"">+</p>","","","","","null","allTrialResponses","1000","1","10","img_art/3.jpg","-50","My 8 year old can do better job","Nathaniel,Jordan,Luis,Nathan,Kyle,Cole","Just scribbles. People buy that?,-47,220,20","Reminded me of blood or something bad,-21,160,20","I dont really feel anything from this, i cant see or understand any of it,-20,400,20","Looks like it was painted with blood, which I'm aware is an art style, but it just looks messy.,-20,200,20","I don't really have a strong reaction to this one,0,340,20","Sharp peaks look like sharp teeth,-37,200,20","Cole","Sharp peaks look like sharp teeth,-37,200,20","Luis","I dont really feel anything from this, i cant see or understand any of it,-20,400,20","Nathaniel","Just scribbles. People buy that?,-47,220,20","2"
"6659","","survey-text","116","2352306","0.0-115.0-0.0","A1Z12SGB1WMXHK","","","","{""Q0"":""our""}","","","","","","","","","","","","","","","","","","","","","","",""
"17704","","survey-text","117","2370011","0.0-116.0-0.0","A1Z12SGB1WMXHK","","","","{""Q0"":""Looks like fall in a big city, I like it. ""}","","","","","","","","","","","","","","","","","","","","","","",""
"2252.724999911152","","image-slider-response","118","2372266","0.0-117.0","A1Z12SGB1WMXHK","","","","","41","","","","","","","","","","","","","","","","","","","","","",""
"4612","","image-button-response","119","2377270","0.0-118.0","A1Z12SGB1WMXHK","img_art/26.jpg","3","","","","","","","","","","","","","","","","","","","","","","","","",""
"981","","image-button-response","120","2378253","0.0-119.0","A1Z12SGB1WMXHK","img_art/26.jpg","3","","","","","","","","","","","","","","","","","","","","","","","","",""
"2582","","image-button-response","121","2380837","0.0-120.0-0.0","A1Z12SGB1WMXHK","img_art/26.jpg","5","","","","","","","","","","","","","","","","","","","","","","","","",""
"5696","","image-button-response","122","2386535","0.0-121.0-0.0","A1Z12SGB1WMXHK","img_art/26.jpg","1","","","","","","","","","","","","","","","","","","","","","","","","",""
"null","","html-keyboard-response","123","2387037","0.0-122.0","A1Z12SGB1WMXHK","<p style=""font-size: 48px;"">+</p>","","","","","null","allTrialResponses","500","1","11","img_art/26.jpg","41","Looks like fall in a big city, I like it. ","Nathaniel,Victor,Luis,Grant,Daniel,Cole","Too blocky and unfocused. It's like the inside of a house, and the outside.,-24,220,20","the trees are cool,1,340,20","I dont see any expression,-29,400,20","It's a cute city scene. I like the trees.,10,200,20","Washed out suburban scene with childish tones.,-24,320,20","Another blob on a landscape. A city street?,9,200,20","Grant","It's a cute city scene. I like the trees.,10,200,20","Cole","Another blob on a landscape. A city street?,9,200,20","Victor","the trees are cool,1,340,20","2"
"12421","","survey-text","124","2399462","0.0-123.0-0.0","A1Z12SGB1WMXHK","","","","{""Q0"":""too many things happening""}","","","","","","","","","","","","","","","","","","","","","","",""
"1890.4900000197813","","image-slider-response","125","2401354","0.0-124.0","A1Z12SGB1WMXHK","","","","","-19","","","","","","","","","","","","","","","","","","","","","",""
"3450","","image-button-response","126","2406358","0.0-125.0","A1Z12SGB1WMXHK","img_art/19.jpg","1","","","","","","","","","","","","","","","","","","","","","","","","",""
"2653","","image-button-response","127","2409016","0.0-126.0","A1Z12SGB1WMXHK","img_art/19.jpg","1","","","","","","","","","","","","","","","","","","","","","","","","",""
"2566","","image-button-response","128","2411585","0.0-127.0-0.0","A1Z12SGB1WMXHK","img_art/19.jpg","4","","","","","","","","","","","","","","","","","","","","","","","","",""
"3463","","image-button-response","129","2415050","0.0-128.0-0.0","A1Z12SGB1WMXHK","img_art/19.jpg","4","","","","","","","","","","","","","","","","","","","","","","","","",""
"738","","image-button-response","130","2419242","0.0-128.1-0.1","A1Z12SGB1WMXHK","img_art/19.jpg","2","","","","","","","","","","","","","","","","","","","","","","","","",""
"null","","html-keyboard-response","131","2420745","0.0-129.0","A1Z12SGB1WMXHK","<p style=""font-size: 48px;"">+</p>","","","","","null","allTrialResponses","1500","1","12","img_art/19.jpg","-19","too many things happening","Shane,Victor,Thomas,Grant,Garrett,Cole","A day in a small city,45,80,20","too much going on, can't tell what it is,-14,340,20","I like this as a whole, but the longer I look at it, the less it pleases me,-10,220,20","It's a cute city scene, but nothing special.,10,200,20","This looks like a bunch of weird blobs and the colors don't go great together.,-10,180,20","Its simple and the colors i like. It reminds me of chagall,34,200,20","Victor","too much going on, can't tell what it is,-14,340,20","Garrett","This looks like a bunch of weird blobs and the colors don't go great together.,-10,180,20","Thomas","I like this as a whole, but the longer I look at it, the less it pleases me,-10,220,20","4"
"20891","","survey-text","132","2441648","0.0-130.0-0.0","A1Z12SGB1WMXHK","","","","{""Q0"":""this one make me sad""}","","","","","","","","","","","","","","","","","","","","","","",""
"1657.6849999837577","","image-slider-response","133","2443308","0.0-131.0","A1Z12SGB1WMXHK","","","","","-4","","","","","","","","","","","","","","","","","","","","","",""
"3328","","image-button-response","134","2448312","0.0-132.0","A1Z12SGB1WMXHK","img_art/14.jpg","2","","","","","","","","","","","","","","","","","","","","","","","","",""
"795","","image-button-response","135","2449111","0.0-133.0","A1Z12SGB1WMXHK","img_art/14.jpg","3","","","","","","","","","","","","","","","","","","","","","","","","",""
"2122","","image-button-response","136","2451235","0.0-134.0-0.0","A1Z12SGB1WMXHK","img_art/14.jpg","2","","","","","","","","","","","","","","","","","","","","","","","","",""
"638","","image-button-response","137","2451875","0.0-135.0-0.0","A1Z12SGB1WMXHK","img_art/14.jpg","0","","","","","","","","","","","","","","","","","","","","","","","","",""
"null","","html-keyboard-response","138","2453377","0.0-136.0","A1Z12SGB1WMXHK","<p style=""font-size: 48px;"">+</p>","","","","","null","allTrialResponses","1500","1","13","img_art/14.jpg","-4","this one make me sad","Taylor,Victor,Thomas,Adam,Garrett,Colton","Are they blowing up a tree?,-5,200,20","Meh. Pleasant to look at. Colors are nice,6,340,20","I like the colors in the background, but not the bottom/center. It almost looks sloppy.,-20,220,20","Very abstract. Unsure of what I'm looking at. No emotions towards it.,-6,40,20","I like this picture because it looks like a tree and the colors used look cool.,20,180,20","mythical and nature like,37,220,20","Adam","Very abstract. Unsure of what I'm looking at. No emotions towards it.,-6,40,20","Thomas","I like the colors in the background, but not the bottom/center. It almost looks sloppy.,-20,220,20","Taylor","Are they blowing up a tree?,-5,200,20","4"
"15284","","survey-text","139","2468675","0.0-137.0-0.0","A1Z12SGB1WMXHK","","","","{""Q0"":""colors are to dark, very dull""}","","","","","","","","","","","","","","","","","","","","","","",""
"1984.3399999663234","","image-slider-response","140","2470661","0.0-138.0","A1Z12SGB1WMXHK","","","","","-14","","","","","","","","","","","","","","","","","","","","","",""
"null","","image-button-response","141","2475665","0.0-139.0","A1Z12SGB1WMXHK","img_art/28.jpg","null","","","","","","","","","","","","","","","","","","","","","","","","",""
"1430","","image-button-response","142","2477097","0.0-140.0","A1Z12SGB1WMXHK","img_art/28.jpg","3","","","","","","","","","","","","","","","","","","","","","","","","",""
"2207","","image-button-response","143","2479307","0.0-141.0-0.0","A1Z12SGB1WMXHK","img_art/28.jpg","0","","","","","","","","","","","","","","","","","","","","","","","","",""
"1262","","image-button-response","144","2480571","0.0-142.0-0.0","A1Z12SGB1WMXHK","img_art/28.jpg","1","","","","","","","","","","","","","","","","","","","","","","","","",""
"null","","html-keyboard-response","145","2482073","0.0-143.0","A1Z12SGB1WMXHK","<p style=""font-size: 48px;"">+</p>","","","","","null","allTrialResponses","1500","1","14","img_art/28.jpg","-14","colors are to dark, very dull","Taylor,Derek,Thomas,Adam,Jack,Steven","Bug meets bug in a dark alley.,-20,200,20","The colors are dull but there's some kind of nostalgic essence of this painting,15,360,20","I can't explain why, but I really love this one,50,220,20","Dislike the colors.,-20,40,20","looks like humanoid figures in distress. I like it, but makes me slightly uncomfortable,35,320,20","It's a bike that was left abandoned by someone who doesnt care for it,1,160,20","Adam","Dislike the colors.,-20,40,20","Taylor","Bug meets bug in a dark alley.,-20,200,20","Derek","The colors are dull but there's some kind of nostalgic essence of this painting,15,360,20","4"
"17631","","survey-text","146","2499718","0.0-144.0-0.0","A1Z12SGB1WMXHK","","","","{""Q0"":""no idea what is on the image, but looks cool""}","","","","","","","","","","","","","","","","","","","","","","",""
"1545.810000039637","","image-slider-response","147","2501266","0.0-145.0","A1Z12SGB1WMXHK","","","","","15","","","","","","","","","","","","","","","","","","","","","",""
"null","","image-button-response","148","2506270","0.0-146.0","A1Z12SGB1WMXHK","img_art/1.jpg","null","","","","","","","","","","","","","","","","","","","","","","","","",""
"1151","","image-button-response","149","2507425","0.0-147.0","A1Z12SGB1WMXHK","img_art/1.jpg","1","","","","","","","","","","","","","","","","","","","","","","","","",""
"12490","","image-button-response","150","2519917","0.0-148.0-0.0","A1Z12SGB1WMXHK","img_art/1.jpg","2","","","","","","","","","","","","","","","","","","","","","","","","",""
"2210","","image-button-response","151","2522129","0.0-149.0-0.0","A1Z12SGB1WMXHK","img_art/1.jpg","0","","","","","","","","","","","","","","","","","","","","","","","","",""
"null","","html-keyboard-response","152","2523131","0.0-150.0","A1Z12SGB1WMXHK","<p style=""font-size: 48px;"">+</p>","","","","","null","allTrialResponses","1000","1","15","img_art/1.jpg","15","no idea what is on the image, but looks cool","Taylor,Derek,Mason,Adam,Miguel,Ryan","Deja vu. Haven't I seen this one before? Not bad for those living in the backwoods.,10,200,20","The blend of colors are gorgeous and reminds me of fall,32,360,20","just colors mixed together. not interesting.,5,100,20","Messy mix of primary colors.,-10,40,20","Doesn't represent anything in particular.,-47,160,20","Seems like one i previously saw in this survey,27,380,20","Derek","The blend of colors are gorgeous and reminds me of fall,32,360,20","Mason","just colors mixed together. not interesting.,5,100,20","Taylor","Deja vu. Haven't I seen this one before? Not bad for those living in the backwoods.,10,200,20","4"
"6430","","survey-text","153","2529582","0.0-151.0-0.0","A1Z12SGB1WMXHK","","","","{""Q0"":""course""}","","","","","","","","","","","","","","","","","","","","","","",""
"13899","","survey-text","154","2543482","0.0-152.0-0.0","A1Z12SGB1WMXHK","","","","{""Q0"":""Looks like windy fall day""}","","","","","","","","","","","","","","","","","","","","","","",""
"3530.3400000557303","","image-slider-response","155","2547014","0.0-153.0","A1Z12SGB1WMXHK","","","","","3","","","","","","","","","","","","","","","","","","","","","",""
"4752","","image-button-response","156","2552018","0.0-154.0","A1Z12SGB1WMXHK","img_art/17.jpg","0","","","","","","","","","","","","","","","","","","","","","","","","",""
"10105","","image-button-response","157","2562126","0.0-155.0","A1Z12SGB1WMXHK","img_art/17.jpg","3","","","","","","","","","","","","","","","","","","","","","","","","",""
"1114","","image-button-response","158","2563242","0.0-156.0-0.0","A1Z12SGB1WMXHK","img_art/17.jpg","0","","","","","","","","","","","","","","","","","","","","","","","","",""
"1261","","image-button-response","159","2564507","0.0-157.0-0.0","A1Z12SGB1WMXHK","img_art/17.jpg","4","","","","","","","","","","","","","","","","","","","","","","","","",""
"null","","html-keyboard-response","160","2565008","0.0-158.0","A1Z12SGB1WMXHK","<p style=""font-size: 48px;"">+</p>","","","","","null","allTrialResponses","500","1","16","img_art/17.jpg","3","Looks like windy fall day","Taylor,Derek,Mason,Mark,Jose,Isaac","Somewhat should trim the tree branches at the shopping mall.,10,200,20","The colors are beautiful and the painting itself is magnificent,50,360,20","Like this one, super creative, calming.,43,100,20","A coming storm but I think I would appreciate it more with more contrast.,-12,80,20","Looks like a weird blurry heaven again! I dig,32,200,20","The colors are soft.,32,280,20","Mark","A coming storm but I think I would appreciate it more with more contrast.,-12,80,20","Taylor","Somewhat should trim the tree branches at the shopping mall.,10,200,20","Jose","Looks like a weird blurry heaven again! I dig,32,200,20","4"
"15636","","survey-text","161","2580650","0.0-159.0-0.0","A1Z12SGB1WMXHK","","","","{""Q0"":""does not make cense, to messy""}","","","","","","","","","","","","","","","","","","","","","","",""
"2064.750000019558","","image-slider-response","162","2582717","0.0-160.0","A1Z12SGB1WMXHK","","","","","-40","","","","","","","","","","","","","","","","","","","","","",""
"3889","","image-button-response","163","2587719","0.0-161.0","A1Z12SGB1WMXHK","img_art/29.jpg","1","","","","","","","","","","","","","","","","","","","","","","","","",""
"5412","","image-button-response","164","2593134","0.0-162.0","A1Z12SGB1WMXHK","img_art/29.jpg","0","","","","","","","","","","","","","","","","","","","","","","","","",""
"662","","image-button-response","165","2593798","0.0-163.0-0.0","A1Z12SGB1WMXHK","img_art/29.jpg","1","","","","","","","","","","","","","","","","","","","","","","","","",""
"7852","","image-button-response","166","2601652","0.0-164.0-0.0","A1Z12SGB1WMXHK","img_art/29.jpg","3","","","","","","","","","","","","","","","","","","","","","","","","",""
"null","","html-keyboard-response","167","2603155","0.0-165.0","A1Z12SGB1WMXHK","<p style=""font-size: 48px;"">+</p>","","","","","null","allTrialResponses","1500","1","17","img_art/29.jpg","-40","does not make cense, to messy","Taylor,Adrian,Charles,Mark,Jose,Alexis","I would give up and give it a red X too.,-5,200,20","Again, ugly colors and I'm not a fan of abstract. This looks like the view into a garbage dump.,-50,60,20","I like the usage of a physical object,33,100,20","Bottomless pit and prison. Feels like its saying time is precious.,11,80,20","I think the grey and red inspire negative feelings but it's not the worst thing.,13,200,20","I like that it looks like a scene from perhaps a failed painted project,10,140,20","Taylor","I would give up and give it a red X too.,-5,200,20","Adrian","Again, ugly colors and I'm not a fan of abstract. This looks like the view into a garbage dump.,-50,60,20","Mark","Bottomless pit and prison. Feels like its saying time is precious.,11,80,20","4"
"17898","","survey-text","168","2621067","0.0-166.0-0.0","A1Z12SGB1WMXHK","","","","{""Q0"":""tree in a desert? Weird!""}","","","","","","","","","","","","","","","","","","","","","","",""
"3028.3800000324845","","image-slider-response","169","2624098","0.0-167.0","A1Z12SGB1WMXHK","","","","","-4","","","","","","","","","","","","","","","","","","","","","",""
"3862","","image-button-response","170","2629100","0.0-168.0","A1Z12SGB1WMXHK","img_art/6.jpg","0","","","","","","","","","","","","","","","","","","","","","","","","",""
"2986","","image-button-response","171","2632088","0.0-169.0","A1Z12SGB1WMXHK","img_art/6.jpg","4","","","","","","","","","","","","","","","","","","","","","","","","",""
"1142","","image-button-response","172","2633232","0.0-170.0-0.0","A1Z12SGB1WMXHK","img_art/6.jpg","0","","","","","","","","","","","","","","","","","","","","","","","","",""
"1386","","image-button-response","173","2634620","0.0-171.0-0.0","A1Z12SGB1WMXHK","img_art/6.jpg","5","","","","","","","","","","","","","","","","","","","","","","","","",""
"null","","html-keyboard-response","174","2636122","0.0-172.0","A1Z12SGB1WMXHK","<p style=""font-size: 48px;"">+</p>","","","","","null","allTrialResponses","1500","1","18","img_art/6.jpg","-4","tree in a desert? Weird!","Taylor,Adrian,Benjamin,Mark,Ethan,Angel","A crow on one leg?,-10,200,20","Simple, warm, hopeful.,12,60,20","Something very simplistic about it. The colors mesh well.,10,260,20","So forlorn, and beauty amid desolation.,25,80,20","This piece has some emotion of isolation. I like it.,6,120,20","This piece feels hopeful, like an oasis in the desert.,20,180,20","Ethan","This piece has some emotion of isolation. I like it.,6,120,20","Taylor","A crow on one leg?,-10,200,20","Angel","This piece feels hopeful, like an oasis in the desert.,20,180,20","4"
"14433","","survey-text","175","2650568","0.0-173.0-0.0","A1Z12SGB1WMXHK","","","","{""Q0"":""to bland, too many dark colors""}","","","","","","","","","","","","","","","","","","","","","","",""
"2053.9750000461936","","image-slider-response","176","2652624","0.0-174.0","A1Z12SGB1WMXHK","","","","","-16","","","","","","","","","","","","","","","","","","","","","",""
"3241","","image-button-response","177","2657627","0.0-175.0","A1Z12SGB1WMXHK","img_art/10.jpg","1","","","","","","","","","","","","","","","","","","","","","","","","",""
"540","","image-button-response","178","2658170","0.0-176.0","A1Z12SGB1WMXHK","img_art/10.jpg","0","","","","","","","","","","","","","","","","","","","","","","","","",""
"422","","image-button-response","179","2658594","0.0-177.0-0.0","A1Z12SGB1WMXHK","img_art/10.jpg","1","","","","","","","","","","","","","","","","","","","","","","","","",""
"3187","","image-button-response","180","2661784","0.0-178.0-0.0","A1Z12SGB1WMXHK","img_art/10.jpg","4","","","","","","","","","","","","","","","","","","","","","","","","",""
"null","","html-keyboard-response","181","2662286","0.0-179.0","A1Z12SGB1WMXHK","<p style=""font-size: 48px;"">+</p>","","","","","null","allTrialResponses","500","1","19","img_art/10.jpg","-16","to bland, too many dark colors","Taylor,James,Antonio,Zachary,Ethan,Angel","The roller coaster from hell !!!,-10,200,20","I have no opinions on this one,0,380,20","This painting made me think of a guitar which made me think of music which envoked happy feelings.,28,220,20","Reminds me of a terrarium with cacti inside. It reminds me of home.,27,400,20","The flow of lines is off. There are curvy and straight angry lines. It's not flattering at all.,-27,120,20","This piece makes me think of music. The music is dark; I like dark music so it edges toward good.,10,180,20","Taylor","The roller coaster from hell !!!,-10,200,20","James","I have no opinions on this one,0,380,20","Ethan","The flow of lines is off. There are curvy and straight angry lines. It's not flattering at all.,-27,120,20","4"
"15259","","survey-text","182","2677552","0.0-180.0-0.0","A1Z12SGB1WMXHK","","","","{""Q0"":""makes no cense, very boring""}","","","","","","","","","","","","","","","","","","","","","","",""
"2538.300000014715","","image-slider-response","183","2680092","0.0-181.0","A1Z12SGB1WMXHK","","","","","-42","","","","","","","","","","","","","","","","","","","","","",""
"4562","","image-button-response","184","2685096","0.0-182.0","A1Z12SGB1WMXHK","img_art/9.jpg","5","","","","","","","","","","","","","","","","","","","","","","","","",""
"1054","","image-button-response","185","2686154","0.0-183.0","A1Z12SGB1WMXHK","img_art/9.jpg","5","","","","","","","","","","","","","","","","","","","","","","","","",""
"1198","","image-button-response","186","2687354","0.0-184.0-0.0","A1Z12SGB1WMXHK","img_art/9.jpg","0","","","","","","","","","","","","","","","","","","","","","","","","",""
"11912","","image-button-response","187","2699268","0.0-185.0-0.0","A1Z12SGB1WMXHK","img_art/9.jpg","3","","","","","","","","","","","","","","","","","","","","","","","","",""
"null","","html-keyboard-response","188","2700771","0.0-186.0","A1Z12SGB1WMXHK","<p style=""font-size: 48px;"">+</p>","","","","","null","allTrialResponses","1500","1","20","img_art/9.jpg","-42","makes no cense, very boring","Taylor,James,Hunter,William,Ethan,Tristan","Caveman. Not for my walls.,-5,200,20","This has some of my favorite colors, and I like it,21,380,20","strong focal point, appealing use of selective line,11,240,20","reminds me of a story book,18,380,20","How neat is this piece?  I love the angry expressive lines. Emotion is captured in it.,26,120,20","The busyness and harsh nature of the lines in this painting  mute my emotional response.,-10,300,20","Tristan","The busyness and harsh nature of the lines in this painting  mute my emotional response.,-10,300,20","Taylor","Caveman. Not for my walls.,-5,200,20","William","reminds me of a story book,18,380,20","4"
"2700","","survey-text","189","2703486","0.0-187.0-0.0","A1Z12SGB1WMXHK","","","","{""Q0"":""we""}","","","","","","","","","","","","","","","","","","","","","","",""
"43140","","survey-text","190","2746627","0.0-188.0-0.0","A1Z12SGB1WMXHK","","","","{""Q0"":""Love colors, looks like river running through forest ""}","","","","","","","","","","","","","","","","","","","","","","",""
"2143.7300000106916","","image-slider-response","191","2748774","0.0-189.0","A1Z12SGB1WMXHK","","","","","50","","","","","","","","","","","","","","","","","","","","","",""
"null","","image-button-response","192","2753778","0.0-190.0","A1Z12SGB1WMXHK","img_art/24.jpg","null","","","","","","","","","","","","","","","","","","","","","","","","",""
"620","","image-button-response","193","2754402","0.0-191.0","A1Z12SGB1WMXHK","img_art/24.jpg","3","","","","","","","","","","","","","","","","","","","","","","","","",""
"734","","image-button-response","194","2755138","0.0-192.0-0.0","A1Z12SGB1WMXHK","img_art/24.jpg","4","","","","","","","","","","","","","","","","","","","","","","","","",""
"13977","","image-button-response","195","2769118","0.0-193.0-0.0","A1Z12SGB1WMXHK","img_art/24.jpg","0","","","","","","","","","","","","","","","","","","","","","","","","",""
"null","","html-keyboard-response","196","2769621","0.0-194.0","A1Z12SGB1WMXHK","<p style=""font-size: 48px;"">+</p>","","","","","null","allTrialResponses","500","1","21","img_art/24.jpg","50","Love colors, looks like river running through forest ","Taylor,Shawn,Richard,William,Samuel,Tristan","I actually like this one. You can tell what it is.,25,200,20","Pretty but cheesy,-15,100,20","flowing water part is good, some of the rest is ok but dark,14,340,20","very peaceful and serene,47,380,20","tranquility in the stream,34,400,20","The contorted angles of the flowing water upset the harmony,-20,300,20","William","very peaceful and serene,47,380,20","Samuel","tranquility in the stream,34,400,20","Taylor","I actually like this one. You can tell what it is.,25,200,20","4"
"15124","","survey-text","197","2784765","0.0-195.0-0.0","A1Z12SGB1WMXHK","","","","{""Q0"":""Love this one, looks like a knight on a horse ""}","","","","","","","","","","","","","","","","","","","","","","",""
"4268.04999995511","","image-slider-response","198","2789035","0.0-196.0","A1Z12SGB1WMXHK","","","","","50","","","","","","","","","","","","","","","","","","","","","",""
"null","","image-button-response","199","2794038","0.0-197.0","A1Z12SGB1WMXHK","img_art/18.jpg","null","","","","","","","","","","","","","","","","","","","","","","","","",""
"3813","","image-button-response","200","2797853","0.0-198.0","A1Z12SGB1WMXHK","img_art/18.jpg","1","","","","","","","","","","","","","","","","","","","","","","","","",""
"5281","","image-button-response","201","2803137","0.0-199.0-0.0","A1Z12SGB1WMXHK","img_art/18.jpg","3","","","","","","","","","","","","","","","","","","","","","","","","",""
"9237","","image-button-response","202","2812377","0.0-200.0-0.0","A1Z12SGB1WMXHK","img_art/18.jpg","2","","","","","","","","","","","","","","","","","","","","","","","","",""
"null","","html-keyboard-response","203","2813379","0.0-201.0","A1Z12SGB1WMXHK","<p style=""font-size: 48px;"">+</p>","","","","","null","allTrialResponses","1000","1","22","img_art/18.jpg","50","Love this one, looks like a knight on a horse ","Taylor,Bryan,Trevor,William,Samuel,Gregory","Bad guys are after the good guy.,-10,200,20","First saw sailing ship in bad weather but then saw woman in upper left - not sure what I'm seeing.,21,400,20","it looks dreary and not uplifting,-10,280,20","Makes me think of stormy oceans,20,380,20","death rides in life,-25,400,20","Mash up of colors and don't see a grander picture,-10,220,20","Bryan","First saw sailing ship in bad weather but then saw woman in upper left - not sure what I'm seeing.,21,400,20","William","Makes me think of stormy oceans,20,380,20","Trevor","it looks dreary and not uplifting,-10,280,20","4"
"8348","","survey-text","204","2821746","0.0-202.0-0.0","A1Z12SGB1WMXHK","","","","{""Q0"":""nice patterns""}","","","","","","","","","","","","","","","","","","","","","","",""
"2218.3250000234693","","image-slider-response","205","2823967","0.0-203.0","A1Z12SGB1WMXHK","","","","","31","","","","","","","","","","","","","","","","","","","","","",""
"4427","","image-button-response","206","2828970","0.0-204.0","A1Z12SGB1WMXHK","img_art/12.jpg","1","","","","","","","","","","","","","","","","","","","","","","","","",""
"3037","","image-button-response","207","2832009","0.0-205.0","A1Z12SGB1WMXHK","img_art/12.jpg","5","","","","","","","","","","","","","","","","","","","","","","","","",""
"774","","image-button-response","208","2832785","0.0-206.0-0.0","A1Z12SGB1WMXHK","img_art/12.jpg","1","","","","","","","","","","","","","","","","","","","","","","","","",""
"510","","image-button-response","209","2833297","0.0-207.0-0.0","A1Z12SGB1WMXHK","img_art/12.jpg","0","","","","","","","","","","","","","","","","","","","","","","","","",""
"null","","html-keyboard-response","210","2834798","0.0-208.0","A1Z12SGB1WMXHK","<p style=""font-size: 48px;"">+</p>","","","","","null","allTrialResponses","1500","1","23","img_art/12.jpg","31","nice patterns","Devin,Bryan,Trevor,William,Lucas,Marcus","Love the shapes here,12,380,20","Love the colors & the abstractness.,31,400,20","way too 90s/80s for me,-9,280,20","to contemporary for me,3,380,20","Seems to be puzzles.,25,380,20","I like the colors in the bottom half of the painting,10,60,20","Marcus","I like the colors in the bottom half of the painting,10,60,20","Bryan","Love the colors & the abstractness.,31,400,20","Devin","Love the shapes here,12,380,20","4"
"12924","","survey-text","211","2847729","0.0-209.0-0.0","A1Z12SGB1WMXHK","","","","{""Q0"":""too basic, makes no cense""}","","","","","","","","","","","","","","","","","","","","","","",""
"2738.6849999893457","","image-slider-response","212","2850469","0.0-210.0","A1Z12SGB1WMXHK","","","","","-30","","","","","","","","","","","","","","","","","","","","","",""
"3848","","image-button-response","213","2855471","0.0-211.0","A1Z12SGB1WMXHK","img_art/15.jpg","4","","","","","","","","","","","","","","","","","","","","","","","","",""
"1782","","image-button-response","214","2857255","0.0-212.0","A1Z12SGB1WMXHK","img_art/15.jpg","4","","","","","","","","","","","","","","","","","","","","","","","","",""
"523","","image-button-response","215","2857779","0.0-213.0-0.0","A1Z12SGB1WMXHK","img_art/15.jpg","3","","","","","","","","","","","","","","","","","","","","","","","","",""
"654","","image-button-response","216","2858435","0.0-214.0-0.0","A1Z12SGB1WMXHK","img_art/15.jpg","0","","","","","","","","","","","","","","","","","","","","","","","","",""
"null","","html-keyboard-response","217","2859937","0.0-215.0","A1Z12SGB1WMXHK","<p style=""font-size: 48px;"">+</p>","","","","","null","allTrialResponses","1500","1","24","img_art/15.jpg","-30","too basic, makes no cense","Devin,Bryan,Tyler,Jake,Juan,Marcus","Simple but needs some more detail somehow,-3,380,20","Interesting. Reminds me of a biopsy slide.,21,400,20","I am starting to feel description fatigue. This would be pleasant enough in a doctor's office waiting room.,15,320,20","This looks odd and was not well executed.,-3,360,20","I don't even know what's going on here. Again, this is too abstract.,-21,260,20","Interesting, but don't really like it. Gloomy.,-10,60,20","Juan","I don't even know what's going on here. Again, this is too abstract.,-21,260,20","Jake","This looks odd and was not well executed.,-3,360,20","Devin","Simple but needs some more detail somehow,-3,380,20","4"
"16655","","survey-text","218","2876597","0.0-216.0-0.0","A1Z12SGB1WMXHK","","","","{""Q0"":""love the patterns, very cool and futuristic ""}","","","","","","","","","","","","","","","","","","","","","","",""
"1801.934999995865","","image-slider-response","219","2878401","0.0-217.0","A1Z12SGB1WMXHK","","","","","30","","","","","","","","","","","","","","","","","","","","","",""
"null","","image-button-response","220","2884218","0.0-218.0","A1Z12SGB1WMXHK","img_art/8.jpg","null","","","","","","","","","","","","","","","","","","","","","","","","",""
"19731","","image-button-response","221","2903951","0.0-219.0","A1Z12SGB1WMXHK","img_art/8.jpg","1","","","","","","","","","","","","","","","","","","","","","","","","",""
"2258","","image-button-response","222","2906211","0.0-220.0-0.0","A1Z12SGB1WMXHK","img_art/8.jpg","2","","","","","","","","","","","","","","","","","","","","","","","","",""
"3939","","image-button-response","223","2910154","0.0-221.0-0.0","A1Z12SGB1WMXHK","img_art/8.jpg","5","","","","","","","","","","","","","","","","","","","","","","","","",""
"null","","html-keyboard-response","224","2911656","0.0-222.0","A1Z12SGB1WMXHK","<p style=""font-size: 48px;"">+</p>","","","","","null","allTrialResponses","1500","1","25","img_art/8.jpg","30","love the patterns, very cool and futuristic ","Devin,Jeffrey,Christian,Jake,Juan,Stephen","Very nice detail and colors!,10,380,20","Very busy, I want to look at it and investigate,23,40,20","gives off inception vibes <3,50,140,20","It's a poor rendition of an MC Escher inspired piece.,-25,360,20","I don't like the negative emotion this picture makes me feel. It's also too abstract.,-30,260,20","Has nice depth to it.,12,140,20","Jeffrey","Very busy, I want to look at it and investigate,23,40,20","Christian","gives off inception vibes <3,50,140,20","Stephen","Has nice depth to it.,12,140,20","4"
"7225","","survey-text","225","2918891","0.0-223.0-0.0","A1Z12SGB1WMXHK","","","","{""Q0"":""table""}","","","","","","","","","","","","","","","","","","","","","","",""
"12766","","survey-text","226","2931659","0.0-224.0-0.0","A1Z12SGB1WMXHK","","","","{""Q0"":""looks strange, but cool at the same time""}","","","","","","","","","","","","","","","","","","","","","","",""
"2382.054999936372","","image-slider-response","227","2934043","0.0-225.0","A1Z12SGB1WMXHK","","","","","7","","","","","","","","","","","","","","","","","","","","","",""
"null","","image-button-response","228","2939047","0.0-226.0","A1Z12SGB1WMXHK","img_art/23.jpg","null","","","","","","","","","","","","","","","","","","","","","","","","",""
"735","","image-button-response","229","2939785","0.0-227.0","A1Z12SGB1WMXHK","img_art/23.jpg","1","","","","","","","","","","","","","","","","","","","","","","","","",""
"1058","","image-button-response","230","2940845","0.0-228.0-0.0","A1Z12SGB1WMXHK","img_art/23.jpg","2","","","","","","","","","","","","","","","","","","","","","","","","",""
"2794","","image-button-response","231","2943641","0.0-229.0-0.0","A1Z12SGB1WMXHK","img_art/23.jpg","5","","","","","","","","","","","","","","","","","","","","","","","","",""
"null","","html-keyboard-response","232","2944642","0.0-230.0","A1Z12SGB1WMXHK","<p style=""font-size: 48px;"">+</p>","","","","","null","allTrialResponses","1000","1","26","img_art/23.jpg","7","looks strange, but cool at the same time","Cameron,Jeffrey,Christian,Gabriel,Aaron,Stephen","looks like those paper chain things.,0,60,20","Very energetic, seems like it is pulling me in,24,40,20","love the contrast (was this painted by a left-handed artist?),7,140,20","i think this ones okay,10,160,20","I love the colors and the contrast.,50,20,20","Solid colors but the white throws it off for me.,4,140,20","Jeffrey","Very energetic, seems like it is pulling me in,24,40,20","Christian","love the contrast (was this painted by a left-handed artist?),7,140,20","Stephen","Solid colors but the white throws it off for me.,4,140,20","4"
"15211","","survey-text","233","2959860","0.0-231.0-0.0","A1Z12SGB1WMXHK","","","","{""Q0"":""looks like someone through up on this one""}","","","","","","","","","","","","","","","","","","","","","","",""
"2878.43000004068","","image-slider-response","234","2962741","0.0-232.0","A1Z12SGB1WMXHK","","","","","-50","","","","","","","","","","","","","","","","","","","","","",""
"null","","image-button-response","235","2967744","0.0-233.0","A1Z12SGB1WMXHK","img_art/4.jpg","null","","","","","","","","","","","","","","","","","","","","","","","","",""
"221","","image-button-response","236","2967967","0.0-234.0","A1Z12SGB1WMXHK","img_art/4.jpg","2","","","","","","","","","","","","","","","","","","","","","","","","",""
"822","","image-button-response","237","2968791","0.0-235.0-0.0","A1Z12SGB1WMXHK","img_art/4.jpg","0","","","","","","","","","","","","","","","","","","","","","","","","",""
"2010","","image-button-response","238","2970803","0.0-236.0-0.0","A1Z12SGB1WMXHK","img_art/4.jpg","4","","","","","","","","","","","","","","","","","","","","","","","","",""
"null","","html-keyboard-response","239","2971306","0.0-237.0","A1Z12SGB1WMXHK","<p style=""font-size: 48px;"">+</p>","","","","","null","allTrialResponses","500","1","27","img_art/4.jpg","-50","looks like someone through up on this one","Jacob,Jeffrey,Christian,Caleb,Robert,Stephen","Looks like they just smothered on some paint and called it a day.,-17,340,20","Easy and relaxing,23,40,20","no sorry i can't really understand,-18,140,20","Colors are horrendous, look like bodily fluids have been smeared.,-50,40,20","It looks like a hand someone scribbled over,-30,360,20","Just doesn't look nice.,-40,140,20","Christian","no sorry i can't really understand,-18,140,20","Jacob","Looks like they just smothered on some paint and called it a day.,-17,340,20","Robert","It looks like a hand someone scribbled over,-30,360,20","4"
"11587","","survey-text","240","2982899","0.0-238.0-0.0","A1Z12SGB1WMXHK","","","","{""Q0"":""looks like, very dreamy ""}","","","","","","","","","","","","","","","","","","","","","","",""
"1906.2599999597296","","image-slider-response","241","2984807","0.0-239.0","A1Z12SGB1WMXHK","","","","","41","","","","","","","","","","","","","","","","","","","","","",""
"null","","image-button-response","242","2989810","0.0-240.0","A1Z12SGB1WMXHK","img_art/13.jpg","null","","","","","","","","","","","","","","","","","","","","","","","","",""
"115","","image-button-response","243","2989929","0.0-241.0","A1Z12SGB1WMXHK","img_art/13.jpg","1","","","","","","","","","","","","","","","","","","","","","","","","",""
"2766","","image-button-response","244","2992698","0.0-242.0-0.0","A1Z12SGB1WMXHK","img_art/13.jpg","4","","","","","","","","","","","","","","","","","","","","","","","","",""
"2349","","image-button-response","245","2995049","0.0-243.0-0.0","A1Z12SGB1WMXHK","img_art/13.jpg","5","","","","","","","","","","","","","","","","","","","","","","","","",""
"null","","html-keyboard-response","246","2996050","0.0-244.0","A1Z12SGB1WMXHK","<p style=""font-size: 48px;"">+</p>","","","","","null","allTrialResponses","1000","1","28","img_art/13.jpg","41","looks like, very dreamy ","Jacob,Carlos,Christian,Jorge,Robert,Dakota","The paint splatter idea is kind of overused but I like how it brings the piece together,16,340,20","Rain on a cold window.,22,80,20","love the style but not very novel,9,140,20","It reminds me of rain,11,180,20","Raindrops splashing on the window.,50,360,20","water on my shower curtain - I feel refreshed, renewed,9,280,20","Carlos","Rain on a cold window.,22,80,20","Robert","Raindrops splashing on the window.,50,360,20","Dakota","water on my shower curtain - I feel refreshed, renewed,9,280,20","4"
"13654","","survey-text","247","3009713","0.0-245.0-0.0","A1Z12SGB1WMXHK","","","","{""Q0"":""too basic, like 3 year old did this one""}","","","","","","","","","","","","","","","","","","","","","","",""
"1796.100000035949","","image-slider-response","248","3011511","0.0-246.0","A1Z12SGB1WMXHK","","","","","-44","","","","","","","","","","","","","","","","","","","","","",""
"3190","","image-button-response","249","3016513","0.0-247.0","A1Z12SGB1WMXHK","img_art/5.jpg","4","","","","","","","","","","","","","","","","","","","","","","","","",""
"543","","image-button-response","250","3017059","0.0-248.0","A1Z12SGB1WMXHK","img_art/5.jpg","2","","","","","","","","","","","","","","","","","","","","","","","","",""
"1181","","image-button-response","251","3018244","0.0-249.0-0.0","A1Z12SGB1WMXHK","img_art/5.jpg","4","","","","","","","","","","","","","","","","","","","","","","","","",""
"725","","image-button-response","252","3018971","0.0-250.0-0.0","A1Z12SGB1WMXHK","img_art/5.jpg","3","","","","","","","","","","","","","","","","","","","","","","","","",""
"null","","html-keyboard-response","253","3020473","0.0-251.0","A1Z12SGB1WMXHK","<p style=""font-size: 48px;"">+</p>","","","","","null","allTrialResponses","1500","1","29","img_art/5.jpg","-44","too basic, like 3 year old did this one","Connor,Carlos,Michael,Andrew,Robert,Dakota","Flame, candle, wind,30,240,20","It feels very strong and open.,31,80,20","Complete garbage. Looks like a kid drew it.,-50,140,20","Doesn't make me think anything,-1,160,20","This did not do a thing for me.,-50,360,20","fresh and fun - bright and active,16,280,20","Michael","Complete garbage. Looks like a kid drew it.,-50,140,20","Robert","This did not do a thing for me.,-50,360,20","Andrew","Doesn't make me think anything,-1,160,20","4"
"24241","","survey-text","254","3044730","0.0-252.0-0.0","A1Z12SGB1WMXHK","","","","{""Q0"":""death is coming to get you, definitely would not add this to the wall in my room.""}","","","","","","","","","","","","","","","","","","","","","","",""
"2306.1849999940023","","image-slider-response","255","3047038","0.0-253.0","A1Z12SGB1WMXHK","","","","","-6","","","","","","","","","","","","","","","","","","","","","",""
"null","","image-button-response","256","3052041","0.0-254.0","A1Z12SGB1WMXHK","img_art/25.jpg","null","","","","","","","","","","","","","","","","","","","","","","","","",""
"934","","image-button-response","257","3052977","0.0-255.0","A1Z12SGB1WMXHK","img_art/25.jpg","0","","","","","","","","","","","","","","","","","","","","","","","","",""
"2098","","image-button-response","258","3055077","0.0-256.0-0.0","A1Z12SGB1WMXHK","img_art/25.jpg","3","","","","","","","","","","","","","","","","","","","","","","","","",""
"2793","","image-button-response","259","3057873","0.0-257.0-0.0","A1Z12SGB1WMXHK","img_art/25.jpg","5","","","","","","","","","","","","","","","","","","","","","","","","",""
"null","","html-keyboard-response","260","3059375","0.0-258.0","A1Z12SGB1WMXHK","<p style=""font-size: 48px;"">+</p>","","","","","null","allTrialResponses","1500","1","30","img_art/25.jpg","-6","death is coming to get you, definitely would not add this to the wall in my room.","Dylan,Luke,Michael,Andrew,Robert,Kevin","This is too dark and creepy. I also hate the color,-30,40,20","the contrasting colors are very interesting,24,20,20","Low skill not impressed.,-14,140,20","It makes me feel a little uneasy, but I like the painting,11,160,20","It made me think of healing.,22,360,20","That on i find a bit creapy.,-19,320,20","Dylan","This is too dark and creepy. I also hate the color,-30,40,20","Andrew","It makes me feel a little uneasy, but I like the painting,11,160,20","Kevin","That on i find a bit creapy.,-19,320,20","4"
"3954","","image-button-response_instructions","261","3063335","0.0-259.0","A1Z12SGB1WMXHK","","0","instructions","","","","","","","","","","","","","","","","","","","","","","","",""
"1178","","image-button-response","262","3064518","0.0-260.0","A1Z12SGB1WMXHK","","0","","","","","","","","","","","","","","","","","","","","","","","","",""
