"rt","url","trial_type","trial_index","time_elapsed","internal_node_id","participant_id","stimulus","button_pressed","Name","responses","response","key_press","variableName","fixationTime","condition","trial","photo","subjectRating","subjectResponse","agentsNames","agent_1_Response","agent_2_Response","agent_3_Response","agent_4_Response","agent_5_Response","agent_6_Response","kept_1_name","kept_1_response","kept_2_name","kept_2_response","kept_3_name","kept_3_response","errorCounter"
"5361","external_page_harvard.html","external-html","0","5414","0.0-0.0","A1ZE52NWZPN85P","","","","","","","","","","","","","","","","","","","","","","","","","","",""
"1500","","image-button-response","1","6915","0.0-1.0","A1ZE52NWZPN85P","","0","","","","","","","","","","","","","","","","","","","","","","","","",""
"1280","","image-button-response","2","8200","0.0-2.0-0.0","A1ZE52NWZPN85P","","1","phone","","","","","","","","","","","","","","","","","","","","","","","",""
"1890","","survey-text","3","10091","0.0-3.0-0.0","A1ZE52NWZPN85P","","","","{""Q0"":""A1ZE52NWZPN85P""}","","","","","","","","","","","","","","","","","","","","","","",""
"5076","","image-button-response_instructions","4","15167","0.0-4.0","A1ZE52NWZPN85P","","0","instructions","","","","","","","","","","","","","","","","","","","","","","","",""
"3698","","image-button-response_instructions","5","18867","0.0-5.0","A1ZE52NWZPN85P","img_art/ins/popularity/ins1.png","0","instructions","","","","","","","","","","","","","","","","","","","","","","","",""
"2364","","image-button-response_instructions","6","21233","0.0-6.0","A1ZE52NWZPN85P","img_art/ins/popularity/ins2.png","0","instructions","","","","","","","","","","","","","","","","","","","","","","","",""
"32838","","image-button-response_instructions","7","54071","0.0-7.0","A1ZE52NWZPN85P","img_art/ins/popularity/ins2Extreme.png","0","instructions","","","","","","","","","","","","","","","","","","","","","","","",""
"3221","","image-button-response_instructions","8","57293","0.0-8.0","A1ZE52NWZPN85P","img_art/ins/popularity/ins3KEEPpop.PNG","0","instructions","","","","","","","","","","","","","","","","","","","","","","","",""
"1759","","image-button-response_instructions","9","59052","0.0-9.0","A1ZE52NWZPN85P","img_art/ins/popularity/ins3ANamepop.PNG","0","instructions","","","","","","","","","","","","","","","","","","","","","","","",""
"1813","","image-button-response_instructions","10","60866","0.0-10.0","A1ZE52NWZPN85P","img_art/ins/popularity/ins3ARatingpop.png","0","instructions","","","","","","","","","","","","","","","","","","","","","","","",""
"1765","","image-button-response_instructions","11","62633","0.0-11.0","A1ZE52NWZPN85P","img_art/ins/popularity/ins3ATextpop.png","0","instructions","","","","","","","","","","","","","","","","","","","","","","","",""
"2639","","image-button-response_instructions","12","65273","0.0-12.0","A1ZE52NWZPN85P","img_art/ins/popularity/ins3ALikespop.png","0","instructions","","","","","","","","","","","","","","","","","","","","","","","",""
"4381","","image-button-response_instructions","13","69654","0.0-13.0","A1ZE52NWZPN85P","img_art/ins/popularity/ins3KEEPpop.PNG","0","instructions","","","","","","","","","","","","","","","","","","","","","","","",""
"4889","","image-button-response_instructions","14","74545","0.0-14.0","A1ZE52NWZPN85P","img_art/ins/popularity/ins3_5RED.png","0","instructions","","","","","","","","","","","","","","","","","","","","","","","",""
"1486","","image-button-response_instructions","15","76031","0.0-15.0","A1ZE52NWZPN85P","img_art/ins/popularity/ins3KEEPpop.PNG","0","instructions","","","","","","","","","","","","","","","","","","","","","","","",""
"3455","","image-button-response_instructions","16","79487","0.0-16.0","A1ZE52NWZPN85P","img_art/ins/popularity/ins4KEEPpop.PNG","0","instructions","","","","","","","","","","","","","","","","","","","","","","","",""
"1595","","image-button-response_instructions","17","81082","0.0-17.0","A1ZE52NWZPN85P","img_art/ins/popularity/ins5KEEPpop.PNG","0","instructions","","","","","","","","","","","","","","","","","","","","","","","",""
"599","","image-button-response_instructions","18","81683","0.0-18.0","A1ZE52NWZPN85P","","0","instructions","","","","","","","","","","","","","","","","","","","","","","","",""
"2914","","survey-text","19","84619","0.0-19.0-0.0","A1ZE52NWZPN85P","","","","{""Q0"":""but""}","","","","","","","","","","","","","","","","","","","","","","",""
"6718","","survey-text","20","91337","0.0-20.0-0.0","A1ZE52NWZPN85P","","","","{""Q0"":""it's boring""}","","","","","","","","","","","","","","","","","","","","","","",""
"1889.5","","image-slider-response","21","93229","0.0-21.0","A1ZE52NWZPN85P","","","","","-26","","","","","","","","","","","","","","","","","","","","","",""
"3352","","image-button-response","22","98232","0.0-22.0","A1ZE52NWZPN85P","img_art/ins/1.jpg","2","","","","","","","","","","","","","","","","","","","","","","","","",""
"327","","image-button-response","23","98561","0.0-23.0","A1ZE52NWZPN85P","img_art/ins/1.jpg","0","","","","","","","","","","","","","","","","","","","","","","","","",""
"1400","","image-button-response","24","99963","0.0-24.0-0.0","A1ZE52NWZPN85P","img_art/ins/1.jpg","2","","","","","","","","","","","","","","","","","","","","","","","","",""
"1788","","image-button-response","25","101753","0.0-25.0-0.0","A1ZE52NWZPN85P","img_art/ins/1.jpg","4","","","","","","","","","","","","","","","","","","","","","","","","",""
"null","","html-keyboard-response","26","102255","0.0-26.0","A1ZE52NWZPN85P","<p style=""font-size: 48px;"">+</p>","","","","","null","allTrialResponses","500","1","-2","img_art/ins/1.jpg","-26","it's boring","Adam,Alex,Ben,Carl,Daniel,Jack","Seems like doodles,-20,20,20","very creative work.,36,40,20","This color reminds me of poo,-46,60,20","very calming artwork,42,80,20","It looks like a murder scene.,-48,100,20","I like the sophisticated brushwork,40,120,20","Adam","Seems like doodles,-20,20,20","Ben","This color reminds me of poo,-46,60,20","Daniel","It looks like a murder scene.,-48,100,20","0"
"10042","","survey-text","27","112301","0.0-27.0-0.0","A1ZE52NWZPN85P","","","","{""Q0"":""nonsense""}","","","","","","","","","","","","","","","","","","","","","","",""
"2388.5","","image-slider-response","28","114690","0.0-28.0","A1ZE52NWZPN85P","","","","","-29","","","","","","","","","","","","","","","","","","","","","",""
"3462","","image-button-response","29","119694","0.0-29.0","A1ZE52NWZPN85P","img_art/ins/2.jpg","2","","","","","","","","","","","","","","","","","","","","","","","","",""
"236","","image-button-response","30","119931","0.0-30.0","A1ZE52NWZPN85P","img_art/ins/2.jpg","2","","","","","","","","","","","","","","","","","","","","","","","","",""
"909","","image-button-response","31","120842","0.0-31.0-0.0","A1ZE52NWZPN85P","img_art/ins/2.jpg","5","","","","","","","","","","","","","","","","","","","","","","","","",""
"1158","","image-button-response","32","122001","0.0-32.0-0.0","A1ZE52NWZPN85P","img_art/ins/2.jpg","3","","","","","","","","","","","","","","","","","","","","","","","","",""
"null","","html-keyboard-response","33","123018","0.0-33.0","A1ZE52NWZPN85P","<p style=""font-size: 48px;"">+</p>","","","","","null","allTrialResponses","1000","1","-1","img_art/ins/2.jpg","-29","nonsense","Adam,John,Ben,James,Daniel,Kyle","too much color,-18,20,20","love the texture of paint,48,160,20","meaningless painting,-45,60,20","looks too angry,-50,140,20","One of my pet peevs,-48,100,20","Idk, it is just annoying,-32,180,20","Ben","meaningless painting,-45,60,20","Kyle","Idk, it is just annoying,-32,180,20","James","looks too angry,-50,140,20","0"
"7935","","survey-text","34","130961","0.0-34.0-0.0","A1ZE52NWZPN85P","","","","{""Q0"":""I like that it is kind of snowy""}","","","","","","","","","","","","","","","","","","","","","","",""
"1594.699999988079","","image-slider-response","35","132557","0.0-35.0","A1ZE52NWZPN85P","","","","","9","","","","","","","","","","","","","","","","","","","","","",""
"4770","","image-button-response","36","137574","0.0-36.0","A1ZE52NWZPN85P","img_art/ins/3.jpg","1","","","","","","","","","","","","","","","","","","","","","","","","",""
"406","","image-button-response","37","137981","0.0-37.0","A1ZE52NWZPN85P","img_art/ins/3.jpg","1","","","","","","","","","","","","","","","","","","","","","","","","",""
"1043","","image-button-response","38","139025","0.0-38.0-0.0","A1ZE52NWZPN85P","img_art/ins/3.jpg","0","","","","","","","","","","","","","","","","","","","","","","","","",""
"2155","","image-button-response","39","141181","0.0-39.0-0.0","A1ZE52NWZPN85P","img_art/ins/3.jpg","4","","","","","","","","","","","","","","","","","","","","","","","","",""
"null","","html-keyboard-response","40","142182","0.0-40.0","A1ZE52NWZPN85P","<p style=""font-size: 48px;"">+</p>","","","","","null","allTrialResponses","1000","1","0","img_art/ins/3.jpg","9","I like that it is kind of snowy","Sam,Mike,Ben,James,Ron,Kyle","I can feel a rainy day from this painting,18,240,20","enjoy the different shades of blue,22,200,20","This thing gives me anxiety,-41,60,20","My worst nightmare,-42,140,20","It looks depressing,-26,220,20","It looks like a playground for bats,-36,180,20","Mike","enjoy the different shades of blue,22,200,20","Sam","I can feel a rainy day from this painting,18,240,20","Ron","It looks depressing,-26,220,20","0"
"3892","","image-button-response_instructions","41","146077","0.0-41.0","A1ZE52NWZPN85P","","0","instructions","","","","","","","","","","","","","","","","","","","","","","","",""
"6041","","survey-likert","42","152120","0.0-42.0-0.0","A1ZE52NWZPN85P","","","","{""Q0"":"""",""Q1"":0,""Q2"":1}","","","","","","","","","","","","","","","","","","","","","","",""
"3521","","survey-text","43","155645","0.0-43.0-0.0","A1ZE52NWZPN85P","","","","{""Q0"":""rock""}","","","","","","","","","","","","","","","","","","","","","","",""
"8531","","survey-text","44","164177","0.0-44.0-0.0","A1ZE52NWZPN85P","","","","{""Q0"":""Looks almost like an abstract bee""}","","","","","","","","","","","","","","","","","","","","","","",""
"3182.800000011921","","image-slider-response","45","167361","0.0-45.0","A1ZE52NWZPN85P","","","","","-4","","","","","","","","","","","","","","","","","","","","","",""
"4352","","image-button-response","46","172384","0.0-46.0","A1ZE52NWZPN85P","img_art/5.jpg","0","","","","","","","","","","","","","","","","","","","","","","","","",""
"968","","image-button-response","47","173353","0.0-47.0","A1ZE52NWZPN85P","img_art/5.jpg","0","","","","","","","","","","","","","","","","","","","","","","","","",""
"591","","image-button-response","48","173945","0.0-48.0-0.0","A1ZE52NWZPN85P","img_art/5.jpg","2","","","","","","","","","","","","","","","","","","","","","","","","",""
"559","","image-button-response","49","174505","0.0-49.0-0.0","A1ZE52NWZPN85P","img_art/5.jpg","3","","","","","","","","","","","","","","","","","","","","","","","","",""
"null","","html-keyboard-response","50","176012","0.0-50.0","A1ZE52NWZPN85P","<p style=""font-size: 48px;"">+</p>","","","","","null","allTrialResponses","1500","1","1","img_art/5.jpg","-4","Looks almost like an abstract bee","Taylor,Shane,Alejandro,Caleb,Tristan,Dustin","More kindergarten art class. Who buys this stuff?,-45,200,20","Seems clean and neat,11,80,20","Confused as to what the artist is attempting to do.,-50,80,20","Boring and appears low effort,-41,40,20","Nearly white background gives a lack of context. Questionable skills,-45,300,20","I don't get it at all. But, maybe it is the top portion of a piece of fruit.,-50,20,20","Taylor","More kindergarten art class. Who buys this stuff?,-45,200,20","Alejandro","Confused as to what the artist is attempting to do.,-50,80,20","Caleb","Boring and appears low effort,-41,40,20","0"
"7421","","survey-text","51","183440","0.0-51.0-0.0","A1ZE52NWZPN85P","","","","{""Q0"":""looks like an early draft""}","","","","","","","","","","","","","","","","","","","","","","",""
"2079","","image-slider-response","52","185521","0.0-52.0","A1ZE52NWZPN85P","","","","","-14","","","","","","","","","","","","","","","","","","","","","",""
"4262","","image-button-response","53","190523","0.0-53.0","A1ZE52NWZPN85P","img_art/26.jpg","0","","","","","","","","","","","","","","","","","","","","","","","","",""
"374","","image-button-response","54","190899","0.0-54.0","A1ZE52NWZPN85P","img_art/26.jpg","0","","","","","","","","","","","","","","","","","","","","","","","","",""
"2840","","image-button-response","55","193741","0.0-55.0-0.0","A1ZE52NWZPN85P","img_art/26.jpg","3","","","","","","","","","","","","","","","","","","","","","","","","",""
"1220","","image-button-response","56","194963","0.0-56.0-0.0","A1ZE52NWZPN85P","img_art/26.jpg","5","","","","","","","","","","","","","","","","","","","","","","","","",""
"null","","html-keyboard-response","57","196473","0.0-57.0","A1ZE52NWZPN85P","<p style=""font-size: 48px;"">+</p>","","","","","null","allTrialResponses","1500","1","2","img_art/26.jpg","-14","looks like an early draft","Taylor,Jared,Alejandro,Caleb,Spencer,Luis","At least it is a bit of scenery.,10,200,20","soothing and subtle,1,400,20","Do not like water colors at all,-50,80,20","Appears childish and unfinished.,-20,40,20","Really like it, a very nice neighborhood scene to me,42,120,20","I dont see any expression,-29,400,20","Taylor","At least it is a bit of scenery.,10,200,20","Caleb","Appears childish and unfinished.,-20,40,20","Luis","I dont see any expression,-29,400,20","0"
"7784","","survey-text","58","204265","0.0-58.0-0.0","A1ZE52NWZPN85P","","","","{""Q0"":""like someone on drugs painted it""}","","","","","","","","","","","","","","","","","","","","","","",""
"2154.599999964237","","image-slider-response","59","206421","0.0-59.0","A1ZE52NWZPN85P","","","","","-31","","","","","","","","","","","","","","","","","","","","","",""
"4716","","image-button-response","60","211422","0.0-60.0","A1ZE52NWZPN85P","img_art/28.jpg","1","","","","","","","","","","","","","","","","","","","","","","","","",""
"305","","image-button-response","61","211729","0.0-61.0","A1ZE52NWZPN85P","img_art/28.jpg","0","","","","","","","","","","","","","","","","","","","","","","","","",""
"956","","image-button-response","62","212687","0.0-62.0-0.0","A1ZE52NWZPN85P","img_art/28.jpg","1","","","","","","","","","","","","","","","","","","","","","","","","",""
"862","","image-button-response","63","213551","0.0-63.0-0.0","A1ZE52NWZPN85P","img_art/28.jpg","3","","","","","","","","","","","","","","","","","","","","","","","","",""
"null","","html-keyboard-response","64","214053","0.0-64.0","A1ZE52NWZPN85P","<p style=""font-size: 48px;"">+</p>","","","","","null","allTrialResponses","500","1","3","img_art/28.jpg","-31","like someone on drugs painted it","Taylor,Alexander,Vincent,Caleb,Stephen,Luis","Bug meets bug in a dark alley.,-20,200,20","Apartment throw up.,-5,120,20","This is one of my favorites. It says to me to take time for people,37,360,20","White and dark balance is way off- Seems dull.,-33,40,20","Good use of shapes.,7,140,20","Self-hate and abuse at home, unsafe and torturing,-30,400,20","Taylor","Bug meets bug in a dark alley.,-20,200,20","Alexander","Apartment throw up.,-5,120,20","Caleb","White and dark balance is way off- Seems dull.,-33,40,20","0"
"6229","","survey-text","65","220285","0.0-65.0-0.0","A1ZE52NWZPN85P","","","","{""Q0"":""just a mess of repetition""}","","","","","","","","","","","","","","","","","","","","","","",""
"1837.2999999523163","","image-slider-response","66","222123","0.0-66.0","A1ZE52NWZPN85P","","","","","-26","","","","","","","","","","","","","","","","","","","","","",""
"4256","","image-button-response","67","227126","0.0-67.0","A1ZE52NWZPN85P","img_art/12.jpg","5","","","","","","","","","","","","","","","","","","","","","","","","",""
"474","","image-button-response","68","227603","0.0-68.0","A1ZE52NWZPN85P","img_art/12.jpg","5","","","","","","","","","","","","","","","","","","","","","","","","",""
"2108","","image-button-response","69","229713","0.0-69.0-0.0","A1ZE52NWZPN85P","img_art/12.jpg","1","","","","","","","","","","","","","","","","","","","","","","","","",""
"1696","","image-button-response","70","231411","0.0-70.0-0.0","A1ZE52NWZPN85P","img_art/12.jpg","0","","","","","","","","","","","","","","","","","","","","","","","","",""
"null","","html-keyboard-response","71","231913","0.0-71.0","A1ZE52NWZPN85P","<p style=""font-size: 48px;"">+</p>","","","","","null","allTrialResponses","500","1","4","img_art/12.jpg","-26","just a mess of repetition","Taylor,Alexander,Jeffrey,Caleb,Derek,David","Just wish it was more colorful.,20,200,20","Ugly color combinations, no focus.,-25,120,20","good colours scheme; organised,17,40,20","Almost natural flowing between abstract sections.,27,40,20","I love the pattern and this looks like it took a good deal of effort,35,360,20","This doesn't invoke anything. Just a mosaic of random images.,0,340,20","David","This doesn't invoke anything. Just a mosaic of random images.,0,340,20","Alexander","Ugly color combinations, no focus.,-25,120,20","Taylor","Just wish it was more colorful.,20,200,20","0"
"8290","","survey-text","72","240206","0.0-72.0-0.0","A1ZE52NWZPN85P","","","","{""Q0"":""spooky, but I like the green""}","","","","","","","","","","","","","","","","","","","","","","",""
"1409.0999999642372","","image-slider-response","73","241617","0.0-73.0","A1ZE52NWZPN85P","","","","","4","","","","","","","","","","","","","","","","","","","","","",""
"4958","","image-button-response","74","246625","0.0-74.0","A1ZE52NWZPN85P","img_art/25.jpg","0","","","","","","","","","","","","","","","","","","","","","","","","",""
"414","","image-button-response","75","247043","0.0-75.0","A1ZE52NWZPN85P","img_art/25.jpg","0","","","","","","","","","","","","","","","","","","","","","","","","",""
"1788","","image-button-response","76","248833","0.0-76.0-0.0","A1ZE52NWZPN85P","img_art/25.jpg","4","","","","","","","","","","","","","","","","","","","","","","","","",""
"1082","","image-button-response","77","249917","0.0-77.0-0.0","A1ZE52NWZPN85P","img_art/25.jpg","5","","","","","","","","","","","","","","","","","","","","","","","","",""
"null","","html-keyboard-response","78","250419","0.0-78.0","A1ZE52NWZPN85P","<p style=""font-size: 48px;"">+</p>","","","","","null","allTrialResponses","500","1","5","img_art/25.jpg","4","spooky, but I like the green","Taylor,Alexander,Angel,Lucas,Bryce,David","Wish I was that thin.,-5,200,20","Ancient gods above you.,20,120,20","I feel uneasy. Like watching someone powerful ready to perform a ritual, but I don't know their intentions.,-10,180,20","Well-designed, interesting.,30,380,20","I LOVE fhe scary skeleton.,28,20,20","Depicts something negative, such as ritual. I'm not a fan.,-10,340,20","Taylor","Wish I was that thin.,-5,200,20","Bryce","I LOVE fhe scary skeleton.,28,20,20","David","Depicts something negative, such as ritual. I'm not a fan.,-10,340,20","0"
"2731","","survey-text","79","253156","0.0-79.0-0.0","A1ZE52NWZPN85P","","","","{""Q0"":""sky""}","","","","","","","","","","","","","","","","","","","","","","",""
"9082","","survey-text","80","262238","0.0-80.0-0.0","A1ZE52NWZPN85P","","","","{""Q0"":""looks like a kid ruined a painting""}","","","","","","","","","","","","","","","","","","","","","","",""
"2000.699999988079","","image-slider-response","81","264241","0.0-81.0","A1ZE52NWZPN85P","","","","","-35","","","","","","","","","","","","","","","","","","","","","",""
"4784","","image-button-response","82","269254","0.0-82.0","A1ZE52NWZPN85P","img_art/30.jpg","0","","","","","","","","","","","","","","","","","","","","","","","","",""
"415","","image-button-response","83","269672","0.0-83.0","A1ZE52NWZPN85P","img_art/30.jpg","0","","","","","","","","","","","","","","","","","","","","","","","","",""
"1003","","image-button-response","84","270677","0.0-84.0-0.0","A1ZE52NWZPN85P","img_art/30.jpg","2","","","","","","","","","","","","","","","","","","","","","","","","",""
"3798","","image-button-response","85","274477","0.0-85.0-0.0","A1ZE52NWZPN85P","img_art/30.jpg","1","","","","","","","","","","","","","","","","","","","","","","","","",""
"null","","html-keyboard-response","86","275979","0.0-86.0","A1ZE52NWZPN85P","<p style=""font-size: 48px;"">+</p>","","","","","null","allTrialResponses","1500","1","6","img_art/30.jpg","-35","looks like a kid ruined a painting","Taylor,Jacob,Victor,Luke,Bryce,David","My kid drew this same picture at daycare!!!,5,200,20","Looks cool , but no meaning,1,340,20","I just don't see the point of this piece,-11,340,20","the lines and colors look purposeful,18,20,20","Very colorful! Wow!,22,20,20","I like how the strokes invokes a sense of fluidity.,20,340,20","Taylor","My kid drew this same picture at daycare!!!,5,200,20","Victor","I just don't see the point of this piece,-11,340,20","Jacob","Looks cool , but no meaning,1,340,20","0"
"8069","","survey-text","87","284050","0.0-87.0-0.0","A1ZE52NWZPN85P","","","","{""Q0"":""like a waterfall or something""}","","","","","","","","","","","","","","","","","","","","","","",""
"1743.5999999642372","","image-slider-response","88","285795","0.0-88.0","A1ZE52NWZPN85P","","","","","5","","","","","","","","","","","","","","","","","","","","","",""
"4528","","image-button-response","89","290804","0.0-89.0","A1ZE52NWZPN85P","img_art/24.jpg","0","","","","","","","","","","","","","","","","","","","","","","","","",""
"367","","image-button-response","90","291173","0.0-90.0","A1ZE52NWZPN85P","img_art/24.jpg","0","","","","","","","","","","","","","","","","","","","","","","","","",""
"2437","","image-button-response","91","293611","0.0-91.0-0.0","A1ZE52NWZPN85P","img_art/24.jpg","4","","","","","","","","","","","","","","","","","","","","","","","","",""
"2092","","image-button-response","92","295705","0.0-92.0-0.0","A1ZE52NWZPN85P","img_art/24.jpg","2","","","","","","","","","","","","","","","","","","","","","","","","",""
"null","","html-keyboard-response","93","297206","0.0-93.0","A1ZE52NWZPN85P","<p style=""font-size: 48px;"">+</p>","","","","","null","allTrialResponses","1500","1","7","img_art/24.jpg","5","like a waterfall or something","Taylor,Jacob,Victor,Marcus,Austin,Adrian","I actually like this one. You can tell what it is.,25,200,20","Vibrant, beautiful depiction.,50,340,20","I don't even know. It's just kind of meh,1,340,20","Love the colors in this work, and the sense of motion in the water,36,60,20","Evokes pleasant feelings,50,240,20","I like the colors and see a stream in a wooded setting. Makes me feel calm and cheerful.,27,60,20","Taylor","I actually like this one. You can tell what it is.,25,200,20","Austin","Evokes pleasant feelings,50,240,20","Victor","I don't even know. It's just kind of meh,1,340,20","0"
"11487","","survey-text","94","308697","0.0-94.0-0.0","A1ZE52NWZPN85P","","","","{""Q0"":""a decent start but it doesn't' look finished""}","","","","","","","","","","","","","","","","","","","","","","",""
"1360.9000000357628","","image-slider-response","95","310059","0.0-95.0","A1ZE52NWZPN85P","","","","","-13","","","","","","","","","","","","","","","","","","","","","",""
"4110","","image-button-response","96","315061","0.0-96.0","A1ZE52NWZPN85P","img_art/14.jpg","0","","","","","","","","","","","","","","","","","","","","","","","","",""
"412","","image-button-response","97","315477","0.0-97.0","A1ZE52NWZPN85P","img_art/14.jpg","0","","","","","","","","","","","","","","","","","","","","","","","","",""
"335","","image-button-response","98","315813","0.0-98.0-0.0","A1ZE52NWZPN85P","img_art/14.jpg","1","","","","","","","","","","","","","","","","","","","","","","","","",""
"3360","","image-button-response","99","319175","0.0-99.0-0.0","A1ZE52NWZPN85P","img_art/14.jpg","5","","","","","","","","","","","","","","","","","","","","","","","","",""
"null","","html-keyboard-response","100","320677","0.0-100.0","A1ZE52NWZPN85P","<p style=""font-size: 48px;"">+</p>","","","","","null","allTrialResponses","1500","1","8","img_art/14.jpg","-13","a decent start but it doesn't' look finished","Taylor,Alex,Victor,Isaac,Austin,Zachary","Are they blowing up a tree?,-5,200,20","Too abstract with annoying little details. Just draw a regular tree already,-6,100,20","Meh. Pleasant to look at. Colors are nice,6,340,20","The colors are pleasing.,29,280,20","Love the abstractness of this painting,39,240,20","Did not evoke much feeling except confusion. I am not sure what to make of this one.,-20,400,20","Taylor","Are they blowing up a tree?,-5,200,20","Alex","Too abstract with annoying little details. Just draw a regular tree already,-6,100,20","Zachary","Did not evoke much feeling except confusion. I am not sure what to make of this one.,-20,400,20","0"
"9023","","survey-text","101","329708","0.0-101.0-0.0","A1ZE52NWZPN85P","","","","{""Q0"":""This just looks messy""}","","","","","","","","","","","","","","","","","","","","","","",""
"1866.800000011921","","image-slider-response","102","331577","0.0-102.0","A1ZE52NWZPN85P","","","","","-17","","","","","","","","","","","","","","","","","","","","","",""
"null","","image-button-response","103","336579","0.0-103.0","A1ZE52NWZPN85P","img_art/27.jpg","null","","","","","","","","","","","","","","","","","","","","","","","","",""
"711","","image-button-response","104","337291","0.0-104.0","A1ZE52NWZPN85P","img_art/27.jpg","0","","","","","","","","","","","","","","","","","","","","","","","","",""
"1252","","image-button-response","105","338545","0.0-105.0-0.0","A1ZE52NWZPN85P","img_art/27.jpg","2","","","","","","","","","","","","","","","","","","","","","","","","",""
"2506","","image-button-response","106","341053","0.0-106.0-0.0","A1ZE52NWZPN85P","img_art/27.jpg","4","","","","","","","","","","","","","","","","","","","","","","","","",""
"null","","html-keyboard-response","107","341570","0.0-107.0","A1ZE52NWZPN85P","<p style=""font-size: 48px;"">+</p>","","","","","null","allTrialResponses","500","1","9","img_art/27.jpg","-17","This just looks messy","Taylor,Alex,Paul,Corey,Noah,Zachary","Looks like a child added his own interpretation with a black marker.,-5,200,20","very abstract, I don't understand it, but I like the bright, cheerful colors,14,100,20","It tries to remind me of the autumn season but it's grey and looks dirty,-5,300,20","this is ugly and does nothing for me,-35,260,20","I generally enjoy the style, but I'm finding the green lines grating,-9,260,20","Color story is boring in nature, and I feel nothing but boredom from this piece.,-20,400,20","Taylor","Looks like a child added his own interpretation with a black marker.,-5,200,20","Paul","It tries to remind me of the autumn season but it's grey and looks dirty,-5,300,20","Noah","I generally enjoy the style, but I'm finding the green lines grating,-9,260,20","0"
"9774","","survey-text","108","351351","0.0-108.0-0.0","A1ZE52NWZPN85P","","","","{""Q0"":""reminds me of a bad dream""}","","","","","","","","","","","","","","","","","","","","","","",""
"2574.599999964237","","image-slider-response","109","353927","0.0-109.0","A1ZE52NWZPN85P","","","","","-21","","","","","","","","","","","","","","","","","","","","","",""
"null","","image-button-response","110","358940","0.0-110.0","A1ZE52NWZPN85P","img_art/9.jpg","null","","","","","","","","","","","","","","","","","","","","","","","","",""
"180411","","image-button-response","111","539353","0.0-111.0","A1ZE52NWZPN85P","img_art/9.jpg","0","","","","","","","","","","","","","","","","","","","","","","","","",""
"1259","","image-button-response","112","540613","0.0-112.0-0.0","A1ZE52NWZPN85P","img_art/9.jpg","4","","","","","","","","","","","","","","","","","","","","","","","","",""
"566","","image-button-response","113","541181","0.0-113.0-0.0","A1ZE52NWZPN85P","img_art/9.jpg","5","","","","","","","","","","","","","","","","","","","","","","","","",""
"null","","html-keyboard-response","114","542192","0.0-114.0","A1ZE52NWZPN85P","<p style=""font-size: 48px;"">+</p>","","","","","null","allTrialResponses","1000","1","10","img_art/9.jpg","-21","reminds me of a bad dream","Taylor,Brett,Paul,Edward,Noah,Dakota","Caveman. Not for my walls.,-5,200,20","Peaceful dreaming,40,360,20","I like the greens and blues around the sides and the person reclining in the center makes me feel relaxed,24,300,20","The colors remind me of peacocks,24,60,20","while I don't dispute the art, it feels childish,-20,260,20","autopsy, morgue, dead corpses - don't like the flesh tones,-43,280,20","Taylor","Caveman. Not for my walls.,-5,200,20","Noah","while I don't dispute the art, it feels childish,-20,260,20","Dakota","autopsy, morgue, dead corpses - don't like the flesh tones,-43,280,20","0"
"11325","","survey-text","115","553529","0.0-115.0-0.0","A1ZE52NWZPN85P","","","","{""Q0"":""our""}","","","","","","","","","","","","","","","","","","","","","","",""
"10931","","survey-text","116","564461","0.0-116.0-0.0","A1ZE52NWZPN85P","","","","{""Q0"":""I feel like I can at least see something here""}","","","","","","","","","","","","","","","","","","","","","","",""
"1484.7999999523163","","image-slider-response","117","565947","0.0-117.0","A1ZE52NWZPN85P","","","","","8","","","","","","","","","","","","","","","","","","","","","",""
"null","","image-button-response","118","570960","0.0-118.0","A1ZE52NWZPN85P","img_art/20.jpg","null","","","","","","","","","","","","","","","","","","","","","","","","",""
"2997","","image-button-response","119","573959","0.0-119.0","A1ZE52NWZPN85P","img_art/20.jpg","0","","","","","","","","","","","","","","","","","","","","","","","","",""
"1993","","image-button-response","120","575953","0.0-120.0-0.0","A1ZE52NWZPN85P","img_art/20.jpg","2","","","","","","","","","","","","","","","","","","","","","","","","",""
"1734","","image-button-response","121","577690","0.0-121.0-0.0","A1ZE52NWZPN85P","img_art/20.jpg","5","","","","","","","","","","","","","","","","","","","","","","","","",""
"null","","html-keyboard-response","122","578692","0.0-122.0","A1ZE52NWZPN85P","<p style=""font-size: 48px;"">+</p>","","","","","null","allTrialResponses","1000","1","11","img_art/20.jpg","8","I feel like I can at least see something here","Taylor,Isaiah,Malik,Evan,Noah,Dakota","Not bad for all the southwestern people.,15,200,20","I feel powerful, like I am looking out a window at this machine, that I am in charge.,17,300,20","The artist had very strong feelings, bold colors,28,40,20","I feel intrigued and impressed,34,140,20","just feels generic,-18,260,20","very fluid and mysterious,37,280,20","Taylor","Not bad for all the southwestern people.,15,200,20","Malik","The artist had very strong feelings, bold colors,28,40,20","Dakota","very fluid and mysterious,37,280,20","0"
"9300","","survey-text","123","587997","0.0-123.0-0.0","A1ZE52NWZPN85P","","","","{""Q0"":""looks pretty but unfinished""}","","","","","","","","","","","","","","","","","","","","","","",""
"2989.099999964237","","image-slider-response","124","590987","0.0-124.0","A1ZE52NWZPN85P","","","","","-8","","","","","","","","","","","","","","","","","","","","","",""
"4886","","image-button-response","125","596003","0.0-125.0","A1ZE52NWZPN85P","img_art/17.jpg","0","","","","","","","","","","","","","","","","","","","","","","","","",""
"602","","image-button-response","126","596607","0.0-126.0","A1ZE52NWZPN85P","img_art/17.jpg","0","","","","","","","","","","","","","","","","","","","","","","","","",""
"614","","image-button-response","127","597223","0.0-127.0-0.0","A1ZE52NWZPN85P","img_art/17.jpg","5","","","","","","","","","","","","","","","","","","","","","","","","",""
"1960","","image-button-response","128","599185","0.0-128.0-0.0","A1ZE52NWZPN85P","img_art/17.jpg","1","","","","","","","","","","","","","","","","","","","","","","","","",""
"null","","html-keyboard-response","129","599687","0.0-129.0","A1ZE52NWZPN85P","<p style=""font-size: 48px;"">+</p>","","","","","null","allTrialResponses","500","1","12","img_art/17.jpg","-8","looks pretty but unfinished","Taylor,Kyle,Malik,Garrett,Jonathan,Dakota","Somewhat should trim the tree branches at the shopping mall.,10,200,20","I like the use of color in this and how you can actually see shapes form. Seems thoughtful,22,340,20","I love vague, dreamlike styles,50,40,20","I like the way the colors were used behind the tree. Makes the image colorful and interesting.,30,180,20","Feels nostalgic somehow,31,140,20","home - reminds me of fond memories of the Barnes Museum courtyard (looks just like it),30,280,20","Taylor","Somewhat should trim the tree branches at the shopping mall.,10,200,20","Dakota","home - reminds me of fond memories of the Barnes Museum courtyard (looks just like it),30,280,20","Kyle","I like the use of color in this and how you can actually see shapes form. Seems thoughtful,22,340,20","0"
"8603","","survey-text","130","608292","0.0-130.0-0.0","A1ZE52NWZPN85P","","","","{""Q0"":""Reminds me of an ash tray""}","","","","","","","","","","","","","","","","","","","","","","",""
"1800.6000000238419","","image-slider-response","131","610094","0.0-131.0","A1ZE52NWZPN85P","","","","","-25","","","","","","","","","","","","","","","","","","","","","",""
"null","","image-button-response","132","615098","0.0-132.0","A1ZE52NWZPN85P","img_art/15.jpg","null","","","","","","","","","","","","","","","","","","","","","","","","",""
"606","","image-button-response","133","615707","0.0-133.0","A1ZE52NWZPN85P","img_art/15.jpg","0","","","","","","","","","","","","","","","","","","","","","","","","",""
"464","","image-button-response","134","616173","0.0-134.0-0.0","A1ZE52NWZPN85P","img_art/15.jpg","2","","","","","","","","","","","","","","","","","","","","","","","","",""
"934","","image-button-response","135","617109","0.0-135.0-0.0","A1ZE52NWZPN85P","img_art/15.jpg","0","","","","","","","","","","","","","","","","","","","","","","","","",""
"1681","","image-button-response","136","621733","0.0-135.1-0.1","A1ZE52NWZPN85P","img_art/15.jpg","4","","","","","","","","","","","","","","","","","","","","","","","","",""
"null","","html-keyboard-response","137","623235","0.0-136.0","A1ZE52NWZPN85P","<p style=""font-size: 48px;"">+</p>","","","","","null","allTrialResponses","1500","1","13","img_art/15.jpg","-25","Reminds me of an ash tray","Taylor,Kyle,Logan,Ryan,Chase,Dakota","Getting better.,10,200,20","I like it as the colors complement each other well,21,340,20","I couldn't tell you why but I'm really into this,39,360,20","It triggers my tripophobia,-50,380,20","I don't like how the black dots are aligned.,-20,120,20","abrasive, rough, uneven,-31,280,20","Taylor","Getting better.,10,200,20","Logan","I couldn't tell you why but I'm really into this,39,360,20","Chase","I don't like how the black dots are aligned.,-20,120,20","2"
"8913","","survey-text","138","632159","0.0-137.0-0.0","A1ZE52NWZPN85P","","","","{""Q0"":""lots going on - too much.""}","","","","","","","","","","","","","","","","","","","","","","",""
"2690.100000023842","","image-slider-response","139","634850","0.0-138.0","A1ZE52NWZPN85P","","","","","-3","","","","","","","","","","","","","","","","","","","","","",""
"3691","","image-button-response","140","639861","0.0-139.0","A1ZE52NWZPN85P","img_art/19.jpg","0","","","","","","","","","","","","","","","","","","","","","","","","",""
"376","","image-button-response","141","640239","0.0-140.0","A1ZE52NWZPN85P","img_art/19.jpg","0","","","","","","","","","","","","","","","","","","","","","","","","",""
"980","","image-button-response","142","641221","0.0-141.0-0.0","A1ZE52NWZPN85P","img_art/19.jpg","1","","","","","","","","","","","","","","","","","","","","","","","","",""
"1454","","image-button-response","143","642677","0.0-142.0-0.0","A1ZE52NWZPN85P","img_art/19.jpg","4","","","","","","","","","","","","","","","","","","","","","","","","",""
"null","","html-keyboard-response","144","643691","0.0-143.0","A1ZE52NWZPN85P","<p style=""font-size: 48px;"">+</p>","","","","","null","allTrialResponses","1000","1","14","img_art/19.jpg","-3","lots going on - too much.","Taylor,Michael,Logan,Patrick,Chase,Kenneth","Looks like a homeless man and this painting should be too.,-5,200,20","Loks like an amature did it, Not pleasing.,-45,140,20","this flow I just really like how everything blends but also doesn't,45,360,20","I like the vibrant color blocks,13,280,20","This is just a mess.,-30,120,20","TOo much brown.,-24,300,20","Taylor","Looks like a homeless man and this painting should be too.,-5,200,20","Michael","Loks like an amature did it, Not pleasing.,-45,140,20","Chase","This is just a mess.,-30,120,20","2"
"17690","","survey-text","145","661385","0.0-144.0-0.0","A1ZE52NWZPN85P","","","","{""Q0"":""reminds of me those paint samples you get""}","","","","","","","","","","","","","","","","","","","","","","",""
"2062","","image-slider-response","146","663449","0.0-145.0","A1ZE52NWZPN85P","","","","","3","","","","","","","","","","","","","","","","","","","","","",""
"null","","image-button-response","147","668465","0.0-146.0","A1ZE52NWZPN85P","img_art/8.jpg","null","","","","","","","","","","","","","","","","","","","","","","","","",""
"952","","image-button-response","148","669419","0.0-147.0","A1ZE52NWZPN85P","img_art/8.jpg","0","","","","","","","","","","","","","","","","","","","","","","","","",""
"427","","image-button-response","149","669847","0.0-148.0-0.0","A1ZE52NWZPN85P","img_art/8.jpg","1","","","","","","","","","","","","","","","","","","","","","","","","",""
"365","","image-button-response","150","670213","0.0-149.0-0.0","A1ZE52NWZPN85P","img_art/8.jpg","2","","","","","","","","","","","","","","","","","","","","","","","","",""
"null","","html-keyboard-response","151","671715","0.0-150.0","A1ZE52NWZPN85P","<p style=""font-size: 48px;"">+</p>","","","","","null","allTrialResponses","1500","1","15","img_art/8.jpg","3","reminds of me those paint samples you get","Taylor,Michael,Scott,Nathan,Chase,Jesse","And I'll huff and I'll puff and I'll blow your town down!!,20,200,20","It is interesting to look at. Abstract but ordered.,9,140,20","the face is creepy,-49,20,20","Enjoy this, it looks like a rushing water pool, surrounded by mountains and buildings, hiding details such as faces.,30,200,20","This is kind of neat. I really like how things are oriented and the shapes used.,18,120,20","I like the definition and the strong lines. It makes me think of someone watching over the world,24,80,20","Taylor","And I'll huff and I'll puff and I'll blow your town down!!,20,200,20","Michael","It is interesting to look at. Abstract but ordered.,9,140,20","Scott","the face is creepy,-49,20,20","2"
"4176","","survey-text","152","675897","0.0-151.0-0.0","A1ZE52NWZPN85P","","","","{""Q0"":""course""}","","","","","","","","","","","","","","","","","","","","","","",""
"8779","","survey-text","153","684677","0.0-152.0-0.0","A1ZE52NWZPN85P","","","","{""Q0"":""he forgot to paint the birds head""}","","","","","","","","","","","","","","","","","","","","","","",""
"1470.5","","image-slider-response","154","686149","0.0-153.0","A1ZE52NWZPN85P","","","","","-21","","","","","","","","","","","","","","","","","","","","","",""
"null","","image-button-response","155","691163","0.0-154.0","A1ZE52NWZPN85P","img_art/6.jpg","null","","","","","","","","","","","","","","","","","","","","","","","","",""
"143","","image-button-response","156","691309","0.0-155.0","A1ZE52NWZPN85P","img_art/6.jpg","0","","","","","","","","","","","","","","","","","","","","","","","","",""
"465","","image-button-response","157","691775","0.0-156.0-0.0","A1ZE52NWZPN85P","img_art/6.jpg","1","","","","","","","","","","","","","","","","","","","","","","","","",""
"516","","image-button-response","158","692292","0.0-157.0-0.0","A1ZE52NWZPN85P","img_art/6.jpg","4","","","","","","","","","","","","","","","","","","","","","","","","",""
"null","","html-keyboard-response","159","692794","0.0-158.0","A1ZE52NWZPN85P","<p style=""font-size: 48px;"">+</p>","","","","","null","allTrialResponses","500","1","16","img_art/6.jpg","-21","he forgot to paint the birds head","Taylor,Michael,Scott,Andrew,Adam,Brendan","A crow on one leg?,-10,200,20","Looks like a kid created it.,-50,140,20","reminds me of a bird,31,20,20","Reminds me of my friend's bird,21,160,20","Simple desert scene.,5,40,20","just an another tree on a desert?,9,340,20","Taylor","A crow on one leg?,-10,200,20","Michael","Looks like a kid created it.,-50,140,20","Adam","Simple desert scene.,5,40,20","2"
"10405","","survey-text","160","703203","0.0-159.0-0.0","A1ZE52NWZPN85P","","","","{""Q0"":""man these pretzels are making me thirsty""}","","","","","","","","","","","","","","","","","","","","","","",""
"1952.800000011921","","image-slider-response","161","705157","0.0-160.0","A1ZE52NWZPN85P","","","","","-29","","","","","","","","","","","","","","","","","","","","","",""
"4692","","image-button-response","162","710159","0.0-161.0","A1ZE52NWZPN85P","img_art/4.jpg","0","","","","","","","","","","","","","","","","","","","","","","","","",""
"460","","image-button-response","163","710621","0.0-162.0","A1ZE52NWZPN85P","img_art/4.jpg","0","","","","","","","","","","","","","","","","","","","","","","","","",""
"287","","image-button-response","164","710909","0.0-163.0-0.0","A1ZE52NWZPN85P","img_art/4.jpg","1","","","","","","","","","","","","","","","","","","","","","","","","",""
"248","","image-button-response","165","711159","0.0-164.0-0.0","A1ZE52NWZPN85P","img_art/4.jpg","2","","","","","","","","","","","","","","","","","","","","","","","","",""
"null","","html-keyboard-response","166","712661","0.0-165.0","A1ZE52NWZPN85P","<p style=""font-size: 48px;"">+</p>","","","","","null","allTrialResponses","1500","1","17","img_art/4.jpg","-29","man these pretzels are making me thirsty","Taylor,Michael,Kevin,Connor,Adam,Hunter","They give out trophies now for fighting with brass knuckles?,-20,200,20","Looks like a child did it.,-42,140,20","A leaning trophy,-9,320,20","Seems simplistic,-8,240,20","McDonald's French Fries.,-10,40,20","appealing warm palette,6,240,20","Taylor","They give out trophies now for fighting with brass knuckles?,-20,200,20","Michael","Looks like a child did it.,-42,140,20","Kevin","A leaning trophy,-9,320,20","2"
"9859","","survey-text","167","722531","0.0-166.0-0.0","A1ZE52NWZPN85P","","","","{""Q0"":""like a fever dream at the circus""}","","","","","","","","","","","","","","","","","","","","","","",""
"1486.4000000357628","","image-slider-response","168","724019","0.0-167.0","A1ZE52NWZPN85P","","","","","-10","","","","","","","","","","","","","","","","","","","","","",""
"4310","","image-button-response","169","729022","0.0-168.0","A1ZE52NWZPN85P","img_art/23.jpg","0","","","","","","","","","","","","","","","","","","","","","","","","",""
"349","","image-button-response","170","729375","0.0-169.0","A1ZE52NWZPN85P","img_art/23.jpg","0","","","","","","","","","","","","","","","","","","","","","","","","",""
"301","","image-button-response","171","729677","0.0-170.0-0.0","A1ZE52NWZPN85P","img_art/23.jpg","1","","","","","","","","","","","","","","","","","","","","","","","","",""
"458","","image-button-response","172","730137","0.0-171.0-0.0","A1ZE52NWZPN85P","img_art/23.jpg","4","","","","","","","","","","","","","","","","","","","","","","","","",""
"null","","html-keyboard-response","173","731639","0.0-172.0","A1ZE52NWZPN85P","<p style=""font-size: 48px;"">+</p>","","","","","null","allTrialResponses","1500","1","18","img_art/23.jpg","-10","like a fever dream at the circus","Taylor,Michael,Kevin,Matthew,Peter,Colton","SOME thought was put into this one.,5,200,20","I don't get it.,-40,140,20","Looks like fish fossils,12,320,20","A line dance, it's really strinkingly beautiful.,50,120,20","Reminds me of disco/70's, not my favorite design,-12,320,20","the pattern is pleasing to the eye,28,220,20","Taylor","SOME thought was put into this one.,5,200,20","Michael","I don't get it.,-40,140,20","Peter","Reminds me of disco/70's, not my favorite design,-12,320,20","2"
"10038","","survey-text","174","741681","0.0-173.0-0.0","A1ZE52NWZPN85P","","","","{""Q0"":""I like the colors but not much else""}","","","","","","","","","","","","","","","","","","","","","","",""
"1516.300000011921","","image-slider-response","175","743198","0.0-174.0","A1ZE52NWZPN85P","","","","","3","","","","","","","","","","","","","","","","","","","","","",""
"null","","image-button-response","176","748213","0.0-175.0","A1ZE52NWZPN85P","img_art/22.jpg","null","","","","","","","","","","","","","","","","","","","","","","","","",""
"727","","image-button-response","177","748943","0.0-176.0","A1ZE52NWZPN85P","img_art/22.jpg","0","","","","","","","","","","","","","","","","","","","","","","","","",""
"373","","image-button-response","178","749317","0.0-177.0-0.0","A1ZE52NWZPN85P","img_art/22.jpg","1","","","","","","","","","","","","","","","","","","","","","","","","",""
"862","","image-button-response","179","750181","0.0-178.0-0.0","A1ZE52NWZPN85P","img_art/22.jpg","4","","","","","","","","","","","","","","","","","","","","","","","","",""
"null","","html-keyboard-response","180","751183","0.0-179.0","A1ZE52NWZPN85P","<p style=""font-size: 48px;"">+</p>","","","","","null","allTrialResponses","1000","1","19","img_art/22.jpg","3","I like the colors but not much else","Taylor,Michael,Samuel,Mitchell,Peter,Ian","Looks like the kind of art I would see at the doctor's office.,-5,200,20","There is some flow and organization.,10,140,20","ball of light in 90s,8,400,20","Scary monsters lurking causing confusion.,-40,180,20","Just neutral no feelings,2,320,20","Its very warm, it reminds of someone not liking their painting so they destoryed it,26,260,20","Taylor","Looks like the kind of art I would see at the doctor's office.,-5,200,20","Michael","There is some flow and organization.,10,140,20","Peter","Just neutral no feelings,2,320,20","2"
"11836","","survey-text","181","763024","0.0-180.0-0.0","A1ZE52NWZPN85P","","","","{""Q0"":""a guitar or a race track?""}","","","","","","","","","","","","","","","","","","","","","","",""
"1960.800000011921","","image-slider-response","182","764987","0.0-181.0","A1ZE52NWZPN85P","","","","","-13","","","","","","","","","","","","","","","","","","","","","",""
"null","","image-button-response","183","769999","0.0-182.0","A1ZE52NWZPN85P","img_art/10.jpg","null","","","","","","","","","","","","","","","","","","","","","","","","",""
"435","","image-button-response","184","770437","0.0-183.0","A1ZE52NWZPN85P","img_art/10.jpg","0","","","","","","","","","","","","","","","","","","","","","","","","",""
"434","","image-button-response","185","770873","0.0-184.0-0.0","A1ZE52NWZPN85P","img_art/10.jpg","1","","","","","","","","","","","","","","","","","","","","","","","","",""
"325","","image-button-response","186","771200","0.0-185.0-0.0","A1ZE52NWZPN85P","img_art/10.jpg","2","","","","","","","","","","","","","","","","","","","","","","","","",""
"null","","html-keyboard-response","187","771702","0.0-186.0","A1ZE52NWZPN85P","<p style=""font-size: 48px;"">+</p>","","","","","null","allTrialResponses","500","1","20","img_art/10.jpg","-13","a guitar or a race track?","Taylor,Michael,Jordan,Dylan,Peter,Sean","The roller coaster from hell !!!,-10,200,20","Ugly and low skill. I wouldn't want it.,-50,140,20","Looks gross and messy,-39,160,20","The longer I looked at this, the more I liked it,33,40,20","I don't hate but don't like it because it looks like a oil slick,2,320,20","I see a rollercoaster,23,40,20","Taylor","The roller coaster from hell !!!,-10,200,20","Michael","Ugly and low skill. I wouldn't want it.,-50,140,20","Jordan","Looks gross and messy,-39,160,20","2"
"2077","","survey-text","188","773785","0.0-187.0-0.0","A1ZE52NWZPN85P","","","","{""Q0"":""we""}","","","","","","","","","","","","","","","","","","","","","","",""
"12142","","survey-text","189","785929","0.0-188.0-0.0","A1ZE52NWZPN85P","","","","{""Q0"":""looks like my bathroom floor after remodelling""}","","","","","","","","","","","","","","","","","","","","","","",""
"1687","","image-slider-response","190","787617","0.0-189.0","A1ZE52NWZPN85P","","","","","-27","","","","","","","","","","","","","","","","","","","","","",""
"null","","image-button-response","191","792623","0.0-190.0","A1ZE52NWZPN85P","img_art/29.jpg","null","","","","","","","","","","","","","","","","","","","","","","","","",""
"831","","image-button-response","192","793455","0.0-191.0","A1ZE52NWZPN85P","img_art/29.jpg","0","","","","","","","","","","","","","","","","","","","","","","","","",""
"504","","image-button-response","193","793961","0.0-192.0-0.0","A1ZE52NWZPN85P","img_art/29.jpg","1","","","","","","","","","","","","","","","","","","","","","","","","",""
"528","","image-button-response","194","794491","0.0-193.0-0.0","A1ZE52NWZPN85P","img_art/29.jpg","2","","","","","","","","","","","","","","","","","","","","","","","","",""
"null","","html-keyboard-response","195","794993","0.0-194.0","A1ZE52NWZPN85P","<p style=""font-size: 48px;"">+</p>","","","","","null","allTrialResponses","500","1","21","img_art/29.jpg","-27","looks like my bathroom floor after remodelling","Taylor,Michael,Jordan,Ethan,Joshua,Juan","I would give up and give it a red X too.,-5,200,20","Looks literally like garbage.,-45,140,20","Messy and disorganized, to odark,-31,160,20","I love the angry emotion to this art. I feel very drawn to it.,18,120,20","I don't like the red X through it.,-20,240,20","I hate the red x over everything, hate the black hate how hopeless this is.,-50,260,20","Taylor","I would give up and give it a red X too.,-5,200,20","Michael","Looks literally like garbage.,-45,140,20","Jordan","Messy and disorganized, to odark,-31,160,20","2"
"14050","","survey-text","196","809047","0.0-195.0-0.0","A1ZE52NWZPN85P","","","","{""Q0"":""this guy gotta get a paint guard""}","","","","","","","","","","","","","","","","","","","","","","",""
"1944.5","","image-slider-response","197","810993","0.0-196.0","A1ZE52NWZPN85P","","","","","-32","","","","","","","","","","","","","","","","","","","","","",""
"null","","image-button-response","198","816009","0.0-197.0","A1ZE52NWZPN85P","img_art/13.jpg","null","","","","","","","","","","","","","","","","","","","","","","","","",""
"1404","","image-button-response","199","817415","0.0-198.0","A1ZE52NWZPN85P","img_art/13.jpg","3","","","","","","","","","","","","","","","","","","","","","","","","",""
"1314","","image-button-response","200","818731","0.0-199.0-0.0","A1ZE52NWZPN85P","img_art/13.jpg","2","","","","","","","","","","","","","","","","","","","","","","","","",""
"332","","image-button-response","201","819065","0.0-200.0-0.0","A1ZE52NWZPN85P","img_art/13.jpg","0","","","","","","","","","","","","","","","","","","","","","","","","",""
"null","","html-keyboard-response","202","820567","0.0-201.0","A1ZE52NWZPN85P","<p style=""font-size: 48px;"">+</p>","","","","","null","allTrialResponses","1500","1","22","img_art/13.jpg","-32","this guy gotta get a paint guard","Taylor,Michael,Jordan,Mark,Tanner,Travis","Simple and in my favorite color. I actually like this one.,40,200,20","I don't car for it but it does seem organized and like it took considereably more skill that others.,9,140,20","This is easy to look at,46,160,20","Raindrops on a window. Makes me feel like traveling.,31,80,20","happy, serenity,30,180,20","I love the colors and the texture,37,260,20","Mark","Raindrops on a window. Makes me feel like traveling.,31,80,20","Jordan","This is easy to look at,46,160,20","Taylor","Simple and in my favorite color. I actually like this one.,40,200,20","2"
"9563","","survey-text","203","830135","0.0-202.0-0.0","A1ZE52NWZPN85P","","","","{""Q0"":""Feels like a video game concept art""}","","","","","","","","","","","","","","","","","","","","","","",""
"1936.199999988079","","image-slider-response","204","832072","0.0-203.0","A1ZE52NWZPN85P","","","","","3","","","","","","","","","","","","","","","","","","","","","",""
"null","","image-button-response","205","837084","0.0-204.0","A1ZE52NWZPN85P","img_art/21.jpg","null","","","","","","","","","","","","","","","","","","","","","","","","",""
"473","","image-button-response","206","837559","0.0-205.0","A1ZE52NWZPN85P","img_art/21.jpg","0","","","","","","","","","","","","","","","","","","","","","","","","",""
"491","","image-button-response","207","838051","0.0-206.0-0.0","A1ZE52NWZPN85P","img_art/21.jpg","1","","","","","","","","","","","","","","","","","","","","","","","","",""
"2028","","image-button-response","208","840081","0.0-207.0-0.0","A1ZE52NWZPN85P","img_art/21.jpg","5","","","","","","","","","","","","","","","","","","","","","","","","",""
"null","","html-keyboard-response","209","841588","0.0-208.0","A1ZE52NWZPN85P","<p style=""font-size: 48px;"">+</p>","","","","","null","allTrialResponses","1500","1","23","img_art/21.jpg","3","Feels like a video game concept art","Taylor,Jake,Jordan,Mark,Christian,Devon","Remove the rocks(?) on the lower right.,5,200,20","It looks epic and is nice to look at in terms of colors/style.,23,360,20","Beautiful colors, remind me of my yoga studio,50,160,20","It feels like a day at sea but the pink is slightly jarring and holding my eye.,26,80,20","stormy with gold lining,0,140,20","waterpaint is attractive,13,400,20","Taylor","Remove the rocks(?) on the lower right.,5,200,20","Jake","It looks epic and is nice to look at in terms of colors/style.,23,360,20","Devon","waterpaint is attractive,13,400,20","2"
"9946","","survey-text","210","851541","0.0-209.0-0.0","A1ZE52NWZPN85P","","","","{""Q0"":""reminds me of war, but with animals.""}","","","","","","","","","","","","","","","","","","","","","","",""
"1648.6000000238419","","image-slider-response","211","853191","0.0-210.0","A1ZE52NWZPN85P","","","","","-12","","","","","","","","","","","","","","","","","","","","","",""
"null","","image-button-response","212","858202","0.0-211.0","A1ZE52NWZPN85P","img_art/18.jpg","null","","","","","","","","","","","","","","","","","","","","","","","","",""
"521","","image-button-response","213","858726","0.0-212.0","A1ZE52NWZPN85P","img_art/18.jpg","0","","","","","","","","","","","","","","","","","","","","","","","","",""
"417","","image-button-response","214","859145","0.0-213.0-0.0","A1ZE52NWZPN85P","img_art/18.jpg","1","","","","","","","","","","","","","","","","","","","","","","","","",""
"435","","image-button-response","215","859581","0.0-214.0-0.0","A1ZE52NWZPN85P","img_art/18.jpg","2","","","","","","","","","","","","","","","","","","","","","","","","",""
"null","","html-keyboard-response","216","860597","0.0-215.0","A1ZE52NWZPN85P","<p style=""font-size: 48px;"">+</p>","","","","","null","allTrialResponses","1000","1","24","img_art/18.jpg","-12","reminds me of war, but with animals.","Taylor,Jake,John,Christopher,Daniel,Devon","Bad guys are after the good guy.,-10,200,20","It looks grotesque and violent.,-50,360,20","There are alot of elements to this painting and a good mix of colors,32,120,20","this is kind of cool. I like the color scheme and the figure in the upper left is interesting,15,160,20","Nice palette with complexity becoming nice at the center,34,320,20","I really like this one - there seems to be a story behind it,32,400,20","Taylor","Bad guys are after the good guy.,-10,200,20","Jake","It looks grotesque and violent.,-50,360,20","John","There are alot of elements to this painting and a good mix of colors,32,120,20","2"
"11311","","survey-text","217","871921","0.0-216.0-0.0","A1ZE52NWZPN85P","","","","{""Q0"":""when I'm drunk on a boat""}","","","","","","","","","","","","","","","","","","","","","","",""
"1470.8999999761581","","image-slider-response","218","873393","0.0-217.0","A1ZE52NWZPN85P","","","","","-10","","","","","","","","","","","","","","","","","","","","","",""
"null","","image-button-response","219","878398","0.0-218.0","A1ZE52NWZPN85P","img_art/11.jpg","null","","","","","","","","","","","","","","","","","","","","","","","","",""
"822","","image-button-response","220","879223","0.0-219.0","A1ZE52NWZPN85P","img_art/11.jpg","0","","","","","","","","","","","","","","","","","","","","","","","","",""
"558","","image-button-response","221","879783","0.0-220.0-0.0","A1ZE52NWZPN85P","img_art/11.jpg","1","","","","","","","","","","","","","","","","","","","","","","","","",""
"887","","image-button-response","222","880672","0.0-221.0-0.0","A1ZE52NWZPN85P","img_art/11.jpg","5","","","","","","","","","","","","","","","","","","","","","","","","",""
"null","","html-keyboard-response","223","881685","0.0-222.0","A1ZE52NWZPN85P","<p style=""font-size: 48px;"">+</p>","","","","","null","allTrialResponses","1000","1","25","img_art/11.jpg","-10","when I'm drunk on a boat","Taylor,Jake,John,Justin,Antonio,Tyler","Busy, busy oceanside city.,-10,200,20","This is very unappealing.,-11,360,20","Its interesting.,20,120,20","It reminds me of telephone wires.,1,280,20","Makes me think of far away places and traveling. Makes me feel like wandering,20,220,20","Rainy day at an urban sea port. Portugal?,30,320,20","Taylor","Busy, busy oceanside city.,-10,200,20","Jake","This is very unappealing.,-11,360,20","Tyler","Rainy day at an urban sea port. Portugal?,30,320,20","2"
"4529","","survey-text","224","886221","0.0-223.0-0.0","A1ZE52NWZPN85P","","","","{""Q0"":""table""}","","","","","","","","","","","","","","","","","","","","","","",""
"32554","","survey-text","225","918777","0.0-224.0-0.0","A1ZE52NWZPN85P","","","","{""Q0"":""looks like a toddler did it""}","","","","","","","","","","","","","","","","","","","","","","",""
"1939.300000011921","","image-slider-response","226","920717","0.0-225.0","A1ZE52NWZPN85P","","","","","-30","","","","","","","","","","","","","","","","","","","","","",""
"4396","","image-button-response","227","925730","0.0-226.0","A1ZE52NWZPN85P","img_art/2.jpg","0","","","","","","","","","","","","","","","","","","","","","","","","",""
"441","","image-button-response","228","926173","0.0-227.0","A1ZE52NWZPN85P","img_art/2.jpg","0","","","","","","","","","","","","","","","","","","","","","","","","",""
"288","","image-button-response","229","926461","0.0-228.0-0.0","A1ZE52NWZPN85P","img_art/2.jpg","1","","","","","","","","","","","","","","","","","","","","","","","","",""
"232","","image-button-response","230","926695","0.0-229.0-0.0","A1ZE52NWZPN85P","img_art/2.jpg","2","","","","","","","","","","","","","","","","","","","","","","","","",""
"null","","html-keyboard-response","231","927196","0.0-230.0","A1ZE52NWZPN85P","<p style=""font-size: 48px;"">+</p>","","","","","null","allTrialResponses","500","1","26","img_art/2.jpg","-30","looks like a toddler did it","Taylor,Jake,Shawn,Devin,Brandon,Tyler","Have now advanced from kindergarten to the first grade.,-5,200,20","These colors are ugly.,-40,360,20","The color choices and lines seem a bit sloppy?,-10,100,20","I don't really like this style,-5,380,20","Do not like this type of abstract work,-50,320,20","Grim and overwhelming,-6,320,20","Taylor","Have now advanced from kindergarten to the first grade.,-5,200,20","Jake","These colors are ugly.,-40,360,20","Shawn","The color choices and lines seem a bit sloppy?,-10,100,20","2"
"5480","","survey-text","232","932680","0.0-231.0-0.0","A1ZE52NWZPN85P","","","","{""Q0"":""redrum""}","","","","","","","","","","","","","","","","","","","","","","",""
"2094.800000011921","","image-slider-response","233","934776","0.0-232.0","A1ZE52NWZPN85P","","","","","-28","","","","","","","","","","","","","","","","","","","","","",""
"4893","","image-button-response","234","939779","0.0-233.0","A1ZE52NWZPN85P","img_art/3.jpg","0","","","","","","","","","","","","","","","","","","","","","","","","",""
"178","","image-button-response","235","939959","0.0-234.0","A1ZE52NWZPN85P","img_art/3.jpg","1","","","","","","","","","","","","","","","","","","","","","","","","",""
"714","","image-button-response","236","940674","0.0-235.0-0.0","A1ZE52NWZPN85P","img_art/3.jpg","0","","","","","","","","","","","","","","","","","","","","","","","","",""
"575","","image-button-response","237","941251","0.0-236.0-0.0","A1ZE52NWZPN85P","img_art/3.jpg","4","","","","","","","","","","","","","","","","","","","","","","","","",""
"null","","html-keyboard-response","238","942767","0.0-237.0","A1ZE52NWZPN85P","<p style=""font-size: 48px;"">+</p>","","","","","null","allTrialResponses","1500","1","27","img_art/3.jpg","-28","redrum","Taylor,Jake,Shawn,Brian,Cameron,Jorge","Why kids with color crayons is called art is beyond me. People pay for this???,-40,200,20","This is angry and childish looking.,-49,360,20","Powerful lines but seems incomplete,-10,100,20","this is a very nice emotion,27,380,20","kid scribbled on the wall again,-35,60,20","This makes me feel vulnerable,-32,180,20","Jake","This is angry and childish looking.,-49,360,20","Taylor","Why kids with color crayons is called art is beyond me. People pay for this???,-40,200,20","Cameron","kid scribbled on the wall again,-35,60,20","2"
"7439","","survey-text","239","950212","0.0-238.0-0.0","A1ZE52NWZPN85P","","","","{""Q0"":""this is just a photo of my floor""}","","","","","","","","","","","","","","","","","","","","","","",""
"1890.8999999761581","","image-slider-response","240","952105","0.0-239.0","A1ZE52NWZPN85P","","","","","-43","","","","","","","","","","","","","","","","","","","","","",""
"null","","image-button-response","241","957107","0.0-240.0","A1ZE52NWZPN85P","img_art/7.jpg","null","","","","","","","","","","","","","","","","","","","","","","","","",""
"554","","image-button-response","242","957663","0.0-241.0","A1ZE52NWZPN85P","img_art/7.jpg","1","","","","","","","","","","","","","","","","","","","","","","","","",""
"256","","image-button-response","243","957919","0.0-242.0-0.0","A1ZE52NWZPN85P","img_art/7.jpg","0","","","","","","","","","","","","","","","","","","","","","","","","",""
"520","","image-button-response","244","958441","0.0-243.0-0.0","A1ZE52NWZPN85P","img_art/7.jpg","4","","","","","","","","","","","","","","","","","","","","","","","","",""
"null","","html-keyboard-response","245","959945","0.0-244.0","A1ZE52NWZPN85P","<p style=""font-size: 48px;"">+</p>","","","","","null","allTrialResponses","1500","1","28","img_art/7.jpg","-43","this is just a photo of my floor","Taylor,Jake,Carlos,Nicholas,Cameron,Gabriel","Looks like a photo taken from the moon.,-6,200,20","This is vague and ugly.,-3,360,20","The dried bottom of a puddle in July.,-41,80,20","Makes me want to feel it,19,240,20","tracks in dirt?,-15,60,20","its like oatmeal with granola,-47,160,20","Jake","This is vague and ugly.,-3,360,20","Taylor","Looks like a photo taken from the moon.,-6,200,20","Cameron","tracks in dirt?,-15,60,20","2"
"10096","","survey-text","246","970056","0.0-245.0-0.0","A1ZE52NWZPN85P","","","","{""Q0"":""when your watercolors leak""}","","","","","","","","","","","","","","","","","","","","","","",""
"2388.699999988079","","image-slider-response","247","972447","0.0-246.0","A1ZE52NWZPN85P","","","","","-21","","","","","","","","","","","","","","","","","","","","","",""
"null","","image-button-response","248","977457","0.0-247.0","A1ZE52NWZPN85P","img_art/1.jpg","null","","","","","","","","","","","","","","","","","","","","","","","","",""
"562","","image-button-response","249","978021","0.0-248.0","A1ZE52NWZPN85P","img_art/1.jpg","1","","","","","","","","","","","","","","","","","","","","","","","","",""
"389","","image-button-response","250","978411","0.0-249.0-0.0","A1ZE52NWZPN85P","img_art/1.jpg","0","","","","","","","","","","","","","","","","","","","","","","","","",""
"715","","image-button-response","251","979127","0.0-250.0-0.0","A1ZE52NWZPN85P","img_art/1.jpg","3","","","","","","","","","","","","","","","","","","","","","","","","",""
"null","","html-keyboard-response","252","980639","0.0-251.0","A1ZE52NWZPN85P","<p style=""font-size: 48px;"">+</p>","","","","","null","allTrialResponses","1500","1","29","img_art/1.jpg","-21","when your watercolors leak","Taylor,Jake,Bryan,Steven,Cameron,Jack","Deja vu. Haven't I seen this one before? Not bad for those living in the backwoods.,10,200,20","This is ugly with bad colors.,-6,360,20","Again, like the colors & abstractness.,29,400,20","It's fine, but its like something you'd see in the restroom of a cheap restaurant,10,160,20","It's okay, colors remind me of autumn.,10,60,20","beautiful colors and brush strokes,47,320,20","Jake","This is ugly with bad colors.,-6,360,20","Taylor","Deja vu. Haven't I seen this one before? Not bad for those living in the backwoods.,10,200,20","Steven","It's fine, but its like something you'd see in the restroom of a cheap restaurant,10,160,20","2"
"12901","","survey-text","253","993545","0.0-252.0-0.0","A1ZE52NWZPN85P","","","","{""Q0"":""hello teddy, are you here to show me some good art??""}","","","","","","","","","","","","","","","","","","","","","","",""
"1602.7999999523163","","image-slider-response","254","995149","0.0-253.0","A1ZE52NWZPN85P","","","","","-21","","","","","","","","","","","","","","","","","","","","","",""
"null","","image-button-response","255","1000151","0.0-254.0","A1ZE52NWZPN85P","img_art/16.jpg","null","","","","","","","","","","","","","","","","","","","","","","","","",""
"585","","image-button-response","256","1000737","0.0-255.0","A1ZE52NWZPN85P","img_art/16.jpg","0","","","","","","","","","","","","","","","","","","","","","","","","",""
"591","","image-button-response","257","1001329","0.0-256.0-0.0","A1ZE52NWZPN85P","img_art/16.jpg","1","","","","","","","","","","","","","","","","","","","","","","","","",""
"467","","image-button-response","258","1001798","0.0-257.0-0.0","A1ZE52NWZPN85P","img_art/16.jpg","2","","","","","","","","","","","","","","","","","","","","","","","","",""
"null","","html-keyboard-response","259","1002800","0.0-258.0","A1ZE52NWZPN85P","<p style=""font-size: 48px;"">+</p>","","","","","null","allTrialResponses","1000","1","30","img_art/16.jpg","-21","hello teddy, are you here to show me some good art??","Taylor,Jake,Jose,Steven,Bradley,Jesus","It is sick to put a teddy bear and a gun on the same piece of canvas.,-40,200,20","This is creepy and puerile.,-45,360,20","Super weird. Id like to know more about it,24,200,20","Not interested at all,-15,160,20","This feels like there's some kind of pedofile thing going on here.,-50,300,20","I like the mixture of images,23,100,20","Taylor","It is sick to put a teddy bear and a gun on the same piece of canvas.,-40,200,20","Jake","This is creepy and puerile.,-45,360,20","Jose","Super weird. Id like to know more about it,24,200,20","2"
"6866","","image-button-response_instructions","260","1009675","0.0-259.0","A1ZE52NWZPN85P","","0","instructions","","","","","","","","","","","","","","","","","","","","","","","",""
"1101","","image-button-response","261","1010781","0.0-260.0","A1ZE52NWZPN85P","","0","","","","","","","","","","","","","","","","","","","","","","","","",""
