"rt","url","trial_type","trial_index","time_elapsed","internal_node_id","participant_id","stimulus","button_pressed","Name","responses","response","key_press","variableName","fixationTime","condition","trial","photo","subjectRating","subjectResponse","agentsNames","agent_1_Response","agent_2_Response","agent_3_Response","agent_4_Response","agent_5_Response","agent_6_Response","kept_1_name","kept_1_response","kept_2_name","kept_2_response","kept_3_name","kept_3_response","errorCounter"
"11496","external_page_harvard.html","external-html","0","11592","0.0-0.0","A207MWA5U0GWA5","","","","","","","","","","","","","","","","","","","","","","","","","","",""
"2366","","image-button-response","1","13964","0.0-1.0","A207MWA5U0GWA5","","1","","","","","","","","","","","","","","","","","","","","","","","","",""
"1891","","image-button-response","2","15867","0.0-2.0-0.0","A207MWA5U0GWA5","","1","phone","","","","","","","","","","","","","","","","","","","","","","","",""
"7339","","survey-text","3","23211","0.0-3.0-0.0","A207MWA5U0GWA5","","","","{""Q0"":""A207MWA5U0GWA5""}","","","","","","","","","","","","","","","","","","","","","","",""
"7387","","image-button-response_instructions","4","30604","0.0-4.0","A207MWA5U0GWA5","","0","instructions","","","","","","","","","","","","","","","","","","","","","","","",""
"37731","","image-button-response_instructions","5","68338","0.0-5.0","A207MWA5U0GWA5","img_art/ins/popularity/ins1.png","0","instructions","","","","","","","","","","","","","","","","","","","","","","","",""
"12108","","image-button-response_instructions","6","80450","0.0-6.0","A207MWA5U0GWA5","img_art/ins/popularity/ins2.png","0","instructions","","","","","","","","","","","","","","","","","","","","","","","",""
"9165","","image-button-response_instructions","7","89617","0.0-7.0","A207MWA5U0GWA5","img_art/ins/popularity/ins2Extreme.png","0","instructions","","","","","","","","","","","","","","","","","","","","","","","",""
"6253","","image-button-response_instructions","8","95873","0.0-8.0","A207MWA5U0GWA5","img_art/ins/popularity/ins3KEEPpop.PNG","0","instructions","","","","","","","","","","","","","","","","","","","","","","","",""
"6197","","image-button-response_instructions","9","102073","0.0-9.0","A207MWA5U0GWA5","img_art/ins/popularity/ins3ANamepop.PNG","0","instructions","","","","","","","","","","","","","","","","","","","","","","","",""
"4253","","image-button-response_instructions","10","106329","0.0-10.0","A207MWA5U0GWA5","img_art/ins/popularity/ins3ARatingpop.png","0","instructions","","","","","","","","","","","","","","","","","","","","","","","",""
"3285","","image-button-response_instructions","11","109617","0.0-11.0","A207MWA5U0GWA5","img_art/ins/popularity/ins3ATextpop.png","0","instructions","","","","","","","","","","","","","","","","","","","","","","","",""
"5885","","image-button-response_instructions","12","115505","0.0-12.0","A207MWA5U0GWA5","img_art/ins/popularity/ins3ALikespop.png","0","instructions","","","","","","","","","","","","","","","","","","","","","","","",""
"15165","","image-button-response_instructions","13","130673","0.0-13.0","A207MWA5U0GWA5","img_art/ins/popularity/ins3KEEPpop.PNG","0","instructions","","","","","","","","","","","","","","","","","","","","","","","",""
"8573","","image-button-response_instructions","14","139249","0.0-14.0","A207MWA5U0GWA5","img_art/ins/popularity/ins3_5RED.png","0","instructions","","","","","","","","","","","","","","","","","","","","","","","",""
"3548","","image-button-response_instructions","15","142801","0.0-15.0","A207MWA5U0GWA5","img_art/ins/popularity/ins3KEEPpop.PNG","0","instructions","","","","","","","","","","","","","","","","","","","","","","","",""
"5262","","image-button-response_instructions","16","148065","0.0-16.0","A207MWA5U0GWA5","img_art/ins/popularity/ins4KEEPpop.PNG","0","instructions","","","","","","","","","","","","","","","","","","","","","","","",""
"13173","","image-button-response_instructions","17","161240","0.0-17.0","A207MWA5U0GWA5","img_art/ins/popularity/ins5KEEPpop.PNG","0","instructions","","","","","","","","","","","","","","","","","","","","","","","",""
"2388","","image-button-response_instructions","18","163632","0.0-18.0","A207MWA5U0GWA5","","0","instructions","","","","","","","","","","","","","","","","","","","","","","","",""
"13334","","survey-text","19","177040","0.0-19.0-0.0","A207MWA5U0GWA5","","","","{""Q0"":""but""}","","","","","","","","","","","","","","","","","","","","","","",""
"21250","","survey-text","20","198295","0.0-20.0-0.0","A207MWA5U0GWA5","","","","{""Q0"":""it reminds me of an early morning sunrise.""}","","","","","","","","","","","","","","","","","","","","","","",""
"5322.59999999986","","image-slider-response","21","203624","0.0-21.0","A207MWA5U0GWA5","","","","","23","","","","","","","","","","","","","","","","","","","","","",""
"null","","image-button-response","22","208639","0.0-22.0","A207MWA5U0GWA5","img_art/ins/1.jpg","null","","","","","","","","","","","","","","","","","","","","","","","","",""
"1419","","image-button-response","23","210063","0.0-23.0","A207MWA5U0GWA5","img_art/ins/1.jpg","0","","","","","","","","","","","","","","","","","","","","","","","","",""
"12515","","image-button-response","24","222584","0.0-24.0-0.0","A207MWA5U0GWA5","img_art/ins/1.jpg","4","","","","","","","","","","","","","","","","","","","","","","","","",""
"1344","","image-button-response","25","223935","0.0-25.0-0.0","A207MWA5U0GWA5","img_art/ins/1.jpg","5","","","","","","","","","","","","","","","","","","","","","","","","",""
"null","","html-keyboard-response","26","225453","0.0-26.0","A207MWA5U0GWA5","<p style=""font-size: 48px;"">+</p>","","","","","null","allTrialResponses","1500","1","-2","img_art/ins/1.jpg","23","it reminds me of an early morning sunrise.","Allison,Ashley,Beth,Dora,Erika,Jen","looks like a lot of things going on in the mist,20,20,20","I just don't get why these type of art would be popular,-32,40,20","This color reminds me of poo,-46,60,20","looks like what my niece in 3rd grade did this afternoon,-50,80,20","I like the sophisticated brushwork,40,100,20","It reminds me of a candy land dream I had,36,120,20","Allison","looks like a lot of things going on in the mist,20,20,20","Erika","I like the sophisticated brushwork,40,100,20","Jen","It reminds me of a candy land dream I had,36,120,20","0"
"34456","","survey-text","27","259926","0.0-27.0-0.0","A207MWA5U0GWA5","","","","{""Q0"":""i like the patterns  and the bold colors.""}","","","","","","","","","","","","","","","","","","","","","","",""
"3802.8000000000466","","image-slider-response","28","263734","0.0-28.0","A207MWA5U0GWA5","","","","","30","","","","","","","","","","","","","","","","","","","","","",""
"3475","","image-button-response","29","268739","0.0-29.0","A207MWA5U0GWA5","img_art/ins/2.jpg","1","","","","","","","","","","","","","","","","","","","","","","","","",""
"766","","image-button-response","30","269510","0.0-30.0","A207MWA5U0GWA5","img_art/ins/2.jpg","1","","","","","","","","","","","","","","","","","","","","","","","","",""
"6346","","image-button-response","31","275863","0.0-31.0-0.0","A207MWA5U0GWA5","img_art/ins/2.jpg","4","","","","","","","","","","","","","","","","","","","","","","","","",""
"1826","","image-button-response","32","277695","0.0-32.0-0.0","A207MWA5U0GWA5","img_art/ins/2.jpg","5","","","","","","","","","","","","","","","","","","","","","","","","",""
"null","","html-keyboard-response","33","278697","0.0-33.0","A207MWA5U0GWA5","<p style=""font-size: 48px;"">+</p>","","","","","null","allTrialResponses","1000","1","-1","img_art/ins/2.jpg","30","i like the patterns  and the bold colors.","Allison,Kara,Katie,Jenna,Erika,Jen","I don't have strong feelings about this,10,20,20","I like the blocks of color arrangements,30,160,20","too much color!,-28,180,20","One of my pet peevs,-48,140,20","I would never be able to compose a sophisticated pallete like this,48,100,20","It reminds me of a fireplace,36,120,20","Kara","I like the blocks of color arrangements,30,160,20","Erika","I would never be able to compose a sophisticated pallete like this,48,100,20","Jen","It reminds me of a fireplace,36,120,20","0"
"30120","","survey-text","34","308837","0.0-34.0-0.0","A207MWA5U0GWA5","","","","{""Q0"":""it looks like looking into frozen water with ice crystals""}","","","","","","","","","","","","","","","","","","","","","","",""
"3548","","image-slider-response","35","312389","0.0-35.0","A207MWA5U0GWA5","","","","","50","","","","","","","","","","","","","","","","","","","","","",""
"null","","image-button-response","36","317404","0.0-36.0","A207MWA5U0GWA5","img_art/ins/3.jpg","null","","","","","","","","","","","","","","","","","","","","","","","","",""
"8766","","image-button-response","37","326174","0.0-37.0","A207MWA5U0GWA5","img_art/ins/3.jpg","0","","","","","","","","","","","","","","","","","","","","","","","","",""
"2419","","image-button-response","38","328597","0.0-38.0-0.0","A207MWA5U0GWA5","img_art/ins/3.jpg","1","","","","","","","","","","","","","","","","","","","","","","","","",""
"6211","","image-button-response","39","334814","0.0-39.0-0.0","A207MWA5U0GWA5","img_art/ins/3.jpg","4","","","","","","","","","","","","","","","","","","","","","","","","",""
"null","","html-keyboard-response","40","335333","0.0-40.0","A207MWA5U0GWA5","<p style=""font-size: 48px;"">+</p>","","","","","null","allTrialResponses","500","1","0","img_art/ins/3.jpg","50","it looks like looking into frozen water with ice crystals","Mary,Kara,Rose,Leslie,Erika,Jen","I like the overlapping of brushes,41,220,20","calming blue is very nice,36,160,20","My daily routine, it's depressing,-20,240,20","It's an alright work,15,200,20","I feel connected to the artist,40,100,20","I can feel a rainy day from this painting,18,120,20","Mary","I like the overlapping of brushes,41,220,20","Kara","calming blue is very nice,36,160,20","Erika","I feel connected to the artist,40,100,20","0"
"6207","","image-button-response_instructions","41","341557","0.0-41.0","A207MWA5U0GWA5","","0","instructions","","","","","","","","","","","","","","","","","","","","","","","",""
"21508","","survey-likert","42","363070","0.0-42.0-0.0","A207MWA5U0GWA5","","","","{""Q0"":"""",""Q1"":"""",""Q2"":""""}","","","","","","","","","","","","","","","","","","","","","","",""
"18230","","survey-likert","43","383829","0.0-42.1-0.1","A207MWA5U0GWA5","","","","{""Q0"":"""",""Q1"":0,""Q2"":1}","","","","","","","","","","","","","","","","","","","","","","",""
"5024","","survey-text","44","388868","0.0-43.0-0.0","A207MWA5U0GWA5","","","","{""Q0"":""rock""}","","","","","","","","","","","","","","","","","","","","","","",""
"18259","","survey-text","45","407131","0.0-44.0-0.0","A207MWA5U0GWA5","","","","{""Q0"":""i dont get this at all""}","","","","","","","","","","","","","","","","","","","","","","",""
"3771.5","","image-slider-response","46","410907","0.0-45.0","A207MWA5U0GWA5","","","","","-50","","","","","","","","","","","","","","","","","","","","","",""
"null","","image-button-response","47","415992","0.0-46.0","A207MWA5U0GWA5","img_art/29.jpg","null","","","","","","","","","","","","","","","","","","","","","","","","",""
"11198","","image-button-response","48","427195","0.0-47.0","A207MWA5U0GWA5","img_art/29.jpg","3","","","","","","","","","","","","","","","","","","","","","","","","",""
"3850","","image-button-response","49","431051","0.0-48.0-0.0","A207MWA5U0GWA5","img_art/29.jpg","5","","","","","","","","","","","","","","","","","","","","","","","","",""
"1826","","image-button-response","50","432882","0.0-49.0-0.0","A207MWA5U0GWA5","img_art/29.jpg","0","","","","","","","","","","","","","","","","","","","","","","","","",""
"null","","html-keyboard-response","51","433886","0.0-50.0","A207MWA5U0GWA5","<p style=""font-size: 48px;"">+</p>","","","","","null","allTrialResponses","1000","1","1","img_art/29.jpg","-50","i dont get this at all","Madison,Rachel,Alexa,Jacqueline,Ashley,Olivia","Well if the artist themself is crossing it out, why should I pay any mind?,-30,60,20","It looks like someone did not like their art and drew an x over it.,-32,80,20","Very wild and I like it,20,40,20","This is ugly as fuck,-50,300,20","It that an actual PAINTBUSH! Love it.,50,320,20","too challenging to comprehend,-28,40,20","Jacqueline","This is ugly as fuck,-50,300,20","Olivia","too challenging to comprehend,-28,40,20","Madison","Well if the artist themself is crossing it out, why should I pay any mind?,-30,60,20","1"
"27106","","survey-text","52","461001","0.0-51.0-0.0","A207MWA5U0GWA5","","","","{""Q0"":""i love the simplicity of the piece""}","","","","","","","","","","","","","","","","","","","","","","",""
"2820","","image-slider-response","53","463825","0.0-52.0","A207MWA5U0GWA5","","","","","50","","","","","","","","","","","","","","","","","","","","","",""
"null","","image-button-response","54","468832","0.0-53.0","A207MWA5U0GWA5","img_art/6.jpg","null","","","","","","","","","","","","","","","","","","","","","","","","",""
"4878","","image-button-response","55","473715","0.0-54.0","A207MWA5U0GWA5","img_art/6.jpg","5","","","","","","","","","","","","","","","","","","","","","","","","",""
"1145","","image-button-response","56","474867","0.0-55.0-0.0","A207MWA5U0GWA5","img_art/6.jpg","0","","","","","","","","","","","","","","","","","","","","","","","","",""
"1888","","image-button-response","57","476762","0.0-56.0-0.0","A207MWA5U0GWA5","img_art/6.jpg","2","","","","","","","","","","","","","","","","","","","","","","","","",""
"null","","html-keyboard-response","58","478266","0.0-57.0","A207MWA5U0GWA5","<p style=""font-size: 48px;"">+</p>","","","","","null","allTrialResponses","1500","1","2","img_art/6.jpg","50","i love the simplicity of the piece","Madison,Emma,Kaylee,Jacqueline,Angelica,Olivia","Is this the villain from Despicable Me?,29,60,20","Birds are cool but I don't love it,10,60,20","just an another tree on a desert?,9,200,20","It's a bit bland, but looks like a bird standing.,11,300,20","It feels sad but it's nice to look at.,4,280,20","surviving the dryness of life,30,40,20","Olivia","surviving the dryness of life,30,40,20","Madison","Is this the villain from Despicable Me?,29,60,20","Kaylee","just an another tree on a desert?,9,200,20","1"
"20233","","survey-text","59","498514","0.0-58.0-0.0","A207MWA5U0GWA5","","","","{""Q0"":""i love the bold colors and the great textures.""}","","","","","","","","","","","","","","","","","","","","","","",""
"3225.0999999998603","","image-slider-response","60","501745","0.0-59.0","A207MWA5U0GWA5","","","","","50","","","","","","","","","","","","","","","","","","","","","",""
"4226","","image-button-response","61","506757","0.0-60.0","A207MWA5U0GWA5","img_art/24.jpg","1","","","","","","","","","","","","","","","","","","","","","","","","",""
"706","","image-button-response","62","507470","0.0-61.0","A207MWA5U0GWA5","img_art/24.jpg","2","","","","","","","","","","","","","","","","","","","","","","","","",""
"6399","","image-button-response","63","513874","0.0-62.0-0.0","A207MWA5U0GWA5","img_art/24.jpg","5","","","","","","","","","","","","","","","","","","","","","","","","",""
"1978","","image-button-response","64","515858","0.0-63.0-0.0","A207MWA5U0GWA5","img_art/24.jpg","1","","","","","","","","","","","","","","","","","","","","","","","","",""
"null","","html-keyboard-response","65","516862","0.0-64.0","A207MWA5U0GWA5","<p style=""font-size: 48px;"">+</p>","","","","","null","allTrialResponses","1000","1","3","img_art/24.jpg","50","i love the bold colors and the great textures.","Madison,Alexis,Kaylee,Vanessa,Margaret,Olivia","Exceedingly garish,-19,60,20","Simple. Not too abstract. Love the different flower colors.,20,100,20","lovely forest vibes,36,200,20","I love the colors, but I wish the water was less abstract.,17,380,20","peaceful and serene but Im not the biggest landscape fan,4,100,20","tranquility in the stream,34,40,20","Kaylee","lovely forest vibes,36,200,20","Olivia","tranquility in the stream,34,40,20","Alexis","Simple. Not too abstract. Love the different flower colors.,20,100,20","1"
"20472","","survey-text","66","537352","0.0-65.0-0.0","A207MWA5U0GWA5","","","","{""Q0"":""the way it transitions is really cool.""}","","","","","","","","","","","","","","","","","","","","","","",""
"2836.5999999998603","","image-slider-response","67","540193","0.0-66.0","A207MWA5U0GWA5","","","","","39","","","","","","","","","","","","","","","","","","","","","",""
"3066","","image-button-response","68","545226","0.0-67.0","A207MWA5U0GWA5","img_art/17.jpg","1","","","","","","","","","","","","","","","","","","","","","","","","",""
"1552","","image-button-response","69","546785","0.0-68.0","A207MWA5U0GWA5","img_art/17.jpg","1","","","","","","","","","","","","","","","","","","","","","","","","",""
"4307","","image-button-response","70","551097","0.0-69.0-0.0","A207MWA5U0GWA5","img_art/17.jpg","3","","","","","","","","","","","","","","","","","","","","","","","","",""
"3362","","image-button-response","71","554465","0.0-70.0-0.0","A207MWA5U0GWA5","img_art/17.jpg","4","","","","","","","","","","","","","","","","","","","","","","","","",""
"null","","html-keyboard-response","72","555470","0.0-71.0","A207MWA5U0GWA5","<p style=""font-size: 48px;"">+</p>","","","","","null","allTrialResponses","1000","1","4","img_art/17.jpg","39","the way it transitions is really cool.","Nicole,Alexis,Kaylee,Kristen,Catherine,Olivia","Feels nostalgic somehow,31,20,20","Love the color and nature motif,36,100,20","colorful tree really cool,27,200,20","calm, tranquil, happy,50,280,20","Nature coming to the inside of your space that you are locked into.,50,160,20","muted tones brings me down,-13,40,20","Alexis","Love the color and nature motif,36,100,20","Kristen","calm, tranquil, happy,50,280,20","Catherine","Nature coming to the inside of your space that you are locked into.,50,160,20","1"
"19577","","survey-text","73","575063","0.0-72.0-0.0","A207MWA5U0GWA5","","","","{""Q0"":""really like the cubism it looks deep.""}","","","","","","","","","","","","","","","","","","","","","","",""
"3410.4000000001397","","image-slider-response","74","578479","0.0-73.0","A207MWA5U0GWA5","","","","","47","","","","","","","","","","","","","","","","","","","","","",""
"null","","image-button-response","75","583485","0.0-74.0","A207MWA5U0GWA5","img_art/8.jpg","null","","","","","","","","","","","","","","","","","","","","","","","","",""
"2652","","image-button-response","76","586144","0.0-75.0","A207MWA5U0GWA5","img_art/8.jpg","3","","","","","","","","","","","","","","","","","","","","","","","","",""
"7836","","image-button-response","77","593985","0.0-76.0-0.0","A207MWA5U0GWA5","img_art/8.jpg","4","","","","","","","","","","","","","","","","","","","","","","","","",""
"5281","","image-button-response","78","599272","0.0-77.0-0.0","A207MWA5U0GWA5","img_art/8.jpg","2","","","","","","","","","","","","","","","","","","","","","","","","",""
"null","","html-keyboard-response","79","599789","0.0-78.0","A207MWA5U0GWA5","<p style=""font-size: 48px;"">+</p>","","","","","null","allTrialResponses","500","1","5","img_art/8.jpg","47","really like the cubism it looks deep.","Michelle,Alexis,Kylie,Kristen,Catherine,Destiny","I appreciate the complexity of this piece but it's too cubist for me,3,280,20","Reminds me of old 80s fantasy book covers. Nostalgic,23,100,20","Very abstract and seems symbolic,45,300,20","mothe nature/godess, watching over you,21,280,20","Lost in a big city confuse as to where to go to next. No matter if you live in a mansion or homeless. Being bigger than what is going on around you,30,160,20","a cute little cute with some protectors,25,360,20","Kristen","mothe nature/godess, watching over you,21,280,20","Catherine","Lost in a big city confuse as to where to go to next. No matter if you live in a mansion or homeless. Being bigger than what is going on around you,30,160,20","Kylie","Very abstract and seems symbolic,45,300,20","1"
"6209","","survey-text","80","606030","0.0-79.0-0.0","A207MWA5U0GWA5","","","","{""Q0"":""sky""}","","","","","","","","","","","","","","","","","","","","","","",""
"22236","","survey-text","81","628270","0.0-80.0-0.0","A207MWA5U0GWA5","","","","{""Q0"":""the picture looks like it has movement really cool!""}","","","","","","","","","","","","","","","","","","","","","","",""
"4324","","image-slider-response","82","632599","0.0-81.0","A207MWA5U0GWA5","","","","","49","","","","","","","","","","","","","","","","","","","","","",""
"null","","image-button-response","83","637604","0.0-82.0","A207MWA5U0GWA5","img_art/11.jpg","null","","","","","","","","","","","","","","","","","","","","","","","","",""
"7591","","image-button-response","84","645200","0.0-83.0","A207MWA5U0GWA5","img_art/11.jpg","1","","","","","","","","","","","","","","","","","","","","","","","","",""
"2306","","image-button-response","85","647511","0.0-84.0-0.0","A207MWA5U0GWA5","img_art/11.jpg","2","","","","","","","","","","","","","","","","","","","","","","","","",""
"1218","","image-button-response","86","648735","0.0-85.0-0.0","A207MWA5U0GWA5","img_art/11.jpg","0","","","","","","","","","","","","","","","","","","","","","","","","",""
"null","","html-keyboard-response","87","649739","0.0-86.0","A207MWA5U0GWA5","<p style=""font-size: 48px;"">+</p>","","","","","null","allTrialResponses","1000","1","6","img_art/11.jpg","49","the picture looks like it has movement really cool!","Shannon,Molly,Kylie,Kristen,Catherine,Marissa","This looks like a bridge that has plenty of color.,10,220,20","Astounding, extraordinary.,25,340,20","This looks like a busy highway system along a suburban background,40,300,20","small town, friendly. calm,35,280,20","Busy city life. transportation, anxiety.,10,160,20","I dislike how dark this is,-21,160,20","Molly","Astounding, extraordinary.,25,340,20","Kylie","This looks like a busy highway system along a suburban background,40,300,20","Shannon","This looks like a bridge that has plenty of color.,10,220,20","1"
"47959","","survey-text","88","697717","0.0-87.0-0.0","A207MWA5U0GWA5","","","","{""Q0"":""the scenery looks really cool, a fisherman looking out. ""}","","","","","","","","","","","","","","","","","","","","","","",""
"2932","","image-slider-response","89","700653","0.0-88.0","A207MWA5U0GWA5","","","","","50","","","","","","","","","","","","","","","","","","","","","",""
"null","","image-button-response","90","705668","0.0-89.0","A207MWA5U0GWA5","img_art/19.jpg","null","","","","","","","","","","","","","","","","","","","","","","","","",""
"941","","image-button-response","91","706615","0.0-90.0","A207MWA5U0GWA5","img_art/19.jpg","1","","","","","","","","","","","","","","","","","","","","","","","","",""
"642","","image-button-response","92","707262","0.0-91.0-0.0","A207MWA5U0GWA5","img_art/19.jpg","2","","","","","","","","","","","","","","","","","","","","","","","","",""
"2665","","image-button-response","93","709935","0.0-92.0-0.0","A207MWA5U0GWA5","img_art/19.jpg","5","","","","","","","","","","","","","","","","","","","","","","","","",""
"null","","html-keyboard-response","94","710938","0.0-93.0","A207MWA5U0GWA5","<p style=""font-size: 48px;"">+</p>","","","","","null","allTrialResponses","1000","1","7","img_art/19.jpg","50","the scenery looks really cool, a fisherman looking out. ","Shannon,Molly,Kylie,Bailey,Claire,Sara","This looks like a bunch of weird blobs and the colors don't go great together.,-10,220,20","I can see kind of beach and sea full of people and buildings.,25,340,20","Reminds me of a quaint little town I once visited in Italy,50,300,20","Horrible. Squiggly lines everywhere.,-50,360,20","way too much going on,-33,260,20","I like the vibrant color blocks,13,160,20","Molly","I can see kind of beach and sea full of people and buildings.,25,340,20","Kylie","Reminds me of a quaint little town I once visited in Italy,50,300,20","Sara","I like the vibrant color blocks,13,160,20","1"
"36132","","survey-text","95","747083","0.0-94.0-0.0","A207MWA5U0GWA5","","","","{""Q0"":""its so dark and looks dreary""}","","","","","","","","","","","","","","","","","","","","","","",""
"3580.1999999997206","","image-slider-response","96","750667","0.0-95.0","A207MWA5U0GWA5","","","","","-35","","","","","","","","","","","","","","","","","","","","","",""
"null","","image-button-response","97","755673","0.0-96.0","A207MWA5U0GWA5","img_art/10.jpg","null","","","","","","","","","","","","","","","","","","","","","","","","",""
"1206","","image-button-response","98","756884","0.0-97.0","A207MWA5U0GWA5","img_art/10.jpg","3","","","","","","","","","","","","","","","","","","","","","","","","",""
"2867","","image-button-response","99","759757","0.0-98.0-0.0","A207MWA5U0GWA5","img_art/10.jpg","5","","","","","","","","","","","","","","","","","","","","","","","","",""
"2026","","image-button-response","100","761788","0.0-99.0-0.0","A207MWA5U0GWA5","img_art/10.jpg","2","","","","","","","","","","","","","","","","","","","","","","","","",""
"null","","html-keyboard-response","101","762297","0.0-100.0","A207MWA5U0GWA5","<p style=""font-size: 48px;"">+</p>","","","","","null","allTrialResponses","500","1","8","img_art/10.jpg","-35","its so dark and looks dreary","Heather,Molly,Kylie,Kaitlyn,Jamie,Sara","for some reason reminds me of music,2,260,20","For me, it looks like a giant ship on the sea and it's astonishing.,30,340,20","Musical guitar whimsy,45,300,20","Picture looks smudged,-7,80,20","Well done designs for being considered abstract,45,320,20","I don't like the colors,-20,160,20","Kaitlyn","Picture looks smudged,-7,80,20","Sara","I don't like the colors,-20,160,20","Kylie","Musical guitar whimsy,45,300,20","1"
"46257","","survey-text","102","808571","0.0-101.0-0.0","A207MWA5U0GWA5","","","","{""Q0"":""mutilated hand is what i get.""}","","","","","","","","","","","","","","","","","","","","","","",""
"2507.6999999997206","","image-slider-response","103","811083","0.0-102.0","A207MWA5U0GWA5","","","","","-40","","","","","","","","","","","","","","","","","","","","","",""
"null","","image-button-response","104","816094","0.0-103.0","A207MWA5U0GWA5","img_art/4.jpg","null","","","","","","","","","","","","","","","","","","","","","","","","",""
"5677","","image-button-response","105","821780","0.0-104.0","A207MWA5U0GWA5","img_art/4.jpg","1","","","","","","","","","","","","","","","","","","","","","","","","",""
"747","","image-button-response","106","822532","0.0-105.0-0.0","A207MWA5U0GWA5","img_art/4.jpg","2","","","","","","","","","","","","","","","","","","","","","","","","",""
"834","","image-button-response","107","823370","0.0-106.0-0.0","A207MWA5U0GWA5","img_art/4.jpg","1","","","","","","","","","","","","","","","","","","","","","","","","",""
"1100","","image-button-response","108","836171","0.0-106.1-0.1","A207MWA5U0GWA5","img_art/4.jpg","4","","","","","","","","","","","","","","","","","","","","","","","","",""
"null","","html-keyboard-response","109","837174","0.0-107.0","A207MWA5U0GWA5","<p style=""font-size: 48px;"">+</p>","","","","","null","allTrialResponses","1000","1","9","img_art/4.jpg","-40","mutilated hand is what i get.","Caitlin,Courtney,Kylie,Kaitlyn,Jennifer,Sara","They give out trophies now for fighting with brass knuckles?,-20,80,20","A leaning trophy,-9,280,20","I just have no clue,26,300,20","I don't understand this at all,3,80,20","Ugly and bland compared to the other pieces.,-33,380,20","Random swirls again,-30,160,20","Courtney","A leaning trophy,-9,280,20","Kylie","I just have no clue,26,300,20","Jennifer","Ugly and bland compared to the other pieces.,-33,380,20","3"
"20058","","survey-text","110","857250","0.0-108.0-0.0","A207MWA5U0GWA5","","","","{""Q0"":""sleeping thru a nightmare""}","","","","","","","","","","","","","","","","","","","","","","",""
"2819.600000000093","","image-slider-response","111","860074","0.0-109.0","A207MWA5U0GWA5","","","","","22","","","","","","","","","","","","","","","","","","","","","",""
"null","","image-button-response","112","865080","0.0-110.0","A207MWA5U0GWA5","img_art/9.jpg","null","","","","","","","","","","","","","","","","","","","","","","","","",""
"742","","image-button-response","113","865828","0.0-111.0","A207MWA5U0GWA5","img_art/9.jpg","2","","","","","","","","","","","","","","","","","","","","","","","","",""
"16522","","image-button-response","114","882355","0.0-112.0-0.0","A207MWA5U0GWA5","img_art/9.jpg","3","","","","","","","","","","","","","","","","","","","","","","","","",""
"658","","image-button-response","115","883019","0.0-113.0-0.0","A207MWA5U0GWA5","img_art/9.jpg","4","","","","","","","","","","","","","","","","","","","","","","","","",""
"null","","html-keyboard-response","116","884524","0.0-114.0","A207MWA5U0GWA5","<p style=""font-size: 48px;"">+</p>","","","","","null","allTrialResponses","1500","1","10","img_art/9.jpg","22","sleeping thru a nightmare","Makayla,Courtney,Kylie,Kelly,Jennifer,Kelsey","Looks like a monster's teeth , unsettling,-18,80,20","This is a picture of a scary mans head sideways.,-24,280,20","Peaceful dreaming,40,300,20","It looks like a child drew it.,-28,220,20","This piece is very boring to look at.,-27,380,20","i like the colors but not the composition,-17,240,20","Kylie","Peaceful dreaming,40,300,20","Kelly","It looks like a child drew it.,-28,220,20","Jennifer","This piece is very boring to look at.,-27,380,20","3"
"9561","","survey-text","117","894113","0.0-115.0-0.0","A207MWA5U0GWA5","","","","{""Q0"":""our""}","","","","","","","","","","","","","","","","","","","","","","",""
"36643","","survey-text","118","930760","0.0-116.0-0.0","A207MWA5U0GWA5","","","","{""Q0"":""looks like the  desert.""}","","","","","","","","","","","","","","","","","","","","","","",""
"3107.899999999907","","image-slider-response","119","933872","0.0-117.0","A207MWA5U0GWA5","","","","","19","","","","","","","","","","","","","","","","","","","","","",""
"null","","image-button-response","120","938877","0.0-118.0","A207MWA5U0GWA5","img_art/7.jpg","null","","","","","","","","","","","","","","","","","","","","","","","","",""
"5269","","image-button-response","121","944152","0.0-119.0","A207MWA5U0GWA5","img_art/7.jpg","0","","","","","","","","","","","","","","","","","","","","","","","","",""
"2132","","image-button-response","122","946289","0.0-120.0-0.0","A207MWA5U0GWA5","img_art/7.jpg","1","","","","","","","","","","","","","","","","","","","","","","","","",""
"3299","","image-button-response","123","949594","0.0-121.0-0.0","A207MWA5U0GWA5","img_art/7.jpg","5","","","","","","","","","","","","","","","","","","","","","","","","",""
"null","","html-keyboard-response","124","950606","0.0-122.0","A207MWA5U0GWA5","<p style=""font-size: 48px;"">+</p>","","","","","null","allTrialResponses","1000","1","11","img_art/7.jpg","19","looks like the  desert.","Christina,Samantha,Kylie,Kelly,Jennifer,Victoria","looks like the surface of the moon,-28,240,20","Makes me want to feel it,19,140,20","No particular reaction to this,10,300,20","My firs thought was ""gross""...not sure what this is and I dont think i want to know.,-19,220,20","Very, very dull compared to the other paintings,-36,380,20","looks like a photograph,-4,400,20","Christina","looks like the surface of the moon,-28,240,20","Samantha","Makes me want to feel it,19,140,20","Victoria","looks like a photograph,-4,400,20","3"
"37171","","survey-text","125","987799","0.0-123.0-0.0","A207MWA5U0GWA5","","","","{""Q0"":""the colors create a lot of depth looks 3d""}","","","","","","","","","","","","","","","","","","","","","","",""
"3459.7999999998137","","image-slider-response","126","991263","0.0-124.0","A207MWA5U0GWA5","","","","","25","","","","","","","","","","","","","","","","","","","","","",""
"null","","image-button-response","127","996276","0.0-125.0","A207MWA5U0GWA5","img_art/30.jpg","null","","","","","","","","","","","","","","","","","","","","","","","","",""
"49846","","image-button-response","128","1046126","0.0-126.0","A207MWA5U0GWA5","img_art/30.jpg","2","","","","","","","","","","","","","","","","","","","","","","","","",""
"2779","","image-button-response","129","1048910","0.0-127.0-0.0","A207MWA5U0GWA5","img_art/30.jpg","0","","","","","","","","","","","","","","","","","","","","","","","","",""
"2923","","image-button-response","130","1051838","0.0-128.0-0.0","A207MWA5U0GWA5","img_art/30.jpg","5","","","","","","","","","","","","","","","","","","","","","","","","",""
"null","","html-keyboard-response","131","1053355","0.0-129.0","A207MWA5U0GWA5","<p style=""font-size: 48px;"">+</p>","","","","","null","allTrialResponses","1500","1","12","img_art/30.jpg","25","the colors create a lot of depth looks 3d","Christina,Samantha,Jasmine,Kathryn,Cassidy,Victoria","it looks like some thing I could make it my garage,-18,240,20","Too much like childrens finger paint. I dont like the smear of blended colors,-50,140,20","Pretty neutral about this one,0,340,20","It's like a child's art piece: carefree and not trying to conform to anything.,10,140,20","I just don't see the point of this piece,-11,140,20","to dark and dreary,-28,400,20","Jasmine","Pretty neutral about this one,0,340,20","Christina","it looks like some thing I could make it my garage,-18,240,20","Victoria","to dark and dreary,-28,400,20","3"
"14088","","survey-text","132","1067461","0.0-130.0-0.0","A207MWA5U0GWA5","","","","{""Q0"":""looks like a trash bag""}","","","","","","","","","","","","","","","","","","","","","","",""
"6475.399999999907","","image-slider-response","133","1073941","0.0-131.0","A207MWA5U0GWA5","","","","","-37","","","","","","","","","","","","","","","","","","","","","",""
"null","","image-button-response","134","1078962","0.0-132.0","A207MWA5U0GWA5","img_art/5.jpg","null","","","","","","","","","","","","","","","","","","","","","","","","",""
"9295","","image-button-response","135","1088262","0.0-133.0","A207MWA5U0GWA5","img_art/5.jpg","0","","","","","","","","","","","","","","","","","","","","","","","","",""
"1986","","image-button-response","136","1090253","0.0-134.0-0.0","A207MWA5U0GWA5","img_art/5.jpg","1","","","","","","","","","","","","","","","","","","","","","","","","",""
"1889","","image-button-response","137","1092149","0.0-135.0-0.0","A207MWA5U0GWA5","img_art/5.jpg","2","","","","","","","","","","","","","","","","","","","","","","","","",""
"null","","html-keyboard-response","138","1093651","0.0-136.0","A207MWA5U0GWA5","<p style=""font-size: 48px;"">+</p>","","","","","null","allTrialResponses","1500","1","13","img_art/5.jpg","-37","looks like a trash bag","Christina,Tiffany,Jasmine,Brittany,Maria,Victoria","looks like a little kids painting,-50,240,20","I feel nothing looking at this.,-5,360,20","Not sure what to say about this piece honestly. It's okay I guess.,0,340,20","Although it's very simple, there's something about the colors that really draws the eye.,11,40,20","this feels like something I should like, but I'm not feeling the execution,-10,120,20","very boring and plain,-35,400,20","Christina","looks like a little kids painting,-50,240,20","Tiffany","I feel nothing looking at this.,-5,360,20","Jasmine","Not sure what to say about this piece honestly. It's okay I guess.,0,340,20","3"
"46723","","survey-text","139","1140388","0.0-137.0-0.0","A207MWA5U0GWA5","","","","{""Q0"":""beach scene with a storm approaching""}","","","","","","","","","","","","","","","","","","","","","","",""
"6962.5","","image-slider-response","140","1147355","0.0-138.0","A207MWA5U0GWA5","","","","","50","","","","","","","","","","","","","","","","","","","","","",""
"null","","image-button-response","141","1152375","0.0-139.0","A207MWA5U0GWA5","img_art/14.jpg","null","","","","","","","","","","","","","","","","","","","","","","","","",""
"9816","","image-button-response","142","1162195","0.0-140.0","A207MWA5U0GWA5","img_art/14.jpg","0","","","","","","","","","","","","","","","","","","","","","","","","",""
"1610","","image-button-response","143","1163812","0.0-141.0-0.0","A207MWA5U0GWA5","img_art/14.jpg","2","","","","","","","","","","","","","","","","","","","","","","","","",""
"5907","","image-button-response","144","1169725","0.0-142.0-0.0","A207MWA5U0GWA5","img_art/14.jpg","3","","","","","","","","","","","","","","","","","","","","","","","","",""
"null","","html-keyboard-response","145","1171230","0.0-143.0","A207MWA5U0GWA5","<p style=""font-size: 48px;"">+</p>","","","","","null","allTrialResponses","1500","1","14","img_art/14.jpg","50","beach scene with a storm approaching","Christina,Tiffany,Jasmine,Jordan,Madeline,Monica","has a tree look to it and it's colors are happy,9,240,20","I feel uncomfortable looking at this painting, it is a mess that needs to be cleaned up.,-16,360,20","The colors are nice and it reminds me of a shrub or tree,10,340,20","this one isn't bad, reminds me a tree that gives life, and people are waiting for someone new to be born,27,20,20","It looks nice colorwise but detail is lacking,18,40,20","Just don't like it, maybe it's the bleeding colors on the left of the tree-looking thing in the center or the faded background,-10,360,20","Christina","has a tree look to it and it's colors are happy,9,240,20","Jasmine","The colors are nice and it reminds me of a shrub or tree,10,340,20","Jordan","this one isn't bad, reminds me a tree that gives life, and people are waiting for someone new to be born,27,20,20","3"
"20125","","survey-text","146","1191371","0.0-144.0-0.0","A207MWA5U0GWA5","","","","{""Q0"":""very bland scene colors look dull.""}","","","","","","","","","","","","","","","","","","","","","","",""
"2931.399999999907","","image-slider-response","147","1194306","0.0-145.0","A207MWA5U0GWA5","","","","","-43","","","","","","","","","","","","","","","","","","","","","",""
"null","","image-button-response","148","1199311","0.0-146.0","A207MWA5U0GWA5","img_art/26.jpg","null","","","","","","","","","","","","","","","","","","","","","","","","",""
"3087","","image-button-response","149","1202403","0.0-147.0","A207MWA5U0GWA5","img_art/26.jpg","2","","","","","","","","","","","","","","","","","","","","","","","","",""
"4603","","image-button-response","150","1207012","0.0-148.0-0.0","A207MWA5U0GWA5","img_art/26.jpg","5","","","","","","","","","","","","","","","","","","","","","","","","",""
"1762","","image-button-response","151","1208779","0.0-149.0-0.0","A207MWA5U0GWA5","img_art/26.jpg","0","","","","","","","","","","","","","","","","","","","","","","","","",""
"null","","html-keyboard-response","152","1209785","0.0-150.0","A207MWA5U0GWA5","<p style=""font-size: 48px;"">+</p>","","","","","null","allTrialResponses","1000","1","15","img_art/26.jpg","-43","very bland scene colors look dull.","Christina,Cheyenne,Jasmine,Jordan,Amy,Cynthia","looks like a little kids painting,-17,240,20","No strong reaction but the color scheme is nice,10,200,20","This seems like a quiet painting,11,340,20","This one is nicer, looks like a walk in a small, dreamy city,20,20,20","The feeling that I am looking at the world through a dingy filter makes this unpleasant for me.,-20,220,20","dull and boring,-6,320,20","Jasmine","This seems like a quiet painting,11,340,20","Cynthia","dull and boring,-6,320,20","Christina","looks like a little kids painting,-17,240,20","3"
"5595","","survey-text","153","1215410","0.0-151.0-0.0","A207MWA5U0GWA5","","","","{""Q0"":""course""}","","","","","","","","","","","","","","","","","","","","","","",""
"16797","","survey-text","154","1232211","0.0-152.0-0.0","A207MWA5U0GWA5","","","","{""Q0"":""looks very childish""}","","","","","","","","","","","","","","","","","","","","","","",""
"3403.8000000002794","","image-slider-response","155","1235618","0.0-153.0","A207MWA5U0GWA5","","","","","-46","","","","","","","","","","","","","","","","","","","","","",""
"null","","image-button-response","156","1240636","0.0-154.0","A207MWA5U0GWA5","img_art/27.jpg","null","","","","","","","","","","","","","","","","","","","","","","","","",""
"626","","image-button-response","157","1241267","0.0-155.0","A207MWA5U0GWA5","img_art/27.jpg","1","","","","","","","","","","","","","","","","","","","","","","","","",""
"2738","","image-button-response","158","1244011","0.0-156.0-0.0","A207MWA5U0GWA5","img_art/27.jpg","3","","","","","","","","","","","","","","","","","","","","","","","","",""
"5931","","image-button-response","159","1249947","0.0-157.0-0.0","A207MWA5U0GWA5","img_art/27.jpg","2","","","","","","","","","","","","","","","","","","","","","","","","",""
"null","","html-keyboard-response","160","1251459","0.0-158.0","A207MWA5U0GWA5","<p style=""font-size: 48px;"">+</p>","","","","","null","allTrialResponses","1500","1","16","img_art/27.jpg","-46","looks very childish","Christina,Alexandra,Jasmine,Abigail,Hannah,Cynthia","I like the orange but it's a little blah,1,240,20","This is ugly and looks like a child did this,-36,60,20","I have no strong reactions to this,-1,340,20","Looks like a little kids drawing,20,20,20","Reminds me of something I'd see in a gold frame from the Eighties.,-9,240,20","dirty and misunderstood,-47,320,20","Alexandra","This is ugly and looks like a child did this,-36,60,20","Abigail","Looks like a little kids drawing,20,20,20","Jasmine","I have no strong reactions to this,-1,340,20","3"
"19653","","survey-text","161","1271129","0.0-159.0-0.0","A207MWA5U0GWA5","","","","{""Q0"":""love the colors and the textures""}","","","","","","","","","","","","","","","","","","","","","","",""
"2770.5999999996275","","image-slider-response","162","1273905","0.0-160.0","A207MWA5U0GWA5","","","","","50","","","","","","","","","","","","","","","","","","","","","",""
"null","","image-button-response","163","1278912","0.0-161.0","A207MWA5U0GWA5","img_art/13.jpg","null","","","","","","","","","","","","","","","","","","","","","","","","",""
"1702","","image-button-response","164","1280619","0.0-162.0","A207MWA5U0GWA5","img_art/13.jpg","4","","","","","","","","","","","","","","","","","","","","","","","","",""
"1434","","image-button-response","165","1282059","0.0-163.0-0.0","A207MWA5U0GWA5","img_art/13.jpg","5","","","","","","","","","","","","","","","","","","","","","","","","",""
"3474","","image-button-response","166","1285538","0.0-164.0-0.0","A207MWA5U0GWA5","img_art/13.jpg","2","","","","","","","","","","","","","","","","","","","","","","","","",""
"null","","html-keyboard-response","167","1286543","0.0-165.0","A207MWA5U0GWA5","<p style=""font-size: 48px;"">+</p>","","","","","null","allTrialResponses","1000","1","17","img_art/13.jpg","50","love the colors and the textures","Mary,Alexandra,Jasmine,Abigail,Katie,Erika","I do not care for the colors in this art. it doesnt go well at all.,-15,180,20","I do like the blue colors in this.,12,60,20","I like the colors together,17,340,20","This is easy to look at,46,20,20","Cool and calming colors. I like splatter art.,10,160,20","Gorgeous contrast and color choice, very pleasing,50,100,20","Katie","Cool and calming colors. I like splatter art.,10,160,20","Erika","Gorgeous contrast and color choice, very pleasing,50,100,20","Jasmine","I like the colors together,17,340,20","3"
"51577","","survey-text","168","1338136","0.0-166.0-0.0","A207MWA5U0GWA5","","","","{""Q0"":""i dont care for this my eyes can't focus on what it might be.""}","","","","","","","","","","","","","","","","","","","","","","",""
"3052.100000000093","","image-slider-response","169","1341193","0.0-167.0","A207MWA5U0GWA5","","","","","-50","","","","","","","","","","","","","","","","","","","","","",""
"null","","image-button-response","170","1346209","0.0-168.0","A207MWA5U0GWA5","img_art/2.jpg","null","","","","","","","","","","","","","","","","","","","","","","","","",""
"5636","","image-button-response","171","1351849","0.0-169.0","A207MWA5U0GWA5","img_art/2.jpg","4","","","","","","","","","","","","","","","","","","","","","","","","",""
"1083","","image-button-response","172","1352937","0.0-170.0-0.0","A207MWA5U0GWA5","img_art/2.jpg","2","","","","","","","","","","","","","","","","","","","","","","","","",""
"643","","image-button-response","173","1353585","0.0-171.0-0.0","A207MWA5U0GWA5","img_art/2.jpg","1","","","","","","","","","","","","","","","","","","","","","","","","",""
"null","","html-keyboard-response","174","1355097","0.0-172.0","A207MWA5U0GWA5","<p style=""font-size: 48px;"">+</p>","","","","","null","allTrialResponses","1500","1","18","img_art/2.jpg","-50","i dont care for this my eyes can't focus on what it might be.","Kayla,Autumn,Jasmine,Angela,Katie,Erika","Different cultures. I like that it brings differences together.,4,180,20","7 year old painted?,-35,340,20","Color picks are a bad mesh with each other,-17,340,20","Only like the blues and teals in this. The rest is unappealing.,-15,260,20","Doesn't look like anything. Just a blob of colors.,1,160,20","Indistinct and too bright,-21,100,20","Katie","Doesn't look like anything. Just a blob of colors.,1,160,20","Jasmine","Color picks are a bad mesh with each other,-17,340,20","Autumn","7 year old painted?,-35,340,20","3"
"19028","","survey-text","175","1374151","0.0-173.0-0.0","A207MWA5U0GWA5","","","","{""Q0"":""beautiful contrast nice transition""}","","","","","","","","","","","","","","","","","","","","","","",""
"3084.100000000093","","image-slider-response","176","1377239","0.0-174.0","A207MWA5U0GWA5","","","","","50","","","","","","","","","","","","","","","","","","","","","",""
"null","","image-button-response","177","1382244","0.0-175.0","A207MWA5U0GWA5","img_art/21.jpg","null","","","","","","","","","","","","","","","","","","","","","","","","",""
"4039","","image-button-response","178","1386288","0.0-176.0","A207MWA5U0GWA5","img_art/21.jpg","3","","","","","","","","","","","","","","","","","","","","","","","","",""
"4890","","image-button-response","179","1391184","0.0-177.0-0.0","A207MWA5U0GWA5","img_art/21.jpg","4","","","","","","","","","","","","","","","","","","","","","","","","",""
"5203","","image-button-response","180","1396392","0.0-178.0-0.0","A207MWA5U0GWA5","img_art/21.jpg","1","","","","","","","","","","","","","","","","","","","","","","","","",""
"null","","html-keyboard-response","181","1397395","0.0-179.0","A207MWA5U0GWA5","<p style=""font-size: 48px;"">+</p>","","","","","null","allTrialResponses","1000","1","19","img_art/21.jpg","50","beautiful contrast nice transition","Sabrina,Autumn,Jasmine,Haley,Katie,Kaitlin","I like the representation of love and hate in this,43,120,20","Amazing colors.,34,340,20","The blues make me feel sadder as my mood is already not the best right now,-10,340,20","Again, I love the use of color,50,220,20","Immediately a positive response! I like the muted colors. the blurriness calms me. It's serene,40,160,20","waterpaint is attractive,13,60,20","Haley","Again, I love the use of color,50,220,20","Katie","Immediately a positive response! I like the muted colors. the blurriness calms me. It's serene,40,160,20","Autumn","Amazing colors.,34,340,20","3"
"39900","","survey-text","182","1437310","0.0-180.0-0.0","A207MWA5U0GWA5","","","","{""Q0"":""i like the colors the green is amazing""}","","","","","","","","","","","","","","","","","","","","","","",""
"3291.3000000002794","","image-slider-response","183","1440605","0.0-181.0","A207MWA5U0GWA5","","","","","50","","","","","","","","","","","","","","","","","","","","","",""
"null","","image-button-response","184","1445609","0.0-182.0","A207MWA5U0GWA5","img_art/25.jpg","null","","","","","","","","","","","","","","","","","","","","","","","","",""
"1192","","image-button-response","185","1446806","0.0-183.0","A207MWA5U0GWA5","img_art/25.jpg","2","","","","","","","","","","","","","","","","","","","","","","","","",""
"4980","","image-button-response","186","1451791","0.0-184.0-0.0","A207MWA5U0GWA5","img_art/25.jpg","4","","","","","","","","","","","","","","","","","","","","","","","","",""
"1522","","image-button-response","187","1453319","0.0-185.0-0.0","A207MWA5U0GWA5","img_art/25.jpg","5","","","","","","","","","","","","","","","","","","","","","","","","",""
"null","","html-keyboard-response","188","1453823","0.0-186.0","A207MWA5U0GWA5","<p style=""font-size: 48px;"">+</p>","","","","","null","allTrialResponses","500","1","20","img_art/25.jpg","50","i like the colors the green is amazing","Rebecca,Autumn,Diana,Haley,Katie,Savannah","I'm sorry but I don't uderstand this,-20,100,20","This is too simple,-22,340,20","This piece feels cultural. Like it represents something culturally.,22,380,20","I like the design but the brightness of the color feels almost blinding to me.,-3,220,20","Reminds me of ancient civilization art. I like the aqua color; soothing to me.,1,160,20","Very cool color, very clear message!,50,200,20","Diana","This piece feels cultural. Like it represents something culturally.,22,380,20","Katie","Reminds me of ancient civilization art. I like the aqua color; soothing to me.,1,160,20","Savannah","Very cool color, very clear message!,50,200,20","3"
"3202","","survey-text","189","1457053","0.0-187.0-0.0","A207MWA5U0GWA5","","","","{""Q0"":""we""}","","","","","","","","","","","","","","","","","","","","","","",""
"20357","","survey-text","190","1477413","0.0-188.0-0.0","A207MWA5U0GWA5","","","","{""Q0"":""a drab meeting, looks too plain""}","","","","","","","","","","","","","","","","","","","","","","",""
"4275.699999999721","","image-slider-response","191","1481693","0.0-189.0","A207MWA5U0GWA5","","","","","-37","","","","","","","","","","","","","","","","","","","","","",""
"null","","image-button-response","192","1486699","0.0-190.0","A207MWA5U0GWA5","img_art/28.jpg","null","","","","","","","","","","","","","","","","","","","","","","","","",""
"3782","","image-button-response","193","1490486","0.0-191.0","A207MWA5U0GWA5","img_art/28.jpg","5","","","","","","","","","","","","","","","","","","","","","","","","",""
"1235","","image-button-response","194","1491726","0.0-192.0-0.0","A207MWA5U0GWA5","img_art/28.jpg","0","","","","","","","","","","","","","","","","","","","","","","","","",""
"1139","","image-button-response","195","1492869","0.0-193.0-0.0","A207MWA5U0GWA5","img_art/28.jpg","1","","","","","","","","","","","","","","","","","","","","","","","","",""
"null","","html-keyboard-response","196","1493372","0.0-194.0","A207MWA5U0GWA5","<p style=""font-size: 48px;"">+</p>","","","","","null","allTrialResponses","500","1","21","img_art/28.jpg","-37","a drab meeting, looks too plain","Alicia,Katelyn,Diana,Chloe,Katie,Savannah","bland busy ugly,-31,120,20","Just all blurs together for me. No substance.,-23,100,20","I think this piece is interesting. I love the faces drawn into it.,29,380,20","Evocative but a little dreary.,20,220,20","Like the muted pink colors. However, the mood is sad because of the blurriness,22,160,20","White and dark balance is way off- Seems dull.,-33,200,20","Savannah","White and dark balance is way off- Seems dull.,-33,200,20","Alicia","bland busy ugly,-31,120,20","Katelyn","Just all blurs together for me. No substance.,-23,100,20","3"
"36107","","survey-text","197","1529508","0.0-195.0-0.0","A207MWA5U0GWA5","","","","{""Q0"":""I really like the movement""}","","","","","","","","","","","","","","","","","","","","","","",""
"3123.899999999907","","image-slider-response","198","1532636","0.0-196.0","A207MWA5U0GWA5","","","","","50","","","","","","","","","","","","","","","","","","","","","",""
"null","","image-button-response","199","1537656","0.0-197.0","A207MWA5U0GWA5","img_art/23.jpg","null","","","","","","","","","","","","","","","","","","","","","","","","",""
"8657","","image-button-response","200","1546317","0.0-198.0","A207MWA5U0GWA5","img_art/23.jpg","2","","","","","","","","","","","","","","","","","","","","","","","","",""
"3451","","image-button-response","201","1549773","0.0-199.0-0.0","A207MWA5U0GWA5","img_art/23.jpg","3","","","","","","","","","","","","","","","","","","","","","","","","",""
"2858","","image-button-response","202","1552637","0.0-200.0-0.0","A207MWA5U0GWA5","img_art/23.jpg","5","","","","","","","","","","","","","","","","","","","","","","","","",""
"null","","html-keyboard-response","203","1553642","0.0-201.0","A207MWA5U0GWA5","<p style=""font-size: 48px;"">+</p>","","","","","null","allTrialResponses","1000","1","22","img_art/23.jpg","50","I really like the movement","Alicia,Katelyn,Dominique,Caroline,Melissa,Savannah","No reactions, childish.,-19,120,20","Makes me want to stare at it for hours. Like there is something deeper to find.,37,100,20","Very happy , busy , free, and full of Hope,28,400,20","Like the colors and made me feel happy,23,100,20","do not like color splatters or sharp silhouettes, feels tacky,-34,240,20","Very colorful. Nice contrasts.,26,200,20","Dominique","Very happy , busy , free, and full of Hope,28,400,20","Caroline","Like the colors and made me feel happy,23,100,20","Savannah","Very colorful. Nice contrasts.,26,200,20","3"
"21865","","survey-text","204","1575523","0.0-202.0-0.0","A207MWA5U0GWA5","","","","{""Q0"":""death rides a horse, looks like the grim reaper on horseback""}","","","","","","","","","","","","","","","","","","","","","","",""
"3875.899999999907","","image-slider-response","205","1579403","0.0-203.0","A207MWA5U0GWA5","","","","","15","","","","","","","","","","","","","","","","","","","","","",""
"null","","image-button-response","206","1584408","0.0-204.0","A207MWA5U0GWA5","img_art/18.jpg","null","","","","","","","","","","","","","","","","","","","","","","","","",""
"3208","","image-button-response","207","1587621","0.0-205.0","A207MWA5U0GWA5","img_art/18.jpg","4","","","","","","","","","","","","","","","","","","","","","","","","",""
"3554","","image-button-response","208","1591180","0.0-206.0-0.0","A207MWA5U0GWA5","img_art/18.jpg","0","","","","","","","","","","","","","","","","","","","","","","","","",""
"5458","","image-button-response","209","1596643","0.0-207.0-0.0","A207MWA5U0GWA5","img_art/18.jpg","1","","","","","","","","","","","","","","","","","","","","","","","","",""
"null","","html-keyboard-response","210","1598148","0.0-208.0","A207MWA5U0GWA5","<p style=""font-size: 48px;"">+</p>","","","","","null","allTrialResponses","1500","1","23","img_art/18.jpg","15","death rides a horse, looks like the grim reaper on horseback","Stephanie,Lauren,Dominique,Caroline,Allison,Savannah","It made me think of a car crash,-39,300,20","I like how the image gives off an impression of bravery.,25,340,20","Very conversational and can see many different looks and feels from this .,34,400,20","I think of the ocean and a boat tossed about on the waves. In the upper left is a figure. It is pleasant,30,100,20","Colors are okay. Reminds me of cavalry.,10,140,20","Accents make this piece.,21,200,20","Allison","Colors are okay. Reminds me of cavalry.,10,140,20","Stephanie","It made me think of a car crash,-39,300,20","Lauren","I like how the image gives off an impression of bravery.,25,340,20","3"
"32980","","survey-text","211","1631146","0.0-209.0-0.0","A207MWA5U0GWA5","","","","{""Q0"":""i dont care for the colors make me feel alone""}","","","","","","","","","","","","","","","","","","","","","","",""
"2876","","image-slider-response","212","1634026","0.0-210.0","A207MWA5U0GWA5","","","","","-36","","","","","","","","","","","","","","","","","","","","","",""
"null","","image-button-response","213","1639033","0.0-211.0","A207MWA5U0GWA5","img_art/1.jpg","null","","","","","","","","","","","","","","","","","","","","","","","","",""
"2302","","image-button-response","214","1641339","0.0-212.0","A207MWA5U0GWA5","img_art/1.jpg","2","","","","","","","","","","","","","","","","","","","","","","","","",""
"1082","","image-button-response","215","1642426","0.0-213.0-0.0","A207MWA5U0GWA5","img_art/1.jpg","1","","","","","","","","","","","","","","","","","","","","","","","","",""
"3714","","image-button-response","216","1646146","0.0-214.0-0.0","A207MWA5U0GWA5","img_art/1.jpg","4","","","","","","","","","","","","","","","","","","","","","","","","",""
"null","","html-keyboard-response","217","1647653","0.0-215.0","A207MWA5U0GWA5","<p style=""font-size: 48px;"">+</p>","","","","","null","allTrialResponses","1500","1","24","img_art/1.jpg","-36","i dont care for the colors make me feel alone","Stephanie,Lauren,Alyssa,Laura,Allison,Hailey","Pretty colors. Fall day in the East Coast of USA.,42,300,20","This image doesn't invoke much in me.,0,340,20","Its okay,not great.,1,160,20","soft and touchable, muddled,15,320,20","Messy mix of primary colors.,-10,140,20","colors that are fairly warm. its ok,8,200,20","Alyssa","Its okay,not great.,1,160,20","Lauren","This image doesn't invoke much in me.,0,340,20","Allison","Messy mix of primary colors.,-10,140,20","3"
"19321","","survey-text","218","1666993","0.0-216.0-0.0","A207MWA5U0GWA5","","","","{""Q0"":""childish i dont understand this at all.""}","","","","","","","","","","","","","","","","","","","","","","",""
"2987.4000000003725","","image-slider-response","219","1669985","0.0-217.0","A207MWA5U0GWA5","","","","","-50","","","","","","","","","","","","","","","","","","","","","",""
"null","","image-button-response","220","1675003","0.0-218.0","A207MWA5U0GWA5","img_art/3.jpg","null","","","","","","","","","","","","","","","","","","","","","","","","",""
"7322","","image-button-response","221","1682330","0.0-219.0","A207MWA5U0GWA5","img_art/3.jpg","1","","","","","","","","","","","","","","","","","","","","","","","","",""
"1579","","image-button-response","222","1683913","0.0-220.0-0.0","A207MWA5U0GWA5","img_art/3.jpg","2","","","","","","","","","","","","","","","","","","","","","","","","",""
"6171","","image-button-response","223","1690090","0.0-221.0-0.0","A207MWA5U0GWA5","img_art/3.jpg","5","","","","","","","","","","","","","","","","","","","","","","","","",""
"null","","html-keyboard-response","224","1691105","0.0-222.0","A207MWA5U0GWA5","<p style=""font-size: 48px;"">+</p>","","","","","null","allTrialResponses","1000","1","25","img_art/3.jpg","-50","childish i dont understand this at all.","Crystal,Lauren,Alyssa,Meghan,Allison,Brianna","I like the abstract flowing lines. It lacks hard rigid marks and flow nicely into a piece of calamity.,32,300,20","No clue what I'm looking. This just looks a series of scribbles in a box.,-20,340,20","Looks like someone spilled ketchup and forgot to clean it up,-30,160,20","I like that it's messy,14,220,20","Reminds me of a hot mess,-10,140,20","It's very plain,-20,20,20","Lauren","No clue what I'm looking. This just looks a series of scribbles in a box.,-20,340,20","Alyssa","Looks like someone spilled ketchup and forgot to clean it up,-30,160,20","Brianna","It's very plain,-20,20,20","3"
"4894","","survey-text","225","1696032","0.0-223.0-0.0","A207MWA5U0GWA5","","","","{""Q0"":""table""}","","","","","","","","","","","","","","","","","","","","","","",""
"26308","","survey-text","226","1722344","0.0-224.0-0.0","A207MWA5U0GWA5","","","","{""Q0"":""i love the realism with the abstract.""}","","","","","","","","","","","","","","","","","","","","","","",""
"2850.5","","image-slider-response","227","1725200","0.0-225.0","A207MWA5U0GWA5","","","","","50","","","","","","","","","","","","","","","","","","","","","",""
"null","","image-button-response","228","1730205","0.0-226.0","A207MWA5U0GWA5","img_art/20.jpg","null","","","","","","","","","","","","","","","","","","","","","","","","",""
"1440","","image-button-response","229","1731649","0.0-227.0","A207MWA5U0GWA5","img_art/20.jpg","1","","","","","","","","","","","","","","","","","","","","","","","","",""
"2988","","image-button-response","230","1734641","0.0-228.0-0.0","A207MWA5U0GWA5","img_art/20.jpg","0","","","","","","","","","","","","","","","","","","","","","","","","",""
"9546","","image-button-response","231","1744193","0.0-229.0-0.0","A207MWA5U0GWA5","img_art/20.jpg","4","","","","","","","","","","","","","","","","","","","","","","","","",""
"null","","html-keyboard-response","232","1745200","0.0-230.0","A207MWA5U0GWA5","<p style=""font-size: 48px;"">+</p>","","","","","null","allTrialResponses","1000","1","26","img_art/20.jpg","50","i love the realism with the abstract.","Natalie,Lauren,Alyssa,Mariah,Gabriela,Brianna","I like the detail on it, although I get a sad vibe to it,19,400,20","I like how the image is depicting a scene.,10,340,20","Its interesting.It almost seems like a painting of a landscape,14,160,20","It feels like it ""almost"" several things.,-10,140,20","it is a bit disturbing, like a monster or ghost floating away from a bleak building,-8,140,20","It looks like a motorcycle and I like cars and motorcycles,30,20,20","Lauren","I like how the image is depicting a scene.,10,340,20","Natalie","I like the detail on it, although I get a sad vibe to it,19,400,20","Gabriela","it is a bit disturbing, like a monster or ghost floating away from a bleak building,-8,140,20","3"
"27657","","survey-text","233","1772878","0.0-231.0-0.0","A207MWA5U0GWA5","","","","{""Q0"":""strange i feel confused looking at it.""}","","","","","","","","","","","","","","","","","","","","","","",""
"2916.399999999907","","image-slider-response","234","1775799","0.0-232.0","A207MWA5U0GWA5","","","","","-41","","","","","","","","","","","","","","","","","","","","","",""
"null","","image-button-response","235","1780803","0.0-233.0","A207MWA5U0GWA5","img_art/16.jpg","null","","","","","","","","","","","","","","","","","","","","","","","","",""
"4745","","image-button-response","236","1785552","0.0-234.0","A207MWA5U0GWA5","img_art/16.jpg","3","","","","","","","","","","","","","","","","","","","","","","","","",""
"3937","","image-button-response","237","1789496","0.0-235.0-0.0","A207MWA5U0GWA5","img_art/16.jpg","5","","","","","","","","","","","","","","","","","","","","","","","","",""
"1873","","image-button-response","238","1791375","0.0-236.0-0.0","A207MWA5U0GWA5","img_art/16.jpg","0","","","","","","","","","","","","","","","","","","","","","","","","",""
"null","","html-keyboard-response","239","1791878","0.0-237.0","A207MWA5U0GWA5","<p style=""font-size: 48px;"">+</p>","","","","","null","allTrialResponses","500","1","27","img_art/16.jpg","-41","strange i feel confused looking at it.","Natalie,Lauren,Katherine,Brooke,Gabriela,Paige","my reaction is that the picture is creepy,-19,400,20","The colored teddy bear clashes with the color scheme.,-20,340,20","Super weird. Id like to know more about it,24,120,20","Don't like teddy bears in art. I could draw that house.,-20,60,20","It looks very generic, like items were pasted onto the background,-38,140,20","very disturbed seening a gun in the same picture as a teddy bear,-50,60,20","Brooke","Don't like teddy bears in art. I could draw that house.,-20,60,20","Paige","very disturbed seening a gun in the same picture as a teddy bear,-50,60,20","Natalie","my reaction is that the picture is creepy,-19,400,20","3"
"26863","","survey-text","240","1818758","0.0-238.0-0.0","A207MWA5U0GWA5","","","","{""Q0"":""nice colors and good texture looks deep.""}","","","","","","","","","","","","","","","","","","","","","","",""
"3035.7000000001863","","image-slider-response","241","1821798","0.0-239.0","A207MWA5U0GWA5","","","","","39","","","","","","","","","","","","","","","","","","","","","",""
"null","","image-button-response","242","1826806","0.0-240.0","A207MWA5U0GWA5","img_art/12.jpg","null","","","","","","","","","","","","","","","","","","","","","","","","",""
"5051","","image-button-response","243","1831863","0.0-241.0","A207MWA5U0GWA5","img_art/12.jpg","3","","","","","","","","","","","","","","","","","","","","","","","","",""
"2779","","image-button-response","244","1834646","0.0-242.0-0.0","A207MWA5U0GWA5","img_art/12.jpg","1","","","","","","","","","","","","","","","","","","","","","","","","",""
"2307","","image-button-response","245","1836959","0.0-243.0-0.0","A207MWA5U0GWA5","img_art/12.jpg","2","","","","","","","","","","","","","","","","","","","","","","","","",""
"null","","html-keyboard-response","246","1838463","0.0-244.0","A207MWA5U0GWA5","<p style=""font-size: 48px;"">+</p>","","","","","null","allTrialResponses","1500","1","28","img_art/12.jpg","39","nice colors and good texture looks deep.","Natalie,Isabella,Sydney,Brooke,Julia,Paige","my reaction is that the picture is wierd,-11,400,20","Something you would see in a government building hallway,3,280,20","I don't like the dark black with the bright colors, but this as a whole is nice.,25,320,20","Dislike the style, the sharp rectangular pattern very jarring.,-20,60,20","this is pretty, but I wouldn't hang it on my wall.,15,40,20","do not like it. Seems too busy,-10,60,20","Brooke","Dislike the style, the sharp rectangular pattern very jarring.,-20,60,20","Isabella","Something you would see in a government building hallway,3,280,20","Sydney","I don't like the dark black with the bright colors, but this as a whole is nice.,25,320,20","3"
"36286","","survey-text","247","1874773","0.0-245.0-0.0","A207MWA5U0GWA5","","","","{""Q0"":""too dark feel like im looking out a window at night""}","","","","","","","","","","","","","","","","","","","","","","",""
"3091.600000000093","","image-slider-response","248","1877869","0.0-246.0","A207MWA5U0GWA5","","","","","-44","","","","","","","","","","","","","","","","","","","","","",""
"null","","image-button-response","249","1882875","0.0-247.0","A207MWA5U0GWA5","img_art/15.jpg","null","","","","","","","","","","","","","","","","","","","","","","","","",""
"6300","","image-button-response","250","1889181","0.0-248.0","A207MWA5U0GWA5","img_art/15.jpg","3","","","","","","","","","","","","","","","","","","","","","","","","",""
"1731","","image-button-response","251","1890916","0.0-249.0-0.0","A207MWA5U0GWA5","img_art/15.jpg","2","","","","","","","","","","","","","","","","","","","","","","","","",""
"963","","image-button-response","252","1891885","0.0-250.0-0.0","A207MWA5U0GWA5","img_art/15.jpg","1","","","","","","","","","","","","","","","","","","","","","","","","",""
"null","","html-keyboard-response","253","1893400","0.0-251.0","A207MWA5U0GWA5","<p style=""font-size: 48px;"">+</p>","","","","","null","allTrialResponses","1500","1","29","img_art/15.jpg","-44","too dark feel like im looking out a window at night","Chelsea,Isabella,Sydney,Brooke,Danielle,Leah","The colors are too busy.,-39,180,20","Too intense with the black dotting,-22,280,20","This picture is too confusing for me. I wouldn't want to stare at it to figure it out.,-10,320,20","This one reminds me of a postage stamp, but branches and leaves. Kind of fun.,15,60,20","This is pretty nice, reminds me of dark peacock feathers, or perhaps a bush with berries in it?,15,340,20","Pretty, like in a field of poppies,19,360,20","Brooke","This one reminds me of a postage stamp, but branches and leaves. Kind of fun.,15,60,20","Sydney","This picture is too confusing for me. I wouldn't want to stare at it to figure it out.,-10,320,20","Isabella","Too intense with the black dotting,-22,280,20","3"
"21463","","survey-text","254","1914891","0.0-252.0-0.0","A207MWA5U0GWA5","","","","{""Q0"":""i feel like im walking in the city at sunset.""}","","","","","","","","","","","","","","","","","","","","","","",""
"21363.69999999972","","image-slider-response","255","1936258","0.0-253.0","A207MWA5U0GWA5","","","","","41","","","","","","","","","","","","","","","","","","","","","",""
"null","","image-button-response","256","1941271","0.0-254.0","A207MWA5U0GWA5","img_art/22.jpg","null","","","","","","","","","","","","","","","","","","","","","","","","",""
"144","","image-button-response","257","1941419","0.0-255.0","A207MWA5U0GWA5","img_art/22.jpg","1","","","","","","","","","","","","","","","","","","","","","","","","",""
"4387","","image-button-response","258","1945812","0.0-256.0-0.0","A207MWA5U0GWA5","img_art/22.jpg","3","","","","","","","","","","","","","","","","","","","","","","","","",""
"2434","","image-button-response","259","1948252","0.0-257.0-0.0","A207MWA5U0GWA5","img_art/22.jpg","4","","","","","","","","","","","","","","","","","","","","","","","","",""
"null","","html-keyboard-response","260","1949764","0.0-258.0","A207MWA5U0GWA5","<p style=""font-size: 48px;"">+</p>","","","","","null","allTrialResponses","1500","1","30","img_art/22.jpg","41","i feel like im walking in the city at sunset.","Erica,Isabella,Sydney,Brooke,Mackenzie,Taylor","Picture is very relaxing,32,80,20","Sunsets at the beach,42,280,20","I don't normally like bright colors, but I like them in this. Don't like the random black paint.,30,320,20","Like this one, like a sunset,30,60,20","Different shapes within the image make it interesting to look at,20,20,20","Doesn't make me feel anything,-4,340,20","Isabella","Sunsets at the beach,42,280,20","Brooke","Like this one, like a sunset,30,60,20","Mackenzie","Different shapes within the image make it interesting to look at,20,20,20","3"
"6275","","image-button-response_instructions","261","1956068","0.0-259.0","A207MWA5U0GWA5","","0","instructions","","","","","","","","","","","","","","","","","","","","","","","",""
"1774","","image-button-response","262","1957859","0.0-260.0","A207MWA5U0GWA5","","0","","","","","","","","","","","","","","","","","","","","","","","","",""
