"rt","url","trial_type","trial_index","time_elapsed","internal_node_id","participant_id","stimulus","button_pressed","Name","responses","response","key_press","variableName","fixationTime","condition","trial","photo","subjectRating","subjectResponse","agentsNames","agent_1_Response","agent_2_Response","agent_3_Response","agent_4_Response","agent_5_Response","agent_6_Response","kept_1_name","kept_1_response","kept_2_name","kept_2_response","kept_3_name","kept_3_response","errorCounter"
"4896","external_page_harvard.html","external-html","0","5053","0.0-0.0","A20S6YBD2VKCZU","","","","","","","","","","","","","","","","","","","","","","","","","","",""
"3740","","image-button-response","1","8795","0.0-1.0","A20S6YBD2VKCZU","","1","","","","","","","","","","","","","","","","","","","","","","","","",""
"1313","","image-button-response","2","10114","0.0-2.0-0.0","A20S6YBD2VKCZU","","1","phone","","","","","","","","","","","","","","","","","","","","","","","",""
"5214","","survey-text","3","15329","0.0-3.0-0.0","A20S6YBD2VKCZU","","","","{""Q0"":""A20S6YBD2VKCZU""}","","","","","","","","","","","","","","","","","","","","","","",""
"5261","","image-button-response_instructions","4","20593","0.0-4.0","A20S6YBD2VKCZU","","0","instructions","","","","","","","","","","","","","","","","","","","","","","","",""
"17548","","image-button-response_instructions","5","38142","0.0-5.0","A20S6YBD2VKCZU","img_art/ins/popularity/ins1.png","0","instructions","","","","","","","","","","","","","","","","","","","","","","","",""
"8302","","image-button-response_instructions","6","46444","0.0-6.0","A20S6YBD2VKCZU","img_art/ins/popularity/ins2.png","0","instructions","","","","","","","","","","","","","","","","","","","","","","","",""
"3933","","image-button-response_instructions","7","50380","0.0-7.0","A20S6YBD2VKCZU","img_art/ins/popularity/ins2Extreme.png","0","instructions","","","","","","","","","","","","","","","","","","","","","","","",""
"6532","","image-button-response_instructions","8","56915","0.0-8.0","A20S6YBD2VKCZU","img_art/ins/popularity/ins3KEEPpop.PNG","0","instructions","","","","","","","","","","","","","","","","","","","","","","","",""
"5141","","image-button-response_instructions","9","62058","0.0-9.0","A20S6YBD2VKCZU","img_art/ins/popularity/ins3ANamepop.PNG","0","instructions","","","","","","","","","","","","","","","","","","","","","","","",""
"2079","","image-button-response_instructions","10","64138","0.0-10.0","A20S6YBD2VKCZU","img_art/ins/popularity/ins3ARatingpop.png","0","instructions","","","","","","","","","","","","","","","","","","","","","","","",""
"2231","","image-button-response_instructions","11","66370","0.0-11.0","A20S6YBD2VKCZU","img_art/ins/popularity/ins3ATextpop.png","0","instructions","","","","","","","","","","","","","","","","","","","","","","","",""
"50598","","image-button-response_instructions","12","116970","0.0-12.0","A20S6YBD2VKCZU","img_art/ins/popularity/ins3ALikespop.png","0","instructions","","","","","","","","","","","","","","","","","","","","","","","",""
"9045","","image-button-response_instructions","13","126017","0.0-13.0","A20S6YBD2VKCZU","img_art/ins/popularity/ins3KEEPpop.PNG","0","instructions","","","","","","","","","","","","","","","","","","","","","","","",""
"28754","","image-button-response_instructions","14","154772","0.0-14.0","A20S6YBD2VKCZU","img_art/ins/popularity/ins3_5RED.png","0","instructions","","","","","","","","","","","","","","","","","","","","","","","",""
"4278","","image-button-response_instructions","15","159051","0.0-15.0","A20S6YBD2VKCZU","img_art/ins/popularity/ins3KEEPpop.PNG","0","instructions","","","","","","","","","","","","","","","","","","","","","","","",""
"13413","","image-button-response_instructions","16","172465","0.0-16.0","A20S6YBD2VKCZU","img_art/ins/popularity/ins4KEEPpop.PNG","0","instructions","","","","","","","","","","","","","","","","","","","","","","","",""
"12837","","image-button-response_instructions","17","185303","0.0-17.0","A20S6YBD2VKCZU","img_art/ins/popularity/ins5KEEPpop.PNG","0","instructions","","","","","","","","","","","","","","","","","","","","","","","",""
"2799","","image-button-response_instructions","18","188104","0.0-18.0","A20S6YBD2VKCZU","","0","instructions","","","","","","","","","","","","","","","","","","","","","","","",""
"12089","","survey-text","19","200229","0.0-19.0-0.0","A20S6YBD2VKCZU","","","","{""Q0"":""but""}","","","","","","","","","","","","","","","","","","","","","","",""
"20579","","survey-text","20","220810","0.0-20.0-0.0","A20S6YBD2VKCZU","","","","{""Q0"":""Very soothing abstraction.""}","","","","","","","","","","","","","","","","","","","","","","",""
"3372.5999999940395","","image-slider-response","21","224186","0.0-21.0","A20S6YBD2VKCZU","","","","","50","","","","","","","","","","","","","","","","","","","","","",""
"null","","image-button-response","22","229193","0.0-22.0","A20S6YBD2VKCZU","img_art/ins/1.jpg","null","","","","","","","","","","","","","","","","","","","","","","","","",""
"891","","image-button-response","23","230089","0.0-23.0","A20S6YBD2VKCZU","img_art/ins/1.jpg","4","","","","","","","","","","","","","","","","","","","","","","","","",""
"1989","","image-button-response","24","232081","0.0-24.0-0.0","A20S6YBD2VKCZU","img_art/ins/1.jpg","5","","","","","","","","","","","","","","","","","","","","","","","","",""
"3011","","image-button-response","25","235097","0.0-25.0-0.0","A20S6YBD2VKCZU","img_art/ins/1.jpg","0","","","","","","","","","","","","","","","","","","","","","","","","",""
"null","","html-keyboard-response","26","236102","0.0-26.0","A20S6YBD2VKCZU","<p style=""font-size: 48px;"">+</p>","","","","","null","allTrialResponses","1000","1","-2","img_art/ins/1.jpg","50","Very soothing abstraction.","Allison,Ashley,Beth,Dora,Erika,Jen","looks like a lot of things going on in the mist,20,20,20","I just don't get why these type of art would be popular,-32,40,20","This color reminds me of poo,-46,60,20","looks like what my niece in 3rd grade did this afternoon,-50,80,20","I like the sophisticated brushwork,40,100,20","It reminds me of a candy land dream I had,36,120,20","Erika","I like the sophisticated brushwork,40,100,20","Jen","It reminds me of a candy land dream I had,36,120,20","Allison","looks like a lot of things going on in the mist,20,20,20","0"
"21590","","survey-text","27","257701","0.0-27.0-0.0","A20S6YBD2VKCZU","","","","{""Q0"":""I love bold and textured art.""}","","","","","","","","","","","","","","","","","","","","","","",""
"2429.4000000059605","","image-slider-response","28","260132","0.0-28.0","A20S6YBD2VKCZU","","","","","49","","","","","","","","","","","","","","","","","","","","","",""
"null","","image-button-response","29","265136","0.0-29.0","A20S6YBD2VKCZU","img_art/ins/2.jpg","null","","","","","","","","","","","","","","","","","","","","","","","","",""
"704","","image-button-response","30","265844","0.0-30.0","A20S6YBD2VKCZU","img_art/ins/2.jpg","1","","","","","","","","","","","","","","","","","","","","","","","","",""
"1589","","image-button-response","31","267435","0.0-31.0-0.0","A20S6YBD2VKCZU","img_art/ins/2.jpg","5","","","","","","","","","","","","","","","","","","","","","","","","",""
"3181","","image-button-response","32","270619","0.0-32.0-0.0","A20S6YBD2VKCZU","img_art/ins/2.jpg","4","","","","","","","","","","","","","","","","","","","","","","","","",""
"null","","html-keyboard-response","33","272121","0.0-33.0","A20S6YBD2VKCZU","<p style=""font-size: 48px;"">+</p>","","","","","null","allTrialResponses","1500","1","-1","img_art/ins/2.jpg","49","I love bold and textured art.","Allison,Kara,Katie,Jenna,Erika,Jen","I don't have strong feelings about this,10,20,20","I like the blocks of color arrangements,30,160,20","too much color!,-28,180,20","One of my pet peevs,-48,140,20","I would never be able to compose a sophisticated pallete like this,48,100,20","It reminds me of a fireplace,36,120,20","Kara","I like the blocks of color arrangements,30,160,20","Jen","It reminds me of a fireplace,36,120,20","Erika","I would never be able to compose a sophisticated pallete like this,48,100,20","0"
"31576","","survey-text","34","303702","0.0-34.0-0.0","A20S6YBD2VKCZU","","","","{""Q0"":""The contrast of blues gives a wintery vibe when viewing.""}","","","","","","","","","","","","","","","","","","","","","","",""
"2093.6000000089407","","image-slider-response","35","305797","0.0-35.0","A20S6YBD2VKCZU","","","","","50","","","","","","","","","","","","","","","","","","","","","",""
"3325","","image-button-response","36","310800","0.0-36.0","A20S6YBD2VKCZU","img_art/ins/3.jpg","0","","","","","","","","","","","","","","","","","","","","","","","","",""
"763","","image-button-response","37","311565","0.0-37.0","A20S6YBD2VKCZU","img_art/ins/3.jpg","4","","","","","","","","","","","","","","","","","","","","","","","","",""
"662","","image-button-response","38","312229","0.0-38.0-0.0","A20S6YBD2VKCZU","img_art/ins/3.jpg","1","","","","","","","","","","","","","","","","","","","","","","","","",""
"494","","image-button-response","39","312725","0.0-39.0-0.0","A20S6YBD2VKCZU","img_art/ins/3.jpg","0","","","","","","","","","","","","","","","","","","","","","","","","",""
"null","","html-keyboard-response","40","314228","0.0-40.0","A20S6YBD2VKCZU","<p style=""font-size: 48px;"">+</p>","","","","","null","allTrialResponses","1500","1","0","img_art/ins/3.jpg","50","The contrast of blues gives a wintery vibe when viewing.","Mary,Kara,Rose,Leslie,Erika,Jen","I like the overlapping of brushes,41,220,20","calming blue is very nice,36,160,20","My daily routine, it's depressing,-20,240,20","It's an alright work,15,200,20","I feel connected to the artist,40,100,20","I can feel a rainy day from this painting,18,120,20","Erika","I feel connected to the artist,40,100,20","Kara","calming blue is very nice,36,160,20","Mary","I like the overlapping of brushes,41,220,20","0"
"3332","","image-button-response_instructions","41","317572","0.0-41.0","A20S6YBD2VKCZU","","0","instructions","","","","","","","","","","","","","","","","","","","","","","","",""
"15548","","survey-likert","42","333122","0.0-42.0-0.0","A20S6YBD2VKCZU","","","","{""Q0"":"""",""Q1"":0,""Q2"":0}","","","","","","","","","","","","","","","","","","","","","","",""
"3718","","survey-likert","43","341720","0.0-42.1-0.1","A20S6YBD2VKCZU","","","","{""Q0"":"""",""Q1"":0,""Q2"":1}","","","","","","","","","","","","","","","","","","","","","","",""
"6425","","survey-text","44","348151","0.0-43.0-0.0","A20S6YBD2VKCZU","","","","{""Q0"":""rock""}","","","","","","","","","","","","","","","","","","","","","","",""
"17507","","survey-text","45","365660","0.0-44.0-0.0","A20S6YBD2VKCZU","","","","{""Q0"":""Wonderful, masterful!""}","","","","","","","","","","","","","","","","","","","","","","",""
"1813.9000000059605","","image-slider-response","46","367476","0.0-45.0","A20S6YBD2VKCZU","","","","","50","","","","","","","","","","","","","","","","","","","","","",""
"null","","image-button-response","47","372529","0.0-46.0","A20S6YBD2VKCZU","img_art/29.jpg","null","","","","","","","","","","","","","","","","","","","","","","","","",""
"783","","image-button-response","48","373315","0.0-47.0","A20S6YBD2VKCZU","img_art/29.jpg","1","","","","","","","","","","","","","","","","","","","","","","","","",""
"2174","","image-button-response","49","375491","0.0-48.0-0.0","A20S6YBD2VKCZU","img_art/29.jpg","2","","","","","","","","","","","","","","","","","","","","","","","","",""
"997","","image-button-response","50","376491","0.0-49.0-0.0","A20S6YBD2VKCZU","img_art/29.jpg","4","","","","","","","","","","","","","","","","","","","","","","","","",""
"null","","html-keyboard-response","51","376994","0.0-50.0","A20S6YBD2VKCZU","<p style=""font-size: 48px;"">+</p>","","","","","null","allTrialResponses","500","1","1","img_art/29.jpg","50","Wonderful, masterful!","Meghan,Rebecca,Andrea,Victoria,Gabriela,Margaret","feels random and not thoughtout,-37,220,20","love the texture, i don't know, i just really like it (and the paintbrush adds a nice touch),44,100,20","Bottomless pit and prison. Feels like its saying time is precious.,11,240,20","makes me think of destruction,-20,400,20","I like that it looks like a scene from perhaps a failed painted project,10,140,20","this does nothing for me. hate the colors. hate the design,-50,100,20","Rebecca","love the texture, i don't know, i just really like it (and the paintbrush adds a nice touch),44,100,20","Andrea","Bottomless pit and prison. Feels like its saying time is precious.,11,240,20","Gabriela","I like that it looks like a scene from perhaps a failed painted project,10,140,20","1"
"16409","","survey-text","52","393408","0.0-51.0-0.0","A20S6YBD2VKCZU","","","","{""Q0"":""Dreamy, yet bright and clear.""}","","","","","","","","","","","","","","","","","","","","","","",""
"4061.5999999940395","","image-slider-response","53","397471","0.0-52.0","A20S6YBD2VKCZU","","","","","47","","","","","","","","","","","","","","","","","","","","","",""
"null","","image-button-response","54","402474","0.0-53.0","A20S6YBD2VKCZU","img_art/1.jpg","null","","","","","","","","","","","","","","","","","","","","","","","","",""
"1131","","image-button-response","55","403607","0.0-54.0","A20S6YBD2VKCZU","img_art/1.jpg","4","","","","","","","","","","","","","","","","","","","","","","","","",""
"2517","","image-button-response","56","406126","0.0-55.0-0.0","A20S6YBD2VKCZU","img_art/1.jpg","3","","","","","","","","","","","","","","","","","","","","","","","","",""
"7044","","image-button-response","57","413173","0.0-56.0-0.0","A20S6YBD2VKCZU","img_art/1.jpg","1","","","","","","","","","","","","","","","","","","","","","","","","",""
"null","","html-keyboard-response","58","414176","0.0-57.0","A20S6YBD2VKCZU","<p style=""font-size: 48px;"">+</p>","","","","","null","allTrialResponses","1000","1","2","img_art/1.jpg","47","Dreamy, yet bright and clear.","Alexis,Rebecca,Andrea,Bailey,Gabriela,Savannah","Taco Bell wallpaper. Doesn't really make me feel anything,3,100,20","bamboo boat in sunset,12,100,20","It just doesn't speak to me.,0,240,20","A bit of a smokey mess, but it does have an air of mystery I like,7,360,20","This photo reminds me of a fall afternoon, serene,11,140,20","Its simply okay.,3,200,20","Gabriela","This photo reminds me of a fall afternoon, serene,11,140,20","Bailey","A bit of a smokey mess, but it does have an air of mystery I like,7,360,20","Rebecca","bamboo boat in sunset,12,100,20","1"
"33115","","survey-text","59","447295","0.0-58.0-0.0","A20S6YBD2VKCZU","","","","{""Q0"":""This is a lovely piece. Perfect for a kitchen center piece.""}","","","","","","","","","","","","","","","","","","","","","","",""
"2101.7000000029802","","image-slider-response","60","449399","0.0-59.0","A20S6YBD2VKCZU","","","","","50","","","","","","","","","","","","","","","","","","","","","",""
"null","","image-button-response","61","454402","0.0-60.0","A20S6YBD2VKCZU","img_art/14.jpg","null","","","","","","","","","","","","","","","","","","","","","","","","",""
"785","","image-button-response","62","455191","0.0-61.0","A20S6YBD2VKCZU","img_art/14.jpg","0","","","","","","","","","","","","","","","","","","","","","","","","",""
"1198","","image-button-response","63","456390","0.0-62.0-0.0","A20S6YBD2VKCZU","img_art/14.jpg","0","","","","","","","","","","","","","","","","","","","","","","","","",""
"751","","image-button-response","64","462182","0.0-62.1-0.1","A20S6YBD2VKCZU","img_art/14.jpg","5","","","","","","","","","","","","","","","","","","","","","","","","",""
"2884","","image-button-response","65","465069","0.0-63.0-0.0","A20S6YBD2VKCZU","img_art/14.jpg","0","","","","","","","","","","","","","","","","","","","","","","","","",""
"7486","","image-button-response","66","474501","0.0-63.1-0.1","A20S6YBD2VKCZU","img_art/14.jpg","3","","","","","","","","","","","","","","","","","","","","","","","","",""
"null","","html-keyboard-response","67","475505","0.0-64.0","A20S6YBD2VKCZU","<p style=""font-size: 48px;"">+</p>","","","","","null","allTrialResponses","1000","1","3","img_art/14.jpg","50","This is a lovely piece. Perfect for a kitchen center piece.","Dominique,Rebecca,Megan,Bailey,Gabriela,Amanda","Reminds me of the old days with my family and my grandma,41,400,20","medium recalls back to an oriental style,16,100,20","Baby's room palette with tree confusion in a more confused substrate.,-15,200,20","Not quite the style I'd like, but it does have a certain air of emptiness.,12,360,20","It looks like a table centerpiece,-22,140,20","Gorgeous use of water color,50,180,20","Dominique","Reminds me of the old days with my family and my grandma,41,400,20","Amanda","Gorgeous use of water color,50,180,20","Bailey","Not quite the style I'd like, but it does have a certain air of emptiness.,12,360,20","5"
"51840","","survey-text","68","527355","0.0-65.0-0.0","A20S6YBD2VKCZU","","","","{""Q0"":""This is one of those very interesting abstracts. I love the idea of bringing it all together.""}","","","","","","","","","","","","","","","","","","","","","","",""
"2117.4000000059605","","image-slider-response","69","529475","0.0-66.0","A20S6YBD2VKCZU","","","","","50","","","","","","","","","","","","","","","","","","","","","",""
"null","","image-button-response","70","534478","0.0-67.0","A20S6YBD2VKCZU","img_art/8.jpg","null","","","","","","","","","","","","","","","","","","","","","","","","",""
"3769","","image-button-response","71","538250","0.0-68.0","A20S6YBD2VKCZU","img_art/8.jpg","0","","","","","","","","","","","","","","","","","","","","","","","","",""
"1261","","image-button-response","72","539514","0.0-69.0-0.0","A20S6YBD2VKCZU","img_art/8.jpg","5","","","","","","","","","","","","","","","","","","","","","","","","",""
"10036","","image-button-response","73","549552","0.0-70.0-0.0","A20S6YBD2VKCZU","img_art/8.jpg","2","","","","","","","","","","","","","","","","","","","","","","","","",""
"null","","html-keyboard-response","74","550554","0.0-71.0","A20S6YBD2VKCZU","<p style=""font-size: 48px;"">+</p>","","","","","null","allTrialResponses","1000","1","4","img_art/8.jpg","50","This is one of those very interesting abstracts. I love the idea of bringing it all together.","Dominique,Sophia,Jessica,Bailey,Diana,Amanda","This speaks volumes to me and is another favorite I'm sure by many,40,400,20","Interesting but it has a bit of a dark feel to it.,6,280,20","Very cool! I like this piece,9,400,20","Not a fan of abstract looking pieces with too many focal points. The tunnel and face, for example,-31,360,20","I don't care for the piece, but I appreciate the talent that it took to create it.,22,380,20","I love architectural paintings,46,180,20","Dominique","This speaks volumes to me and is another favorite I'm sure by many,40,400,20","Amanda","I love architectural paintings,46,180,20","Jessica","Very cool! I like this piece,9,400,20","5"
"21445","","survey-text","75","572005","0.0-72.0-0.0","A20S6YBD2VKCZU","","","","{""Q0"":""Wow! Just wow! ""}","","","","","","","","","","","","","","","","","","","","","","",""
"1804.7000000029802","","image-slider-response","76","573812","0.0-73.0","A20S6YBD2VKCZU","","","","","50","","","","","","","","","","","","","","","","","","","","","",""
"null","","image-button-response","77","578817","0.0-74.0","A20S6YBD2VKCZU","img_art/11.jpg","null","","","","","","","","","","","","","","","","","","","","","","","","",""
"1575","","image-button-response","78","580404","0.0-75.0","A20S6YBD2VKCZU","img_art/11.jpg","2","","","","","","","","","","","","","","","","","","","","","","","","",""
"2637","","image-button-response","79","583044","0.0-76.0-0.0","A20S6YBD2VKCZU","img_art/11.jpg","0","","","","","","","","","","","","","","","","","","","","","","","","",""
"1700","","image-button-response","80","584747","0.0-77.0-0.0","A20S6YBD2VKCZU","img_art/11.jpg","3","","","","","","","","","","","","","","","","","","","","","","","","",""
"null","","html-keyboard-response","81","586250","0.0-78.0","A20S6YBD2VKCZU","<p style=""font-size: 48px;"">+</p>","","","","","null","allTrialResponses","1500","1","5","img_art/11.jpg","50","Wow! Just wow! ","Dominique,Cassandra,Jessica,Nicole,Melissa,Amanda","Looks like a familiar area,31,400,20","I liked it it looked like an roller coasters at an amusment park.,16,120,20","This looks cool, and definitely comes to life in a way,36,400,20","Those vertical strokes are to die for and I love these colors !!!,50,20,20","reminds me of home,5,240,20","It makes me feel angry and overwhelmed,-29,180,20","Jessica","This looks cool, and definitely comes to life in a way,36,400,20","Dominique","Looks like a familiar area,31,400,20","Nicole","Those vertical strokes are to die for and I love these colors !!!,50,20,20","5"
"5161","","survey-text","82","591449","0.0-79.0-0.0","A20S6YBD2VKCZU","","","","{""Q0"":""sky""}","","","","","","","","","","","","","","","","","","","","","","",""
"16859","","survey-text","83","608311","0.0-80.0-0.0","A20S6YBD2VKCZU","","","","{""Q0"":""Geometric pieces are the most eye catching.""}","","","","","","","","","","","","","","","","","","","","","","",""
"3101.5","","image-slider-response","84","611415","0.0-81.0","A20S6YBD2VKCZU","","","","","50","","","","","","","","","","","","","","","","","","","","","",""
"null","","image-button-response","85","616423","0.0-82.0","A20S6YBD2VKCZU","img_art/12.jpg","null","","","","","","","","","","","","","","","","","","","","","","","","",""
"757","","image-button-response","86","617182","0.0-83.0","A20S6YBD2VKCZU","img_art/12.jpg","0","","","","","","","","","","","","","","","","","","","","","","","","",""
"9269","","image-button-response","87","626453","0.0-84.0-0.0","A20S6YBD2VKCZU","img_art/12.jpg","1","","","","","","","","","","","","","","","","","","","","","","","","",""
"4356","","image-button-response","88","630812","0.0-85.0-0.0","A20S6YBD2VKCZU","img_art/12.jpg","2","","","","","","","","","","","","","","","","","","","","","","","","",""
"null","","html-keyboard-response","89","632315","0.0-86.0","A20S6YBD2VKCZU","<p style=""font-size: 48px;"">+</p>","","","","","null","allTrialResponses","1500","1","6","img_art/12.jpg","50","Geometric pieces are the most eye catching.","Dominique,Alyssa,Jessica,Nicole,Brianna,Taylor","I have seen some like this before very popular and full of life,42,400,20","Its cool,reminiscent of Andy Warhol type of style,10,160,20","I like this concept.,11,400,20","I like all the squares and the colors but it feels too cluttered to me,20,20,20","Don't like it or despise it,1,20,20","It's kind of ominous,-15,340,20","Dominique","I have seen some like this before very popular and full of life,42,400,20","Alyssa","Its cool,reminiscent of Andy Warhol type of style,10,160,20","Jessica","I like this concept.,11,400,20","5"
"12961","","survey-text","90","645289","0.0-87.0-0.0","A20S6YBD2VKCZU","","","","{""Q0"":""Simple and elegant. ""}","","","","","","","","","","","","","","","","","","","","","","",""
"2101.5","","image-slider-response","91","647393","0.0-88.0","A20S6YBD2VKCZU","","","","","50","","","","","","","","","","","","","","","","","","","","","",""
"null","","image-button-response","92","652397","0.0-89.0","A20S6YBD2VKCZU","img_art/3.jpg","null","","","","","","","","","","","","","","","","","","","","","","","","",""
"3484","","image-button-response","93","655883","0.0-90.0","A20S6YBD2VKCZU","img_art/3.jpg","0","","","","","","","","","","","","","","","","","","","","","","","","",""
"14377","","image-button-response","94","670262","0.0-91.0-0.0","A20S6YBD2VKCZU","img_art/3.jpg","3","","","","","","","","","","","","","","","","","","","","","","","","",""
"1797","","image-button-response","95","672062","0.0-92.0-0.0","A20S6YBD2VKCZU","img_art/3.jpg","4","","","","","","","","","","","","","","","","","","","","","","","","",""
"null","","html-keyboard-response","96","672565","0.0-93.0","A20S6YBD2VKCZU","<p style=""font-size: 48px;"">+</p>","","","","","null","allTrialResponses","500","1","7","img_art/3.jpg","50","Simple and elegant. ","Dominique,Alyssa,Jessica,Emma,Rachel,Leslie","Iike this one it's a piece that I need to spend more time with to understand how i feel about it,20,400,20","Looks like someone spilled ketchup and forgot to clean it up,-30,160,20","Don't get the scribbles.,-13,400,20","Feels upset .......,-10,60,20","Too red and chaotic. Not calming.,-41,80,20","It looks like the artist was trying too hard to make it chaotic and emotional.,-25,380,20","Dominique","Iike this one it's a piece that I need to spend more time with to understand how i feel about it,20,400,20","Emma","Feels upset .......,-10,60,20","Rachel","Too red and chaotic. Not calming.,-41,80,20","5"
"21240","","survey-text","97","693810","0.0-94.0-0.0","A20S6YBD2VKCZU","","","","{""Q0"":""The contrast of life. It's everywhere.""}","","","","","","","","","","","","","","","","","","","","","","",""
"2141.2000000029802","","image-slider-response","98","695954","0.0-95.0","A20S6YBD2VKCZU","","","","","50","","","","","","","","","","","","","","","","","","","","","",""
"null","","image-button-response","99","700957","0.0-96.0","A20S6YBD2VKCZU","img_art/17.jpg","null","","","","","","","","","","","","","","","","","","","","","","","","",""
"866","","image-button-response","100","701825","0.0-97.0","A20S6YBD2VKCZU","img_art/17.jpg","0","","","","","","","","","","","","","","","","","","","","","","","","",""
"2245","","image-button-response","101","704073","0.0-98.0-0.0","A20S6YBD2VKCZU","img_art/17.jpg","3","","","","","","","","","","","","","","","","","","","","","","","","",""
"6396","","image-button-response","102","710472","0.0-99.0-0.0","A20S6YBD2VKCZU","img_art/17.jpg","2","","","","","","","","","","","","","","","","","","","","","","","","",""
"null","","html-keyboard-response","103","711975","0.0-100.0","A20S6YBD2VKCZU","<p style=""font-size: 48px;"">+</p>","","","","","null","allTrialResponses","1500","1","8","img_art/17.jpg","50","The contrast of life. It's everywhere.","Dominique,Maria,Michaela,Emma,Rachel,Julia","Another favorite a relaxing day with nature a day to take it all In,34,400,20","feel close to nature,30,120,20","I love how soft it is,35,260,20","Love the colors and the movement,46,60,20","Reminds me of a beautiful tree growing in a courtyard. I like the light and airy technique used.,34,80,20","I'm not into paintings of trees,-18,40,20","Dominique","Another favorite a relaxing day with nature a day to take it all In,34,400,20","Emma","Love the colors and the movement,46,60,20","Michaela","I love how soft it is,35,260,20","5"
"37895","","survey-text","104","749890","0.0-101.0-0.0","A20S6YBD2VKCZU","","","","{""Q0"":""Dreams don't always come with lullabies. ""}","","","","","","","","","","","","","","","","","","","","","","",""
"1861.5","","image-slider-response","105","751753","0.0-102.0","A20S6YBD2VKCZU","","","","","50","","","","","","","","","","","","","","","","","","","","","",""
"null","","image-button-response","106","756758","0.0-103.0","A20S6YBD2VKCZU","img_art/10.jpg","null","","","","","","","","","","","","","","","","","","","","","","","","",""
"2734","","image-button-response","107","759497","0.0-104.0","A20S6YBD2VKCZU","img_art/10.jpg","1","","","","","","","","","","","","","","","","","","","","","","","","",""
"4596","","image-button-response","108","764096","0.0-105.0-0.0","A20S6YBD2VKCZU","img_art/10.jpg","0","","","","","","","","","","","","","","","","","","","","","","","","",""
"2836","","image-button-response","109","766935","0.0-106.0-0.0","A20S6YBD2VKCZU","img_art/10.jpg","3","","","","","","","","","","","","","","","","","","","","","","","","",""
"null","","html-keyboard-response","110","767437","0.0-107.0","A20S6YBD2VKCZU","<p style=""font-size: 48px;"">+</p>","","","","","null","allTrialResponses","500","1","9","img_art/10.jpg","50","Dreams don't always come with lullabies. ","Dominique,Haley,Michaela,Emma,Caroline,Erica","A very conversational piece could be of many different ideas,38,400,20","Makes me want to know more about it, and potentially the artist.,20,220,20","It looks like it's sinking but it could also be a view from above,40,260,20","Feels musical .....,40,60,20","This painting made me think of a guitar which made me think of music which envoked happy feelings.,28,100,20","Relaxing; a lot of going on but colours make it easy to look at,20,80,20","Haley","Makes me want to know more about it, and potentially the artist.,20,220,20","Dominique","A very conversational piece could be of many different ideas,38,400,20","Emma","Feels musical .....,40,60,20","5"
"22402","","survey-text","111","789844","0.0-108.0-0.0","A20S6YBD2VKCZU","","","","{""Q0"":""Little creatures get sad when no one gives them attention.""}","","","","","","","","","","","","","","","","","","","","","","",""
"2133.3999999910593","","image-slider-response","112","791979","0.0-109.0","A20S6YBD2VKCZU","","","","","50","","","","","","","","","","","","","","","","","","","","","",""
"null","","image-button-response","113","796982","0.0-110.0","A20S6YBD2VKCZU","img_art/22.jpg","null","","","","","","","","","","","","","","","","","","","","","","","","",""
"4194","","image-button-response","114","801178","0.0-111.0","A20S6YBD2VKCZU","img_art/22.jpg","1","","","","","","","","","","","","","","","","","","","","","","","","",""
"1862","","image-button-response","115","803042","0.0-112.0-0.0","A20S6YBD2VKCZU","img_art/22.jpg","3","","","","","","","","","","","","","","","","","","","","","","","","",""
"2717","","image-button-response","116","805762","0.0-113.0-0.0","A20S6YBD2VKCZU","img_art/22.jpg","0","","","","","","","","","","","","","","","","","","","","","","","","",""
"null","","html-keyboard-response","117","806264","0.0-114.0","A20S6YBD2VKCZU","<p style=""font-size: 48px;"">+</p>","","","","","null","allTrialResponses","500","1","10","img_art/22.jpg","50","Little creatures get sad when no one gives them attention.","Dominique,Haley,Caitlin,Emma,Olivia,Lauren","Can fit with anyone. And in any home a great piece of art,35,400,20","Beautiful. I love the color contrast and gradients.,50,220,20","Looks like the kind of art I would see at the doctor's office.,-5,80,20","Love the use of color,50,60,20","ball of light in 90s,8,40,20","This doesn't invoke anything, since I can't tell what the piece represents.,0,340,20","Haley","Beautiful. I love the color contrast and gradients.,50,220,20","Emma","Love the use of color,50,60,20","Dominique","Can fit with anyone. And in any home a great piece of art,35,400,20","5"
"5102","","survey-text","118","811390","0.0-115.0-0.0","A20S6YBD2VKCZU","","","","{""Q0"":""our""}","","","","","","","","","","","","","","","","","","","","","","",""
"35675","","survey-text","119","847067","0.0-116.0-0.0","A20S6YBD2VKCZU","","","","{""Q0"":""So pretty. Close up of fibers on a garment.""}","","","","","","","","","","","","","","","","","","","","","","",""
"2965.5","","image-slider-response","120","850034","0.0-117.0","A20S6YBD2VKCZU","","","","","45","","","","","","","","","","","","","","","","","","","","","",""
"null","","image-button-response","121","855039","0.0-118.0","A20S6YBD2VKCZU","img_art/13.jpg","null","","","","","","","","","","","","","","","","","","","","","","","","",""
"895","","image-button-response","122","855938","0.0-119.0","A20S6YBD2VKCZU","img_art/13.jpg","2","","","","","","","","","","","","","","","","","","","","","","","","",""
"5884","","image-button-response","123","861825","0.0-120.0-0.0","A20S6YBD2VKCZU","img_art/13.jpg","5","","","","","","","","","","","","","","","","","","","","","","","","",""
"4956","","image-button-response","124","866784","0.0-121.0-0.0","A20S6YBD2VKCZU","img_art/13.jpg","4","","","","","","","","","","","","","","","","","","","","","","","","",""
"null","","html-keyboard-response","125","868289","0.0-122.0","A20S6YBD2VKCZU","<p style=""font-size: 48px;"">+</p>","","","","","null","allTrialResponses","1500","1","11","img_art/13.jpg","45","So pretty. Close up of fibers on a garment.","Dominique,Haley,Katherine,Emma,Leah,Allison","I love the colors reminds me of a rainy day..it's calm and relaxing,32,400,20","Nothing about this stands out to me,-10,220,20","Best color combo. i love this.,50,120,20","It's pretty ...........,41,60,20","Like it a lot, reminds me of rainy day on glass,43,360,20","Generic mix of colors. Cool and messy.,10,140,20","Katherine","Best color combo. i love this.,50,120,20","Allison","Generic mix of colors. Cool and messy.,10,140,20","Leah","Like it a lot, reminds me of rainy day on glass,43,360,20","5"
"20485","","survey-text","126","888788","0.0-123.0-0.0","A20S6YBD2VKCZU","","","","{""Q0"":""The A.I. has gone too far! ""}","","","","","","","","","","","","","","","","","","","","","","",""
"1789.9000000059605","","image-slider-response","127","890580","0.0-124.0","A20S6YBD2VKCZU","","","","","50","","","","","","","","","","","","","","","","","","","","","",""
"null","","image-button-response","128","895585","0.0-125.0","A20S6YBD2VKCZU","img_art/18.jpg","null","","","","","","","","","","","","","","","","","","","","","","","","",""
"4903","","image-button-response","129","900491","0.0-126.0","A20S6YBD2VKCZU","img_art/18.jpg","2","","","","","","","","","","","","","","","","","","","","","","","","",""
"8787","","image-button-response","130","909281","0.0-127.0-0.0","A20S6YBD2VKCZU","img_art/18.jpg","4","","","","","","","","","","","","","","","","","","","","","","","","",""
"3365","","image-button-response","131","912649","0.0-128.0-0.0","A20S6YBD2VKCZU","img_art/18.jpg","3","","","","","","","","","","","","","","","","","","","","","","","","",""
"null","","html-keyboard-response","132","913152","0.0-129.0","A20S6YBD2VKCZU","<p style=""font-size: 48px;"">+</p>","","","","","null","allTrialResponses","500","1","12","img_art/18.jpg","50","The A.I. has gone too far! ","Erin,Alexa,Katherine,Kylie,Leah,Allison","See a weird horse,-22,120,20","Very wild and abstract. I love it and would definitely hang this up in my home,50,40,20","Ok this is really badass. Like a warrior come to the last battle,50,120,20","Kind of weird in a confusing way,10,300,20","I really like it, like hells drivers,43,360,20","Colors are okay. Reminds me of cavalry.,10,140,20","Katherine","Ok this is really badass. Like a warrior come to the last battle,50,120,20","Leah","I really like it, like hells drivers,43,360,20","Kylie","Kind of weird in a confusing way,10,300,20","5"
"25206","","survey-text","133","938372","0.0-130.0-0.0","A20S6YBD2VKCZU","","","","{""Q0"":""AWE! This is very eye catching. You can see things everywhere.""}","","","","","","","","","","","","","","","","","","","","","","",""
"2293.7000000029802","","image-slider-response","134","940668","0.0-131.0","A20S6YBD2VKCZU","","","","","50","","","","","","","","","","","","","","","","","","","","","",""
"null","","image-button-response","135","945670","0.0-132.0","A20S6YBD2VKCZU","img_art/24.jpg","null","","","","","","","","","","","","","","","","","","","","","","","","",""
"948","","image-button-response","136","946620","0.0-133.0","A20S6YBD2VKCZU","img_art/24.jpg","4","","","","","","","","","","","","","","","","","","","","","","","","",""
"1734","","image-button-response","137","948356","0.0-134.0-0.0","A20S6YBD2VKCZU","img_art/24.jpg","3","","","","","","","","","","","","","","","","","","","","","","","","",""
"8267","","image-button-response","138","956626","0.0-135.0-0.0","A20S6YBD2VKCZU","img_art/24.jpg","2","","","","","","","","","","","","","","","","","","","","","","","","",""
"null","","html-keyboard-response","139","958129","0.0-136.0","A20S6YBD2VKCZU","<p style=""font-size: 48px;"">+</p>","","","","","null","allTrialResponses","1500","1","13","img_art/24.jpg","50","AWE! This is very eye catching. You can see things everywhere.","Kelly,Cheyenne,Katherine,Kylie,Leah,Kelsey","Cute; I like what the image itself & the colors.,25,220,20","I like how the colors mix in this one.,20,200,20","The combination of nature / realism with abstract colors is unique.,39,120,20","Forest waterfall,40,300,20","Happy, the forest as I would love to see it,50,360,20","this one is just a bit too harsh,-13,240,20","Leah","Happy, the forest as I would love to see it,50,360,20","Kylie","Forest waterfall,40,300,20","Katherine","The combination of nature / realism with abstract colors is unique.,39,120,20","5"
"19095","","survey-text","140","977231","0.0-137.0-0.0","A20S6YBD2VKCZU","","","","{""Q0"":""This immediately made me think of the tarot.""}","","","","","","","","","","","","","","","","","","","","","","",""
"1829.7000000029802","","image-slider-response","141","979063","0.0-138.0","A20S6YBD2VKCZU","","","","","47","","","","","","","","","","","","","","","","","","","","","",""
"null","","image-button-response","142","984066","0.0-139.0","A20S6YBD2VKCZU","img_art/21.jpg","null","","","","","","","","","","","","","","","","","","","","","","","","",""
"2666","","image-button-response","143","986734","0.0-140.0","A20S6YBD2VKCZU","img_art/21.jpg","2","","","","","","","","","","","","","","","","","","","","","","","","",""
"5685","","image-button-response","144","992421","0.0-141.0-0.0","A20S6YBD2VKCZU","img_art/21.jpg","4","","","","","","","","","","","","","","","","","","","","","","","","",""
"10924","","image-button-response","145","1003347","0.0-142.0-0.0","A20S6YBD2VKCZU","img_art/21.jpg","0","","","","","","","","","","","","","","","","","","","","","","","","",""
"null","","html-keyboard-response","146","1004350","0.0-143.0","A20S6YBD2VKCZU","<p style=""font-size: 48px;"">+</p>","","","","","null","allTrialResponses","1000","1","14","img_art/21.jpg","47","This immediately made me think of the tarot.","Natalie,Emily,Katherine,Kylie,Leah,Briana","my response to the picture is what is going on?,-13,400,20","What's the point?,-30,40,20","I can't explain why this struck me as absolutely gorgeous. Like the clashing between 2 different worlds,43,120,20","Makes me think of a battleship targeting a beautiful mountainside,0,300,20","Love the colors, uplifting and stormy at the same time,32,360,20","Unfinished. Confusing to look at,-12,400,20","Katherine","I can't explain why this struck me as absolutely gorgeous. Like the clashing between 2 different worlds,43,120,20","Leah","Love the colors, uplifting and stormy at the same time,32,360,20","Natalie","my response to the picture is what is going on?,-13,400,20","5"
"17877","","survey-text","147","1022232","0.0-144.0-0.0","A20S6YBD2VKCZU","","","","{""Q0"":""How incredibly beautiful!""}","","","","","","","","","","","","","","","","","","","","","","",""
"2013.2999999970198","","image-slider-response","148","1024248","0.0-145.0","A20S6YBD2VKCZU","","","","","50","","","","","","","","","","","","","","","","","","","","","",""
"null","","image-button-response","149","1029251","0.0-146.0","A20S6YBD2VKCZU","img_art/19.jpg","null","","","","","","","","","","","","","","","","","","","","","","","","",""
"10312","","image-button-response","150","1039566","0.0-147.0","A20S6YBD2VKCZU","img_art/19.jpg","2","","","","","","","","","","","","","","","","","","","","","","","","",""
"1477","","image-button-response","151","1041046","0.0-148.0-0.0","A20S6YBD2VKCZU","img_art/19.jpg","4","","","","","","","","","","","","","","","","","","","","","","","","",""
"373","","image-button-response","152","1041422","0.0-149.0-0.0","A20S6YBD2VKCZU","img_art/19.jpg","5","","","","","","","","","","","","","","","","","","","","","","","","",""
"null","","html-keyboard-response","153","1042424","0.0-150.0","A20S6YBD2VKCZU","<p style=""font-size: 48px;"">+</p>","","","","","null","allTrialResponses","1000","1","15","img_art/19.jpg","50","How incredibly beautiful!","Natalie,Grace,Katherine,Shannon,Leah,Sabrina","the picture gave me anxiety,-38,400,20","Looks like a child's rendering of a city street but not too sure.,0,180,20","I dig the not being able to tell what anything is but knowing everything is supposed to be something,46,120,20","This looks like a bunch of weird blobs and the colors don't go great together.,-10,220,20","Very abstract but I like it, it's busy, lots of colors,43,360,20","Gives a very open and freeing vibe,42,120,20","Katherine","I dig the not being able to tell what anything is but knowing everything is supposed to be something,46,120,20","Leah","Very abstract but I like it, it's busy, lots of colors,43,360,20","Sabrina","Gives a very open and freeing vibe,42,120,20","5"
"4398","","survey-text","154","1046845","0.0-151.0-0.0","A20S6YBD2VKCZU","","","","{""Q0"":""course""}","","","","","","","","","","","","","","","","","","","","","","",""
"24194","","survey-text","155","1071041","0.0-152.0-0.0","A20S6YBD2VKCZU","","","","{""Q0"":""Simple, morbid, tells an important story.""}","","","","","","","","","","","","","","","","","","","","","","",""
"2045.5","","image-slider-response","156","1073088","0.0-153.0","A20S6YBD2VKCZU","","","","","25","","","","","","","","","","","","","","","","","","","","","",""
"null","","image-button-response","157","1078092","0.0-154.0","A20S6YBD2VKCZU","img_art/16.jpg","null","","","","","","","","","","","","","","","","","","","","","","","","",""
"1273","","image-button-response","158","1079368","0.0-155.0","A20S6YBD2VKCZU","img_art/16.jpg","5","","","","","","","","","","","","","","","","","","","","","","","","",""
"3229","","image-button-response","159","1082599","0.0-156.0-0.0","A20S6YBD2VKCZU","img_art/16.jpg","3","","","","","","","","","","","","","","","","","","","","","","","","",""
"5805","","image-button-response","160","1088407","0.0-157.0-0.0","A20S6YBD2VKCZU","img_art/16.jpg","1","","","","","","","","","","","","","","","","","","","","","","","","",""
"null","","html-keyboard-response","161","1089910","0.0-158.0","A20S6YBD2VKCZU","<p style=""font-size: 48px;"">+</p>","","","","","null","allTrialResponses","1500","1","16","img_art/16.jpg","25","Simple, morbid, tells an important story.","Amber,Danielle,Katherine,Mary,Leah,Sabrina","Don't like the teddy bear. It takes away from the painting.,-39,200,20","I enjoy how slightly strange this is, while seeming to still have some message,20,340,20","Super weird. Id like to know more about it,24,120,20","This is a neat piece. Sort of shocking. I think it's too monochromatic though.,19,180,20","Know it is a piece relating to children and gun violence. Sad,-30,360,20","Kind of an edgy teenager vibe,32,120,20","Sabrina","Kind of an edgy teenager vibe,32,120,20","Mary","This is a neat piece. Sort of shocking. I think it's too monochromatic though.,19,180,20","Danielle","I enjoy how slightly strange this is, while seeming to still have some message,20,340,20","5"
"46814","","survey-text","162","1136732","0.0-159.0-0.0","A20S6YBD2VKCZU","","","","{""Q0"":""My head is a carnival I run away to a lot.""}","","","","","","","","","","","","","","","","","","","","","","",""
"2149.0999999940395","","image-slider-response","163","1138885","0.0-160.0","A20S6YBD2VKCZU","","","","","50","","","","","","","","","","","","","","","","","","","","","",""
"null","","image-button-response","164","1143888","0.0-161.0","A20S6YBD2VKCZU","img_art/9.jpg","null","","","","","","","","","","","","","","","","","","","","","","","","",""
"13255","","image-button-response","165","1157146","0.0-162.0","A20S6YBD2VKCZU","img_art/9.jpg","4","","","","","","","","","","","","","","","","","","","","","","","","",""
"3484","","image-button-response","166","1160633","0.0-163.0-0.0","A20S6YBD2VKCZU","img_art/9.jpg","3","","","","","","","","","","","","","","","","","","","","","","","","",""
"5620","","image-button-response","167","1166256","0.0-164.0-0.0","A20S6YBD2VKCZU","img_art/9.jpg","0","","","","","","","","","","","","","","","","","","","","","","","","",""
"null","","html-keyboard-response","168","1166759","0.0-165.0","A20S6YBD2VKCZU","<p style=""font-size: 48px;"">+</p>","","","","","null","allTrialResponses","500","1","17","img_art/9.jpg","50","My head is a carnival I run away to a lot.","Sarah,Danielle,Alicia,Mary,Mariah,Sabrina","I really like the color balance but the image is odd,-5,180,20","Looks like a child's drawing,-40,340,20","Abstract titanic scene. It's nice though. I like how it makes me feel.,28,120,20","How neat is this piece?  I love the angry expressive lines. Emotion is captured in it.,26,180,20","Pleasant in all ways.,27,140,20","Calming and relaxing,42,120,20","Mariah","Pleasant in all ways.,27,140,20","Mary","How neat is this piece?  I love the angry expressive lines. Emotion is captured in it.,26,180,20","Sarah","I really like the color balance but the image is odd,-5,180,20","5"
"27132","","survey-text","169","1193899","0.0-166.0-0.0","A20S6YBD2VKCZU","","","","{""Q0"":""Being human or not being human. That is the question!""}","","","","","","","","","","","","","","","","","","","","","","",""
"1894","","image-slider-response","170","1195796","0.0-167.0","A20S6YBD2VKCZU","","","","","50","","","","","","","","","","","","","","","","","","","","","",""
"null","","image-button-response","171","1200799","0.0-168.0","A20S6YBD2VKCZU","img_art/28.jpg","null","","","","","","","","","","","","","","","","","","","","","","","","",""
"4919","","image-button-response","172","1205723","0.0-169.0","A20S6YBD2VKCZU","img_art/28.jpg","4","","","","","","","","","","","","","","","","","","","","","","","","",""
"1645","","image-button-response","173","1207371","0.0-170.0-0.0","A20S6YBD2VKCZU","img_art/28.jpg","5","","","","","","","","","","","","","","","","","","","","","","","","",""
"10548","","image-button-response","174","1217921","0.0-171.0-0.0","A20S6YBD2VKCZU","img_art/28.jpg","0","","","","","","","","","","","","","","","","","","","","","","","","",""
"null","","html-keyboard-response","175","1218923","0.0-172.0","A20S6YBD2VKCZU","<p style=""font-size: 48px;"">+</p>","","","","","null","allTrialResponses","1000","1","18","img_art/28.jpg","50","Being human or not being human. That is the question!","Sarah,Monica,Kaitlyn,Mary,Mariah,Amy","something about all the off-greys is pretty interesting,5,180,20","The dark colors make it look dirty and the shapes make me uncomfortable,-50,360,20","Not sure what way this picture is suppose to be oriented,-5,80,20","The colors are really ugly. They do not compliment each other well.,-45,180,20","Colors are pleasing, shapes are vaguely unpleasant. Kidneys at a smoky bar.,5,140,20","Contemplative and a little dark. The muted colors and subject create a sense of mystery.,15,220,20","Mariah","Colors are pleasing, shapes are vaguely unpleasant. Kidneys at a smoky bar.,5,140,20","Amy","Contemplative and a little dark. The muted colors and subject create a sense of mystery.,15,220,20","Sarah","something about all the off-greys is pretty interesting,5,180,20","5"
"28367","","survey-text","176","1247308","0.0-173.0-0.0","A20S6YBD2VKCZU","","","","{""Q0"":""What? Why? Can you tell me? Please?""}","","","","","","","","","","","","","","","","","","","","","","",""
"3157.2999999970198","","image-slider-response","177","1250467","0.0-174.0","A20S6YBD2VKCZU","","","","","50","","","","","","","","","","","","","","","","","","","","","",""
"null","","image-button-response","178","1255471","0.0-175.0","A20S6YBD2VKCZU","img_art/6.jpg","null","","","","","","","","","","","","","","","","","","","","","","","","",""
"2162","","image-button-response","179","1257635","0.0-176.0","A20S6YBD2VKCZU","img_art/6.jpg","3","","","","","","","","","","","","","","","","","","","","","","","","",""
"5493","","image-button-response","180","1263131","0.0-177.0-0.0","A20S6YBD2VKCZU","img_art/6.jpg","4","","","","","","","","","","","","","","","","","","","","","","","","",""
"7420","","image-button-response","181","1270553","0.0-178.0-0.0","A20S6YBD2VKCZU","img_art/6.jpg","5","","","","","","","","","","","","","","","","","","","","","","","","",""
"null","","html-keyboard-response","182","1271556","0.0-179.0","A20S6YBD2VKCZU","<p style=""font-size: 48px;"">+</p>","","","","","null","allTrialResponses","1000","1","19","img_art/6.jpg","50","What? Why? Can you tell me? Please?","Sarah,Stephanie,Breanna,Elizabeth,Mariah,Amy","it's interesting but I don't love it,10,180,20","Nevermore!  A black raven sitting on a pumpkin. Halloween,-35,300,20","Not impressed, just very plain,-10,380,20","Love the simplicity of it,41,20,20","Clean and simple, a pleasant resting place for the eyes.,21,140,20","Lack of context makes this painting 1-d for me. The headless bird is mysterious and indecipherable.,-10,220,20","Elizabeth","Love the simplicity of it,41,20,20","Mariah","Clean and simple, a pleasant resting place for the eyes.,21,140,20","Amy","Lack of context makes this painting 1-d for me. The headless bird is mysterious and indecipherable.,-10,220,20","5"
"43617","","survey-text","183","1315193","0.0-180.0-0.0","A20S6YBD2VKCZU","","","","{""Q0"":""Definitely makes you keep looking. Gets boring quickly though.""}","","","","","","","","","","","","","","","","","","","","","","",""
"5341.100000008941","","image-slider-response","184","1320536","0.0-181.0","A20S6YBD2VKCZU","","","","","-19","","","","","","","","","","","","","","","","","","","","","",""
"null","","image-button-response","185","1325540","0.0-182.0","A20S6YBD2VKCZU","img_art/27.jpg","null","","","","","","","","","","","","","","","","","","","","","","","","",""
"1048","","image-button-response","186","1326592","0.0-183.0","A20S6YBD2VKCZU","img_art/27.jpg","4","","","","","","","","","","","","","","","","","","","","","","","","",""
"11564","","image-button-response","187","1338158","0.0-184.0-0.0","A20S6YBD2VKCZU","img_art/27.jpg","1","","","","","","","","","","","","","","","","","","","","","","","","",""
"11083","","image-button-response","188","1349245","0.0-185.0-0.0","A20S6YBD2VKCZU","img_art/27.jpg","5","","","","","","","","","","","","","","","","","","","","","","","","",""
"null","","html-keyboard-response","189","1349749","0.0-186.0","A20S6YBD2VKCZU","<p style=""font-size: 48px;"">+</p>","","","","","null","allTrialResponses","500","1","20","img_art/27.jpg","-19","Definitely makes you keep looking. Gets boring quickly though.","Kathryn,Madison,Isabella,Elizabeth,Mariah,Amy","Makes me think of Japanese food. I perceive it as comfortable and healthy.,20,140,20","The photographing is horribly distracting. I would feel more favorable toward the original colors/ brightness,1,60,20","Makes me feel warm inside,21,280,20","Like the abstractness of this picture,20,20,20","The green lines disrupt the image in an unpleasant and hurried way.,-30,140,20","The colors provide a complexity to the nearly child-like sketches.,5,220,20","Mariah","The green lines disrupt the image in an unpleasant and hurried way.,-30,140,20","Madison","The photographing is horribly distracting. I would feel more favorable toward the original colors/ brightness,1,60,20","Amy","The colors provide a complexity to the nearly child-like sketches.,5,220,20","5"
"4662","","survey-text","190","1354435","0.0-187.0-0.0","A20S6YBD2VKCZU","","","","{""Q0"":""we""}","","","","","","","","","","","","","","","","","","","","","","",""
"11764","","survey-text","191","1366201","0.0-188.0-0.0","A20S6YBD2VKCZU","","","","{""Q0"":""Very nice! PARTY!""}","","","","","","","","","","","","","","","","","","","","","","",""
"2061.7999999970198","","image-slider-response","192","1368265","0.0-189.0","A20S6YBD2VKCZU","","","","","50","","","","","","","","","","","","","","","","","","","","","",""
"4085","","image-button-response","193","1373268","0.0-190.0","A20S6YBD2VKCZU","img_art/23.jpg","4","","","","","","","","","","","","","","","","","","","","","","","","",""
"545","","image-button-response","194","1373817","0.0-191.0","A20S6YBD2VKCZU","img_art/23.jpg","4","","","","","","","","","","","","","","","","","","","","","","","","",""
"638","","image-button-response","195","1374457","0.0-192.0-0.0","A20S6YBD2VKCZU","img_art/23.jpg","5","","","","","","","","","","","","","","","","","","","","","","","","",""
"2644","","image-button-response","196","1377104","0.0-193.0-0.0","A20S6YBD2VKCZU","img_art/23.jpg","1","","","","","","","","","","","","","","","","","","","","","","","","",""
"null","","html-keyboard-response","197","1378107","0.0-194.0","A20S6YBD2VKCZU","<p style=""font-size: 48px;"">+</p>","","","","","null","allTrialResponses","1000","1","21","img_art/23.jpg","50","Very nice! PARTY!","Michelle,Madison,Cynthia,Kaylee,Mariah,Amy","This is nice, the colorful background is fun and the white looks like dancing figures,5,280,20","Looks celebratory and joyful! However, the photograph does not do the original work's colors justice.,27,60,20","puzzled with curiosity,31,320,20","i completely dont get it,-47,200,20","It feels active and vibrant.,20,140,20","So exciting and full of the night.,20,220,20","Mariah","It feels active and vibrant.,20,140,20","Amy","So exciting and full of the night.,20,220,20","Madison","Looks celebratory and joyful! However, the photograph does not do the original work's colors justice.,27,60,20","5"
"22663","","survey-text","198","1400780","0.0-195.0-0.0","A20S6YBD2VKCZU","","","","{""Q0"":""Dance, Dainty, Girly, Flirty""}","","","","","","","","","","","","","","","","","","","","","","",""
"2173.8999999910593","","image-slider-response","199","1402956","0.0-196.0","A20S6YBD2VKCZU","","","","","50","","","","","","","","","","","","","","","","","","","","","",""
"null","","image-button-response","200","1407959","0.0-197.0","A20S6YBD2VKCZU","img_art/5.jpg","null","","","","","","","","","","","","","","","","","","","","","","","","",""
"1833","","image-button-response","201","1409796","0.0-198.0","A20S6YBD2VKCZU","img_art/5.jpg","4","","","","","","","","","","","","","","","","","","","","","","","","",""
"2173","","image-button-response","202","1411971","0.0-199.0-0.0","A20S6YBD2VKCZU","img_art/5.jpg","2","","","","","","","","","","","","","","","","","","","","","","","","",""
"1893","","image-button-response","203","1413867","0.0-200.0-0.0","A20S6YBD2VKCZU","img_art/5.jpg","1","","","","","","","","","","","","","","","","","","","","","","","","",""
"null","","html-keyboard-response","204","1414869","0.0-201.0","A20S6YBD2VKCZU","<p style=""font-size: 48px;"">+</p>","","","","","null","allTrialResponses","1000","1","22","img_art/5.jpg","50","Dance, Dainty, Girly, Flirty","Chloe,Madison,Laura,Jennifer,Mariah,Amy","Black stripe looks violent,-31,220,20","Bright and luminous,31,60,20","fresh and fun - bright and active,16,320,20","This piece doesn't really stand out.,0,380,20","It feels very strong and open.,31,140,20","Nearly white background gives a lack of context. Questionable skills,-45,220,20","Mariah","It feels very strong and open.,31,140,20","Laura","fresh and fun - bright and active,16,320,20","Madison","Bright and luminous,31,60,20","5"
"20166","","survey-text","205","1435055","0.0-202.0-0.0","A20S6YBD2VKCZU","","","","{""Q0"":""A bush. Sweet blue. Contrast.""}","","","","","","","","","","","","","","","","","","","","","","",""
"1774.0999999940395","","image-slider-response","206","1436831","0.0-203.0","A20S6YBD2VKCZU","","","","","50","","","","","","","","","","","","","","","","","","","","","",""
"2662","","image-button-response","207","1441834","0.0-204.0","A20S6YBD2VKCZU","img_art/15.jpg","4","","","","","","","","","","","","","","","","","","","","","","","","",""
"471","","image-button-response","208","1442310","0.0-205.0","A20S6YBD2VKCZU","img_art/15.jpg","4","","","","","","","","","","","","","","","","","","","","","","","","",""
"9084","","image-button-response","209","1451397","0.0-206.0-0.0","A20S6YBD2VKCZU","img_art/15.jpg","1","","","","","","","","","","","","","","","","","","","","","","","","",""
"2084","","image-button-response","210","1453484","0.0-207.0-0.0","A20S6YBD2VKCZU","img_art/15.jpg","5","","","","","","","","","","","","","","","","","","","","","","","","",""
"null","","html-keyboard-response","211","1454487","0.0-208.0","A20S6YBD2VKCZU","<p style=""font-size: 48px;"">+</p>","","","","","null","allTrialResponses","1000","1","23","img_art/15.jpg","50","A bush. Sweet blue. Contrast.","Angelica,Madison,Laura,Vanessa,Mariah,Makayla","This looks odd and was not well executed.,-3,280,20","I am starting to feel description fatigue. This would be pleasant enough in a doctor's office waiting room.,15,60,20","abrasive, rough, uneven,-31,320,20","I don't even know what's going on here. Again, this is too abstract.,-21,380,20","It is visually appealing, stark and simple but natural.,41,140,20","It's just dots. Doesn't bring any positive or negative feelings,2,80,20","Mariah","It is visually appealing, stark and simple but natural.,41,140,20","Madison","I am starting to feel description fatigue. This would be pleasant enough in a doctor's office waiting room.,15,60,20","Makayla","It's just dots. Doesn't bring any positive or negative feelings,2,80,20","5"
"23385","","survey-text","212","1477881","0.0-209.0-0.0","A20S6YBD2VKCZU","","","","{""Q0"":""I love water colors and how they portray such ease.""}","","","","","","","","","","","","","","","","","","","","","","",""
"1700.7999999970198","","image-slider-response","213","1479584","0.0-210.0","A20S6YBD2VKCZU","","","","","50","","","","","","","","","","","","","","","","","","","","","",""
"null","","image-button-response","214","1484586","0.0-211.0","A20S6YBD2VKCZU","img_art/26.jpg","null","","","","","","","","","","","","","","","","","","","","","","","","",""
"91","","image-button-response","215","1484679","0.0-212.0","A20S6YBD2VKCZU","img_art/26.jpg","0","","","","","","","","","","","","","","","","","","","","","","","","",""
"5797","","image-button-response","216","1490480","0.0-213.0-0.0","A20S6YBD2VKCZU","img_art/26.jpg","5","","","","","","","","","","","","","","","","","","","","","","","","",""
"3556","","image-button-response","217","1494039","0.0-214.0-0.0","A20S6YBD2VKCZU","img_art/26.jpg","2","","","","","","","","","","","","","","","","","","","","","","","","",""
"null","","html-keyboard-response","218","1494542","0.0-215.0","A20S6YBD2VKCZU","<p style=""font-size: 48px;"">+</p>","","","","","null","allTrialResponses","500","1","24","img_art/26.jpg","50","I love water colors and how they portray such ease.","Jordan,Madison,Katie,Crystal,Mariah,Makayla","This one is nicer, looks like a walk in a small, dreamy city,20,20,20","Colors look glum; photograph is not properly contrasted and does not reflect the appropriate amount of natural light.,-10,60,20","Reminds me of watercolor. Muted tones and blurry soft brush strokes. Calm to me.,1,160,20","Do not like water colors at all,-50,300,20","Pleasant but bland.,10,140,20","Reminds me of a European street, I desire to walk in this picture,28,80,20","Jordan","This one is nicer, looks like a walk in a small, dreamy city,20,20,20","Makayla","Reminds me of a European street, I desire to walk in this picture,28,80,20","Katie","Reminds me of watercolor. Muted tones and blurry soft brush strokes. Calm to me.,1,160,20","5"
"15119","","survey-text","219","1509668","0.0-216.0-0.0","A20S6YBD2VKCZU","","","","{""Q0"":""Nice enough, but lacking depth. ""}","","","","","","","","","","","","","","","","","","","","","","",""
"1966","","image-slider-response","220","1511636","0.0-217.0","A20S6YBD2VKCZU","","","","","-21","","","","","","","","","","","","","","","","","","","","","",""
"null","","image-button-response","221","1516638","0.0-218.0","A20S6YBD2VKCZU","img_art/2.jpg","null","","","","","","","","","","","","","","","","","","","","","","","","",""
"180","","image-button-response","222","1516820","0.0-219.0","A20S6YBD2VKCZU","img_art/2.jpg","3","","","","","","","","","","","","","","","","","","","","","","","","",""
"19298","","image-button-response","223","1536120","0.0-220.0-0.0","A20S6YBD2VKCZU","img_art/2.jpg","5","","","","","","","","","","","","","","","","","","","","","","","","",""
"2524","","image-button-response","224","1538648","0.0-221.0-0.0","A20S6YBD2VKCZU","img_art/2.jpg","1","","","","","","","","","","","","","","","","","","","","","","","","",""
"null","","html-keyboard-response","225","1540150","0.0-222.0","A20S6YBD2VKCZU","<p style=""font-size: 48px;"">+</p>","","","","","null","allTrialResponses","1500","1","25","img_art/2.jpg","-21","Nice enough, but lacking depth. ","Jordan,Hannah,Katie,Jasmine,Jamie,Makayla","I can't get past the fact that it looks like someone wearing a mask,-46,20,20","Looks like child's art.,-19,240,20","Doesn't look like anything. Just a blob of colors.,1,160,20","Color picks are a bad mesh with each other,-17,340,20","Awful color coordination and design,-35,320,20","I don't feel indifferent,4,80,20","Jasmine","Color picks are a bad mesh with each other,-17,340,20","Makayla","I don't feel indifferent,4,80,20","Hannah","Looks like child's art.,-19,240,20","5"
"4076","","survey-text","226","1544258","0.0-223.0-0.0","A20S6YBD2VKCZU","","","","{""Q0"":""table""}","","","","","","","","","","","","","","","","","","","","","","",""
"6042","","survey-text","227","1550302","0.0-224.0-0.0","A20S6YBD2VKCZU","","","","{""Q0"":""Peace!""}","","","","","","","","","","","","","","","","","","","","","","",""
"4245.5","","image-slider-response","228","1554549","0.0-225.0","A20S6YBD2VKCZU","","","","","50","","","","","","","","","","","","","","","","","","","","","",""
"4845","","image-button-response","229","1559553","0.0-226.0","A20S6YBD2VKCZU","img_art/4.jpg","0","","","","","","","","","","","","","","","","","","","","","","","","",""
"1283","","image-button-response","230","1560838","0.0-227.0","A20S6YBD2VKCZU","img_art/4.jpg","0","","","","","","","","","","","","","","","","","","","","","","","","",""
"7715","","image-button-response","231","1568556","0.0-228.0-0.0","A20S6YBD2VKCZU","img_art/4.jpg","4","","","","","","","","","","","","","","","","","","","","","","","","",""
"620","","image-button-response","232","1569179","0.0-229.0-0.0","A20S6YBD2VKCZU","img_art/4.jpg","3","","","","","","","","","","","","","","","","","","","","","","","","",""
"null","","html-keyboard-response","233","1570181","0.0-230.0","A20S6YBD2VKCZU","<p style=""font-size: 48px;"">+</p>","","","","","null","allTrialResponses","1000","1","26","img_art/4.jpg","50","Peace!","Katelyn,Hannah,Sierra,Jasmine,Shelby,Makayla","I like the warmth in the colors. Its reassuring.,9,100,20","looks very rudimentary and too simple.,-14,240,20","it looks like a deformed hand,-9,260,20","It's quite meh to me,0,340,20","The colors feel a bit off to me,-10,240,20","Looks like poop on walks,-27,80,20","Katelyn","I like the warmth in the colors. Its reassuring.,9,100,20","Shelby","The colors feel a bit off to me,-10,240,20","Jasmine","It's quite meh to me,0,340,20","5"
"25608","","survey-text","234","1595807","0.0-231.0-0.0","A20S6YBD2VKCZU","","","","{""Q0"":""Lovely. I love how people can create so many beautiful things.""}","","","","","","","","","","","","","","","","","","","","","","",""
"1941","","image-slider-response","235","1597751","0.0-232.0","A20S6YBD2VKCZU","","","","","28","","","","","","","","","","","","","","","","","","","","","",""
"4229","","image-button-response","236","1602754","0.0-233.0","A20S6YBD2VKCZU","img_art/25.jpg","3","","","","","","","","","","","","","","","","","","","","","","","","",""
"495","","image-button-response","237","1603254","0.0-234.0","A20S6YBD2VKCZU","img_art/25.jpg","3","","","","","","","","","","","","","","","","","","","","","","","","",""
"1768","","image-button-response","238","1605024","0.0-235.0-0.0","A20S6YBD2VKCZU","img_art/25.jpg","1","","","","","","","","","","","","","","","","","","","","","","","","",""
"11504","","image-button-response","239","1616533","0.0-236.0-0.0","A20S6YBD2VKCZU","img_art/25.jpg","4","","","","","","","","","","","","","","","","","","","","","","","","",""
"null","","html-keyboard-response","240","1617036","0.0-237.0","A20S6YBD2VKCZU","<p style=""font-size: 48px;"">+</p>","","","","","null","allTrialResponses","500","1","27","img_art/25.jpg","28","Lovely. I love how people can create so many beautiful things.","Katelyn,Anna,Autumn,Jasmine,Shelby,Sara","Creates a bit of fear in me for some reason,-26,100,20","I love the green and the texture,50,300,20","This is too simple,-22,340,20","I liked it as it seems unique in a way,21,340,20","This makes me feel uneasy,-20,240,20","Green color is not my thing,-29,160,20","Jasmine","I liked it as it seems unique in a way,21,340,20","Anna","I love the green and the texture,50,300,20","Shelby","This makes me feel uneasy,-20,240,20","5"
"32271","","survey-text","241","1649327","0.0-238.0-0.0","A20S6YBD2VKCZU","","","","{""Q0"":""Looks simply, but very well-placed colors.""}","","","","","","","","","","","","","","","","","","","","","","",""
"1973.2999999970198","","image-slider-response","242","1651302","0.0-239.0","A20S6YBD2VKCZU","","","","","50","","","","","","","","","","","","","","","","","","","","","",""
"null","","image-button-response","243","1656305","0.0-240.0","A20S6YBD2VKCZU","img_art/30.jpg","null","","","","","","","","","","","","","","","","","","","","","","","","",""
"5544","","image-button-response","244","1661854","0.0-241.0","A20S6YBD2VKCZU","img_art/30.jpg","5","","","","","","","","","","","","","","","","","","","","","","","","",""
"2036","","image-button-response","245","1663893","0.0-242.0-0.0","A20S6YBD2VKCZU","img_art/30.jpg","2","","","","","","","","","","","","","","","","","","","","","","","","",""
"6100","","image-button-response","246","1669997","0.0-243.0-0.0","A20S6YBD2VKCZU","img_art/30.jpg","0","","","","","","","","","","","","","","","","","","","","","","","","",""
"null","","html-keyboard-response","247","1670999","0.0-244.0","A20S6YBD2VKCZU","<p style=""font-size: 48px;"">+</p>","","","","","null","allTrialResponses","1000","1","28","img_art/30.jpg","50","Looks simply, but very well-placed colors.","Lindsey,Anna,Molly,Jasmine,Shelby,Catherine","Interesting. Not sure what I'm seeing but it makes me want to figure it out.,5,400,20","It looks like a pretty but unremarkable painting in a doctors office,15,300,20","I like the way the artist has painted his work.,40,340,20","Pretty neutral about this one,0,340,20","It's pleasent but otherwise unprovoking,8,240,20","connection, Everything is connected even in contrast.,42,160,20","Catherine","connection, Everything is connected even in contrast.,42,160,20","Molly","I like the way the artist has painted his work.,40,340,20","Lindsey","Interesting. Not sure what I'm seeing but it makes me want to figure it out.,5,400,20","5"
"15413","","survey-text","248","1686433","0.0-245.0-0.0","A20S6YBD2VKCZU","","","","{""Q0"":""Sandy day under the clouds at the beach.""}","","","","","","","","","","","","","","","","","","","","","","",""
"3340.7000000029802","","image-slider-response","249","1689776","0.0-246.0","A20S6YBD2VKCZU","","","","","31","","","","","","","","","","","","","","","","","","","","","",""
"null","","image-button-response","250","1694781","0.0-247.0","A20S6YBD2VKCZU","img_art/7.jpg","null","","","","","","","","","","","","","","","","","","","","","","","","",""
"2223","","image-button-response","251","1697008","0.0-248.0","A20S6YBD2VKCZU","img_art/7.jpg","5","","","","","","","","","","","","","","","","","","","","","","","","",""
"4228","","image-button-response","252","1701239","0.0-249.0-0.0","A20S6YBD2VKCZU","img_art/7.jpg","1","","","","","","","","","","","","","","","","","","","","","","","","",""
"10508","","image-button-response","253","1711750","0.0-250.0-0.0","A20S6YBD2VKCZU","img_art/7.jpg","4","","","","","","","","","","","","","","","","","","","","","","","","",""
"null","","html-keyboard-response","254","1713252","0.0-251.0","A20S6YBD2VKCZU","<p style=""font-size: 48px;"">+</p>","","","","","null","allTrialResponses","1500","1","29","img_art/7.jpg","31","Sandy day under the clouds at the beach.","Lindsey,Kristen,Molly,Angela,Christina,Catherine","It's dirty. I don't mind the colors so much as the way they are put together in this dirty-looking pattern.,-41,400,20","sand, beach, tranquil,10,280,20","Don't understand the meaning of this picture.,-30,340,20","Looks like vomit, or chunky feces,-42,260,20","looks like the surface of the moon,-28,240,20","Looking through a microscope at the ground at a beach.,20,160,20","Catherine","Looking through a microscope at the ground at a beach.,20,160,20","Kristen","sand, beach, tranquil,10,280,20","Christina","looks like the surface of the moon,-28,240,20","5"
"39539","","survey-text","255","1752816","0.0-252.0-0.0","A20S6YBD2VKCZU","","","","{""Q0"":""Definitely looks like a Mack truck and car accident.""}","","","","","","","","","","","","","","","","","","","","","","",""
"1980.7999999970198","","image-slider-response","256","1754799","0.0-253.0","A20S6YBD2VKCZU","","","","","50","","","","","","","","","","","","","","","","","","","","","",""
"null","","image-button-response","257","1759802","0.0-254.0","A20S6YBD2VKCZU","img_art/20.jpg","null","","","","","","","","","","","","","","","","","","","","","","","","",""
"10704","","image-button-response","258","1770509","0.0-255.0","A20S6YBD2VKCZU","img_art/20.jpg","1","","","","","","","","","","","","","","","","","","","","","","","","",""
"5620","","image-button-response","259","1776132","0.0-256.0-0.0","A20S6YBD2VKCZU","img_art/20.jpg","0","","","","","","","","","","","","","","","","","","","","","","","","",""
"822","","image-button-response","260","1776956","0.0-257.0-0.0","A20S6YBD2VKCZU","img_art/20.jpg","3","","","","","","","","","","","","","","","","","","","","","","","","",""
"null","","html-keyboard-response","261","1777458","0.0-258.0","A20S6YBD2VKCZU","<p style=""font-size: 48px;"">+</p>","","","","","null","allTrialResponses","500","1","30","img_art/20.jpg","50","Definitely looks like a Mack truck and car accident.","Kayla,Kristen,Morgan,Paige,Christina,Catherine","Something fell over and is burning, but it's kinda dope, you know?,14,180,20","danger, car crash, stressful,-12,280,20","The beach and industry.,12,380,20","scared. makes me feel alone or abandoned,-11,60,20","it looks like a piccasso knock off,-23,240,20","Interesting. Empty place, wondering what happened, leaving what you used to know.,10,160,20","Kristen","danger, car crash, stressful,-12,280,20","Kayla","Something fell over and is burning, but it's kinda dope, you know?,14,180,20","Paige","scared. makes me feel alone or abandoned,-11,60,20","5"
"5998","","image-button-response_instructions","262","1783467","0.0-259.0","A20S6YBD2VKCZU","","0","instructions","","","","","","","","","","","","","","","","","","","","","","","",""
"943","","image-button-response","263","1784418","0.0-260.0","A20S6YBD2VKCZU","","0","","","","","","","","","","","","","","","","","","","","","","","","",""
