"rt","url","trial_type","trial_index","time_elapsed","internal_node_id","participant_id","stimulus","button_pressed","Name","responses","response","key_press","variableName","fixationTime","condition","trial","photo","subjectRating","subjectResponse","agentsNames","agent_1_Response","agent_2_Response","agent_3_Response","agent_4_Response","agent_5_Response","agent_6_Response","kept_1_name","kept_1_response","kept_2_name","kept_2_response","kept_3_name","kept_3_response","errorCounter"
"51272","external_page_harvard.html","external-html","0","51452","0.0-0.0","A2137K4XEU12TI","","","","","","","","","","","","","","","","","","","","","","","","","","",""
"2406","","image-button-response","1","53860","0.0-1.0","A2137K4XEU12TI","","1","","","","","","","","","","","","","","","","","","","","","","","","",""
"2658","","image-button-response","2","56524","0.0-2.0-0.0","A2137K4XEU12TI","","1","phone","","","","","","","","","","","","","","","","","","","","","","","",""
"6836","","survey-text","3","63362","0.0-3.0-0.0","A2137K4XEU12TI","","","","{""Q0"":""A2137K4XEU12TI""}","","","","","","","","","","","","","","","","","","","","","","",""
"28025","","image-button-response_instructions","4","91390","0.0-4.0","A2137K4XEU12TI","","0","instructions","","","","","","","","","","","","","","","","","","","","","","","",""
"13024","","image-button-response_instructions","5","104415","0.0-5.0","A2137K4XEU12TI","img_art/ins/popularity/ins1.png","0","instructions","","","","","","","","","","","","","","","","","","","","","","","",""
"4428","","image-button-response_instructions","6","108844","0.0-6.0","A2137K4XEU12TI","img_art/ins/popularity/ins2.png","0","instructions","","","","","","","","","","","","","","","","","","","","","","","",""
"8131","","image-button-response_instructions","7","116976","0.0-7.0","A2137K4XEU12TI","img_art/ins/popularity/ins2Extreme.png","0","instructions","","","","","","","","","","","","","","","","","","","","","","","",""
"10834","","image-button-response_instructions","8","127812","0.0-8.0","A2137K4XEU12TI","img_art/ins/popularity/ins3KEEPpop.PNG","0","instructions","","","","","","","","","","","","","","","","","","","","","","","",""
"2942","","image-button-response_instructions","9","130756","0.0-9.0","A2137K4XEU12TI","img_art/ins/popularity/ins3ANamepop.PNG","0","instructions","","","","","","","","","","","","","","","","","","","","","","","",""
"1953","","image-button-response_instructions","10","132710","0.0-10.0","A2137K4XEU12TI","img_art/ins/popularity/ins3ARatingpop.png","0","instructions","","","","","","","","","","","","","","","","","","","","","","","",""
"1858","","image-button-response_instructions","11","134568","0.0-11.0","A2137K4XEU12TI","img_art/ins/popularity/ins3ATextpop.png","0","instructions","","","","","","","","","","","","","","","","","","","","","","","",""
"3658","","image-button-response_instructions","12","138228","0.0-12.0","A2137K4XEU12TI","img_art/ins/popularity/ins3ALikespop.png","0","instructions","","","","","","","","","","","","","","","","","","","","","","","",""
"10266","","image-button-response_instructions","13","148496","0.0-13.0","A2137K4XEU12TI","img_art/ins/popularity/ins3KEEPpop.PNG","0","instructions","","","","","","","","","","","","","","","","","","","","","","","",""
"5685","","image-button-response_instructions","14","154182","0.0-14.0","A2137K4XEU12TI","img_art/ins/popularity/ins3_5RED.png","0","instructions","","","","","","","","","","","","","","","","","","","","","","","",""
"3533","","image-button-response_instructions","15","157716","0.0-15.0","A2137K4XEU12TI","img_art/ins/popularity/ins3KEEPpop.PNG","0","instructions","","","","","","","","","","","","","","","","","","","","","","","",""
"5885","","image-button-response_instructions","16","163601","0.0-16.0","A2137K4XEU12TI","img_art/ins/popularity/ins4KEEPpop.PNG","0","instructions","","","","","","","","","","","","","","","","","","","","","","","",""
"3407","","image-button-response_instructions","17","167010","0.0-17.0","A2137K4XEU12TI","img_art/ins/popularity/ins5KEEPpop.PNG","0","instructions","","","","","","","","","","","","","","","","","","","","","","","",""
"1481","","image-button-response_instructions","18","168492","0.0-18.0","A2137K4XEU12TI","","0","instructions","","","","","","","","","","","","","","","","","","","","","","","",""
"9026","","survey-text","19","177543","0.0-19.0-0.0","A2137K4XEU12TI","","","","{""Q0"":""but""}","","","","","","","","","","","","","","","","","","","","","","",""
"22084","","survey-text","20","199629","0.0-20.0-0.0","A2137K4XEU12TI","","","","{""Q0"":""I like the colors, but anyone could do this""}","","","","","","","","","","","","","","","","","","","","","","",""
"9957.299999952316","","image-slider-response","21","209589","0.0-21.0","A2137K4XEU12TI","","","","","2","","","","","","","","","","","","","","","","","","","","","",""
"null","","image-button-response","22","214593","0.0-22.0","A2137K4XEU12TI","img_art/ins/1.jpg","null","","","","","","","","","","","","","","","","","","","","","","","","",""
"9712","","image-button-response","23","224307","0.0-23.0","A2137K4XEU12TI","img_art/ins/1.jpg","0","","","","","","","","","","","","","","","","","","","","","","","","",""
"3993","","image-button-response","24","228303","0.0-24.0-0.0","A2137K4XEU12TI","img_art/ins/1.jpg","5","","","","","","","","","","","","","","","","","","","","","","","","",""
"2485","","image-button-response","25","230790","0.0-25.0-0.0","A2137K4XEU12TI","img_art/ins/1.jpg","0","","","","","","","","","","","","","","","","","","","","","","","","",""
"1175","","image-button-response","26","239311","0.0-25.1-0.1","A2137K4XEU12TI","img_art/ins/1.jpg","1","","","","","","","","","","","","","","","","","","","","","","","","",""
"null","","html-keyboard-response","27","240821","0.0-26.0","A2137K4XEU12TI","<p style=""font-size: 48px;"">+</p>","","","","","null","allTrialResponses","1500","1","-2","img_art/ins/1.jpg","2","I like the colors, but anyone could do this","Allison,Ashley,Beth,Dora,Erika,Jen","looks like a lot of things going on in the mist,20,20,20","I just don't get why these type of art would be popular,-32,40,20","This color reminds me of poo,-46,60,20","looks like what my niece in 3rd grade did this afternoon,-50,80,20","I like the sophisticated brushwork,40,100,20","It reminds me of a candy land dream I had,36,120,20","Allison","looks like a lot of things going on in the mist,20,20,20","Jen","It reminds me of a candy land dream I had,36,120,20","Ashley","I just don't get why these type of art would be popular,-32,40,20","2"
"31933","","survey-text","28","272758","0.0-27.0-0.0","A2137K4XEU12TI","","","","{""Q0"":""don't like the colors and looks very basic, anyone could do it""}","","","","","","","","","","","","","","","","","","","","","","",""
"5775.800000071526","","image-slider-response","29","278536","0.0-28.0","A2137K4XEU12TI","","","","","-37","","","","","","","","","","","","","","","","","","","","","",""
"3828","","image-button-response","30","283546","0.0-29.0","A2137K4XEU12TI","img_art/ins/2.jpg","1","","","","","","","","","","","","","","","","","","","","","","","","",""
"9535","","image-button-response","31","293082","0.0-30.0","A2137K4XEU12TI","img_art/ins/2.jpg","1","","","","","","","","","","","","","","","","","","","","","","","","",""
"2184","","image-button-response","32","295268","0.0-31.0-0.0","A2137K4XEU12TI","img_art/ins/2.jpg","0","","","","","","","","","","","","","","","","","","","","","","","","",""
"3986","","image-button-response","33","299256","0.0-32.0-0.0","A2137K4XEU12TI","img_art/ins/2.jpg","2","","","","","","","","","","","","","","","","","","","","","","","","",""
"null","","html-keyboard-response","34","300260","0.0-33.0","A2137K4XEU12TI","<p style=""font-size: 48px;"">+</p>","","","","","null","allTrialResponses","1000","1","-1","img_art/ins/2.jpg","-37","don't like the colors and looks very basic, anyone could do it","Allison,Ashley,Katie,Jenna,Kara,Jen","I don't have strong feelings about this,10,20,20","Idk, it is just annoying,-32,40,20","too much color!,-28,180,20","One of my pet peevs,-48,140,20","I like the blocks of color arrangements,30,160,20","It reminds me of a fireplace,36,120,20","Ashley","Idk, it is just annoying,-32,40,20","Allison","I don't have strong feelings about this,10,20,20","Katie","too much color!,-28,180,20","2"
"17341","","survey-text","35","317606","0.0-34.0-0.0","A2137K4XEU12TI","","","","{""Q0"":""love the colors, it gives me a sense of peace""}","","","","","","","","","","","","","","","","","","","","","","",""
"3084","","image-slider-response","36","320692","0.0-35.0","A2137K4XEU12TI","","","","","36","","","","","","","","","","","","","","","","","","","","","",""
"2678","","image-button-response","37","325694","0.0-36.0","A2137K4XEU12TI","img_art/ins/3.jpg","0","","","","","","","","","","","","","","","","","","","","","","","","",""
"1932","","image-button-response","38","327628","0.0-37.0","A2137K4XEU12TI","img_art/ins/3.jpg","4","","","","","","","","","","","","","","","","","","","","","","","","",""
"3438","","image-button-response","39","331068","0.0-38.0-0.0","A2137K4XEU12TI","img_art/ins/3.jpg","3","","","","","","","","","","","","","","","","","","","","","","","","",""
"3205","","image-button-response","40","334276","0.0-39.0-0.0","A2137K4XEU12TI","img_art/ins/3.jpg","0","","","","","","","","","","","","","","","","","","","","","","","","",""
"null","","html-keyboard-response","41","334778","0.0-40.0","A2137K4XEU12TI","<p style=""font-size: 48px;"">+</p>","","","","","null","allTrialResponses","500","1","0","img_art/ins/3.jpg","36","love the colors, it gives me a sense of peace","Allison,Ashley,Katie,Leslie,Mary,Rose","enjoy the different shades of blue,22,20,20","It looks like a playground for bats,-36,40,20","It looks depressing,-26,180,20","It's an alright work,15,200,20","I like the overlapping of brushes,41,220,20","My daily routine, it's depressing,-20,240,20","Mary","I like the overlapping of brushes,41,220,20","Leslie","It's an alright work,15,200,20","Allison","enjoy the different shades of blue,22,20,20","2"
"3355","","image-button-response_instructions","42","338138","0.0-41.0","A2137K4XEU12TI","","0","instructions","","","","","","","","","","","","","","","","","","","","","","","",""
"9363","","survey-likert","43","347502","0.0-42.0-0.0","A2137K4XEU12TI","","","","{""Q0"":"""",""Q1"":0,""Q2"":1}","","","","","","","","","","","","","","","","","","","","","","",""
"4354","","survey-text","44","351861","0.0-43.0-0.0","A2137K4XEU12TI","","","","{""Q0"":""rock""}","","","","","","","","","","","","","","","","","","","","","","",""
"23652","","survey-text","45","375515","0.0-44.0-0.0","A2137K4XEU12TI","","","","{""Q0"":""don't hate it, but don't love it either""}","","","","","","","","","","","","","","","","","","","","","","",""
"10911.699999928474","","image-slider-response","46","386429","0.0-45.0","A2137K4XEU12TI","","","","","0","","","","","","","","","","","","","","","","","","","","","",""
"null","","image-button-response","47","391456","0.0-46.0","A2137K4XEU12TI","img_art/28.jpg","null","","","","","","","","","","","","","","","","","","","","","","","","",""
"2197","","image-button-response","48","393655","0.0-47.0","A2137K4XEU12TI","img_art/28.jpg","2","","","","","","","","","","","","","","","","","","","","","","","","",""
"4185","","image-button-response","49","397843","0.0-48.0-0.0","A2137K4XEU12TI","img_art/28.jpg","3","","","","","","","","","","","","","","","","","","","","","","","","",""
"2225","","image-button-response","50","400071","0.0-49.0-0.0","A2137K4XEU12TI","img_art/28.jpg","1","","","","","","","","","","","","","","","","","","","","","","","","",""
"null","","html-keyboard-response","51","401588","0.0-50.0","A2137K4XEU12TI","<p style=""font-size: 48px;"">+</p>","","","","","null","allTrialResponses","1500","1","1","img_art/28.jpg","0","don't hate it, but don't love it either","Alexandria,Kimberly,Marissa,Sara,Sydney,Tiffany","no clear colors or meaning to evoke emotions,-15,80,20","The thing on the right is kind of weird/fetus-y,-12,260,20","It feels very blah,-10,160,20","This swirly drawing i snot my type I get confused and dizzy,-20,160,20","I enjoy the colors.,25,320,20","It makes me feel happy, and a little anxious.,50,360,20","Marissa","It feels very blah,-10,160,20","Sara","This swirly drawing i snot my type I get confused and dizzy,-20,160,20","Kimberly","The thing on the right is kind of weird/fetus-y,-12,260,20","2"
"34211","","survey-text","52","435803","0.0-51.0-0.0","A2137K4XEU12TI","","","","{""Q0"":""too dark, too many colors""}","","","","","","","","","","","","","","","","","","","","","","",""
"3378.100000023842","","image-slider-response","53","439183","0.0-52.0","A2137K4XEU12TI","","","","","-17","","","","","","","","","","","","","","","","","","","","","",""
"null","","image-button-response","54","444185","0.0-53.0","A2137K4XEU12TI","img_art/23.jpg","null","","","","","","","","","","","","","","","","","","","","","","","","",""
"1255","","image-button-response","55","445441","0.0-54.0","A2137K4XEU12TI","img_art/23.jpg","4","","","","","","","","","","","","","","","","","","","","","","","","",""
"3133","","image-button-response","56","448575","0.0-55.0-0.0","A2137K4XEU12TI","img_art/23.jpg","2","","","","","","","","","","","","","","","","","","","","","","","","",""
"2073","","image-button-response","57","450651","0.0-56.0-0.0","A2137K4XEU12TI","img_art/23.jpg","5","","","","","","","","","","","","","","","","","","","","","","","","",""
"null","","html-keyboard-response","58","451153","0.0-57.0","A2137K4XEU12TI","<p style=""font-size: 48px;"">+</p>","","","","","null","allTrialResponses","500","1","2","img_art/23.jpg","-17","too dark, too many colors","Elizabeth,Kimberly,Marissa,Sara,Jamie,Olivia","Fantastic blend of color and forms,43,20,20","Look at all the dancers,26,260,20","It feels exciting,23,160,20","Beautiful color scheme,21,160,20","Reminds me of outer space and the stars,30,320,20","happiness in the universe,28,40,20","Jamie","Reminds me of outer space and the stars,30,320,20","Marissa","It feels exciting,23,160,20","Olivia","happiness in the universe,28,40,20","2"
"38753","","survey-text","59","489910","0.0-58.0-0.0","A2137K4XEU12TI","","","","{""Q0"":""interesting but don't understand what is depicted""}","","","","","","","","","","","","","","","","","","","","","","",""
"2972.100000023842","","image-slider-response","60","492884","0.0-59.0","A2137K4XEU12TI","","","","","6","","","","","","","","","","","","","","","","","","","","","",""
"null","","image-button-response","61","497887","0.0-60.0","A2137K4XEU12TI","img_art/20.jpg","null","","","","","","","","","","","","","","","","","","","","","","","","",""
"4320","","image-button-response","62","502209","0.0-61.0","A2137K4XEU12TI","img_art/20.jpg","4","","","","","","","","","","","","","","","","","","","","","","","","",""
"2324","","image-button-response","63","504534","0.0-62.0-0.0","A2137K4XEU12TI","img_art/20.jpg","0","","","","","","","","","","","","","","","","","","","","","","","","",""
"670","","image-button-response","64","505206","0.0-63.0-0.0","A2137K4XEU12TI","img_art/20.jpg","1","","","","","","","","","","","","","","","","","","","","","","","","",""
"null","","html-keyboard-response","65","506722","0.0-64.0","A2137K4XEU12TI","<p style=""font-size: 48px;"">+</p>","","","","","null","allTrialResponses","1500","1","3","img_art/20.jpg","6","interesting but don't understand what is depicted","Allison,Erin,Marissa,Dominique,Jamie,Olivia","Melty picture. Reminiscent of Dali.,10,140,20","Dark frame overpowers the image,-6,120,20","I feel intrigued and impressed,34,160,20","I love the colors and coukd spend alot of time with the picture,33,400,20","Looks like some type of future dystopian civilization,35,320,20","crash after traffic causing grief,-11,40,20","Jamie","Looks like some type of future dystopian civilization,35,320,20","Allison","Melty picture. Reminiscent of Dali.,10,140,20","Erin","Dark frame overpowers the image,-6,120,20","2"
"10758","","survey-text","66","517484","0.0-65.0-0.0","A2137K4XEU12TI","","","","{""Q0"":""kindergarten art""}","","","","","","","","","","","","","","","","","","","","","","",""
"3614.100000023842","","image-slider-response","67","521100","0.0-66.0","A2137K4XEU12TI","","","","","-27","","","","","","","","","","","","","","","","","","","","","",""
"3723","","image-button-response","68","526106","0.0-67.0","A2137K4XEU12TI","img_art/5.jpg","2","","","","","","","","","","","","","","","","","","","","","","","","",""
"785","","image-button-response","69","526892","0.0-68.0","A2137K4XEU12TI","img_art/5.jpg","2","","","","","","","","","","","","","","","","","","","","","","","","",""
"720","","image-button-response","70","527614","0.0-69.0-0.0","A2137K4XEU12TI","img_art/5.jpg","5","","","","","","","","","","","","","","","","","","","","","","","","",""
"3122","","image-button-response","71","530738","0.0-70.0-0.0","A2137K4XEU12TI","img_art/5.jpg","3","","","","","","","","","","","","","","","","","","","","","","","","",""
"null","","html-keyboard-response","72","531740","0.0-71.0","A2137K4XEU12TI","<p style=""font-size: 48px;"">+</p>","","","","","null","allTrialResponses","1000","1","4","img_art/5.jpg","-27","kindergarten art","Allison,Erin,Stephanie,Sierra,Jamie,Rebecca","Too loud. Dislike the bright yellow.,-5,140,20","Flame, candle, wind,30,120,20","This did not do a thing for me.,-50,300,20","i dont like the yellow or the shape,-26,260,20","Don't really see it and yellow/pink don't go well together,-35,320,20","sorry not my style,-37,100,20","Stephanie","This did not do a thing for me.,-50,300,20","Rebecca","sorry not my style,-37,100,20","Sierra","i dont like the yellow or the shape,-26,260,20","2"
"12891","","survey-text","73","544636","0.0-72.0-0.0","A2137K4XEU12TI","","","","{""Q0"":""no this is a doodle not art""}","","","","","","","","","","","","","","","","","","","","","","",""
"2983.8000000715256","","image-slider-response","74","547622","0.0-73.0","A2137K4XEU12TI","","","","","-21","","","","","","","","","","","","","","","","","","","","","",""
"4845","","image-button-response","75","552625","0.0-74.0","A2137K4XEU12TI","img_art/3.jpg","0","","","","","","","","","","","","","","","","","","","","","","","","",""
"6486","","image-button-response","76","559112","0.0-75.0","A2137K4XEU12TI","img_art/3.jpg","0","","","","","","","","","","","","","","","","","","","","","","","","",""
"338","","image-button-response","77","559452","0.0-76.0-0.0","A2137K4XEU12TI","img_art/3.jpg","0","","","","","","","","","","","","","","","","","","","","","","","","",""
"1124","","image-button-response","78","564676","0.0-76.1-0.1","A2137K4XEU12TI","img_art/3.jpg","1","","","","","","","","","","","","","","","","","","","","","","","","",""
"1199","","image-button-response","79","565878","0.0-77.0-0.0","A2137K4XEU12TI","img_art/3.jpg","0","","","","","","","","","","","","","","","","","","","","","","","","",""
"1884","","image-button-response","80","570304","0.0-77.1-0.1","A2137K4XEU12TI","img_art/3.jpg","4","","","","","","","","","","","","","","","","","","","","","","","","",""
"null","","html-keyboard-response","81","571816","0.0-78.0","A2137K4XEU12TI","<p style=""font-size: 48px;"">+</p>","","","","","null","allTrialResponses","1500","1","5","img_art/3.jpg","-21","no this is a doodle not art","Angelica,Brittany,Stephanie,Sierra,Lindsey,Rebecca","This is angry and childish looking.,-49,280,20","I don't care for art that looks like it was just scribbled.,-19,40,20","I think of an angry child,-50,300,20","scattered and angry,-26,260,20","Angry red crayons, like a child throwing a tantrum. No thanks.,-10,400,20","sorry do not understand,-26,100,20","Angelica","This is angry and childish looking.,-49,280,20","Brittany","I don't care for art that looks like it was just scribbled.,-19,40,20","Lindsey","Angry red crayons, like a child throwing a tantrum. No thanks.,-10,400,20","6"
"6398","","survey-text","82","578222","0.0-79.0-0.0","A2137K4XEU12TI","","","","{""Q0"":""sky""}","","","","","","","","","","","","","","","","","","","","","","",""
"23271","","survey-text","83","601495","0.0-80.0-0.0","A2137K4XEU12TI","","","","{""Q0"":""like the colors that blend but too vague""}","","","","","","","","","","","","","","","","","","","","","","",""
"3697.9000000953674","","image-slider-response","84","605195","0.0-81.0","A2137K4XEU12TI","","","","","5","","","","","","","","","","","","","","","","","","","","","",""
"3688","","image-button-response","85","610209","0.0-82.0","A2137K4XEU12TI","img_art/21.jpg","1","","","","","","","","","","","","","","","","","","","","","","","","",""
"6226","","image-button-response","86","616437","0.0-83.0","A2137K4XEU12TI","img_art/21.jpg","2","","","","","","","","","","","","","","","","","","","","","","","","",""
"1312","","image-button-response","87","617751","0.0-84.0-0.0","A2137K4XEU12TI","img_art/21.jpg","0","","","","","","","","","","","","","","","","","","","","","","","","",""
"1120","","image-button-response","88","618873","0.0-85.0-0.0","A2137K4XEU12TI","img_art/21.jpg","1","","","","","","","","","","","","","","","","","","","","","","","","",""
"null","","html-keyboard-response","89","619874","0.0-86.0","A2137K4XEU12TI","<p style=""font-size: 48px;"">+</p>","","","","","null","allTrialResponses","1000","1","6","img_art/21.jpg","5","like the colors that blend but too vague","Angelica,Brittany,Sophia,Julia,Lindsey,Kathryn","It looks epic and is nice to look at in terms of colors/style.,23,280,20","Alright. I like the colors.,5,40,20","Indifferent toward this one.,6,280,20","there's not enough fine detail in this one,-27,40,20","I like this piece more the more I look at. Still wouldn't want it in my home, though.,8,400,20","This feels chaotic, like a battle or a storm.,-20,140,20","Sophia","Indifferent toward this one.,6,280,20","Angelica","It looks epic and is nice to look at in terms of colors/style.,23,280,20","Brittany","Alright. I like the colors.,5,40,20","6"
"20563","","survey-text","90","640443","0.0-87.0-0.0","A2137K4XEU12TI","","","","{""Q0"":""like it but my 10 year old could do it""}","","","","","","","","","","","","","","","","","","","","","","",""
"3496.2000000476837","","image-slider-response","91","643941","0.0-88.0","A2137K4XEU12TI","","","","","5","","","","","","","","","","","","","","","","","","","","","",""
"2486","","image-button-response","92","648954","0.0-89.0","A2137K4XEU12TI","img_art/26.jpg","0","","","","","","","","","","","","","","","","","","","","","","","","",""
"6604","","image-button-response","93","655559","0.0-90.0","A2137K4XEU12TI","img_art/26.jpg","1","","","","","","","","","","","","","","","","","","","","","","","","",""
"1250","","image-button-response","94","656811","0.0-91.0-0.0","A2137K4XEU12TI","img_art/26.jpg","0","","","","","","","","","","","","","","","","","","","","","","","","",""
"6266","","image-button-response","95","663080","0.0-92.0-0.0","A2137K4XEU12TI","img_art/26.jpg","5","","","","","","","","","","","","","","","","","","","","","","","","",""
"null","","html-keyboard-response","96","663581","0.0-93.0","A2137K4XEU12TI","<p style=""font-size: 48px;"">+</p>","","","","","null","allTrialResponses","500","1","7","img_art/26.jpg","5","like it but my 10 year old could do it","Angelica,Brittany,Sophia,Sarah,Jasmine,Michaela","It's not ugly but not beautiful at all.,-3,280,20","It looks boring and too rough.,-9,40,20","I like this. Looks like a city street and I can use my imagination to make it come alive.,15,280,20","too hard to figure out if it's meant to be actual objects or impressions,-36,180,20","This seems like a quiet painting,11,340,20","Elevator art but the watercolors are good,29,260,20","Brittany","It looks boring and too rough.,-9,40,20","Angelica","It's not ugly but not beautiful at all.,-3,280,20","Michaela","Elevator art but the watercolors are good,29,260,20","6"
"34287","","survey-text","97","697873","0.0-94.0-0.0","A2137K4XEU12TI","","","","{""Q0"":""nice colors, love the water cascading down""}","","","","","","","","","","","","","","","","","","","","","","",""
"6680.100000023842","","image-slider-response","98","704555","0.0-95.0","A2137K4XEU12TI","","","","","24","","","","","","","","","","","","","","","","","","","","","",""
"4571","","image-button-response","99","709562","0.0-96.0","A2137K4XEU12TI","img_art/24.jpg","2","","","","","","","","","","","","","","","","","","","","","","","","",""
"2630","","image-button-response","100","712195","0.0-97.0","A2137K4XEU12TI","img_art/24.jpg","4","","","","","","","","","","","","","","","","","","","","","","","","",""
"2119","","image-button-response","101","714317","0.0-98.0-0.0","A2137K4XEU12TI","img_art/24.jpg","3","","","","","","","","","","","","","","","","","","","","","","","","",""
"2153","","image-button-response","102","716473","0.0-99.0-0.0","A2137K4XEU12TI","img_art/24.jpg","2","","","","","","","","","","","","","","","","","","","","","","","","",""
"null","","html-keyboard-response","103","717475","0.0-100.0","A2137K4XEU12TI","<p style=""font-size: 48px;"">+</p>","","","","","null","allTrialResponses","1000","1","8","img_art/24.jpg","24","nice colors, love the water cascading down","Angelica,Brittany,Sabrina,Gabriela,Natalie,Michaela","This looks ugly and simple, as if done by a young person.,-2,280,20","Nice colors, but doesn't do much for me.,1,40,20","Love the natural vibe,50,120,20","I love how bold and vibrant the colors are,40,140,20","I like the waterfall,22,400,20","Very pretty and soft,37,260,20","Natalie","I like the waterfall,22,400,20","Gabriela","I love how bold and vibrant the colors are,40,140,20","Sabrina","Love the natural vibe,50,120,20","6"
"11814","","survey-text","104","729293","0.0-101.0-0.0","A2137K4XEU12TI","","","","{""Q0"":""weird but interesting""}","","","","","","","","","","","","","","","","","","","","","","",""
"3740.0999999046326","","image-slider-response","105","733035","0.0-102.0","A2137K4XEU12TI","","","","","17","","","","","","","","","","","","","","","","","","","","","",""
"null","","image-button-response","106","738052","0.0-103.0","A2137K4XEU12TI","img_art/17.jpg","null","","","","","","","","","","","","","","","","","","","","","","","","",""
"3646","","image-button-response","107","741701","0.0-104.0","A2137K4XEU12TI","img_art/17.jpg","5","","","","","","","","","","","","","","","","","","","","","","","","",""
"3070","","image-button-response","108","744773","0.0-105.0-0.0","A2137K4XEU12TI","img_art/17.jpg","1","","","","","","","","","","","","","","","","","","","","","","","","",""
"617","","image-button-response","109","745393","0.0-106.0-0.0","A2137K4XEU12TI","img_art/17.jpg","0","","","","","","","","","","","","","","","","","","","","","","","","",""
"null","","html-keyboard-response","110","746408","0.0-107.0","A2137K4XEU12TI","<p style=""font-size: 48px;"">+</p>","","","","","null","allTrialResponses","1000","1","9","img_art/17.jpg","17","weird but interesting","Hailey,Briana,Sabrina,Gabriela,Natalie,Michelle","soft and warm light colors are relaxing,12,200,20","It looks unfinished,-7,400,20","Messy shadow of loss and love,50,120,20","This makes me feel inspired and happy. I love everything about this portrait,45,140,20","my response to the picture is that it looks beautiful,27,400,20","I can tell there are tress and maybe some doors but I'm not a fan of the style,-2,280,20","Michelle","I can tell there are tress and maybe some doors but I'm not a fan of the style,-2,280,20","Briana","It looks unfinished,-7,400,20","Hailey","soft and warm light colors are relaxing,12,200,20","6"
"15140","","survey-text","111","761552","0.0-108.0-0.0","A2137K4XEU12TI","","","","{""Q0"":""too much color and chaos""}","","","","","","","","","","","","","","","","","","","","","","",""
"2975.7999999523163","","image-slider-response","112","764530","0.0-109.0","A2137K4XEU12TI","","","","","-21","","","","","","","","","","","","","","","","","","","","","",""
"null","","image-button-response","113","769533","0.0-110.0","A2137K4XEU12TI","img_art/22.jpg","null","","","","","","","","","","","","","","","","","","","","","","","","",""
"1666","","image-button-response","114","771201","0.0-111.0","A2137K4XEU12TI","img_art/22.jpg","2","","","","","","","","","","","","","","","","","","","","","","","","",""
"2578","","image-button-response","115","773781","0.0-112.0-0.0","A2137K4XEU12TI","img_art/22.jpg","5","","","","","","","","","","","","","","","","","","","","","","","","",""
"2398","","image-button-response","116","776180","0.0-113.0-0.0","A2137K4XEU12TI","img_art/22.jpg","3","","","","","","","","","","","","","","","","","","","","","","","","",""
"null","","html-keyboard-response","117","777194","0.0-114.0","A2137K4XEU12TI","<p style=""font-size: 48px;"">+</p>","","","","","null","allTrialResponses","1000","1","10","img_art/22.jpg","-21","too much color and chaos","Hailey,Briana,Gabrielle,Alicia,Shelby,Michelle","a lost balloon in outer space,12,200,20","Bright colors feel warm,22,400,20","another OK work, mostly because of the blend of colors,12,160,20","Could be interpreted so many ways, bold. I like it.,29,120,20","This painting has a very nostalgic feel,20,240,20","Not a huge fan of the blocks, also very abstract, I have no idea what it is,8,280,20","Gabrielle","another OK work, mostly because of the blend of colors,12,160,20","Michelle","Not a huge fan of the blocks, also very abstract, I have no idea what it is,8,280,20","Alicia","Could be interpreted so many ways, bold. I like it.,29,120,20","6"
"4123","","survey-text","118","781324","0.0-115.0-0.0","A2137K4XEU12TI","","","","{""Q0"":""our""}","","","","","","","","","","","","","","","","","","","","","","",""
"43044","","survey-text","119","824370","0.0-116.0-0.0","A2137K4XEU12TI","","","","{""Q0"":""cool, interesting, leaves room for interpretation""}","","","","","","","","","","","","","","","","","","","","","","",""
"2565.7999999523163","","image-slider-response","120","826938","0.0-117.0","A2137K4XEU12TI","","","","","11","","","","","","","","","","","","","","","","","","","","","",""
"4556","","image-button-response","121","831941","0.0-118.0","A2137K4XEU12TI","img_art/6.jpg","1","","","","","","","","","","","","","","","","","","","","","","","","",""
"5195","","image-button-response","122","837138","0.0-119.0","A2137K4XEU12TI","img_art/6.jpg","2","","","","","","","","","","","","","","","","","","","","","","","","",""
"3138","","image-button-response","123","840278","0.0-120.0-0.0","A2137K4XEU12TI","img_art/6.jpg","1","","","","","","","","","","","","","","","","","","","","","","","","",""
"646","","image-button-response","124","840926","0.0-121.0-0.0","A2137K4XEU12TI","img_art/6.jpg","0","","","","","","","","","","","","","","","","","","","","","","","","",""
"null","","html-keyboard-response","125","841932","0.0-122.0","A2137K4XEU12TI","<p style=""font-size: 48px;"">+</p>","","","","","null","allTrialResponses","1000","1","11","img_art/6.jpg","11","cool, interesting, leaves room for interpretation","Christina,Claire,Gabrielle,Alicia,Savannah,Michelle","i like the simplicity of the tree and the colors,50,240,20","very minimalistic,22,260,20","simplistic but reminds me of a crow in a field,-10,160,20","kids book cover, uninteresting.,-10,120,20","Despite how simple it is, this piece has clear meaning.,34,200,20","Definitely belongs at a doctor's office, I think it's a crow or a tree?,-3,280,20","Gabrielle","simplistic but reminds me of a crow in a field,-10,160,20","Claire","very minimalistic,22,260,20","Christina","i like the simplicity of the tree and the colors,50,240,20","6"
"19430","","survey-text","126","861368","0.0-123.0-0.0","A2137K4XEU12TI","","","","{""Q0"":""messy and dark""}","","","","","","","","","","","","","","","","","","","","","","",""
"2932","","image-slider-response","127","864302","0.0-124.0","A2137K4XEU12TI","","","","","-22","","","","","","","","","","","","","","","","","","","","","",""
"2226","","image-button-response","128","869308","0.0-125.0","A2137K4XEU12TI","img_art/15.jpg","1","","","","","","","","","","","","","","","","","","","","","","","","",""
"4104","","image-button-response","129","873414","0.0-126.0","A2137K4XEU12TI","img_art/15.jpg","3","","","","","","","","","","","","","","","","","","","","","","","","",""
"1490","","image-button-response","130","874906","0.0-127.0-0.0","A2137K4XEU12TI","img_art/15.jpg","1","","","","","","","","","","","","","","","","","","","","","","","","",""
"1370","","image-button-response","131","876278","0.0-128.0-0.0","A2137K4XEU12TI","img_art/15.jpg","2","","","","","","","","","","","","","","","","","","","","","","","","",""
"null","","html-keyboard-response","132","877780","0.0-129.0","A2137K4XEU12TI","<p style=""font-size: 48px;"">+</p>","","","","","null","allTrialResponses","1500","1","12","img_art/15.jpg","-22","messy and dark","Christina,Claire,Gabrielle,Madeline,Bailey,Cassidy","I really like the colors,14,240,20","it's alright but a little cluttered,14,260,20","dark and provoking,-50,160,20","Simple but needs some more detail somehow,-3,40,20","This is passable, but personally it just has nothing I'd like to see.,-14,360,20","I like the random blue dabs to break up the black, but it looks unfinished.,4,140,20","Madeline","Simple but needs some more detail somehow,-3,40,20","Claire","it's alright but a little cluttered,14,260,20","Gabrielle","dark and provoking,-50,160,20","6"
"15639","","survey-text","133","893423","0.0-130.0-0.0","A2137K4XEU12TI","","","","{""Q0"":""beautiful colors and nice vibe""}","","","","","","","","","","","","","","","","","","","","","","",""
"2940.100000023842","","image-slider-response","134","896365","0.0-131.0","A2137K4XEU12TI","","","","","29","","","","","","","","","","","","","","","","","","","","","",""
"null","","image-button-response","135","901378","0.0-132.0","A2137K4XEU12TI","img_art/30.jpg","null","","","","","","","","","","","","","","","","","","","","","","","","",""
"6390","","image-button-response","136","907769","0.0-133.0","A2137K4XEU12TI","img_art/30.jpg","4","","","","","","","","","","","","","","","","","","","","","","","","",""
"1777","","image-button-response","137","909549","0.0-134.0-0.0","A2137K4XEU12TI","img_art/30.jpg","5","","","","","","","","","","","","","","","","","","","","","","","","",""
"1371","","image-button-response","138","910923","0.0-135.0-0.0","A2137K4XEU12TI","img_art/30.jpg","2","","","","","","","","","","","","","","","","","","","","","","","","",""
"null","","html-keyboard-response","139","912427","0.0-136.0","A2137K4XEU12TI","<p style=""font-size: 48px;"">+</p>","","","","","null","allTrialResponses","1500","1","13","img_art/30.jpg","29","beautiful colors and nice vibe","Chloe,Claire,Gabrielle,Madeline,Chelsea,Jordan","Muddy, sloppy, unprofessional,-44,220,20","too segmented, looks sloppy,-37,260,20","looks very childish, like your kid did it,-33,160,20","A bit haphazard looking and lacking in vision,2,40,20","It looks like it was painted in 5 minutes.,-32,180,20","cant see the meaning behind it,-20,20,20","Chelsea","It looks like it was painted in 5 minutes.,-32,180,20","Jordan","cant see the meaning behind it,-20,20,20","Gabrielle","looks very childish, like your kid did it,-33,160,20","6"
"30407","","survey-text","140","942839","0.0-137.0-0.0","A2137K4XEU12TI","","","","{""Q0"":""no color, random subject, boring""}","","","","","","","","","","","","","","","","","","","","","","",""
"2520.100000023842","","image-slider-response","141","945361","0.0-138.0","A2137K4XEU12TI","","","","","-30","","","","","","","","","","","","","","","","","","","","","",""
"3478","","image-button-response","142","950367","0.0-139.0","A2137K4XEU12TI","img_art/10.jpg","1","","","","","","","","","","","","","","","","","","","","","","","","",""
"652","","image-button-response","143","951021","0.0-140.0","A2137K4XEU12TI","img_art/10.jpg","1","","","","","","","","","","","","","","","","","","","","","","","","",""
"4200","","image-button-response","144","955223","0.0-141.0-0.0","A2137K4XEU12TI","img_art/10.jpg","5","","","","","","","","","","","","","","","","","","","","","","","","",""
"3623","","image-button-response","145","958849","0.0-142.0-0.0","A2137K4XEU12TI","img_art/10.jpg","2","","","","","","","","","","","","","","","","","","","","","","","","",""
"null","","html-keyboard-response","146","960358","0.0-143.0","A2137K4XEU12TI","<p style=""font-size: 48px;"">+</p>","","","","","null","allTrialResponses","1500","1","14","img_art/10.jpg","-30","no color, random subject, boring","Katelyn,Autumn,Gabrielle,Kaylee,Chelsea,Jordan","It makes me think of music and i love the reflective aspect,29,100,20","It just looks like a dirty stain.,-38,340,20","interesting portrayal of a violin?,10,160,20","a blue whale on the sea,12,200,20","It looks intricate.,15,180,20","I dont like it, there is too much going on,-19,20,20","Autumn","It just looks like a dirty stain.,-38,340,20","Jordan","I dont like it, there is too much going on,-19,20,20","Gabrielle","interesting portrayal of a violin?,10,160,20","6"
"38097","","survey-text","147","998460","0.0-144.0-0.0","A2137K4XEU12TI","","","","{""Q0"":""horrible, looks like dirty sidewalk with muddy snow""}","","","","","","","","","","","","","","","","","","","","","","",""
"2524.2000000476837","","image-slider-response","148","1000986","0.0-145.0","A2137K4XEU12TI","","","","","-35","","","","","","","","","","","","","","","","","","","","","",""
"null","","image-button-response","149","1005989","0.0-146.0","A2137K4XEU12TI","img_art/7.jpg","null","","","","","","","","","","","","","","","","","","","","","","","","",""
"250","","image-button-response","150","1006240","0.0-147.0","A2137K4XEU12TI","img_art/7.jpg","3","","","","","","","","","","","","","","","","","","","","","","","","",""
"1504","","image-button-response","151","1007747","0.0-148.0-0.0","A2137K4XEU12TI","img_art/7.jpg","5","","","","","","","","","","","","","","","","","","","","","","","","",""
"3082","","image-button-response","152","1010831","0.0-149.0-0.0","A2137K4XEU12TI","img_art/7.jpg","4","","","","","","","","","","","","","","","","","","","","","","","","",""
"null","","html-keyboard-response","153","1011332","0.0-150.0","A2137K4XEU12TI","<p style=""font-size: 48px;"">+</p>","","","","","null","allTrialResponses","500","1","15","img_art/7.jpg","-35","horrible, looks like dirty sidewalk with muddy snow","Samantha,Autumn,Gabrielle,Vanessa,Jenna,Jordan","Makes me want to feel it,19,140,20","Well done minimalism.,35,340,20","looks like wallpaper,-6,160,20","This is borning and lifeless.,-50,380,20","reminds me of a desert from far above,23,360,20","looks like the surface of the moon.,1,20,20","Vanessa","This is borning and lifeless.,-50,380,20","Jordan","looks like the surface of the moon.,1,20,20","Jenna","reminds me of a desert from far above,23,360,20","6"
"4847","","survey-text","154","1016188","0.0-151.0-0.0","A2137K4XEU12TI","","","","{""Q0"":""course""}","","","","","","","","","","","","","","","","","","","","","","",""
"37376","","survey-text","155","1053566","0.0-152.0-0.0","A2137K4XEU12TI","","","","{""Q0"":""interesting, would have preferred if it had been all colored, dont like the darker upper part""}","","","","","","","","","","","","","","","","","","","","","","",""
"3464.0999999046326","","image-slider-response","156","1057032","0.0-153.0","A2137K4XEU12TI","","","","","2","","","","","","","","","","","","","","","","","","","","","",""
"2162","","image-button-response","157","1062050","0.0-154.0","A2137K4XEU12TI","img_art/12.jpg","1","","","","","","","","","","","","","","","","","","","","","","","","",""
"126","","image-button-response","158","1062178","0.0-155.0","A2137K4XEU12TI","img_art/12.jpg","1","","","","","","","","","","","","","","","","","","","","","","","","",""
"2751","","image-button-response","159","1064930","0.0-156.0-0.0","A2137K4XEU12TI","img_art/12.jpg","2","","","","","","","","","","","","","","","","","","","","","","","","",""
"3002","","image-button-response","160","1067935","0.0-157.0-0.0","A2137K4XEU12TI","img_art/12.jpg","5","","","","","","","","","","","","","","","","","","","","","","","","",""
"null","","html-keyboard-response","161","1069450","0.0-158.0","A2137K4XEU12TI","<p style=""font-size: 48px;"">+</p>","","","","","null","allTrialResponses","1500","1","16","img_art/12.jpg","2","interesting, would have preferred if it had been all colored, dont like the darker upper part","Monica,Angela,Brooke,Vanessa,Jenna,Jordan","Reminds me of collages we made in elementary school. I like the contrast of the colors from top to bottom,43,360,20","I like the colors in the bottom half of the painting,10,260,20","Dislike the style, the sharp rectangular pattern very jarring.,-20,60,20","This is too abstract and the colors are too worn out.,-23,380,20","interesting, but feels like someone cut up a picture and pasted it together wrong. want to see the original,15,360,20","not my kind of thing,1,20,20","Angela","I like the colors in the bottom half of the painting,10,260,20","Brooke","Dislike the style, the sharp rectangular pattern very jarring.,-20,60,20","Jordan","not my kind of thing,1,20,20","6"
"33729","","survey-text","162","1103184","0.0-159.0-0.0","A2137K4XEU12TI","","","","{""Q0"":""no no no, horrible chromatic pairing and messy looking""}","","","","","","","","","","","","","","","","","","","","","","",""
"7536.200000047684","","image-slider-response","163","1110722","0.0-160.0","A2137K4XEU12TI","","","","","-22","","","","","","","","","","","","","","","","","","","","","",""
"null","","image-button-response","164","1115725","0.0-161.0","A2137K4XEU12TI","img_art/2.jpg","null","","","","","","","","","","","","","","","","","","","","","","","","",""
"1955","","image-button-response","165","1117682","0.0-162.0","A2137K4XEU12TI","img_art/2.jpg","3","","","","","","","","","","","","","","","","","","","","","","","","",""
"3681","","image-button-response","166","1121366","0.0-163.0-0.0","A2137K4XEU12TI","img_art/2.jpg","2","","","","","","","","","","","","","","","","","","","","","","","","",""
"2347","","image-button-response","167","1123716","0.0-164.0-0.0","A2137K4XEU12TI","img_art/2.jpg","1","","","","","","","","","","","","","","","","","","","","","","","","",""
"null","","html-keyboard-response","168","1124229","0.0-165.0","A2137K4XEU12TI","<p style=""font-size: 48px;"">+</p>","","","","","null","allTrialResponses","500","1","17","img_art/2.jpg","-22","no no no, horrible chromatic pairing and messy looking","Megan,Angela,Brooke,Hannah,Isabella,Jordan","Colors and space work but the top scribbled killed it.,11,200,20","Only like the blues and teals in this. The rest is unappealing.,-15,260,20","Ugly version of that park painting.,-31,60,20","Looks like child's art.,-19,240,20","Feels like a playground or park vibe,27,280,20","I can't get past the fact that it looks like someone wearing a mask,-46,20,20","Hannah","Looks like child's art.,-19,240,20","Brooke","Ugly version of that park painting.,-31,60,20","Angela","Only like the blues and teals in this. The rest is unappealing.,-15,260,20","6"
"13639","","survey-text","169","1137874","0.0-166.0-0.0","A2137K4XEU12TI","","","","{""Q0"":""like the colors but it is too messy""}","","","","","","","","","","","","","","","","","","","","","","",""
"3296.1999999284744","","image-slider-response","170","1141172","0.0-167.0","A2137K4XEU12TI","","","","","-5","","","","","","","","","","","","","","","","","","","","","",""
"2774","","image-button-response","171","1146182","0.0-168.0","A2137K4XEU12TI","img_art/9.jpg","1","","","","","","","","","","","","","","","","","","","","","","","","",""
"3502","","image-button-response","172","1149686","0.0-169.0","A2137K4XEU12TI","img_art/9.jpg","0","","","","","","","","","","","","","","","","","","","","","","","","",""
"412","","image-button-response","173","1150100","0.0-170.0-0.0","A2137K4XEU12TI","img_art/9.jpg","1","","","","","","","","","","","","","","","","","","","","","","","","",""
"631","","image-button-response","174","1150734","0.0-171.0-0.0","A2137K4XEU12TI","img_art/9.jpg","5","","","","","","","","","","","","","","","","","","","","","","","","",""
"null","","html-keyboard-response","175","1151236","0.0-172.0","A2137K4XEU12TI","<p style=""font-size: 48px;"">+</p>","","","","","null","allTrialResponses","500","1","18","img_art/9.jpg","-5","like the colors but it is too messy","Emily,Angela,Brooke,Hannah,Erika,Cassandra","Looks like a young child drew it.,-45,40,20","This painting feels too jumbled for me to like it.,-12,260,20","Dark fantasy seaside cave carnival? Fun.,15,60,20","Someone lying in bed?  Don't care for it.,-14,240,20","Colorful and expressive,15,100,20","Stuipid looking...dumb,-48,120,20","Emily","Looks like a young child drew it.,-45,40,20","Angela","This painting feels too jumbled for me to like it.,-12,260,20","Cassandra","Stuipid looking...dumb,-48,120,20","6"
"26517","","survey-text","176","1177758","0.0-173.0-0.0","A2137K4XEU12TI","","","","{""Q0"":""it evokes movement and busy life, cool""}","","","","","","","","","","","","","","","","","","","","","","",""
"2544","","image-slider-response","177","1180303","0.0-174.0","A2137K4XEU12TI","","","","","24","","","","","","","","","","","","","","","","","","","","","",""
"2008","","image-button-response","178","1185307","0.0-175.0","A2137K4XEU12TI","img_art/11.jpg","1","","","","","","","","","","","","","","","","","","","","","","","","",""
"3003","","image-button-response","179","1188312","0.0-176.0","A2137K4XEU12TI","img_art/11.jpg","3","","","","","","","","","","","","","","","","","","","","","","","","",""
"770","","image-button-response","180","1189084","0.0-177.0-0.0","A2137K4XEU12TI","img_art/11.jpg","5","","","","","","","","","","","","","","","","","","","","","","","","",""
"551","","image-button-response","181","1189638","0.0-178.0-0.0","A2137K4XEU12TI","img_art/11.jpg","4","","","","","","","","","","","","","","","","","","","","","","","","",""
"null","","html-keyboard-response","182","1191154","0.0-179.0","A2137K4XEU12TI","<p style=""font-size: 48px;"">+</p>","","","","","null","allTrialResponses","1500","1","19","img_art/11.jpg","24","it evokes movement and busy life, cool","Emily,Angela,Amanda,Abigail,Madison,Cassandra","It's kind of cool and I see it looks clean.,22,40,20","I like this one very much, especially the shades of gray.,30,260,20","It makes me feel angry and overwhelmed,-29,180,20","Rainy highways in RI,20,20,20","Rainy day at an urban sea port. Portugal?,30,60,20","I liked it it looked like an roller coasters at an amusment park.,16,120,20","Abigail","Rainy highways in RI,20,20,20","Cassandra","I liked it it looked like an roller coasters at an amusment park.,16,120,20","Madison","Rainy day at an urban sea port. Portugal?,30,60,20","6"
"20080","","survey-text","183","1211239","0.0-180.0-0.0","A2137K4XEU12TI","","","","{""Q0"":""jumbled mess but like the colors""}","","","","","","","","","","","","","","","","","","","","","","",""
"2356.100000023842","","image-slider-response","184","1213597","0.0-181.0","A2137K4XEU12TI","","","","","8","","","","","","","","","","","","","","","","","","","","","",""
"null","","image-button-response","185","1218603","0.0-182.0","A2137K4XEU12TI","img_art/18.jpg","null","","","","","","","","","","","","","","","","","","","","","","","","",""
"1731","","image-button-response","186","1220335","0.0-183.0","A2137K4XEU12TI","img_art/18.jpg","5","","","","","","","","","","","","","","","","","","","","","","","","",""
"2081","","image-button-response","187","1222419","0.0-184.0-0.0","A2137K4XEU12TI","img_art/18.jpg","4","","","","","","","","","","","","","","","","","","","","","","","","",""
"11009","","image-button-response","188","1233431","0.0-185.0-0.0","A2137K4XEU12TI","img_art/18.jpg","0","","","","","","","","","","","","","","","","","","","","","","","","",""
"null","","html-keyboard-response","189","1234932","0.0-186.0","A2137K4XEU12TI","<p style=""font-size: 48px;"">+</p>","","","","","null","allTrialResponses","1500","1","20","img_art/18.jpg","8","jumbled mess but like the colors","Nicole,Katherine,Catherine,Abigail,Madison,Cassandra","There's danger in this painting and it's awesome,40,20,20","Ok this is really badass. Like a warrior come to the last battle,50,120,20","Karma. being ruthless and all the time knowing the shit is gonna catch up with you.,10,160,20","Interesting and capitvating to look at,19,20,20","Pleasant design and composition, unpleasant theme and focus.,-19,60,20","I don't know...kind of a dissatified feeling inside.,-6,120,20","Cassandra","I don't know...kind of a dissatified feeling inside.,-6,120,20","Madison","Pleasant design and composition, unpleasant theme and focus.,-19,60,20","Nicole","There's danger in this painting and it's awesome,40,20,20","6"
"4281","","survey-text","190","1239223","0.0-187.0-0.0","A2137K4XEU12TI","","","","{""Q0"":""we""}","","","","","","","","","","","","","","","","","","","","","","",""
"16432","","survey-text","191","1255656","0.0-188.0-0.0","A2137K4XEU12TI","","","","{""Q0"":""like the painting, it has a certain flow""}","","","","","","","","","","","","","","","","","","","","","","",""
"2850","","image-slider-response","192","1258508","0.0-189.0","A2137K4XEU12TI","","","","","15","","","","","","","","","","","","","","","","","","","","","",""
"null","","image-button-response","193","1263511","0.0-190.0","A2137K4XEU12TI","img_art/14.jpg","null","","","","","","","","","","","","","","","","","","","","","","","","",""
"4825","","image-button-response","194","1268338","0.0-191.0","A2137K4XEU12TI","img_art/14.jpg","5","","","","","","","","","","","","","","","","","","","","","","","","",""
"1438","","image-button-response","195","1269779","0.0-192.0-0.0","A2137K4XEU12TI","img_art/14.jpg","3","","","","","","","","","","","","","","","","","","","","","","","","",""
"2761","","image-button-response","196","1272542","0.0-193.0-0.0","A2137K4XEU12TI","img_art/14.jpg","1","","","","","","","","","","","","","","","","","","","","","","","","",""
"null","","html-keyboard-response","197","1273557","0.0-194.0","A2137K4XEU12TI","<p style=""font-size: 48px;"">+</p>","","","","","null","allTrialResponses","1000","1","21","img_art/14.jpg","15","like the painting, it has a certain flow","Nicole,Cheyenne,Jennifer,Erica,Madison,Cassandra","This reminds me of the Lion King somehow! Feels inspiring,30,20,20","I'm a fan of the background.,13,200,20","This piece is average compared to the others.,1,380,20","positive colours, makes me to look at it and investigate what is going on,27,80,20","No strong feelings either direction.,-4,60,20","I kind of like it...I like the white back ground,11,120,20","Cassandra","I kind of like it...I like the white back ground,11,120,20","Erica","positive colours, makes me to look at it and investigate what is going on,27,80,20","Cheyenne","I'm a fan of the background.,13,200,20","6"
"13857","","survey-text","198","1287420","0.0-195.0-0.0","A2137K4XEU12TI","","","","{""Q0"":""beautiful, love the blue hues""}","","","","","","","","","","","","","","","","","","","","","","",""
"2688.100000023842","","image-slider-response","199","1290110","0.0-196.0","A2137K4XEU12TI","","","","","18","","","","","","","","","","","","","","","","","","","","","",""
"2226","","image-button-response","200","1295117","0.0-197.0","A2137K4XEU12TI","img_art/13.jpg","0","","","","","","","","","","","","","","","","","","","","","","","","",""
"2667","","image-button-response","201","1297786","0.0-198.0","A2137K4XEU12TI","img_art/13.jpg","5","","","","","","","","","","","","","","","","","","","","","","","","",""
"2346","","image-button-response","202","1300134","0.0-199.0-0.0","A2137K4XEU12TI","img_art/13.jpg","4","","","","","","","","","","","","","","","","","","","","","","","","",""
"1403","","image-button-response","203","1301540","0.0-200.0-0.0","A2137K4XEU12TI","img_art/13.jpg","1","","","","","","","","","","","","","","","","","","","","","","","","",""
"null","","html-keyboard-response","204","1302051","0.0-201.0","A2137K4XEU12TI","<p style=""font-size: 48px;"">+</p>","","","","","null","allTrialResponses","500","1","22","img_art/13.jpg","18","beautiful, love the blue hues","Meghan,Cheyenne,Danielle,Erica,Jessica,Cassandra","I like the transition to other colors,24,220,20","Like how realistic it looks.,33,200,20","While it is a bit basic and doesn't speak to me much, I like the feeling it gives,40,340,20","Messy but organised, helps me to relax and observe,8,80,20","The paint splatter idea is kind of overused but I like how it brings the piece together,16,400,20","I love the colors and the texture,37,120,20","Cassandra","I love the colors and the texture,37,120,20","Jessica","The paint splatter idea is kind of overused but I like how it brings the piece together,16,400,20","Cheyenne","Like how realistic it looks.,33,200,20","6"
"14679","","survey-text","205","1316736","0.0-202.0-0.0","A2137K4XEU12TI","","","","{""Q0"":""messy and childish""}","","","","","","","","","","","","","","","","","","","","","","",""
"2824","","image-slider-response","206","1319562","0.0-203.0","A2137K4XEU12TI","","","","","-30","","","","","","","","","","","","","","","","","","","","","",""
"null","","image-button-response","207","1324564","0.0-204.0","A2137K4XEU12TI","img_art/19.jpg","null","","","","","","","","","","","","","","","","","","","","","","","","",""
"2059","","image-button-response","208","1326625","0.0-205.0","A2137K4XEU12TI","img_art/19.jpg","5","","","","","","","","","","","","","","","","","","","","","","","","",""
"4660","","image-button-response","209","1331287","0.0-206.0-0.0","A2137K4XEU12TI","img_art/19.jpg","1","","","","","","","","","","","","","","","","","","","","","","","","",""
"1044","","image-button-response","210","1332333","0.0-207.0-0.0","A2137K4XEU12TI","img_art/19.jpg","3","","","","","","","","","","","","","","","","","","","","","","","","",""
"null","","html-keyboard-response","211","1333349","0.0-208.0","A2137K4XEU12TI","<p style=""font-size: 48px;"">+</p>","","","","","null","allTrialResponses","1000","1","23","img_art/19.jpg","-30","messy and childish","Mikayla,Cheyenne,Ashley,Rachel,Jessica,Cassandra","Very pretty and colorful.,23,300,20","Solid use of colors but wished it looked more realistic.,12,200,20","someone at the beach maybe?,27,320,20","Reminds me of a busy town. Chaotic in nature.,-11,80,20","Vibrant and colorful,13,400,20","Nuetral...can't think of anything to say,4,120,20","Cassandra","Nuetral...can't think of anything to say,4,120,20","Cheyenne","Solid use of colors but wished it looked more realistic.,12,200,20","Rachel","Reminds me of a busy town. Chaotic in nature.,-11,80,20","6"
"22898","","survey-text","212","1356252","0.0-209.0-0.0","A2137K4XEU12TI","","","","{""Q0"":""hate the red X and the paint brush in the middle""}","","","","","","","","","","","","","","","","","","","","","","",""
"2484.3000000715256","","image-slider-response","213","1358738","0.0-210.0","A2137K4XEU12TI","","","","","-39","","","","","","","","","","","","","","","","","","","","","",""
"4786","","image-button-response","214","1363755","0.0-211.0","A2137K4XEU12TI","img_art/29.jpg","4","","","","","","","","","","","","","","","","","","","","","","","","",""
"1388","","image-button-response","215","1365144","0.0-212.0","A2137K4XEU12TI","img_art/29.jpg","3","","","","","","","","","","","","","","","","","","","","","","","","",""
"1460","","image-button-response","216","1366606","0.0-213.0-0.0","A2137K4XEU12TI","img_art/29.jpg","0","","","","","","","","","","","","","","","","","","","","","","","","",""
"4051","","image-button-response","217","1370660","0.0-214.0-0.0","A2137K4XEU12TI","img_art/29.jpg","5","","","","","","","","","","","","","","","","","","","","","","","","",""
"null","","html-keyboard-response","218","1371162","0.0-215.0","A2137K4XEU12TI","<p style=""font-size: 48px;"">+</p>","","","","","null","allTrialResponses","500","1","24","img_art/29.jpg","-39","hate the red X and the paint brush in the middle","Caroline,Cheyenne,Cynthia,Rachel,Destiny,Cassandra","Depressing and with that big red x on it just makes me not like it.,-33,100,20","Really enjoy everything about this one.,50,200,20","makes me feel busy and unorganized,4,320,20","It looks like someone did not like their art and drew an x over it.,-32,80,20","is this supposed to be edgy,-21,360,20","Neural...just a blackboard jungle.,3,120,20","Rachel","It looks like someone did not like their art and drew an x over it.,-32,80,20","Caroline","Depressing and with that big red x on it just makes me not like it.,-33,100,20","Cassandra","Neural...just a blackboard jungle.,3,120,20","6"
"23685","","survey-text","219","1394853","0.0-216.0-0.0","A2137K4XEU12TI","","","","{""Q0"":""elementary school art""}","","","","","","","","","","","","","","","","","","","","","","",""
"2452.0999999046326","","image-slider-response","220","1397307","0.0-217.0","A2137K4XEU12TI","","","","","-19","","","","","","","","","","","","","","","","","","","","","",""
"1926","","image-button-response","221","1402309","0.0-218.0","A2137K4XEU12TI","img_art/4.jpg","0","","","","","","","","","","","","","","","","","","","","","","","","",""
"264","","image-button-response","222","1402575","0.0-219.0","A2137K4XEU12TI","img_art/4.jpg","3","","","","","","","","","","","","","","","","","","","","","","","","",""
"3220","","image-button-response","223","1405797","0.0-220.0-0.0","A2137K4XEU12TI","img_art/4.jpg","5","","","","","","","","","","","","","","","","","","","","","","","","",""
"1209","","image-button-response","224","1407009","0.0-221.0-0.0","A2137K4XEU12TI","img_art/4.jpg","0","","","","","","","","","","","","","","","","","","","","","","","","",""
"null","","html-keyboard-response","225","1407510","0.0-222.0","A2137K4XEU12TI","<p style=""font-size: 48px;"">+</p>","","","","","null","allTrialResponses","500","1","25","img_art/4.jpg","-19","elementary school art","Caroline,Mariah,Alexandra,Rachel,Breanna,Cassandra","Blah feeling, nothing,-8,100,20","Movement. Snakes. Hair. The uncertainty makes my eye return.,21,140,20","This artwork looks like a child did it,-41,60,20","Not a huge fan of the color story, but it reminds me of a child finger-painting.,12,80,20","Looks like a hand, not very impressed,-22,380,20","I don't like this...a mustardy scibble.,-47,120,20","Rachel","Not a huge fan of the color story, but it reminds me of a child finger-painting.,12,80,20","Cassandra","I don't like this...a mustardy scibble.,-47,120,20","Caroline","Blah feeling, nothing,-8,100,20","6"
"3635","","survey-text","226","1411156","0.0-223.0-0.0","A2137K4XEU12TI","","","","{""Q0"":""table""}","","","","","","","","","","","","","","","","","","","","","","",""
"42863","","survey-text","227","1454021","0.0-224.0-0.0","A2137K4XEU12TI","","","","{""Q0"":""cool colors, looks like a village""}","","","","","","","","","","","","","","","","","","","","","","",""
"2911.7999999523163","","image-slider-response","228","1456935","0.0-225.0","A2137K4XEU12TI","","","","","5","","","","","","","","","","","","","","","","","","","","","",""
"3515","","image-button-response","229","1461937","0.0-226.0","A2137K4XEU12TI","img_art/8.jpg","0","","","","","","","","","","","","","","","","","","","","","","","","",""
"1783","","image-button-response","230","1463723","0.0-227.0","A2137K4XEU12TI","img_art/8.jpg","5","","","","","","","","","","","","","","","","","","","","","","","","",""
"1796","","image-button-response","231","1465521","0.0-228.0-0.0","A2137K4XEU12TI","img_art/8.jpg","2","","","","","","","","","","","","","","","","","","","","","","","","",""
"1929","","image-button-response","232","1467453","0.0-229.0-0.0","A2137K4XEU12TI","img_art/8.jpg","1","","","","","","","","","","","","","","","","","","","","","","","","",""
"null","","html-keyboard-response","233","1468969","0.0-230.0","A2137K4XEU12TI","<p style=""font-size: 48px;"">+</p>","","","","","null","allTrialResponses","1500","1","26","img_art/8.jpg","5","cool colors, looks like a village","Caroline,Caitlin,Morgan,Rachel,Kylie,Cassandra","I love the colors in it and also the faces and door ways. Made me feel hopeful,35,100,20","And I'll huff and I'll puff and I'll blow your town down!!,20,80,20","Falling into a city's heart.,10,380,20","I like all of the faces that can be found in this piece. Interesting.,35,80,20","Very abstract and seems symbolic,45,300,20","I like the colors and the scene.,24,120,20","Cassandra","I like the colors and the scene.,24,120,20","Morgan","Falling into a city's heart.,10,380,20","Caitlin","And I'll huff and I'll puff and I'll blow your town down!!,20,80,20","6"
"21431","","survey-text","234","1490407","0.0-231.0-0.0","A2137K4XEU12TI","","","","{""Q0"":""the vide is cool, dont love the green doodles on top""}","","","","","","","","","","","","","","","","","","","","","","",""
"2680.2000000476837","","image-slider-response","235","1493088","0.0-232.0","A2137K4XEU12TI","","","","","4","","","","","","","","","","","","","","","","","","","","","",""
"null","","image-button-response","236","1498103","0.0-233.0","A2137K4XEU12TI","img_art/27.jpg","null","","","","","","","","","","","","","","","","","","","","","","","","",""
"408","","image-button-response","237","1498512","0.0-234.0","A2137K4XEU12TI","img_art/27.jpg","1","","","","","","","","","","","","","","","","","","","","","","","","",""
"3143","","image-button-response","238","1501657","0.0-235.0-0.0","A2137K4XEU12TI","img_art/27.jpg","5","","","","","","","","","","","","","","","","","","","","","","","","",""
"1718","","image-button-response","239","1503377","0.0-236.0-0.0","A2137K4XEU12TI","img_art/27.jpg","4","","","","","","","","","","","","","","","","","","","","","","","","",""
"null","","html-keyboard-response","240","1504886","0.0-237.0","A2137K4XEU12TI","<p style=""font-size: 48px;"">+</p>","","","","","null","allTrialResponses","1500","1","27","img_art/27.jpg","4","the vide is cool, dont love the green doodles on top","Amy,Caitlin,Morgan,Molly,Kaitlyn,Cassandra","The colors provide a complexity to the nearly child-like sketches.,5,220,20","Looks like a child added his own interpretation with a black marker.,-5,80,20","Messy field of various plants.,-5,380,20","No clue what to say.,0,340,20","The variation of orange is nice,9,80,20","I don't like any of it...just scibbles.,-37,120,20","Caitlin","Looks like a child added his own interpretation with a black marker.,-5,80,20","Cassandra","I don't like any of it...just scibbles.,-37,120,20","Kaitlyn","The variation of orange is nice,9,80,20","6"
"17132","","survey-text","241","1522024","0.0-238.0-0.0","A2137K4XEU12TI","","","","{""Q0"":""colors are bright but too messy overall""}","","","","","","","","","","","","","","","","","","","","","","",""
"2328.0999999046326","","image-slider-response","242","1524354","0.0-239.0","A2137K4XEU12TI","","","","","-7","","","","","","","","","","","","","","","","","","","","","",""
"4646","","image-button-response","243","1529356","0.0-240.0","A2137K4XEU12TI","img_art/1.jpg","2","","","","","","","","","","","","","","","","","","","","","","","","",""
"1370","","image-button-response","244","1530728","0.0-241.0","A2137K4XEU12TI","img_art/1.jpg","4","","","","","","","","","","","","","","","","","","","","","","","","",""
"1851","","image-button-response","245","1532580","0.0-242.0-0.0","A2137K4XEU12TI","img_art/1.jpg","5","","","","","","","","","","","","","","","","","","","","","","","","",""
"1034","","image-button-response","246","1533616","0.0-243.0-0.0","A2137K4XEU12TI","img_art/1.jpg","2","","","","","","","","","","","","","","","","","","","","","","","","",""
"null","","html-keyboard-response","247","1534623","0.0-244.0","A2137K4XEU12TI","<p style=""font-size: 48px;"">+</p>","","","","","null","allTrialResponses","1000","1","28","img_art/1.jpg","-7","colors are bright but too messy overall","Leah,Caitlin,Courtney,Kaitlin,Kaitlyn,Cassandra","Pretty intermeshing of colors, happy,32,360,20","Deja vu. Haven't I seen this one before? Not bad for those living in the backwoods.,10,80,20","I cant make anything of this one.,-7,280,20","I see happiness from different aspects of life,31,60,20","Interesting blend of colors,9,80,20","I didn't like this too much...I didn't like the red and the jaggedness to it.,-29,120,20","Kaitlyn","Interesting blend of colors,9,80,20","Cassandra","I didn't like this too much...I didn't like the red and the jaggedness to it.,-29,120,20","Courtney","I cant make anything of this one.,-7,280,20","6"
"17346","","survey-text","248","1551974","0.0-245.0-0.0","A2137K4XEU12TI","","","","{""Q0"":""lovely green, like the woman depicted""}","","","","","","","","","","","","","","","","","","","","","","",""
"2896","","image-slider-response","249","1554872","0.0-246.0","A2137K4XEU12TI","","","","","23","","","","","","","","","","","","","","","","","","","","","",""
"4396","","image-button-response","250","1559881","0.0-247.0","A2137K4XEU12TI","img_art/25.jpg","4","","","","","","","","","","","","","","","","","","","","","","","","",""
"2861","","image-button-response","251","1562744","0.0-248.0","A2137K4XEU12TI","img_art/25.jpg","0","","","","","","","","","","","","","","","","","","","","","","","","",""
"866","","image-button-response","252","1563613","0.0-249.0-0.0","A2137K4XEU12TI","img_art/25.jpg","4","","","","","","","","","","","","","","","","","","","","","","","","",""
"4825","","image-button-response","253","1568440","0.0-250.0-0.0","A2137K4XEU12TI","img_art/25.jpg","2","","","","","","","","","","","","","","","","","","","","","","","","",""
"null","","html-keyboard-response","254","1569946","0.0-251.0","A2137K4XEU12TI","<p style=""font-size: 48px;"">+</p>","","","","","null","allTrialResponses","1500","1","29","img_art/25.jpg","23","lovely green, like the woman depicted","Makayla,Kelsey,Courtney,Jacqueline,Kaitlyn,Cassandra","It's very mystical.,5,80,20","quite unnerving,-15,240,20","That on i find a bit creapy.,-19,280,20","Not particularly interesting for me. The green color is strange mixed with this.,-11,300,20","Love the simplicity and lines,20,80,20","I hate the colors and the scene,-46,120,20","Makayla","It's very mystical.,5,80,20","Kaitlyn","Love the simplicity and lines,20,80,20","Courtney","That on i find a bit creapy.,-19,280,20","6"
"30309","","survey-text","255","1600260","0.0-252.0-0.0","A2137K4XEU12TI","","","","{""Q0"":""scary and creepy, the teddy bear's eyes are demonic""}","","","","","","","","","","","","","","","","","","","","","","",""
"2704","","image-slider-response","256","1602966","0.0-253.0","A2137K4XEU12TI","","","","","-38","","","","","","","","","","","","","","","","","","","","","",""
"4955","","image-button-response","257","1607968","0.0-254.0","A2137K4XEU12TI","img_art/16.jpg","3","","","","","","","","","","","","","","","","","","","","","","","","",""
"614","","image-button-response","258","1608584","0.0-255.0","A2137K4XEU12TI","img_art/16.jpg","3","","","","","","","","","","","","","","","","","","","","","","","","",""
"418","","image-button-response","259","1609005","0.0-256.0-0.0","A2137K4XEU12TI","img_art/16.jpg","4","","","","","","","","","","","","","","","","","","","","","","","","",""
"706","","image-button-response","260","1609712","0.0-257.0-0.0","A2137K4XEU12TI","img_art/16.jpg","0","","","","","","","","","","","","","","","","","","","","","","","","",""
"null","","html-keyboard-response","261","1610725","0.0-258.0","A2137K4XEU12TI","<p style=""font-size: 48px;"">+</p>","","","","","null","allTrialResponses","1000","1","30","img_art/16.jpg","-38","scary and creepy, the teddy bear's eyes are demonic","Makayla,Shannon,Courtney,Alyssa,Kaitlyn,Heather","It's a little unsettling,2,80,20","I think this picture is weird and the colors are very boring.,-50,220,20","Hmm i don't know what going on here.,1,280,20","It creeps me out.,-50,160,20","The bear is a weird choice,-22,80,20","lol i dont know how i feel about this.,1,260,20","Alyssa","It creeps me out.,-50,160,20","Kaitlyn","The bear is a weird choice,-22,80,20","Makayla","It's a little unsettling,2,80,20","6"
"2256","","image-button-response_instructions","262","1612986","0.0-259.0","A2137K4XEU12TI","","0","instructions","","","","","","","","","","","","","","","","","","","","","","","",""
"1252","","image-button-response","263","1614244","0.0-260.0","A2137K4XEU12TI","","0","","","","","","","","","","","","","","","","","","","","","","","","",""
