"rt","url","trial_type","trial_index","time_elapsed","internal_node_id","participant_id","stimulus","button_pressed","Name","responses","response","key_press","variableName","fixationTime","condition","trial","photo","subjectRating","subjectResponse","agentsNames","agent_1_Response","agent_2_Response","agent_3_Response","agent_4_Response","agent_5_Response","agent_6_Response","kept_1_name","kept_1_response","kept_2_name","kept_2_response","kept_3_name","kept_3_response","errorCounter"
"12652","external_page_harvard.html","external-html","0","12767","0.0-0.0","A219VCQZADQ45W","","","","","","","","","","","","","","","","","","","","","","","","","","",""
"2633","","image-button-response","1","15402","0.0-1.0","A219VCQZADQ45W","","1","","","","","","","","","","","","","","","","","","","","","","","","",""
"2156","","image-button-response","2","17562","0.0-2.0-0.0","A219VCQZADQ45W","","1","phone","","","","","","","","","","","","","","","","","","","","","","","",""
"16735","","survey-text","3","34298","0.0-3.0-0.0","A219VCQZADQ45W","","","","{""Q0"":""A219VCQZADQ45W""}","","","","","","","","","","","","","","","","","","","","","","",""
"4962","","image-button-response_instructions","4","39262","0.0-4.0","A219VCQZADQ45W","","0","instructions","","","","","","","","","","","","","","","","","","","","","","","",""
"51836","","image-button-response_instructions","5","91098","0.0-5.0","A219VCQZADQ45W","img_art/ins/popularity/ins1.png","0","instructions","","","","","","","","","","","","","","","","","","","","","","","",""
"12999","","image-button-response_instructions","6","104098","0.0-6.0","A219VCQZADQ45W","img_art/ins/popularity/ins2.png","0","instructions","","","","","","","","","","","","","","","","","","","","","","","",""
"10110","","image-button-response_instructions","7","114210","0.0-7.0","A219VCQZADQ45W","img_art/ins/popularity/ins2Extreme.png","0","instructions","","","","","","","","","","","","","","","","","","","","","","","",""
"17760","","image-button-response_instructions","8","131970","0.0-8.0","A219VCQZADQ45W","img_art/ins/popularity/ins3KEEPpop.PNG","0","instructions","","","","","","","","","","","","","","","","","","","","","","","",""
"5092","","image-button-response_instructions","9","137062","0.0-9.0","A219VCQZADQ45W","img_art/ins/popularity/ins3ANamepop.PNG","0","instructions","","","","","","","","","","","","","","","","","","","","","","","",""
"1947","","image-button-response_instructions","10","139010","0.0-10.0","A219VCQZADQ45W","img_art/ins/popularity/ins3ARatingpop.png","0","instructions","","","","","","","","","","","","","","","","","","","","","","","",""
"2075","","image-button-response_instructions","11","141086","0.0-11.0","A219VCQZADQ45W","img_art/ins/popularity/ins3ATextpop.png","0","instructions","","","","","","","","","","","","","","","","","","","","","","","",""
"4783","","image-button-response_instructions","12","145870","0.0-12.0","A219VCQZADQ45W","img_art/ins/popularity/ins3ALikespop.png","0","instructions","","","","","","","","","","","","","","","","","","","","","","","",""
"5411","","image-button-response_instructions","13","151282","0.0-13.0","A219VCQZADQ45W","img_art/ins/popularity/ins3KEEPpop.PNG","0","instructions","","","","","","","","","","","","","","","","","","","","","","","",""
"3759","","image-button-response_instructions","14","155042","0.0-14.0","A219VCQZADQ45W","img_art/ins/popularity/ins3_5RED.png","0","instructions","","","","","","","","","","","","","","","","","","","","","","","",""
"1835","","image-button-response_instructions","15","156878","0.0-15.0","A219VCQZADQ45W","img_art/ins/popularity/ins3KEEPpop.PNG","0","instructions","","","","","","","","","","","","","","","","","","","","","","","",""
"7859","","image-button-response_instructions","16","164738","0.0-16.0","A219VCQZADQ45W","img_art/ins/popularity/ins4KEEPpop.PNG","0","instructions","","","","","","","","","","","","","","","","","","","","","","","",""
"5607","","image-button-response_instructions","17","170346","0.0-17.0","A219VCQZADQ45W","img_art/ins/popularity/ins5KEEPpop.PNG","0","instructions","","","","","","","","","","","","","","","","","","","","","","","",""
"1811","","image-button-response_instructions","18","172158","0.0-18.0","A219VCQZADQ45W","","0","instructions","","","","","","","","","","","","","","","","","","","","","","","",""
"11954","","survey-text","19","184130","0.0-19.0-0.0","A219VCQZADQ45W","","","","{""Q0"":""but""}","","","","","","","","","","","","","","","","","","","","","","",""
"23818","","survey-text","20","207950","0.0-20.0-0.0","A219VCQZADQ45W","","","","{""Q0"":""looks like child's play""}","","","","","","","","","","","","","","","","","","","","","","",""
"3326.199999809265","","image-slider-response","21","211278","0.0-21.0","A219VCQZADQ45W","","","","","-16","","","","","","","","","","","","","","","","","","","","","",""
"null","","image-button-response","22","216281","0.0-22.0","A219VCQZADQ45W","img_art/ins/1.jpg","null","","","","","","","","","","","","","","","","","","","","","","","","",""
"2931","","image-button-response","23","219215","0.0-23.0","A219VCQZADQ45W","img_art/ins/1.jpg","1","","","","","","","","","","","","","","","","","","","","","","","","",""
"2941","","image-button-response","24","222158","0.0-24.0-0.0","A219VCQZADQ45W","img_art/ins/1.jpg","3","","","","","","","","","","","","","","","","","","","","","","","","",""
"8486","","image-button-response","25","230646","0.0-25.0-0.0","A219VCQZADQ45W","img_art/ins/1.jpg","2","","","","","","","","","","","","","","","","","","","","","","","","",""
"null","","html-keyboard-response","26","232149","0.0-26.0","A219VCQZADQ45W","<p style=""font-size: 48px;"">+</p>","","","","","null","allTrialResponses","1500","1","-2","img_art/ins/1.jpg","-16","looks like child's play","Allison,Ashley,Beth,Dora,Erika,Jen","looks like a lot of things going on in the mist,20,20,20","I just don't get why these type of art would be popular,-32,40,20","This color reminds me of poo,-46,60,20","looks like what my niece in 3rd grade did this afternoon,-50,80,20","I like the sophisticated brushwork,40,100,20","It reminds me of a candy land dream I had,36,120,20","Ashley","I just don't get why these type of art would be popular,-32,40,20","Dora","looks like what my niece in 3rd grade did this afternoon,-50,80,20","Beth","This color reminds me of poo,-46,60,20","0"
"36414","","survey-text","27","268573","0.0-27.0-0.0","A219VCQZADQ45W","","","","{""Q0"":""somewhat interesting but not that great""}","","","","","","","","","","","","","","","","","","","","","","",""
"6135","","image-slider-response","28","274709","0.0-28.0","A219VCQZADQ45W","","","","","-10","","","","","","","","","","","","","","","","","","","","","",""
"null","","image-button-response","29","279721","0.0-29.0","A219VCQZADQ45W","img_art/ins/2.jpg","null","","","","","","","","","","","","","","","","","","","","","","","","",""
"7226","","image-button-response","30","286949","0.0-30.0","A219VCQZADQ45W","img_art/ins/2.jpg","3","","","","","","","","","","","","","","","","","","","","","","","","",""
"7679","","image-button-response","31","294629","0.0-31.0-0.0","A219VCQZADQ45W","img_art/ins/2.jpg","1","","","","","","","","","","","","","","","","","","","","","","","","",""
"1223","","image-button-response","32","295853","0.0-32.0-0.0","A219VCQZADQ45W","img_art/ins/2.jpg","2","","","","","","","","","","","","","","","","","","","","","","","","",""
"null","","html-keyboard-response","33","296360","0.0-33.0","A219VCQZADQ45W","<p style=""font-size: 48px;"">+</p>","","","","","null","allTrialResponses","500","1","-1","img_art/ins/2.jpg","-10","somewhat interesting but not that great","Jenna,Ashley,Beth,Dora,Kara,Katie","One of my pet peevs,-48,140,20","Idk, it is just annoying,-32,40,20","meaningless painting,-45,60,20","looks too angry,-50,80,20","I like the blocks of color arrangements,30,160,20","too much color!,-28,180,20","Dora","looks too angry,-50,80,20","Ashley","Idk, it is just annoying,-32,40,20","Beth","meaningless painting,-45,60,20","0"
"20290","","survey-text","34","316657","0.0-34.0-0.0","A219VCQZADQ45W","","","","{""Q0"":""nice colors, pleasant""}","","","","","","","","","","","","","","","","","","","","","","",""
"5694.799999952316","","image-slider-response","35","322353","0.0-35.0","A219VCQZADQ45W","","","","","5","","","","","","","","","","","","","","","","","","","","","",""
"null","","image-button-response","36","327356","0.0-36.0","A219VCQZADQ45W","img_art/ins/3.jpg","null","","","","","","","","","","","","","","","","","","","","","","","","",""
"634","","image-button-response","37","327993","0.0-37.0","A219VCQZADQ45W","img_art/ins/3.jpg","0","","","","","","","","","","","","","","","","","","","","","","","","",""
"11247","","image-button-response","38","339241","0.0-38.0-0.0","A219VCQZADQ45W","img_art/ins/3.jpg","4","","","","","","","","","","","","","","","","","","","","","","","","",""
"3423","","image-button-response","39","342666","0.0-39.0-0.0","A219VCQZADQ45W","img_art/ins/3.jpg","0","","","","","","","","","","","","","","","","","","","","","","","","",""
"919","","image-button-response","40","354105","0.0-39.1-0.1","A219VCQZADQ45W","img_art/ins/3.jpg","1","","","","","","","","","","","","","","","","","","","","","","","","",""
"null","","html-keyboard-response","41","354606","0.0-40.0","A219VCQZADQ45W","<p style=""font-size: 48px;"">+</p>","","","","","null","allTrialResponses","500","1","0","img_art/ins/3.jpg","5","nice colors, pleasant","Leslie,Ashley,Beth,Dora,Mary,Rose","It's an alright work,15,200,20","It looks like a playground for bats,-36,40,20","This thing gives me anxiety,-41,60,20","My worst nightmare,-42,80,20","I like the overlapping of brushes,41,220,20","My daily routine, it's depressing,-20,240,20","Leslie","It's an alright work,15,200,20","Mary","I like the overlapping of brushes,41,220,20","Ashley","It looks like a playground for bats,-36,40,20","2"
"16290","","image-button-response_instructions","42","370905","0.0-41.0","A219VCQZADQ45W","","0","instructions","","","","","","","","","","","","","","","","","","","","","","","",""
"14239","","survey-likert","43","385145","0.0-42.0-0.0","A219VCQZADQ45W","","","","{""Q0"":"""",""Q1"":0,""Q2"":1}","","","","","","","","","","","","","","","","","","","","","","",""
"8088","","survey-text","44","393237","0.0-43.0-0.0","A219VCQZADQ45W","","","","{""Q0"":""rock""}","","","","","","","","","","","","","","","","","","","","","","",""
"28663","","survey-text","45","421901","0.0-44.0-0.0","A219VCQZADQ45W","","","","{""Q0"":""dont really like the colors""}","","","","","","","","","","","","","","","","","","","","","","",""
"6090.599999904633","","image-slider-response","46","427993","0.0-45.0","A219VCQZADQ45W","","","","","-10","","","","","","","","","","","","","","","","","","","","","",""
"4116","","image-button-response","47","433016","0.0-46.0","A219VCQZADQ45W","img_art/17.jpg","0","","","","","","","","","","","","","","","","","","","","","","","","",""
"1302","","image-button-response","48","434321","0.0-47.0","A219VCQZADQ45W","img_art/17.jpg","0","","","","","","","","","","","","","","","","","","","","","","","","",""
"10646","","image-button-response","49","444969","0.0-48.0-0.0","A219VCQZADQ45W","img_art/17.jpg","2","","","","","","","","","","","","","","","","","","","","","","","","",""
"14078","","image-button-response","50","459049","0.0-49.0-0.0","A219VCQZADQ45W","img_art/17.jpg","3","","","","","","","","","","","","","","","","","","","","","","","","",""
"null","","html-keyboard-response","51","459561","0.0-50.0","A219VCQZADQ45W","<p style=""font-size: 48px;"">+</p>","","","","","null","allTrialResponses","500","1","1","img_art/17.jpg","-10","dont really like the colors","Briana,Catherine,Angela,Courtney,Marissa,Paige","It looks unfinished,-7,400,20","Nature coming to the inside of your space that you are locked into.,50,160,20","I like this, but it's a bit bland.,10,260,20","Some new perm we got there.,12,280,20","This reminds me of spring,24,160,20","very pretty. Makes me happy,45,60,20","Briana","It looks unfinished,-7,400,20","Angela","I like this, but it's a bit bland.,10,260,20","Courtney","Some new perm we got there.,12,280,20","2"
"32280","","survey-text","52","491850","0.0-51.0-0.0","A219VCQZADQ45W","","","","{""Q0"":""just a hodgepodge of colors,blobs""}","","","","","","","","","","","","","","","","","","","","","","",""
"4422.399999856949","","image-slider-response","53","496273","0.0-52.0","A219VCQZADQ45W","","","","","-38","","","","","","","","","","","","","","","","","","","","","",""
"null","","image-button-response","54","501277","0.0-53.0","A219VCQZADQ45W","img_art/2.jpg","null","","","","","","","","","","","","","","","","","","","","","","","","",""
"1671","","image-button-response","55","502950","0.0-54.0","A219VCQZADQ45W","img_art/2.jpg","1","","","","","","","","","","","","","","","","","","","","","","","","",""
"4638","","image-button-response","56","507590","0.0-55.0-0.0","A219VCQZADQ45W","img_art/2.jpg","2","","","","","","","","","","","","","","","","","","","","","","","","",""
"4078","","image-button-response","57","511670","0.0-56.0-0.0","A219VCQZADQ45W","img_art/2.jpg","4","","","","","","","","","","","","","","","","","","","","","","","","",""
"null","","html-keyboard-response","58","513181","0.0-57.0","A219VCQZADQ45W","<p style=""font-size: 48px;"">+</p>","","","","","null","allTrialResponses","1500","1","2","img_art/2.jpg","-38","just a hodgepodge of colors,blobs","Briana,Kaylee,Angela,Courtney,Danielle,Kristen","Childish smiley face,-19,400,20","its ugly af to be honest,-50,200,20","Only like the blues and teals in this. The rest is unappealing.,-15,260,20","That looks look a cartoon character of some kind.,11,280,20","Not a fan of this style,-30,340,20","smilely face, soulful,11,280,20","Kaylee","its ugly af to be honest,-50,200,20","Angela","Only like the blues and teals in this. The rest is unappealing.,-15,260,20","Danielle","Not a fan of this style,-30,340,20","2"
"20347","","survey-text","59","533537","0.0-58.0-0.0","A219VCQZADQ45W","","","","{""Q0"":""colors are olive drab""}","","","","","","","","","","","","","","","","","","","","","","",""
"4574.599999904633","","image-slider-response","60","538113","0.0-59.0","A219VCQZADQ45W","","","","","-31","","","","","","","","","","","","","","","","","","","","","",""
"null","","image-button-response","61","543115","0.0-60.0","A219VCQZADQ45W","img_art/28.jpg","null","","","","","","","","","","","","","","","","","","","","","","","","",""
"196","","image-button-response","62","543314","0.0-61.0","A219VCQZADQ45W","img_art/28.jpg","0","","","","","","","","","","","","","","","","","","","","","","","","",""
"9469","","image-button-response","63","552785","0.0-62.0-0.0","A219VCQZADQ45W","img_art/28.jpg","3","","","","","","","","","","","","","","","","","","","","","","","","",""
"4466","","image-button-response","64","557253","0.0-63.0-0.0","A219VCQZADQ45W","img_art/28.jpg","2","","","","","","","","","","","","","","","","","","","","","","","","",""
"null","","html-keyboard-response","65","558755","0.0-64.0","A219VCQZADQ45W","<p style=""font-size: 48px;"">+</p>","","","","","null","allTrialResponses","1500","1","3","img_art/28.jpg","-31","colors are olive drab","Alexandria,Kaylee,Angela,Mackenzie,Danielle,Sarah","no clear colors or meaning to evoke emotions,-15,80,20","i dont understand it,-34,200,20","This reminds me of internal organs.,-10,260,20","The muted tones aren't my favorite.,-10,20,20","I enjoy the color themes, they seem gloomy and mysterious, and content in their own way, which I love.,20,340,20","something about all the off-greys is pretty interesting,5,180,20","Alexandria","no clear colors or meaning to evoke emotions,-15,80,20","Mackenzie","The muted tones aren't my favorite.,-10,20,20","Angela","This reminds me of internal organs.,-10,260,20","2"
"38581","","survey-text","66","597344","0.0-65.0-0.0","A219VCQZADQ45W","","","","{""Q0"":""somewhat unique style but too gray""}","","","","","","","","","","","","","","","","","","","","","","",""
"8654.700000047684","","image-slider-response","67","606001","0.0-66.0","A219VCQZADQ45W","","","","","-4","","","","","","","","","","","","","","","","","","","","","",""
"null","","image-button-response","68","611018","0.0-67.0","A219VCQZADQ45W","img_art/11.jpg","null","","","","","","","","","","","","","","","","","","","","","","","","",""
"7740","","image-button-response","69","618761","0.0-68.0","A219VCQZADQ45W","img_art/11.jpg","1","","","","","","","","","","","","","","","","","","","","","","","","",""
"3798","","image-button-response","70","622561","0.0-69.0-0.0","A219VCQZADQ45W","img_art/11.jpg","2","","","","","","","","","","","","","","","","","","","","","","","","",""
"3354","","image-button-response","71","625917","0.0-70.0-0.0","A219VCQZADQ45W","img_art/11.jpg","5","","","","","","","","","","","","","","","","","","","","","","","","",""
"null","","html-keyboard-response","72","626432","0.0-71.0","A219VCQZADQ45W","<p style=""font-size: 48px;"">+</p>","","","","","null","allTrialResponses","500","1","4","img_art/11.jpg","-4","somewhat unique style but too gray","Alexandria,Stephanie,Angela,Mackenzie,Sabrina,Jasmine","it reminds me of music,43,80,20","Rainy dreary day in a town.,7,300,20","I like this one very much, especially the shades of gray.,30,260,20","The different textures and colors make this pleasing to look at.,30,20,20","I love the city chaos from this,50,120,20","Reminds me of a city on a grey/rainy winter's day,25,340,20","Stephanie","Rainy dreary day in a town.,7,300,20","Angela","I like this one very much, especially the shades of gray.,30,260,20","Jasmine","Reminds me of a city on a grey/rainy winter's day,25,340,20","2"
"33264","","survey-text","73","659705","0.0-72.0-0.0","A219VCQZADQ45W","","","","{""Q0"":""unique look and color""}","","","","","","","","","","","","","","","","","","","","","","",""
"6470.700000047684","","image-slider-response","74","666177","0.0-73.0","A219VCQZADQ45W","","","","","10","","","","","","","","","","","","","","","","","","","","","",""
"null","","image-button-response","75","671179","0.0-74.0","A219VCQZADQ45W","img_art/23.jpg","null","","","","","","","","","","","","","","","","","","","","","","","","",""
"1027","","image-button-response","76","672209","0.0-75.0","A219VCQZADQ45W","img_art/23.jpg","0","","","","","","","","","","","","","","","","","","","","","","","","",""
"2606","","image-button-response","77","674817","0.0-76.0-0.0","A219VCQZADQ45W","img_art/23.jpg","1","","","","","","","","","","","","","","","","","","","","","","","","",""
"8666","","image-button-response","78","683485","0.0-77.0-0.0","A219VCQZADQ45W","img_art/23.jpg","3","","","","","","","","","","","","","","","","","","","","","","","","",""
"null","","html-keyboard-response","79","683987","0.0-78.0","A219VCQZADQ45W","<p style=""font-size: 48px;"">+</p>","","","","","null","allTrialResponses","500","1","5","img_art/23.jpg","10","unique look and color","Jacqueline,Stephanie,Angela,Brooke,Sydney,Jasmine","It's kind of neat with the white slash marks.,13,300,20","This makes me think of an orchestra playing a forth of july song,12,300,20","Like the background colors and the energy, but the white bits ruin it for me,-7,260,20","looks like those paper chain things.,0,60,20","The piece seems chaotic, and I dislike the random pop of white within so many colors.,-10,320,20","Mostly neutral but a bit too guady with the brash colors,-6,340,20","Jacqueline","It's kind of neat with the white slash marks.,13,300,20","Stephanie","This makes me think of an orchestra playing a forth of july song,12,300,20","Brooke","looks like those paper chain things.,0,60,20","2"
"9310","","survey-text","80","693313","0.0-79.0-0.0","A219VCQZADQ45W","","","","{""Q0"":""sky""}","","","","","","","","","","","","","","","","","","","","","","",""
"40724","","survey-text","81","734037","0.0-80.0-0.0","A219VCQZADQ45W","","","","{""Q0"":""nice colors and Picasso style""}","","","","","","","","","","","","","","","","","","","","","","",""
"10478.200000047684","","image-slider-response","82","744517","0.0-81.0","A219VCQZADQ45W","","","","","20","","","","","","","","","","","","","","","","","","","","","",""
"2343","","image-button-response","83","749519","0.0-82.0","A219VCQZADQ45W","img_art/8.jpg","0","","","","","","","","","","","","","","","","","","","","","","","","",""
"2390","","image-button-response","84","751913","0.0-83.0","A219VCQZADQ45W","img_art/8.jpg","0","","","","","","","","","","","","","","","","","","","","","","","","",""
"1019","","image-button-response","85","752933","0.0-84.0-0.0","A219VCQZADQ45W","img_art/8.jpg","2","","","","","","","","","","","","","","","","","","","","","","","","",""
"3711","","image-button-response","86","756645","0.0-85.0-0.0","A219VCQZADQ45W","img_art/8.jpg","1","","","","","","","","","","","","","","","","","","","","","","","","",""
"null","","html-keyboard-response","87","758147","0.0-86.0","A219VCQZADQ45W","<p style=""font-size: 48px;"">+</p>","","","","","null","allTrialResponses","1500","1","6","img_art/8.jpg","20","nice colors and Picasso style","Jacqueline,Stephanie,Erika,Brooke,Vanessa,Bailey","This is kind of neat. I really like how things are oriented and the shapes used.,18,300,20","I like the colors and geometrical shapes but the face in the sky makes it look scary,-10,300,20","Striking, but not my taste,20,100,20","what's going on here. looks like scary town.,-25,60,20","I don't like the negative emotion this picture makes me feel. It's also too abstract.,-30,380,20","Not a fan of abstract looking pieces with too many focal points. The tunnel and face, for example,-31,360,20","Jacqueline","This is kind of neat. I really like how things are oriented and the shapes used.,18,300,20","Erika","Striking, but not my taste,20,100,20","Stephanie","I like the colors and geometrical shapes but the face in the sky makes it look scary,-10,300,20","2"
"18407","","survey-text","88","776561","0.0-87.0-0.0","A219VCQZADQ45W","","","","{""Q0"":""relaxing and pleasant""}","","","","","","","","","","","","","","","","","","","","","","",""
"9114.299999952316","","image-slider-response","89","785676","0.0-88.0","A219VCQZADQ45W","","","","","10","","","","","","","","","","","","","","","","","","","","","",""
"4219","","image-button-response","90","790689","0.0-89.0","A219VCQZADQ45W","img_art/14.jpg","2","","","","","","","","","","","","","","","","","","","","","","","","",""
"600","","image-button-response","91","791292","0.0-90.0","A219VCQZADQ45W","img_art/14.jpg","2","","","","","","","","","","","","","","","","","","","","","","","","",""
"3331","","image-button-response","92","794624","0.0-91.0-0.0","A219VCQZADQ45W","img_art/14.jpg","5","","","","","","","","","","","","","","","","","","","","","","","","",""
"2707","","image-button-response","93","797332","0.0-92.0-0.0","A219VCQZADQ45W","img_art/14.jpg","1","","","","","","","","","","","","","","","","","","","","","","","","",""
"null","","html-keyboard-response","94","797834","0.0-93.0","A219VCQZADQ45W","<p style=""font-size: 48px;"">+</p>","","","","","null","allTrialResponses","500","1","7","img_art/14.jpg","10","relaxing and pleasant","Jacqueline,Stephanie,Erika,Chelsea,Molly,Cheyenne","It kind of looks like a tree but I feel very netural.,0,300,20","Late Winter when things are just starting to bloom.,21,300,20","It's alright, something I'd see in a guest bedroom,10,100,20","The colors are pleasing.,29,180,20","In my opinion it's spectacular.,35,340,20","I'm a fan of the background.,13,200,20","Erika","It's alright, something I'd see in a guest bedroom,10,100,20","Cheyenne","I'm a fan of the background.,13,200,20","Stephanie","Late Winter when things are just starting to bloom.,21,300,20","2"
"45433","","survey-text","95","843277","0.0-94.0-0.0","A219VCQZADQ45W","","","","{""Q0"":""great color and interesting form""}","","","","","","","","","","","","","","","","","","","","","","",""
"6734.600000143051","","image-slider-response","96","850012","0.0-95.0","A219VCQZADQ45W","","","","","26","","","","","","","","","","","","","","","","","","","","","",""
"null","","image-button-response","97","855030","0.0-96.0","A219VCQZADQ45W","img_art/13.jpg","null","","","","","","","","","","","","","","","","","","","","","","","","",""
"2608","","image-button-response","98","857641","0.0-97.0","A219VCQZADQ45W","img_art/13.jpg","3","","","","","","","","","","","","","","","","","","","","","","","","",""
"6606","","image-button-response","99","864249","0.0-98.0-0.0","A219VCQZADQ45W","img_art/13.jpg","5","","","","","","","","","","","","","","","","","","","","","","","","",""
"3326","","image-button-response","100","867577","0.0-99.0-0.0","A219VCQZADQ45W","img_art/13.jpg","2","","","","","","","","","","","","","","","","","","","","","","","","",""
"null","","html-keyboard-response","101","868078","0.0-100.0","A219VCQZADQ45W","<p style=""font-size: 48px;"">+</p>","","","","","null","allTrialResponses","500","1","8","img_art/13.jpg","26","great color and interesting form","Shelby,Stephanie,Erika,Cassidy,Kelsey,Cheyenne","Doesnt really provoke an emotional responce,0,240,20","Raindrops splashing on the window.,50,300,20","Gorgeous contrast and color choice, very pleasing,50,100,20","Great color balance. I like the splatter, and how the vertical lines go from sharper to more blended.,31,140,20","its like the ocean,24,240,20","Like how realistic it looks.,33,200,20","Cassidy","Great color balance. I like the splatter, and how the vertical lines go from sharper to more blended.,31,140,20","Cheyenne","Like how realistic it looks.,33,200,20","Erika","Gorgeous contrast and color choice, very pleasing,50,100,20","2"
"28407","","survey-text","102","896492","0.0-101.0-0.0","A219VCQZADQ45W","","","","{""Q0"":""looks like child's play""}","","","","","","","","","","","","","","","","","","","","","","",""
"4998.700000047684","","image-slider-response","103","901493","0.0-102.0","A219VCQZADQ45W","","","","","-22","","","","","","","","","","","","","","","","","","","","","",""
"3558","","image-button-response","104","906496","0.0-103.0","A219VCQZADQ45W","img_art/6.jpg","0","","","","","","","","","","","","","","","","","","","","","","","","",""
"283","","image-button-response","105","906780","0.0-104.0","A219VCQZADQ45W","img_art/6.jpg","0","","","","","","","","","","","","","","","","","","","","","","","","",""
"3531","","image-button-response","106","910313","0.0-105.0-0.0","A219VCQZADQ45W","img_art/6.jpg","1","","","","","","","","","","","","","","","","","","","","","","","","",""
"7802","","image-button-response","107","918117","0.0-106.0-0.0","A219VCQZADQ45W","img_art/6.jpg","5","","","","","","","","","","","","","","","","","","","","","","","","",""
"null","","html-keyboard-response","108","919629","0.0-107.0","A219VCQZADQ45W","<p style=""font-size: 48px;"">+</p>","","","","","null","allTrialResponses","1500","1","9","img_art/6.jpg","-22","looks like child's play","Miranda,Katie,Erika,Cassidy,Grace,Cheyenne","It's slightly unnerving to look at, it looks a little creepy/eerie,-16,320,20","I like the warmth of the orange. But, I feel like it's a partial view. I'm frustrated I can't see the entirety.,-20,160,20","Lonesome in nature,13,100,20","The background on the upper half is nice. I also like the contrast of the top and bottom halves,5,140,20","Growth in the desert?  Don't care for it very much.,-26,180,20","Good painting but too simple to care about it for very long.,-15,200,20","Miranda","It's slightly unnerving to look at, it looks a little creepy/eerie,-16,320,20","Katie","I like the warmth of the orange. But, I feel like it's a partial view. I'm frustrated I can't see the entirety.,-20,160,20","Cheyenne","Good painting but too simple to care about it for very long.,-15,200,20","2"
"20706","","survey-text","109","940345","0.0-108.0-0.0","A219VCQZADQ45W","","","","{""Q0"":""too cluttered, messy""}","","","","","","","","","","","","","","","","","","","","","","",""
"3654.7999999523163","","image-slider-response","110","944001","0.0-109.0","A219VCQZADQ45W","","","","","-18","","","","","","","","","","","","","","","","","","","","","",""
"4446","","image-button-response","111","949004","0.0-110.0","A219VCQZADQ45W","img_art/19.jpg","1","","","","","","","","","","","","","","","","","","","","","","","","",""
"322","","image-button-response","112","949329","0.0-111.0","A219VCQZADQ45W","img_art/19.jpg","1","","","","","","","","","","","","","","","","","","","","","","","","",""
"2138","","image-button-response","113","951469","0.0-112.0-0.0","A219VCQZADQ45W","img_art/19.jpg","3","","","","","","","","","","","","","","","","","","","","","","","","",""
"5446","","image-button-response","114","956917","0.0-113.0-0.0","A219VCQZADQ45W","img_art/19.jpg","5","","","","","","","","","","","","","","","","","","","","","","","","",""
"null","","html-keyboard-response","115","957918","0.0-114.0","A219VCQZADQ45W","<p style=""font-size: 48px;"">+</p>","","","","","null","allTrialResponses","1000","1","10","img_art/19.jpg","-18","too cluttered, messy","Miranda,Katie,Meghan,Madison,Ashley,Cheyenne","It looks cool but at the time looks like it was done by a talented 5 year old.,13,320,20","Too busy, makes me anxious and frustrated. Lots of movement in the brush strokes.,-9,160,20","looks like a shopping center,20,220,20","Seems unfinished and sloppy,-11,60,20","someone at the beach maybe?,27,320,20","Solid use of colors but wished it looked more realistic.,12,200,20","Katie","Too busy, makes me anxious and frustrated. Lots of movement in the brush strokes.,-9,160,20","Madison","Seems unfinished and sloppy,-11,60,20","Cheyenne","Solid use of colors but wished it looked more realistic.,12,200,20","2"
"9658","","survey-text","116","967592","0.0-115.0-0.0","A219VCQZADQ45W","","","","{""Q0"":""our""}","","","","","","","","","","","","","","","","","","","","","","",""
"40147","","survey-text","117","1007740","0.0-116.0-0.0","A219VCQZADQ45W","","","","{""Q0"":""relaxing but looks like school art project""}","","","","","","","","","","","","","","","","","","","","","","",""
"4034.7000000476837","","image-slider-response","118","1011776","0.0-117.0","A219VCQZADQ45W","","","","","-7","","","","","","","","","","","","","","","","","","","","","",""
"null","","image-button-response","119","1016779","0.0-118.0","A219VCQZADQ45W","img_art/9.jpg","null","","","","","","","","","","","","","","","","","","","","","","","","",""
"3286","","image-button-response","120","1020068","0.0-119.0","A219VCQZADQ45W","img_art/9.jpg","4","","","","","","","","","","","","","","","","","","","","","","","","",""
"1722","","image-button-response","121","1021792","0.0-120.0-0.0","A219VCQZADQ45W","img_art/9.jpg","5","","","","","","","","","","","","","","","","","","","","","","","","",""
"5295","","image-button-response","122","1027089","0.0-121.0-0.0","A219VCQZADQ45W","img_art/9.jpg","0","","","","","","","","","","","","","","","","","","","","","","","","",""
"null","","html-keyboard-response","123","1028090","0.0-122.0","A219VCQZADQ45W","<p style=""font-size: 48px;"">+</p>","","","","","null","allTrialResponses","1000","1","11","img_art/9.jpg","-7","relaxing but looks like school art project","Kelly,Katie,Nicole,Madison,Amy,Cheyenne","It looks like a child drew it.,-28,220,20","I like the blues and pinks. The woman lying down communicates relaxation. It is a serene, calming scene,30,160,20","It's peaceful and relaxing,24,20,20","No cohesive form whatsoever. Hard pass.,-31,60,20","The busyness and harsh nature of the lines in this painting  mute my emotional response.,-10,220,20","Too much going on, don't know what the focus is,-11,200,20","Amy","The busyness and harsh nature of the lines in this painting  mute my emotional response.,-10,220,20","Cheyenne","Too much going on, don't know what the focus is,-11,200,20","Kelly","It looks like a child drew it.,-28,220,20","2"
"46715","","survey-text","124","1074816","0.0-123.0-0.0","A219VCQZADQ45W","","","","{""Q0"":""muted colors are nice but does not provoke emotion""}","","","","","","","","","","","","","","","","","","","","","","",""
"4543","","image-slider-response","125","1079360","0.0-124.0","A219VCQZADQ45W","","","","","6","","","","","","","","","","","","","","","","","","","","","",""
"4003","","image-button-response","126","1084377","0.0-125.0","A219VCQZADQ45W","img_art/22.jpg","1","","","","","","","","","","","","","","","","","","","","","","","","",""
"1748","","image-button-response","127","1086128","0.0-126.0","A219VCQZADQ45W","img_art/22.jpg","1","","","","","","","","","","","","","","","","","","","","","","","","",""
"4135","","image-button-response","128","1090264","0.0-127.0-0.0","A219VCQZADQ45W","img_art/22.jpg","5","","","","","","","","","","","","","","","","","","","","","","","","",""
"4490","","image-button-response","129","1094756","0.0-128.0-0.0","A219VCQZADQ45W","img_art/22.jpg","0","","","","","","","","","","","","","","","","","","","","","","","","",""
"null","","html-keyboard-response","130","1095758","0.0-129.0","A219VCQZADQ45W","<p style=""font-size: 48px;"">+</p>","","","","","null","allTrialResponses","1000","1","12","img_art/22.jpg","6","muted colors are nice but does not provoke emotion","Kelly,Morgan,Destiny,Sara,Amy,Cheyenne","I really enjoy the blended colors.,20,220,20","Glowing city of many emotions.,10,380,20","so boring. Wow you made some circles some squares very nice,-40,360,20","Looks like a warm sunset to me i like it,42,160,20","I appreciate the shapes but the abundance of primary colors make it seem garrish.,-10,220,20","Didn't illicit any reaction,1,200,20","Morgan","Glowing city of many emotions.,10,380,20","Cheyenne","Didn't illicit any reaction,1,200,20","Kelly","I really enjoy the blended colors.,20,220,20","2"
"33982","","survey-text","131","1129748","0.0-130.0-0.0","A219VCQZADQ45W","","","","{""Q0"":""nice colors, relaxing but amateurish""}","","","","","","","","","","","","","","","","","","","","","","",""
"6518.900000095367","","image-slider-response","132","1136268","0.0-131.0","A219VCQZADQ45W","","","","","6","","","","","","","","","","","","","","","","","","","","","",""
"4974","","image-button-response","133","1141270","0.0-132.0","A219VCQZADQ45W","img_art/24.jpg","1","","","","","","","","","","","","","","","","","","","","","","","","",""
"628","","image-button-response","134","1141900","0.0-133.0","A219VCQZADQ45W","img_art/24.jpg","1","","","","","","","","","","","","","","","","","","","","","","","","",""
"3975","","image-button-response","135","1145876","0.0-134.0-0.0","A219VCQZADQ45W","img_art/24.jpg","5","","","","","","","","","","","","","","","","","","","","","","","","",""
"4606","","image-button-response","136","1150484","0.0-135.0-0.0","A219VCQZADQ45W","img_art/24.jpg","4","","","","","","","","","","","","","","","","","","","","","","","","",""
"null","","html-keyboard-response","137","1152000","0.0-136.0","A219VCQZADQ45W","<p style=""font-size: 48px;"">+</p>","","","","","null","allTrialResponses","1500","1","13","img_art/24.jpg","6","nice colors, relaxing but amateurish","Kelly,Morgan,Alexa,Shannon,Katelyn,Cheyenne","Cute; I like what the image itself & the colors.,25,220,20","Water through the fruit.,15,380,20","I absolutely adore this painting. The colors, designs, everything. It's phenomenal,50,40,20","I like the way the colors are put together, and I can imagine this picture in real life.,40,220,20","Love the colors and contrast. Feels peaceful.,33,100,20","I like how the colors mix in this one.,20,200,20","Morgan","Water through the fruit.,15,380,20","Cheyenne","I like how the colors mix in this one.,20,200,20","Katelyn","Love the colors and contrast. Feels peaceful.,33,100,20","2"
"30445","","survey-text","138","1182455","0.0-137.0-0.0","A219VCQZADQ45W","","","","{""Q0"":""annoying and done in kindergarten""}","","","","","","","","","","","","","","","","","","","","","","",""
"4242.799999952316","","image-slider-response","139","1186699","0.0-138.0","A219VCQZADQ45W","","","","","-41","","","","","","","","","","","","","","","","","","","","","",""
"3495","","image-button-response","140","1191718","0.0-139.0","A219VCQZADQ45W","img_art/3.jpg","0","","","","","","","","","","","","","","","","","","","","","","","","",""
"3559","","image-button-response","141","1195279","0.0-140.0","A219VCQZADQ45W","img_art/3.jpg","2","","","","","","","","","","","","","","","","","","","","","","","","",""
"5336","","image-button-response","142","1200617","0.0-141.0-0.0","A219VCQZADQ45W","img_art/3.jpg","3","","","","","","","","","","","","","","","","","","","","","","","","",""
"9335","","image-button-response","143","1209953","0.0-142.0-0.0","A219VCQZADQ45W","img_art/3.jpg","0","","","","","","","","","","","","","","","","","","","","","","","","",""
"null","","html-keyboard-response","144","1210955","0.0-143.0","A219VCQZADQ45W","<p style=""font-size: 48px;"">+</p>","","","","","null","allTrialResponses","1000","1","14","img_art/3.jpg","-41","annoying and done in kindergarten","Gabrielle,Morgan,Leah,Emily,Katelyn,Cheyenne","7th grade art, not much effort to do this.,-39,160,20","Somewhere between a child's art and a poorly drawn battle map.,8,380,20","Scratchy scrawly all one color, looks like a mistake,-28,360,20","Looks like someone mentalyl unstable drew and is ready to go a a killing spree.,-50,40,20","No substance or feeling to it,-20,100,20","Don't see what the purpose is.,-31,200,20","Leah","Scratchy scrawly all one color, looks like a mistake,-28,360,20","Emily","Looks like someone mentalyl unstable drew and is ready to go a a killing spree.,-50,40,20","Gabrielle","7th grade art, not much effort to do this.,-39,160,20","2"
"41171","","survey-text","145","1252136","0.0-144.0-0.0","A219VCQZADQ45W","","","","{""Q0"":""a bit boring, looks like a topographic map""}","","","","","","","","","","","","","","","","","","","","","","",""
"2194.399999856949","","image-slider-response","146","1254332","0.0-145.0","A219VCQZADQ45W","","","","","-17","","","","","","","","","","","","","","","","","","","","","",""
"null","","image-button-response","147","1259337","0.0-146.0","A219VCQZADQ45W","img_art/7.jpg","null","","","","","","","","","","","","","","","","","","","","","","","","",""
"445","","image-button-response","148","1259784","0.0-147.0","A219VCQZADQ45W","img_art/7.jpg","4","","","","","","","","","","","","","","","","","","","","","","","","",""
"4114","","image-button-response","149","1263900","0.0-148.0-0.0","A219VCQZADQ45W","img_art/7.jpg","3","","","","","","","","","","","","","","","","","","","","","","","","",""
"2682","","image-button-response","150","1266584","0.0-149.0-0.0","A219VCQZADQ45W","img_art/7.jpg","0","","","","","","","","","","","","","","","","","","","","","","","","",""
"null","","html-keyboard-response","151","1268085","0.0-150.0","A219VCQZADQ45W","<p style=""font-size: 48px;"">+</p>","","","","","null","allTrialResponses","1500","1","15","img_art/7.jpg","-17","a bit boring, looks like a topographic map","Gabrielle,Jordan,Leah,Emily,Kimberly,Chloe","looks like wallpaper,-6,160,20","looks like the surface of the moon.,1,20,20","I love it, it looks like a landscape photograph in desert or rocky mountain,50,360,20","Ugly. I don't like the colors or the scattering.,-50,40,20","Looks like a bad picture of a beach,-21,260,20","Like the tactile quality,30,220,20","Kimberly","Looks like a bad picture of a beach,-21,260,20","Emily","Ugly. I don't like the colors or the scattering.,-50,40,20","Gabrielle","looks like wallpaper,-6,160,20","2"
"8255","","survey-text","152","1276360","0.0-151.0-0.0","A219VCQZADQ45W","","","","{""Q0"":""course""}","","","","","","","","","","","","","","","","","","","","","","",""
"39823","","survey-text","153","1316183","0.0-152.0-0.0","A219VCQZADQ45W","","","","{""Q0"":""sad depressing feeling. dont like dark color""}","","","","","","","","","","","","","","","","","","","","","","",""
"3310.9000000953674","","image-slider-response","154","1319496","0.0-153.0","A219VCQZADQ45W","","","","","-38","","","","","","","","","","","","","","","","","","","","","",""
"null","","image-button-response","155","1324504","0.0-154.0","A219VCQZADQ45W","img_art/10.jpg","null","","","","","","","","","","","","","","","","","","","","","","","","",""
"4489","","image-button-response","156","1328996","0.0-155.0","A219VCQZADQ45W","img_art/10.jpg","2","","","","","","","","","","","","","","","","","","","","","","","","",""
"4075","","image-button-response","157","1333072","0.0-156.0-0.0","A219VCQZADQ45W","img_art/10.jpg","3","","","","","","","","","","","","","","","","","","","","","","","","",""
"4250","","image-button-response","158","1337324","0.0-157.0-0.0","A219VCQZADQ45W","img_art/10.jpg","4","","","","","","","","","","","","","","","","","","","","","","","","",""
"null","","html-keyboard-response","159","1338326","0.0-158.0","A219VCQZADQ45W","<p style=""font-size: 48px;"">+</p>","","","","","null","allTrialResponses","1000","1","16","img_art/10.jpg","-38","sad depressing feeling. dont like dark color","Gabrielle,Emma,Angelica,Emily,Kimberly,Tiffany","interesting portrayal of a violin?,10,160,20","Feels musical .....,40,60,20","This is odd and ugly.,-9,280,20","Ugly and low skill. I wouldn't want it.,-50,40,20","Also too all over the place, I don't see any pattern or anything that's supposed to stand out,-19,260,20","I feel little to no emotion looking at this painting.,0,360,20","Angelica","This is odd and ugly.,-9,280,20","Emily","Ugly and low skill. I wouldn't want it.,-50,40,20","Kimberly","Also too all over the place, I don't see any pattern or anything that's supposed to stand out,-19,260,20","2"
"39553","","survey-text","160","1377888","0.0-159.0-0.0","A219VCQZADQ45W","","","","{""Q0"":""has no meaning, too much black""}","","","","","","","","","","","","","","","","","","","","","","",""
"3639.7000000476837","","image-slider-response","161","1381529","0.0-160.0","A219VCQZADQ45W","","","","","-21","","","","","","","","","","","","","","","","","","","","","",""
"3005","","image-button-response","162","1386531","0.0-161.0","A219VCQZADQ45W","img_art/12.jpg","0","","","","","","","","","","","","","","","","","","","","","","","","",""
"837","","image-button-response","163","1387372","0.0-162.0","A219VCQZADQ45W","img_art/12.jpg","2","","","","","","","","","","","","","","","","","","","","","","","","",""
"2407","","image-button-response","164","1389780","0.0-163.0-0.0","A219VCQZADQ45W","img_art/12.jpg","0","","","","","","","","","","","","","","","","","","","","","","","","",""
"10142","","image-button-response","165","1399924","0.0-164.0-0.0","A219VCQZADQ45W","img_art/12.jpg","5","","","","","","","","","","","","","","","","","","","","","","","","",""
"null","","html-keyboard-response","166","1401430","0.0-165.0","A219VCQZADQ45W","<p style=""font-size: 48px;"">+</p>","","","","","null","allTrialResponses","1500","1","17","img_art/12.jpg","-21","has no meaning, too much black","Michelle,Samantha,Angelica,Emily,Kimberly,Alicia","eww hate everything about this, looks like it belongs in a dentist's office,-14,280,20","It is interesting but seems like some cheap painting from like walmart,24,140,20","It's strange looking and unappealing.,-4,280,20","Not quite my style but there more of a pattern and it is interesting to look at.,15,40,20","Just not a fan, I can't figure out why,-17,260,20","it's ok, but blocky, looks old.,3,120,20","Angelica","It's strange looking and unappealing.,-4,280,20","Michelle","eww hate everything about this, looks like it belongs in a dentist's office,-14,280,20","Alicia","it's ok, but blocky, looks old.,3,120,20","2"
"41842","","survey-text","167","1443283","0.0-166.0-0.0","A219VCQZADQ45W","","","","{""Q0"":""somewhat pleasant but looks amateurish""}","","","","","","","","","","","","","","","","","","","","","","",""
"7746.600000143051","","image-slider-response","168","1451031","0.0-167.0","A219VCQZADQ45W","","","","","3","","","","","","","","","","","","","","","","","","","","","",""
"null","","image-button-response","169","1456047","0.0-168.0","A219VCQZADQ45W","img_art/27.jpg","null","","","","","","","","","","","","","","","","","","","","","","","","",""
"13077","","image-button-response","170","1469127","0.0-169.0","A219VCQZADQ45W","img_art/27.jpg","3","","","","","","","","","","","","","","","","","","","","","","","","",""
"4730","","image-button-response","171","1473859","0.0-170.0-0.0","A219VCQZADQ45W","img_art/27.jpg","5","","","","","","","","","","","","","","","","","","","","","","","","",""
"2339","","image-button-response","172","1476199","0.0-171.0-0.0","A219VCQZADQ45W","img_art/27.jpg","0","","","","","","","","","","","","","","","","","","","","","","","","",""
"null","","html-keyboard-response","173","1477712","0.0-172.0","A219VCQZADQ45W","<p style=""font-size: 48px;"">+</p>","","","","","null","allTrialResponses","1500","1","18","img_art/27.jpg","3","somewhat pleasant but looks amateurish","Michelle,Andrea,Angelica,Haley,Savannah,Alicia","very abstract, I don't understand it, but I like the bright, cheerful colors,14,280,20","I see a cathedral through the woods.,12,240,20","This looks like a poor copy of Cy Twombly's style.,-3,280,20","First thought is again, that this looks like a child's art assignment,-20,220,20","An abstract piece with such lifeless colors.,-26,200,20","dont like it, don't hate it, meh.,2,120,20","Haley","First thought is again, that this looks like a child's art assignment,-20,220,20","Alicia","dont like it, don't hate it, meh.,2,120,20","Michelle","very abstract, I don't understand it, but I like the bright, cheerful colors,14,280,20","2"
"40484","","survey-text","174","1518207","0.0-173.0-0.0","A219VCQZADQ45W","","","","{""Q0"":""peaceful green color but weird person""}","","","","","","","","","","","","","","","","","","","","","","",""
"2374.7000000476837","","image-slider-response","175","1520583","0.0-174.0","A219VCQZADQ45W","","","","","-4","","","","","","","","","","","","","","","","","","","","","",""
"null","","image-button-response","176","1525591","0.0-175.0","A219VCQZADQ45W","img_art/25.jpg","null","","","","","","","","","","","","","","","","","","","","","","","","",""
"2961","","image-button-response","177","1528556","0.0-176.0","A219VCQZADQ45W","img_art/25.jpg","1","","","","","","","","","","","","","","","","","","","","","","","","",""
"9743","","image-button-response","178","1538300","0.0-177.0-0.0","A219VCQZADQ45W","img_art/25.jpg","4","","","","","","","","","","","","","","","","","","","","","","","","",""
"1258","","image-button-response","179","1539560","0.0-178.0-0.0","A219VCQZADQ45W","img_art/25.jpg","5","","","","","","","","","","","","","","","","","","","","","","","","",""
"null","","html-keyboard-response","180","1540572","0.0-179.0","A219VCQZADQ45W","<p style=""font-size: 48px;"">+</p>","","","","","null","allTrialResponses","1000","1","19","img_art/25.jpg","-4","peaceful green color but weird person","Michelle,Hannah,Alexandra,Haley,Autumn,Alicia","I can get behind this but only because I like the green. it reminds me of a graveyard,11,280,20","Looks like a voodoo figure in a New Orleans cemetery at night.,-5,240,20","This is too dark and creepy. I also hate the color,-30,60,20","I like the design but the brightness of the color feels almost blinding to me.,-3,220,20","This is too simple,-22,340,20","death. childish nightmare.,-29,120,20","Hannah","Looks like a voodoo figure in a New Orleans cemetery at night.,-5,240,20","Autumn","This is too simple,-22,340,20","Alicia","death. childish nightmare.,-29,120,20","2"
"35462","","survey-text","181","1576043","0.0-180.0-0.0","A219VCQZADQ45W","","","","{""Q0"":""serene but definitely high school art project""}","","","","","","","","","","","","","","","","","","","","","","",""
"2846.899999856949","","image-slider-response","182","1578891","0.0-181.0","A219VCQZADQ45W","","","","","-6","","","","","","","","","","","","","","","","","","","","","",""
"4571","","image-button-response","183","1583906","0.0-182.0","A219VCQZADQ45W","img_art/26.jpg","1","","","","","","","","","","","","","","","","","","","","","","","","",""
"7094","","image-button-response","184","1591003","0.0-183.0","A219VCQZADQ45W","img_art/26.jpg","2","","","","","","","","","","","","","","","","","","","","","","","","",""
"7495","","image-button-response","185","1598499","0.0-184.0-0.0","A219VCQZADQ45W","img_art/26.jpg","0","","","","","","","","","","","","","","","","","","","","","","","","",""
"1091","","image-button-response","186","1599591","0.0-185.0-0.0","A219VCQZADQ45W","img_art/26.jpg","1","","","","","","","","","","","","","","","","","","","","","","","","",""
"null","","html-keyboard-response","187","1600101","0.0-186.0","A219VCQZADQ45W","<p style=""font-size: 48px;"">+</p>","","","","","null","allTrialResponses","500","1","20","img_art/26.jpg","-6","serene but definitely high school art project","Erin,Hannah,Mariah,Lauren,Autumn,Alicia","City scene in a park,23,120,20","This is boring.,-15,240,20","Pleasant but bland.,10,140,20","The piece doesn't really invoke anything for me.,0,340,20","Murky, messy, kid like.,-45,340,20","I like the simple watercolor colors, makes my mind work, thumbs up.,27,120,20","Mariah","Pleasant but bland.,10,140,20","Erin","City scene in a park,23,120,20","Hannah","This is boring.,-15,240,20","2"
"4909","","survey-text","188","1605031","0.0-187.0-0.0","A219VCQZADQ45W","","","","{""Q0"":""we""}","","","","","","","","","","","","","","","","","","","","","","",""
"32699","","survey-text","189","1637731","0.0-188.0-0.0","A219VCQZADQ45W","","","","{""Q0"":""rather nice color but evokes no meaning""}","","","","","","","","","","","","","","","","","","","","","","",""
"8342.799999952316","","image-slider-response","190","1646075","0.0-189.0","A219VCQZADQ45W","","","","","11","","","","","","","","","","","","","","","","","","","","","",""
"null","","image-button-response","191","1651083","0.0-190.0","A219VCQZADQ45W","img_art/21.jpg","null","","","","","","","","","","","","","","","","","","","","","","","","",""
"4406","","image-button-response","192","1655491","0.0-191.0","A219VCQZADQ45W","img_art/21.jpg","2","","","","","","","","","","","","","","","","","","","","","","","","",""
"6875","","image-button-response","193","1662367","0.0-192.0-0.0","A219VCQZADQ45W","img_art/21.jpg","3","","","","","","","","","","","","","","","","","","","","","","","","",""
"5907","","image-button-response","194","1668275","0.0-193.0-0.0","A219VCQZADQ45W","img_art/21.jpg","5","","","","","","","","","","","","","","","","","","","","","","","","",""
"null","","html-keyboard-response","195","1669278","0.0-194.0","A219VCQZADQ45W","<p style=""font-size: 48px;"">+</p>","","","","","null","allTrialResponses","1000","1","21","img_art/21.jpg","11","rather nice color but evokes no meaning","Erin,Hannah,Mariah,Diana,Heather,Gabriela","Love the colors and hue, ocean,38,120,20","Boring colors and look. Too much 1980s.,-20,240,20","Motion, the light marks in the lower right corner are very appealing.,15,140,20","Makes me feel light and airy. Like I've gone back in time to 1700th century France.,43,380,20","The color spectrum is just beautiful.,32,260,20","It makes me feel mellow or ""chill"". It makes me have a positive and calm mood,42,140,20","Mariah","Motion, the light marks in the lower right corner are very appealing.,15,140,20","Diana","Makes me feel light and airy. Like I've gone back in time to 1700th century France.,43,380,20","Gabriela","It makes me feel mellow or ""chill"". It makes me have a positive and calm mood,42,140,20","2"
"42891","","survey-text","196","1712179","0.0-195.0-0.0","A219VCQZADQ45W","","","","{""Q0"":""muted colors are nice but have no emotion""}","","","","","","","","","","","","","","","","","","","","","","",""
"3430.5","","image-slider-response","197","1715611","0.0-196.0","A219VCQZADQ45W","","","","","10","","","","","","","","","","","","","","","","","","","","","",""
"4447","","image-button-response","198","1720612","0.0-197.0","A219VCQZADQ45W","img_art/1.jpg","2","","","","","","","","","","","","","","","","","","","","","","","","",""
"352","","image-button-response","199","1720967","0.0-198.0","A219VCQZADQ45W","img_art/1.jpg","2","","","","","","","","","","","","","","","","","","","","","","","","",""
"3598","","image-button-response","200","1724567","0.0-199.0-0.0","A219VCQZADQ45W","img_art/1.jpg","3","","","","","","","","","","","","","","","","","","","","","","","","",""
"6402","","image-button-response","201","1730971","0.0-200.0-0.0","A219VCQZADQ45W","img_art/1.jpg","5","","","","","","","","","","","","","","","","","","","","","","","","",""
"null","","html-keyboard-response","202","1731480","0.0-201.0","A219VCQZADQ45W","<p style=""font-size: 48px;"">+</p>","","","","","null","allTrialResponses","500","1","22","img_art/1.jpg","10","muted colors are nice but have no emotion","Jennifer,Dominique,Mariah,Diana,Hailey,Gabriela","Bright and colorful without being overpowering,32,380,20","I love the detail and colors like a beautiful autumn day,35,400,20","Colors are pleasant, but feels incredibly generic.,9,140,20","Might be a person rowing their boat across the lake. Not sure if the background is trees or not.,12,380,20","colors that are fairly warm. its ok,8,200,20","This photo reminds me of a fall afternoon, serene,11,140,20","Mariah","Colors are pleasant, but feels incredibly generic.,9,140,20","Diana","Might be a person rowing their boat across the lake. Not sure if the background is trees or not.,12,380,20","Gabriela","This photo reminds me of a fall afternoon, serene,11,140,20","2"
"44175","","survey-text","203","1775667","0.0-202.0-0.0","A219VCQZADQ45W","","","","{""Q0"":""upsetting emotion. harsh shapes,colors""}","","","","","","","","","","","","","","","","","","","","","","",""
"3986.7000000476837","","image-slider-response","204","1779655","0.0-203.0","A219VCQZADQ45W","","","","","-19","","","","","","","","","","","","","","","","","","","","","",""
"4755","","image-button-response","205","1784663","0.0-204.0","A219VCQZADQ45W","img_art/20.jpg","2","","","","","","","","","","","","","","","","","","","","","","","","",""
"417","","image-button-response","206","1785083","0.0-205.0","A219VCQZADQ45W","img_art/20.jpg","2","","","","","","","","","","","","","","","","","","","","","","","","",""
"7747","","image-button-response","207","1792831","0.0-206.0-0.0","A219VCQZADQ45W","img_art/20.jpg","3","","","","","","","","","","","","","","","","","","","","","","","","",""
"2026","","image-button-response","208","1794859","0.0-207.0-0.0","A219VCQZADQ45W","img_art/20.jpg","5","","","","","","","","","","","","","","","","","","","","","","","","",""
"null","","html-keyboard-response","209","1796373","0.0-208.0","A219VCQZADQ45W","<p style=""font-size: 48px;"">+</p>","","","","","null","allTrialResponses","1500","1","23","img_art/20.jpg","-19","upsetting emotion. harsh shapes,colors","Breanna,Sophia,Mariah,Diana,Kylie,Gabriela","Makes me feel impressed,9,380,20","A truck rolled over?  I do like the pictures and the technique though.,25,280,20","It feels like it ""almost"" several things.,-10,140,20","I'm not sure why this reminds me of surrealism. It might be the colors used.,16,380,20","City life vs shore life,40,300,20","it is a bit disturbing, like a monster or ghost floating away from a bleak building,-8,140,20","Mariah","It feels like it ""almost"" several things.,-10,140,20","Diana","I'm not sure why this reminds me of surrealism. It might be the colors used.,16,380,20","Gabriela","it is a bit disturbing, like a monster or ghost floating away from a bleak building,-8,140,20","2"
"37935","","survey-text","210","1834320","0.0-209.0-0.0","A219VCQZADQ45W","","","","{""Q0"":""too much black and no meaning""}","","","","","","","","","","","","","","","","","","","","","","",""
"4326.5","","image-slider-response","211","1838647","0.0-210.0","A219VCQZADQ45W","","","","","-5","","","","","","","","","","","","","","","","","","","","","",""
"4791","","image-button-response","212","1843656","0.0-211.0","A219VCQZADQ45W","img_art/15.jpg","0","","","","","","","","","","","","","","","","","","","","","","","","",""
"357","","image-button-response","213","1844016","0.0-212.0","A219VCQZADQ45W","img_art/15.jpg","0","","","","","","","","","","","","","","","","","","","","","","","","",""
"6192","","image-button-response","214","1850209","0.0-213.0-0.0","A219VCQZADQ45W","img_art/15.jpg","1","","","","","","","","","","","","","","","","","","","","","","","","",""
"10057","","image-button-response","215","1860268","0.0-214.0-0.0","A219VCQZADQ45W","img_art/15.jpg","5","","","","","","","","","","","","","","","","","","","","","","","","",""
"null","","html-keyboard-response","216","1860781","0.0-215.0","A219VCQZADQ45W","<p style=""font-size: 48px;"">+</p>","","","","","null","allTrialResponses","500","1","24","img_art/15.jpg","-5","too much black and no meaning","Monica,Megan,Mariah,Diana,Isabella,Gabriela","I don't feel much of anything when looking at this, it's just a random pattern,1,360,20","Dark, drab asymmetrical floral piece,-26,200,20","It is visually appealing, stark and simple but natural.,41,140,20","There should be more space between the black marks. The black comes off harsh and the blue between the trees can barely be seen.,-21,380,20","Too intense with the black dotting,-22,280,20","it is dark and gloomy,-9,140,20","Monica","I don't feel much of anything when looking at this, it's just a random pattern,1,360,20","Megan","Dark, drab asymmetrical floral piece,-26,200,20","Gabriela","it is dark and gloomy,-9,140,20","2"
"32273","","survey-text","217","1893067","0.0-216.0-0.0","A219VCQZADQ45W","","","","{""Q0"":""a 5 year olds' fingerpainting""}","","","","","","","","","","","","","","","","","","","","","","",""
"5014.899999856949","","image-slider-response","218","1898083","0.0-217.0","A219VCQZADQ45W","","","","","-39","","","","","","","","","","","","","","","","","","","","","",""
"null","","image-button-response","219","1903086","0.0-218.0","A219VCQZADQ45W","img_art/4.jpg","null","","","","","","","","","","","","","","","","","","","","","","","","",""
"290","","image-button-response","220","1903379","0.0-219.0","A219VCQZADQ45W","img_art/4.jpg","1","","","","","","","","","","","","","","","","","","","","","","","","",""
"8543","","image-button-response","221","1911923","0.0-220.0-0.0","A219VCQZADQ45W","img_art/4.jpg","4","","","","","","","","","","","","","","","","","","","","","","","","",""
"871","","image-button-response","222","1912795","0.0-221.0-0.0","A219VCQZADQ45W","img_art/4.jpg","3","","","","","","","","","","","","","","","","","","","","","","","","",""
"null","","html-keyboard-response","223","1913797","0.0-222.0","A219VCQZADQ45W","<p style=""font-size: 48px;"">+</p>","","","","","null","allTrialResponses","1000","1","25","img_art/4.jpg","-39","a 5 year olds' fingerpainting","Monica,Megan,Melissa,Olivia,Claire,Gabriela","The dark yellow color makes me think of mustard, which I dislike,-27,360,20","Better version of a 7 year old who got lucky,-23,200,20","appealing warm palette,6,240,20","The muted tones,-11,40,20","I really don't like the colors,-26,260,20","The bold colors are exciting. It looks like a statue on someone's mantle.,18,140,20","Megan","Better version of a 7 year old who got lucky,-23,200,20","Claire","I really don't like the colors,-26,260,20","Olivia","The muted tones,-11,40,20","2"
"7611","","survey-text","224","1921431","0.0-223.0-0.0","A219VCQZADQ45W","","","","{""Q0"":""table""}","","","","","","","","","","","","","","","","","","","","","","",""
"39044","","survey-text","225","1960475","0.0-224.0-0.0","A219VCQZADQ45W","","","","{""Q0"":""unsettling because of the clutter and gray""}","","","","","","","","","","","","","","","","","","","","","","",""
"3430.7000000476837","","image-slider-response","226","1963907","0.0-225.0","A219VCQZADQ45W","","","","","-41","","","","","","","","","","","","","","","","","","","","","",""
"null","","image-button-response","227","1968913","0.0-226.0","A219VCQZADQ45W","img_art/29.jpg","null","","","","","","","","","","","","","","","","","","","","","","","","",""
"2051","","image-button-response","228","1970967","0.0-227.0","A219VCQZADQ45W","img_art/29.jpg","3","","","","","","","","","","","","","","","","","","","","","","","","",""
"1623","","image-button-response","229","1972591","0.0-228.0-0.0","A219VCQZADQ45W","img_art/29.jpg","5","","","","","","","","","","","","","","","","","","","","","","","","",""
"5198","","image-button-response","230","1977791","0.0-229.0-0.0","A219VCQZADQ45W","img_art/29.jpg","4","","","","","","","","","","","","","","","","","","","","","","","","",""
"null","","html-keyboard-response","231","1979306","0.0-230.0","A219VCQZADQ45W","<p style=""font-size: 48px;"">+</p>","","","","","null","allTrialResponses","1500","1","26","img_art/29.jpg","-41","unsettling because of the clutter and gray","Jamie,Megan,Rebecca,Olivia,Claire,Christina","3D looks is really cool,30,320,20","Pinball meets a dark dream meets whale alien, drab,13,200,20","love the texture, i don't know, i just really like it (and the paintbrush adds a nice touch),44,100,20","too challenging to comprehend,-28,40,20","interesting, but I wouldn't put it on my wall,8,260,20","It's too on trend with the gray and doesn't look like a lasting piece,-4,240,20","Olivia","too challenging to comprehend,-28,40,20","Christina","It's too on trend with the gray and doesn't look like a lasting piece,-4,240,20","Claire","interesting, but I wouldn't put it on my wall,8,260,20","2"
"31529","","survey-text","232","2010839","0.0-231.0-0.0","A219VCQZADQ45W","","","","{""Q0"":""fingerpainting time in k-4""}","","","","","","","","","","","","","","","","","","","","","","",""
"4570.299999952316","","image-slider-response","233","2015411","0.0-232.0","A219VCQZADQ45W","","","","","-25","","","","","","","","","","","","","","","","","","","","","",""
"null","","image-button-response","234","2020425","0.0-233.0","A219VCQZADQ45W","img_art/30.jpg","null","","","","","","","","","","","","","","","","","","","","","","","","",""
"7331","","image-button-response","235","2027759","0.0-234.0","A219VCQZADQ45W","img_art/30.jpg","4","","","","","","","","","","","","","","","","","","","","","","","","",""
"1182","","image-button-response","236","2028943","0.0-235.0-0.0","A219VCQZADQ45W","img_art/30.jpg","5","","","","","","","","","","","","","","","","","","","","","","","","",""
"4578","","image-button-response","237","2033523","0.0-236.0-0.0","A219VCQZADQ45W","img_art/30.jpg","0","","","","","","","","","","","","","","","","","","","","","","","","",""
"null","","html-keyboard-response","238","2035028","0.0-237.0","A219VCQZADQ45W","<p style=""font-size: 48px;"">+</p>","","","","","null","allTrialResponses","1500","1","27","img_art/30.jpg","-25","fingerpainting time in k-4","Makayla,Amanda,Crystal,Olivia,Claire,Christina","I feel nothing towards,-1,80,20","Love how the red stands out,20,180,20","An interesting design but don't like the colors. I value the time and effort put into it, but not a huge fan.,10,300,20","perceiving greatness,20,40,20","too segmented, looks sloppy,-37,260,20","it looks like some thing I could make it my garage,-18,240,20","Claire","too segmented, looks sloppy,-37,260,20","Christina","it looks like some thing I could make it my garage,-18,240,20","Makayla","I feel nothing towards,-1,80,20","2"
"39713","","survey-text","239","2074755","0.0-238.0-0.0","A219VCQZADQ45W","","","","{""Q0"":""cutesy but a little dark""}","","","","","","","","","","","","","","","","","","","","","","",""
"9926.799999952316","","image-slider-response","240","2084683","0.0-239.0","A219VCQZADQ45W","","","","","2","","","","","","","","","","","","","","","","","","","","","",""
"4278","","image-button-response","241","2089696","0.0-240.0","A219VCQZADQ45W","img_art/16.jpg","0","","","","","","","","","","","","","","","","","","","","","","","","",""
"295","","image-button-response","242","2089995","0.0-241.0","A219VCQZADQ45W","img_art/16.jpg","0","","","","","","","","","","","","","","","","","","","","","","","","",""
"4571","","image-button-response","243","2094567","0.0-242.0-0.0","A219VCQZADQ45W","img_art/16.jpg","3","","","","","","","","","","","","","","","","","","","","","","","","",""
"4250","","image-button-response","244","2098819","0.0-243.0-0.0","A219VCQZADQ45W","img_art/16.jpg","1","","","","","","","","","","","","","","","","","","","","","","","","",""
"null","","html-keyboard-response","245","2099320","0.0-244.0","A219VCQZADQ45W","<p style=""font-size: 48px;"">+</p>","","","","","null","allTrialResponses","500","1","28","img_art/16.jpg","2","cutesy but a little dark","Makayla,Allison,Alyssa,Natalie,Claire,Christina","It's a little unsettling,2,80,20","Hard contrast, but no emotions towards any of the objects.,-6,140,20","It creeps me out.,-50,160,20","my reaction is that the picture is creepy,-19,400,20","the materials used are interesting,30,260,20","very creepy with a bear and a gun,-50,240,20","Makayla","It's a little unsettling,2,80,20","Natalie","my reaction is that the picture is creepy,-19,400,20","Allison","Hard contrast, but no emotions towards any of the objects.,-6,140,20","2"
"43677","","survey-text","246","2143010","0.0-245.0-0.0","A219VCQZADQ45W","","","","{""Q0"":""end times doom coming""}","","","","","","","","","","","","","","","","","","","","","","",""
"3910.600000143051","","image-slider-response","247","2146922","0.0-246.0","A219VCQZADQ45W","","","","","5","","","","","","","","","","","","","","","","","","","","","",""
"3743","","image-button-response","248","2151933","0.0-247.0","A219VCQZADQ45W","img_art/18.jpg","0","","","","","","","","","","","","","","","","","","","","","","","","",""
"4715","","image-button-response","249","2156650","0.0-248.0","A219VCQZADQ45W","img_art/18.jpg","0","","","","","","","","","","","","","","","","","","","","","","","","",""
"4795","","image-button-response","250","2161446","0.0-249.0-0.0","A219VCQZADQ45W","img_art/18.jpg","3","","","","","","","","","","","","","","","","","","","","","","","","",""
"3594","","image-button-response","251","2165042","0.0-250.0-0.0","A219VCQZADQ45W","img_art/18.jpg","5","","","","","","","","","","","","","","","","","","","","","","","","",""
"null","","html-keyboard-response","252","2165546","0.0-251.0","A219VCQZADQ45W","<p style=""font-size: 48px;"">+</p>","","","","","null","allTrialResponses","500","1","29","img_art/18.jpg","5","end times doom coming","Makayla,Allison,Laura,Natalie,Amber,Maria","I'm not partial to the design, unsettling,2,80,20","Colors are okay. Reminds me of cavalry.,10,140,20","afraid and anxious,21,320,20","my response to the picture is a little bit of anxiety but I like the detail,16,400,20","ugly and lots of movement,-6,200,20","enjoy the juxtaposition of abstract with tangible elements & the use of color,10,120,20","Makayla","I'm not partial to the design, unsettling,2,80,20","Natalie","my response to the picture is a little bit of anxiety but I like the detail,16,400,20","Maria","enjoy the juxtaposition of abstract with tangible elements & the use of color,10,120,20","2"
"49728","","survey-text","253","2215290","0.0-252.0-0.0","A219VCQZADQ45W","","","","{""Q0"":""5 year old playing with paint. pleasant but kiddie art.""}","","","","","","","","","","","","","","","","","","","","","","",""
"7494.700000047684","","image-slider-response","254","2222786","0.0-253.0","A219VCQZADQ45W","","","","","-3","","","","","","","","","","","","","","","","","","","","","",""
"null","","image-button-response","255","2227789","0.0-254.0","A219VCQZADQ45W","img_art/5.jpg","null","","","","","","","","","","","","","","","","","","","","","","","","",""
"3403","","image-button-response","256","2231194","0.0-255.0","A219VCQZADQ45W","img_art/5.jpg","5","","","","","","","","","","","","","","","","","","","","","","","","",""
"1927","","image-button-response","257","2233122","0.0-256.0-0.0","A219VCQZADQ45W","img_art/5.jpg","3","","","","","","","","","","","","","","","","","","","","","","","","",""
"1999","","image-button-response","258","2235122","0.0-257.0-0.0","A219VCQZADQ45W","img_art/5.jpg","1","","","","","","","","","","","","","","","","","","","","","","","","",""
"null","","html-keyboard-response","259","2235624","0.0-258.0","A219VCQZADQ45W","<p style=""font-size: 48px;"">+</p>","","","","","null","allTrialResponses","500","1","30","img_art/5.jpg","-3","5 year old playing with paint. pleasant but kiddie art.","Makayla,Katherine,Margaret,Natalie,Lindsey,Maria","Bright and sunny,19,80,20","Don't love don't hate,8,120,20","simple. love the color scheme,27,100,20","the picture looks ok,8,400,20","Black bit reminds me of a giant splinter. Yellow bit reminds me of urine. I hate it.,-50,400,20","this feels like something I should like, but I'm not feeling the execution,-10,120,20","Maria","this feels like something I should like, but I'm not feeling the execution,-10,120,20","Natalie","the picture looks ok,8,400,20","Katherine","Don't love don't hate,8,120,20","2"
"6601","","image-button-response_instructions","260","2242238","0.0-259.0","A219VCQZADQ45W","","0","instructions","","","","","","","","","","","","","","","","","","","","","","","",""
"1648","","image-button-response","261","2243890","0.0-260.0","A219VCQZADQ45W","","0","","","","","","","","","","","","","","","","","","","","","","","","",""
