"rt","url","trial_type","trial_index","time_elapsed","internal_node_id","participant_id","stimulus","button_pressed","Name","responses","response","key_press","variableName","fixationTime","condition","trial","photo","subjectRating","subjectResponse","agentsNames","agent_1_Response","agent_2_Response","agent_3_Response","agent_4_Response","agent_5_Response","agent_6_Response","kept_1_name","kept_1_response","kept_2_name","kept_2_response","kept_3_name","kept_3_response","errorCounter"
"192593","external_page_harvard.html","external-html","0","192722","0.0-0.0","A21HYG0E8SK3ZZ","","","","","","","","","","","","","","","","","","","","","","","","","","",""
"1782","","image-button-response","1","194505","0.0-1.0","A21HYG0E8SK3ZZ","","1","","","","","","","","","","","","","","","","","","","","","","","","",""
"1316","","image-button-response","2","195826","0.0-2.0-0.0","A21HYG0E8SK3ZZ","","1","phone","","","","","","","","","","","","","","","","","","","","","","","",""
"6947","","survey-text","3","202776","0.0-3.0-0.0","A21HYG0E8SK3ZZ","","","","{""Q0"":""A21HYG0E8SK3ZZ""}","","","","","","","","","","","","","","","","","","","","","","",""
"69292","","image-button-response_instructions","4","272073","0.0-4.0","A21HYG0E8SK3ZZ","","0","instructions","","","","","","","","","","","","","","","","","","","","","","","",""
"6307","","image-button-response_instructions","5","278382","0.0-5.0","A21HYG0E8SK3ZZ","img_art/ins/popularity/ins1.png","0","instructions","","","","","","","","","","","","","","","","","","","","","","","",""
"3399","","image-button-response_instructions","6","281783","0.0-6.0","A21HYG0E8SK3ZZ","img_art/ins/popularity/ins2.png","0","instructions","","","","","","","","","","","","","","","","","","","","","","","",""
"2868","","image-button-response_instructions","7","284653","0.0-7.0","A21HYG0E8SK3ZZ","img_art/ins/popularity/ins2Extreme.png","0","instructions","","","","","","","","","","","","","","","","","","","","","","","",""
"7963","","image-button-response_instructions","8","292616","0.0-8.0","A21HYG0E8SK3ZZ","img_art/ins/popularity/ins3KEEPpop.PNG","0","instructions","","","","","","","","","","","","","","","","","","","","","","","",""
"2257","","image-button-response_instructions","9","294874","0.0-9.0","A21HYG0E8SK3ZZ","img_art/ins/popularity/ins3ANamepop.PNG","0","instructions","","","","","","","","","","","","","","","","","","","","","","","",""
"3207","","image-button-response_instructions","10","298083","0.0-10.0","A21HYG0E8SK3ZZ","img_art/ins/popularity/ins3ARatingpop.png","0","instructions","","","","","","","","","","","","","","","","","","","","","","","",""
"3317","","image-button-response_instructions","11","301402","0.0-11.0","A21HYG0E8SK3ZZ","img_art/ins/popularity/ins3ATextpop.png","0","instructions","","","","","","","","","","","","","","","","","","","","","","","",""
"3969","","image-button-response_instructions","12","305373","0.0-12.0","A21HYG0E8SK3ZZ","img_art/ins/popularity/ins3ALikespop.png","0","instructions","","","","","","","","","","","","","","","","","","","","","","","",""
"7361","","image-button-response_instructions","13","312736","0.0-13.0","A21HYG0E8SK3ZZ","img_art/ins/popularity/ins3KEEPpop.PNG","0","instructions","","","","","","","","","","","","","","","","","","","","","","","",""
"1906","","image-button-response_instructions","14","314643","0.0-14.0","A21HYG0E8SK3ZZ","img_art/ins/popularity/ins3_5RED.png","0","instructions","","","","","","","","","","","","","","","","","","","","","","","",""
"4466","","image-button-response_instructions","15","319111","0.0-15.0","A21HYG0E8SK3ZZ","img_art/ins/popularity/ins3KEEPpop.PNG","0","instructions","","","","","","","","","","","","","","","","","","","","","","","",""
"8503","","image-button-response_instructions","16","327615","0.0-16.0","A21HYG0E8SK3ZZ","img_art/ins/popularity/ins4KEEPpop.PNG","0","instructions","","","","","","","","","","","","","","","","","","","","","","","",""
"40508","","image-button-response_instructions","17","368125","0.0-17.0","A21HYG0E8SK3ZZ","img_art/ins/popularity/ins5KEEPpop.PNG","0","instructions","","","","","","","","","","","","","","","","","","","","","","","",""
"985","","image-button-response_instructions","18","369110","0.0-18.0","A21HYG0E8SK3ZZ","","0","instructions","","","","","","","","","","","","","","","","","","","","","","","",""
"4371","","survey-text","19","373504","0.0-19.0-0.0","A21HYG0E8SK3ZZ","","","","{""Q0"":""but""}","","","","","","","","","","","","","","","","","","","","","","",""
"12519","","survey-text","20","386027","0.0-20.0-0.0","A21HYG0E8SK3ZZ","","","","{""Q0"":""it's too busy and it makes me anxious""}","","","","","","","","","","","","","","","","","","","","","","",""
"3415.5","","image-slider-response","21","389446","0.0-21.0","A21HYG0E8SK3ZZ","","","","","-39","","","","","","","","","","","","","","","","","","","","","",""
"null","","image-button-response","22","394454","0.0-22.0","A21HYG0E8SK3ZZ","img_art/ins/1.jpg","null","","","","","","","","","","","","","","","","","","","","","","","","",""
"3829","","image-button-response","23","398285","0.0-23.0","A21HYG0E8SK3ZZ","img_art/ins/1.jpg","5","","","","","","","","","","","","","","","","","","","","","","","","",""
"7195","","image-button-response","24","405482","0.0-24.0-0.0","A21HYG0E8SK3ZZ","img_art/ins/1.jpg","3","","","","","","","","","","","","","","","","","","","","","","","","",""
"1643","","image-button-response","25","407131","0.0-25.0-0.0","A21HYG0E8SK3ZZ","img_art/ins/1.jpg","4","","","","","","","","","","","","","","","","","","","","","","","","",""
"null","","html-keyboard-response","26","407634","0.0-26.0","A21HYG0E8SK3ZZ","<p style=""font-size: 48px;"">+</p>","","","","","null","allTrialResponses","500","1","-2","img_art/ins/1.jpg","-39","it's too busy and it makes me anxious","Allison,Ashley,Beth,Dora,Erika,Jen","looks like a lot of things going on in the mist,20,20,20","I just don't get why these type of art would be popular,-32,40,20","This color reminds me of poo,-46,60,20","looks like what my niece in 3rd grade did this afternoon,-50,80,20","I like the sophisticated brushwork,40,100,20","It reminds me of a candy land dream I had,36,120,20","Jen","It reminds me of a candy land dream I had,36,120,20","Dora","looks like what my niece in 3rd grade did this afternoon,-50,80,20","Erika","I like the sophisticated brushwork,40,100,20","0"
"14418","","survey-text","27","422059","0.0-27.0-0.0","A21HYG0E8SK3ZZ","","","","{""Q0"":""it looks like a scene from dexter""}","","","","","","","","","","","","","","","","","","","","","","",""
"2255.39999999851","","image-slider-response","28","424317","0.0-28.0","A21HYG0E8SK3ZZ","","","","","-25","","","","","","","","","","","","","","","","","","","","","",""
"null","","image-button-response","29","429320","0.0-29.0","A21HYG0E8SK3ZZ","img_art/ins/2.jpg","null","","","","","","","","","","","","","","","","","","","","","","","","",""
"1775","","image-button-response","30","431097","0.0-30.0","A21HYG0E8SK3ZZ","img_art/ins/2.jpg","3","","","","","","","","","","","","","","","","","","","","","","","","",""
"1944","","image-button-response","31","433041","0.0-31.0-0.0","A21HYG0E8SK3ZZ","img_art/ins/2.jpg","5","","","","","","","","","","","","","","","","","","","","","","","","",""
"3839","","image-button-response","32","436884","0.0-32.0-0.0","A21HYG0E8SK3ZZ","img_art/ins/2.jpg","1","","","","","","","","","","","","","","","","","","","","","","","","",""
"null","","html-keyboard-response","33","437386","0.0-33.0","A21HYG0E8SK3ZZ","<p style=""font-size: 48px;"">+</p>","","","","","null","allTrialResponses","500","1","-1","img_art/ins/2.jpg","-25","it looks like a scene from dexter","Jenna,Kara,Katie,Dora,Erika,Jen","One of my pet peevs,-48,140,20","I like the blocks of color arrangements,30,160,20","too much color!,-28,180,20","looks too angry,-50,80,20","I would never be able to compose a sophisticated pallete like this,48,100,20","It reminds me of a fireplace,36,120,20","Dora","looks too angry,-50,80,20","Jen","It reminds me of a fireplace,36,120,20","Kara","I like the blocks of color arrangements,30,160,20","0"
"21463","","survey-text","34","458853","0.0-34.0-0.0","A21HYG0E8SK3ZZ","","","","{""Q0"":""i love the various shades of blue, but my toddler could have done this.""}","","","","","","","","","","","","","","","","","","","","","","",""
"9711","","image-slider-response","35","468565","0.0-35.0","A21HYG0E8SK3ZZ","","","","","0","","","","","","","","","","","","","","","","","","","","","",""
"null","","image-button-response","36","473570","0.0-36.0","A21HYG0E8SK3ZZ","img_art/ins/3.jpg","null","","","","","","","","","","","","","","","","","","","","","","","","",""
"7964","","image-button-response","37","481536","0.0-37.0","A21HYG0E8SK3ZZ","img_art/ins/3.jpg","2","","","","","","","","","","","","","","","","","","","","","","","","",""
"2085","","image-button-response","38","483625","0.0-38.0-0.0","A21HYG0E8SK3ZZ","img_art/ins/3.jpg","5","","","","","","","","","","","","","","","","","","","","","","","","",""
"2527","","image-button-response","39","486156","0.0-39.0-0.0","A21HYG0E8SK3ZZ","img_art/ins/3.jpg","4","","","","","","","","","","","","","","","","","","","","","","","","",""
"null","","html-keyboard-response","40","487158","0.0-40.0","A21HYG0E8SK3ZZ","<p style=""font-size: 48px;"">+</p>","","","","","null","allTrialResponses","1000","1","0","img_art/ins/3.jpg","0","i love the various shades of blue, but my toddler could have done this.","Leslie,Kara,Rose,Dora,Mary,Jen","It's an alright work,15,200,20","calming blue is very nice,36,160,20","My daily routine, it's depressing,-20,240,20","My worst nightmare,-42,80,20","I like the overlapping of brushes,41,220,20","I can feel a rainy day from this painting,18,120,20","Rose","My daily routine, it's depressing,-20,240,20","Jen","I can feel a rainy day from this painting,18,120,20","Mary","I like the overlapping of brushes,41,220,20","0"
"4511","","image-button-response_instructions","41","491691","0.0-41.0","A21HYG0E8SK3ZZ","","0","instructions","","","","","","","","","","","","","","","","","","","","","","","",""
"7010","","survey-likert","42","498702","0.0-42.0-0.0","A21HYG0E8SK3ZZ","","","","{""Q0"":"""",""Q1"":0,""Q2"":1}","","","","","","","","","","","","","","","","","","","","","","",""
"2508","","survey-text","43","501215","0.0-43.0-0.0","A21HYG0E8SK3ZZ","","","","{""Q0"":""rock""}","","","","","","","","","","","","","","","","","","","","","","",""
"16844","","survey-text","44","518060","0.0-44.0-0.0","A21HYG0E8SK3ZZ","","","","{""Q0"":""this is very busy, but reminds me of midnight turning to dawn""}","","","","","","","","","","","","","","","","","","","","","","",""
"4002.2000000029802","","image-slider-response","45","522064","0.0-45.0","A21HYG0E8SK3ZZ","","","","","13","","","","","","","","","","","","","","","","","","","","","",""
"null","","image-button-response","46","528007","0.0-46.0","A21HYG0E8SK3ZZ","img_art/12.jpg","null","","","","","","","","","","","","","","","","","","","","","","","","",""
"5442","","image-button-response","47","533451","0.0-47.0","A21HYG0E8SK3ZZ","img_art/12.jpg","0","","","","","","","","","","","","","","","","","","","","","","","","",""
"1231","","image-button-response","48","534684","0.0-48.0-0.0","A21HYG0E8SK3ZZ","img_art/12.jpg","0","","","","","","","","","","","","","","","","","","","","","","","","",""
"1001","","image-button-response","49","538782","0.0-48.1-0.1","A21HYG0E8SK3ZZ","img_art/12.jpg","1","","","","","","","","","","","","","","","","","","","","","","","","",""
"1483","","image-button-response","50","540267","0.0-49.0-0.0","A21HYG0E8SK3ZZ","img_art/12.jpg","0","","","","","","","","","","","","","","","","","","","","","","","","",""
"3449","","image-button-response","51","546789","0.0-49.1-0.1","A21HYG0E8SK3ZZ","img_art/12.jpg","4","","","","","","","","","","","","","","","","","","","","","","","","",""
"null","","html-keyboard-response","52","548291","0.0-50.0","A21HYG0E8SK3ZZ","<p style=""font-size: 48px;"">+</p>","","","","","null","allTrialResponses","1500","1","1","img_art/12.jpg","13","this is very busy, but reminds me of midnight turning to dawn","Destiny,Danielle,Julia,Claire,Mikayla,Cassandra","giving me major endless summer vibes,26,360,20","Kind of interesting, seems almost nostalgic in a way to me.,10,340,20","this is pretty, but I wouldn't hang it on my wall.,15,40,20","i like the repetition,30,260,20","A little bit boring.,-24,300,20","Neutral...just blocks.,3,120,20","Destiny","giving me major endless summer vibes,26,360,20","Danielle","Kind of interesting, seems almost nostalgic in a way to me.,10,340,20","Mikayla","A little bit boring.,-24,300,20","4"
"11684","","survey-text","53","559984","0.0-51.0-0.0","A21HYG0E8SK3ZZ","","","","{""Q0"":""this looks like a pile of junk at the beach""}","","","","","","","","","","","","","","","","","","","","","","",""
"3206","","image-slider-response","54","563192","0.0-52.0","A21HYG0E8SK3ZZ","","","","","-16","","","","","","","","","","","","","","","","","","","","","",""
"null","","image-button-response","55","568197","0.0-53.0","A21HYG0E8SK3ZZ","img_art/14.jpg","null","","","","","","","","","","","","","","","","","","","","","","","","",""
"7888","","image-button-response","56","576088","0.0-54.0","A21HYG0E8SK3ZZ","img_art/14.jpg","0","","","","","","","","","","","","","","","","","","","","","","","","",""
"3910","","image-button-response","57","580001","0.0-55.0-0.0","A21HYG0E8SK3ZZ","img_art/14.jpg","1","","","","","","","","","","","","","","","","","","","","","","","","",""
"2598","","image-button-response","58","582604","0.0-56.0-0.0","A21HYG0E8SK3ZZ","img_art/14.jpg","2","","","","","","","","","","","","","","","","","","","","","","","","",""
"null","","html-keyboard-response","59","583610","0.0-57.0","A21HYG0E8SK3ZZ","<p style=""font-size: 48px;"">+</p>","","","","","null","allTrialResponses","1000","1","2","img_art/14.jpg","-16","this looks like a pile of junk at the beach","Destiny,Danielle,Gabrielle,Erica,Mikayla,Molly","I dont really vibe with the grayish color palette,-7,360,20","Too much yellow in this image, i'm not a fan of art that is overly-saturated with yellow,-30,340,20","the colors are peaceful and nature colors, soft,37,160,20","positive colours, makes me to look at it and investigate what is going on,27,80,20","The red looks like blood and im not a huge fan,15,300,20","In my opinion it's spectacular.,35,340,20","Destiny","I dont really vibe with the grayish color palette,-7,360,20","Danielle","Too much yellow in this image, i'm not a fan of art that is overly-saturated with yellow,-30,340,20","Gabrielle","the colors are peaceful and nature colors, soft,37,160,20","4"
"11005","","survey-text","60","594619","0.0-58.0-0.0","A21HYG0E8SK3ZZ","","","","{""Q0"":""i see a woman sleeping in the forest""}","","","","","","","","","","","","","","","","","","","","","","",""
"3492.800000000745","","image-slider-response","61","598113","0.0-59.0","A21HYG0E8SK3ZZ","","","","","19","","","","","","","","","","","","","","","","","","","","","",""
"3441","","image-button-response","62","603119","0.0-60.0","A21HYG0E8SK3ZZ","img_art/9.jpg","0","","","","","","","","","","","","","","","","","","","","","","","","",""
"13015","","image-button-response","63","616135","0.0-61.0","A21HYG0E8SK3ZZ","img_art/9.jpg","0","","","","","","","","","","","","","","","","","","","","","","","","",""
"5260","","image-button-response","64","621397","0.0-62.0-0.0","A21HYG0E8SK3ZZ","img_art/9.jpg","1","","","","","","","","","","","","","","","","","","","","","","","","",""
"3062","","image-button-response","65","624462","0.0-63.0-0.0","A21HYG0E8SK3ZZ","img_art/9.jpg","1","","","","","","","","","","","","","","","","","","","","","","","","",""
"1143","","image-button-response","66","628250","0.0-63.1-0.1","A21HYG0E8SK3ZZ","img_art/9.jpg","1","","","","","","","","","","","","","","","","","","","","","","","","",""
"989","","image-button-response","67","631064","0.0-63.2-0.2","A21HYG0E8SK3ZZ","img_art/9.jpg","4","","","","","","","","","","","","","","","","","","","","","","","","",""
"null","","html-keyboard-response","68","632067","0.0-64.0","A21HYG0E8SK3ZZ","<p style=""font-size: 48px;"">+</p>","","","","","null","allTrialResponses","1000","1","3","img_art/9.jpg","19","i see a woman sleeping in the forest","Destiny,Danielle,Gabrielle,Kelsey,Taylor,Laura","is that sleeping beauty,33,360,20","Looks like a child's drawing,-40,340,20","looks like an imitation of a real piece of art, reclining lady,-1,160,20","i like the colors but not the composition,-17,240,20","The peacock theme gives me negative connotations of my ex-sister-in-law,-10,340,20","autopsy, morgue, dead corpses - don't like the flesh tones,-43,320,20","Destiny","is that sleeping beauty,33,360,20","Danielle","Looks like a child's drawing,-40,340,20","Taylor","The peacock theme gives me negative connotations of my ex-sister-in-law,-10,340,20","8"
"15662","","survey-text","69","647746","0.0-65.0-0.0","A21HYG0E8SK3ZZ","","","","{""Q0"":""a cow got run over by a train apparently.""}","","","","","","","","","","","","","","","","","","","","","","",""
"2388.2999999970198","","image-slider-response","70","650139","0.0-66.0","A21HYG0E8SK3ZZ","","","","","-32","","","","","","","","","","","","","","","","","","","","","",""
"1667","","image-button-response","71","655145","0.0-67.0","A21HYG0E8SK3ZZ","img_art/20.jpg","0","","","","","","","","","","","","","","","","","","","","","","","","",""
"10610","","image-button-response","72","665757","0.0-68.0","A21HYG0E8SK3ZZ","img_art/20.jpg","1","","","","","","","","","","","","","","","","","","","","","","","","",""
"1246","","image-button-response","73","667007","0.0-69.0-0.0","A21HYG0E8SK3ZZ","img_art/20.jpg","0","","","","","","","","","","","","","","","","","","","","","","","","",""
"3643","","image-button-response","74","670652","0.0-70.0-0.0","A21HYG0E8SK3ZZ","img_art/20.jpg","2","","","","","","","","","","","","","","","","","","","","","","","","",""
"null","","html-keyboard-response","75","672154","0.0-71.0","A21HYG0E8SK3ZZ","<p style=""font-size: 48px;"">+</p>","","","","","null","allTrialResponses","1500","1","4","img_art/20.jpg","-32","a cow got run over by a train apparently.","Destiny,Danielle,Madison,Brianna,Taylor,Alicia","truck? train? dead cow? plane?,10,360,20","Don't really like the subject it focuses on, however the color usage is great,-10,340,20","This is not abstract art, it is representative.,0,60,20","It looks like a motorcycle and I like cars and motorcycles,30,20,20","I just love this painting,47,340,20","Very cool, and calming (again) Love it.,47,120,20","Danielle","Don't really like the subject it focuses on, however the color usage is great,-10,340,20","Destiny","truck? train? dead cow? plane?,10,360,20","Madison","This is not abstract art, it is representative.,0,60,20","8"
"19726","","survey-text","76","691891","0.0-72.0-0.0","A21HYG0E8SK3ZZ","","","","{""Q0"":""reminds me of window paint and i want to write \""wash me\"" on it""}","","","","","","","","","","","","","","","","","","","","","","",""
"3834.400000002235","","image-slider-response","77","695728","0.0-73.0","A21HYG0E8SK3ZZ","","","","","-50","","","","","","","","","","","","","","","","","","","","","",""
"4744","","image-button-response","78","700734","0.0-74.0","A21HYG0E8SK3ZZ","img_art/30.jpg","0","","","","","","","","","","","","","","","","","","","","","","","","",""
"7129","","image-button-response","79","707865","0.0-75.0","A21HYG0E8SK3ZZ","img_art/30.jpg","0","","","","","","","","","","","","","","","","","","","","","","","","",""
"7443","","image-button-response","80","715312","0.0-76.0-0.0","A21HYG0E8SK3ZZ","img_art/30.jpg","2","","","","","","","","","","","","","","","","","","","","","","","","",""
"7659","","image-button-response","81","722974","0.0-77.0-0.0","A21HYG0E8SK3ZZ","img_art/30.jpg","4","","","","","","","","","","","","","","","","","","","","","","","","",""
"null","","html-keyboard-response","82","724476","0.0-78.0","A21HYG0E8SK3ZZ","<p style=""font-size: 48px;"">+</p>","","","","","null","allTrialResponses","1500","1","5","img_art/30.jpg","-50","reminds me of window paint and i want to write ""wash me"" on it","Destiny,Danielle,Madison,Sara,Brittany,Elizabeth","literally stupid I made this with as seen on tv products when I was 7,-42,360,20","It's okay. It should either have stuck to the grey-blue, or added more red. Seems unorganized (maybe that's the point?),-9,340,20","Interesting brushstroke work, but not particularly memorable.,21,60,20","I don't like the blended colors,-20,160,20","The colors and the brushstrokes are interesting enough.,17,40,20","Love the bold brush strokes and the illusion it creates,50,20,20","Destiny","literally stupid I made this with as seen on tv products when I was 7,-42,360,20","Madison","Interesting brushstroke work, but not particularly memorable.,21,60,20","Brittany","The colors and the brushstrokes are interesting enough.,17,40,20","8"
"2332","","survey-text","83","726820","0.0-79.0-0.0","A21HYG0E8SK3ZZ","","","","{""Q0"":""sky""}","","","","","","","","","","","","","","","","","","","","","","",""
"7128","","survey-text","84","733949","0.0-80.0-0.0","A21HYG0E8SK3ZZ","","","","{""Q0"":""is this a crime scene?""}","","","","","","","","","","","","","","","","","","","","","","",""
"3672.300000000745","","image-slider-response","85","737624","0.0-81.0","A21HYG0E8SK3ZZ","","","","","-34","","","","","","","","","","","","","","","","","","","","","",""
"4065","","image-button-response","86","742627","0.0-82.0","A21HYG0E8SK3ZZ","img_art/29.jpg","0","","","","","","","","","","","","","","","","","","","","","","","","",""
"1885","","image-button-response","87","744513","0.0-83.0","A21HYG0E8SK3ZZ","img_art/29.jpg","2","","","","","","","","","","","","","","","","","","","","","","","","",""
"7492","","image-button-response","88","752006","0.0-84.0-0.0","A21HYG0E8SK3ZZ","img_art/29.jpg","0","","","","","","","","","","","","","","","","","","","","","","","","",""
"845","","image-button-response","89","752854","0.0-85.0-0.0","A21HYG0E8SK3ZZ","img_art/29.jpg","5","","","","","","","","","","","","","","","","","","","","","","","","",""
"null","","html-keyboard-response","90","753858","0.0-86.0","A21HYG0E8SK3ZZ","<p style=""font-size: 48px;"">+</p>","","","","","null","allTrialResponses","1000","1","6","img_art/29.jpg","-34","is this a crime scene?","Destiny,Mary,Madison,Sophia,Brittany,Marissa","is this supposed to be edgy,-21,360,20","I love the angry emotion to this art. I feel very drawn to it.,18,180,20","Well if the artist themself is crossing it out, why should I pay any mind?,-30,60,20","It's creative. It's just not my thing.,-32,280,20","It looks likes there's a lot going on, but they don't fit together.,2,40,20","It makes me feel as though the artist put in a lot of time and effort and then gave up,10,160,20","Madison","Well if the artist themself is crossing it out, why should I pay any mind?,-30,60,20","Destiny","is this supposed to be edgy,-21,360,20","Marissa","It makes me feel as though the artist put in a lot of time and effort and then gave up,10,160,20","8"
"15969","","survey-text","91","769834","0.0-87.0-0.0","A21HYG0E8SK3ZZ","","","","{""Q0"":""major summer sunset vibes""}","","","","","","","","","","","","","","","","","","","","","","",""
"3499.7999999970198","","image-slider-response","92","773335","0.0-88.0","A21HYG0E8SK3ZZ","","","","","17","","","","","","","","","","","","","","","","","","","","","",""
"null","","image-button-response","93","778342","0.0-89.0","A21HYG0E8SK3ZZ","img_art/22.jpg","null","","","","","","","","","","","","","","","","","","","","","","","","",""
"11578","","image-button-response","94","789921","0.0-90.0","A21HYG0E8SK3ZZ","img_art/22.jpg","5","","","","","","","","","","","","","","","","","","","","","","","","",""
"5274","","image-button-response","95","795197","0.0-91.0-0.0","A21HYG0E8SK3ZZ","img_art/22.jpg","2","","","","","","","","","","","","","","","","","","","","","","","","",""
"2071","","image-button-response","96","797270","0.0-92.0-0.0","A21HYG0E8SK3ZZ","img_art/22.jpg","4","","","","","","","","","","","","","","","","","","","","","","","","",""
"null","","html-keyboard-response","97","798278","0.0-93.0","A21HYG0E8SK3ZZ","<p style=""font-size: 48px;"">+</p>","","","","","null","allTrialResponses","1000","1","7","img_art/22.jpg","17","major summer sunset vibes","Destiny,Paige,Madison,Alexis,Margaret,Marissa","so boring. Wow you made some circles some squares very nice,-40,360,20","Happy. I like to colors,33,60,20","Like the colors, and the even blur. The more I look, the more a story forms. A very narrative image.,18,60,20","Don't like this type of abstract work,-39,100,20","i feel like this is a a basic art piece that a school would have on the wall,-24,100,20","I enjoy the vibrant colors,23,160,20","Marissa","I enjoy the vibrant colors,23,160,20","Madison","Like the colors, and the even blur. The more I look, the more a story forms. A very narrative image.,18,60,20","Margaret","i feel like this is a a basic art piece that a school would have on the wall,-24,100,20","8"
"9211","","survey-text","98","807510","0.0-94.0-0.0","A21HYG0E8SK3ZZ","","","","{""Q0"":""godzilla is coming to wreck the town""}","","","","","","","","","","","","","","","","","","","","","","",""
"3206.300000000745","","image-slider-response","99","810718","0.0-95.0","A21HYG0E8SK3ZZ","","","","","5","","","","","","","","","","","","","","","","","","","","","",""
"2769","","image-button-response","100","815726","0.0-96.0","A21HYG0E8SK3ZZ","img_art/8.jpg","0","","","","","","","","","","","","","","","","","","","","","","","","",""
"5428","","image-button-response","101","821158","0.0-97.0","A21HYG0E8SK3ZZ","img_art/8.jpg","4","","","","","","","","","","","","","","","","","","","","","","","","",""
"4599","","image-button-response","102","825758","0.0-98.0-0.0","A21HYG0E8SK3ZZ","img_art/8.jpg","5","","","","","","","","","","","","","","","","","","","","","","","","",""
"1002","","image-button-response","103","826763","0.0-99.0-0.0","A21HYG0E8SK3ZZ","img_art/8.jpg","0","","","","","","","","","","","","","","","","","","","","","","","","",""
"null","","html-keyboard-response","104","828268","0.0-100.0","A21HYG0E8SK3ZZ","<p style=""font-size: 48px;"">+</p>","","","","","null","allTrialResponses","1500","1","8","img_art/8.jpg","5","godzilla is coming to wreck the town","Courtney,Haley,Madison,Gabriela,Margaret,Marissa","Now that one is wild. Looks like maybe mother nature isnt happy.,28,280,20","Gorgeous! I love the colors and the details.,50,220,20","The composition is striking, and some of the images are quite dramatic,11,60,20","I like that it sort of looks like a cityscape,9,140,20","its pretty exciting to look at, there is alot going on,15,100,20","I can't tell if this is supposed to portray just city life or a town crumbling,-5,160,20","Margaret","its pretty exciting to look at, there is alot going on,15,100,20","Marissa","I can't tell if this is supposed to portray just city life or a town crumbling,-5,160,20","Courtney","Now that one is wild. Looks like maybe mother nature isnt happy.,28,280,20","8"
"16490","","survey-text","105","844762","0.0-101.0-0.0","A21HYG0E8SK3ZZ","","","","{""Q0"":""is...is this art? because it looks like someone dumped out their shoes after a trip to the beach.""}","","","","","","","","","","","","","","","","","","","","","","",""
"2751.800000000745","","image-slider-response","106","847515","0.0-102.0","A21HYG0E8SK3ZZ","","","","","-49","","","","","","","","","","","","","","","","","","","","","",""
"null","","image-button-response","107","852521","0.0-103.0","A21HYG0E8SK3ZZ","img_art/7.jpg","null","","","","","","","","","","","","","","","","","","","","","","","","",""
"2851","","image-button-response","108","855376","0.0-104.0","A21HYG0E8SK3ZZ","img_art/7.jpg","5","","","","","","","","","","","","","","","","","","","","","","","","",""
"4535","","image-button-response","109","859914","0.0-105.0-0.0","A21HYG0E8SK3ZZ","img_art/7.jpg","3","","","","","","","","","","","","","","","","","","","","","","","","",""
"5379","","image-button-response","110","865294","0.0-106.0-0.0","A21HYG0E8SK3ZZ","img_art/7.jpg","0","","","","","","","","","","","","","","","","","","","","","","","","",""
"null","","html-keyboard-response","111","865796","0.0-107.0","A21HYG0E8SK3ZZ","<p style=""font-size: 48px;"">+</p>","","","","","null","allTrialResponses","500","1","9","img_art/7.jpg","-49","is...is this art? because it looks like someone dumped out their shoes after a trip to the beach.","Courtney,Heather,Leslie,Morgan,Margaret,Marissa","That a desert floor,16,280,20","i dont like it. it looks like rocks,-40,260,20","This elicits no reaction in me.,0,380,20","Dead bugs on an insect battleground.,-10,380,20","looks like a close up of irritated skin under a microscope,-49,100,20","I feel confused, am I looking at a painting or a close up picture of some sort of fly stone?,-19,160,20","Marissa","I feel confused, am I looking at a painting or a close up picture of some sort of fly stone?,-19,160,20","Morgan","Dead bugs on an insect battleground.,-10,380,20","Courtney","That a desert floor,16,280,20","8"
"12097","","survey-text","112","877901","0.0-108.0-0.0","A21HYG0E8SK3ZZ","","","","{""Q0"":""my toddler drew this on the table with condiments the other day.""}","","","","","","","","","","","","","","","","","","","","","","",""
"4847.10000000149","","image-slider-response","113","882750","0.0-109.0","A21HYG0E8SK3ZZ","","","","","-50","","","","","","","","","","","","","","","","","","","","","",""
"null","","image-button-response","114","887752","0.0-110.0","A21HYG0E8SK3ZZ","img_art/4.jpg","null","","","","","","","","","","","","","","","","","","","","","","","","",""
"227","","image-button-response","115","887981","0.0-111.0","A21HYG0E8SK3ZZ","img_art/4.jpg","1","","","","","","","","","","","","","","","","","","","","","","","","",""
"4331","","image-button-response","116","892312","0.0-112.0-0.0","A21HYG0E8SK3ZZ","img_art/4.jpg","3","","","","","","","","","","","","","","","","","","","","","","","","",""
"4053","","image-button-response","117","896369","0.0-113.0-0.0","A21HYG0E8SK3ZZ","img_art/4.jpg","5","","","","","","","","","","","","","","","","","","","","","","","","",""
"null","","html-keyboard-response","118","896871","0.0-114.0","A21HYG0E8SK3ZZ","<p style=""font-size: 48px;"">+</p>","","","","","null","allTrialResponses","500","1","10","img_art/4.jpg","-50","my toddler drew this on the table with condiments the other day.","Courtney,Caitlin,Michelle,Morgan,Monica,Marissa","A leaning trophy,-9,280,20","They give out trophies now for fighting with brass knuckles?,-20,80,20","Looks like more paint smearing but at least there is structure,-5,280,20","Pretzel noodles.,7,380,20","The dark yellow color makes me think of mustard, which I dislike,-27,360,20","I'm disappointed that such a simple piece, with very little effort spent, could be grouped with other detailed pieces,-31,160,20","Caitlin","They give out trophies now for fighting with brass knuckles?,-20,80,20","Morgan","Pretzel noodles.,7,380,20","Marissa","I'm disappointed that such a simple piece, with very little effort spent, could be grouped with other detailed pieces,-31,160,20","8"
"2312","","survey-text","119","899189","0.0-115.0-0.0","A21HYG0E8SK3ZZ","","","","{""Q0"":""our""}","","","","","","","","","","","","","","","","","","","","","","",""
"5490","","survey-text","120","904680","0.0-116.0-0.0","A21HYG0E8SK3ZZ","","","","{""Q0"":""dexter's back""}","","","","","","","","","","","","","","","","","","","","","","",""
"3472.2000000029802","","image-slider-response","121","908154","0.0-117.0","A21HYG0E8SK3ZZ","","","","","-50","","","","","","","","","","","","","","","","","","","","","",""
"null","","image-button-response","122","913157","0.0-118.0","A21HYG0E8SK3ZZ","img_art/3.jpg","null","","","","","","","","","","","","","","","","","","","","","","","","",""
"4784","","image-button-response","123","917942","0.0-119.0","A21HYG0E8SK3ZZ","img_art/3.jpg","1","","","","","","","","","","","","","","","","","","","","","","","","",""
"7716","","image-button-response","124","925660","0.0-120.0-0.0","A21HYG0E8SK3ZZ","img_art/3.jpg","5","","","","","","","","","","","","","","","","","","","","","","","","",""
"4090","","image-button-response","125","929752","0.0-121.0-0.0","A21HYG0E8SK3ZZ","img_art/3.jpg","0","","","","","","","","","","","","","","","","","","","","","","","","",""
"null","","html-keyboard-response","126","930754","0.0-122.0","A21HYG0E8SK3ZZ","<p style=""font-size: 48px;"">+</p>","","","","","null","allTrialResponses","1000","1","11","img_art/3.jpg","-50","dexter's back","Madeline,Caitlin,Dominique,Morgan,Ashley,Marissa","Scribbly a bit too much,-30,40,20","Why kids with color crayons is called art is beyond me. People pay for this???,-40,80,20","Iike this one it's a piece that I need to spend more time with to understand how i feel about it,20,400,20","Somewhere between a child's art and a poorly drawn battle map.,8,380,20","Reminds of John Lenonn's art a bit.,27,320,20","It feels like a half assed and failed imitation of Japanese signatures on old paintings,-22,160,20","Caitlin","Why kids with color crayons is called art is beyond me. People pay for this???,-40,80,20","Marissa","It feels like a half assed and failed imitation of Japanese signatures on old paintings,-22,160,20","Madeline","Scribbly a bit too much,-30,40,20","8"
"12690","","survey-text","127","943452","0.0-123.0-0.0","A21HYG0E8SK3ZZ","","","","{""Q0"":""the colors clash entirely too much.""}","","","","","","","","","","","","","","","","","","","","","","",""
"3265.39999999851","","image-slider-response","128","946720","0.0-124.0","A21HYG0E8SK3ZZ","","","","","-23","","","","","","","","","","","","","","","","","","","","","",""
"2618","","image-button-response","129","951725","0.0-125.0","A21HYG0E8SK3ZZ","img_art/2.jpg","1","","","","","","","","","","","","","","","","","","","","","","","","",""
"1888","","image-button-response","130","953615","0.0-126.0","A21HYG0E8SK3ZZ","img_art/2.jpg","1","","","","","","","","","","","","","","","","","","","","","","","","",""
"2526","","image-button-response","131","956142","0.0-127.0-0.0","A21HYG0E8SK3ZZ","img_art/2.jpg","3","","","","","","","","","","","","","","","","","","","","","","","","",""
"4198","","image-button-response","132","960343","0.0-128.0-0.0","A21HYG0E8SK3ZZ","img_art/2.jpg","5","","","","","","","","","","","","","","","","","","","","","","","","",""
"null","","html-keyboard-response","133","960845","0.0-129.0","A21HYG0E8SK3ZZ","<p style=""font-size: 48px;"">+</p>","","","","","null","allTrialResponses","500","1","12","img_art/2.jpg","-23","the colors clash entirely too much.","Madeline,Caitlin,Sierra,Kelly,Chloe,Marissa","I don't really like this style,-5,40,20","Have now advanced from kindergarten to the first grade.,-5,80,20","looks like a happy child,15,260,20","I cant tell whats happening here and that shade of green is just not my thing.,-17,220,20","The color choices and lines seem a bit sloppy?,-10,220,20","I feel bothered by the dark and dingy choice of colors,-22,160,20","Caitlin","Have now advanced from kindergarten to the first grade.,-5,80,20","Kelly","I cant tell whats happening here and that shade of green is just not my thing.,-17,220,20","Marissa","I feel bothered by the dark and dingy choice of colors,-22,160,20","8"
"15855","","survey-text","134","976704","0.0-130.0-0.0","A21HYG0E8SK3ZZ","","","","{""Q0"":""i...am very uncomfortable with this one.""}","","","","","","","","","","","","","","","","","","","","","","",""
"3401.300000000745","","image-slider-response","135","980107","0.0-131.0","A21HYG0E8SK3ZZ","","","","","-49","","","","","","","","","","","","","","","","","","","","","",""
"null","","image-button-response","136","985113","0.0-132.0","A21HYG0E8SK3ZZ","img_art/16.jpg","null","","","","","","","","","","","","","","","","","","","","","","","","",""
"3194","","image-button-response","137","988309","0.0-133.0","A21HYG0E8SK3ZZ","img_art/16.jpg","3","","","","","","","","","","","","","","","","","","","","","","","","",""
"2542","","image-button-response","138","990852","0.0-134.0-0.0","A21HYG0E8SK3ZZ","img_art/16.jpg","4","","","","","","","","","","","","","","","","","","","","","","","","",""
"528","","image-button-response","139","991384","0.0-135.0-0.0","A21HYG0E8SK3ZZ","img_art/16.jpg","5","","","","","","","","","","","","","","","","","","","","","","","","",""
"null","","html-keyboard-response","140","992886","0.0-136.0","A21HYG0E8SK3ZZ","<p style=""font-size: 48px;"">+</p>","","","","","null","allTrialResponses","1500","1","13","img_art/16.jpg","-49","i...am very uncomfortable with this one.","Amber,Caitlin,Mackenzie,Kelly,Kaitlin,Marissa","Don't like the teddy bear. It takes away from the painting.,-39,200,20","It is sick to put a teddy bear and a gun on the same piece of canvas.,-40,80,20","I like the mixture of images,23,20,20","Looks like someone got really high and did a bad photoshop job.,-27,220,20","The teddy bear looks really scared,-30,60,20","I do not like this dark and twisted portrayal of childhood,-42,160,20","Kelly","Looks like someone got really high and did a bad photoshop job.,-27,220,20","Kaitlin","The teddy bear looks really scared,-30,60,20","Marissa","I do not like this dark and twisted portrayal of childhood,-42,160,20","8"
"13261","","survey-text","141","1006152","0.0-137.0-0.0","A21HYG0E8SK3ZZ","","","","{""Q0"":""this reminds me of rain hitting the windows during a storm""}","","","","","","","","","","","","","","","","","","","","","","",""
"3083.199999999255","","image-slider-response","142","1009237","0.0-138.0","A21HYG0E8SK3ZZ","","","","","27","","","","","","","","","","","","","","","","","","","","","",""
"3477","","image-button-response","143","1014244","0.0-139.0","A21HYG0E8SK3ZZ","img_art/13.jpg","1","","","","","","","","","","","","","","","","","","","","","","","","",""
"918","","image-button-response","144","1015163","0.0-140.0","A21HYG0E8SK3ZZ","img_art/13.jpg","1","","","","","","","","","","","","","","","","","","","","","","","","",""
"4876","","image-button-response","145","1020041","0.0-141.0-0.0","A21HYG0E8SK3ZZ","img_art/13.jpg","5","","","","","","","","","","","","","","","","","","","","","","","","",""
"1658","","image-button-response","146","1021702","0.0-142.0-0.0","A21HYG0E8SK3ZZ","img_art/13.jpg","2","","","","","","","","","","","","","","","","","","","","","","","","",""
"null","","html-keyboard-response","147","1023207","0.0-143.0","A21HYG0E8SK3ZZ","<p style=""font-size: 48px;"">+</p>","","","","","null","allTrialResponses","1500","1","14","img_art/13.jpg","27","this reminds me of rain hitting the windows during a storm","Angelica,Catherine,Jacqueline,Kelly,Kaitlin,Marissa","It's too violent looking and there's too much contrast between the white/black.,-21,280,20","Magnified rain around trees. Beautiful happy colors. The little person on the right feels nature is huge.,45,160,20","Seems a little cold but I like the neuron looking splatters.,10,300,20","I would hang this photo in my room.,21,220,20","I like this picture. The choice of colors are good,31,60,20","It reminds me of looking out the window on a stormy night at cars drive by,21,160,20","Catherine","Magnified rain around trees. Beautiful happy colors. The little person on the right feels nature is huge.,45,160,20","Marissa","It reminds me of looking out the window on a stormy night at cars drive by,21,160,20","Jacqueline","Seems a little cold but I like the neuron looking splatters.,10,300,20","8"
"14990","","survey-text","148","1038218","0.0-144.0-0.0","A21HYG0E8SK3ZZ","","","","{""Q0"":""is that gru from despicable me?""}","","","","","","","","","","","","","","","","","","","","","","",""
"3916.199999999255","","image-slider-response","149","1042135","0.0-145.0","A21HYG0E8SK3ZZ","","","","","4","","","","","","","","","","","","","","","","","","","","","",""
"null","","image-button-response","150","1047141","0.0-146.0","A21HYG0E8SK3ZZ","img_art/6.jpg","null","","","","","","","","","","","","","","","","","","","","","","","","",""
"8291","","image-button-response","151","1055434","0.0-147.0","A21HYG0E8SK3ZZ","img_art/6.jpg","5","","","","","","","","","","","","","","","","","","","","","","","","",""
"5228","","image-button-response","152","1060664","0.0-148.0-0.0","A21HYG0E8SK3ZZ","img_art/6.jpg","1","","","","","","","","","","","","","","","","","","","","","","","","",""
"3950","","image-button-response","153","1064616","0.0-149.0-0.0","A21HYG0E8SK3ZZ","img_art/6.jpg","2","","","","","","","","","","","","","","","","","","","","","","","","",""
"null","","html-keyboard-response","154","1065119","0.0-150.0","A21HYG0E8SK3ZZ","<p style=""font-size: 48px;"">+</p>","","","","","null","allTrialResponses","500","1","15","img_art/6.jpg","4","is that gru from despicable me?","Rebecca,Catherine,Jacqueline,Makayla,Michaela,Marissa","??????? fake floating leaf? headless bird,-28,100,20","Looking, searching at the same time being content.,30,160,20","It's a bit bland, but looks like a bird standing.,11,300,20","Don't like the black space,2,80,20","It looks like a bird looking away,32,260,20","I am intrigued but unsure whether I enjoy this or not,6,160,20","Marissa","I am intrigued but unsure whether I enjoy this or not,6,160,20","Catherine","Looking, searching at the same time being content.,30,160,20","Jacqueline","It's a bit bland, but looks like a bird standing.,11,300,20","8"
"3089","","survey-text","155","1068222","0.0-151.0-0.0","A21HYG0E8SK3ZZ","","","","{""Q0"":""course""}","","","","","","","","","","","","","","","","","","","","","","",""
"12706","","survey-text","156","1080930","0.0-152.0-0.0","A21HYG0E8SK3ZZ","","","","{""Q0"":""spooky neon dancing skeleton woman""}","","","","","","","","","","","","","","","","","","","","","","",""
"2985.300000000745","","image-slider-response","157","1083916","0.0-153.0","A21HYG0E8SK3ZZ","","","","","29","","","","","","","","","","","","","","","","","","","","","",""
"null","","image-button-response","158","1088923","0.0-154.0","A21HYG0E8SK3ZZ","img_art/25.jpg","null","","","","","","","","","","","","","","","","","","","","","","","","",""
"4400","","image-button-response","159","1093325","0.0-155.0","A21HYG0E8SK3ZZ","img_art/25.jpg","4","","","","","","","","","","","","","","","","","","","","","","","","",""
"1059","","image-button-response","160","1094387","0.0-156.0-0.0","A21HYG0E8SK3ZZ","img_art/25.jpg","5","","","","","","","","","","","","","","","","","","","","","","","","",""
"5976","","image-button-response","161","1100367","0.0-157.0-0.0","A21HYG0E8SK3ZZ","img_art/25.jpg","1","","","","","","","","","","","","","","","","","","","","","","","","",""
"null","","html-keyboard-response","162","1101875","0.0-158.0","A21HYG0E8SK3ZZ","<p style=""font-size: 48px;"">+</p>","","","","","null","allTrialResponses","1500","1","16","img_art/25.jpg","29","spooky neon dancing skeleton woman","Kayla,Catherine,Jacqueline,Autumn,Olivia,Marissa","Ghosts are NOT my thing.,-13,180,20","culture, tradition. Village people with an honored elder.,40,160,20","Not particularly interesting for me. The green color is strange mixed with this.,-11,300,20","This is too simple,-22,340,20","reminds me of burning man,18,40,20","I really like the green and the fact that it is tattered on the edges,23,160,20","Olivia","reminds me of burning man,18,40,20","Marissa","I really like the green and the fact that it is tattered on the edges,23,160,20","Catherine","culture, tradition. Village people with an honored elder.,40,160,20","8"
"13574","","survey-text","163","1115453","0.0-159.0-0.0","A21HYG0E8SK3ZZ","","","","{""Q0"":""this looks like a storm rolling in off the sea""}","","","","","","","","","","","","","","","","","","","","","","",""
"5917.099999997765","","image-slider-response","164","1121373","0.0-160.0","A21HYG0E8SK3ZZ","","","","","38","","","","","","","","","","","","","","","","","","","","","",""
"null","","image-button-response","165","1126377","0.0-161.0","A21HYG0E8SK3ZZ","img_art/21.jpg","null","","","","","","","","","","","","","","","","","","","","","","","","",""
"4969","","image-button-response","166","1131349","0.0-162.0","A21HYG0E8SK3ZZ","img_art/21.jpg","4","","","","","","","","","","","","","","","","","","","","","","","","",""
"2472","","image-button-response","167","1133823","0.0-163.0-0.0","A21HYG0E8SK3ZZ","img_art/21.jpg","3","","","","","","","","","","","","","","","","","","","","","","","","",""
"7242","","image-button-response","168","1141069","0.0-164.0-0.0","A21HYG0E8SK3ZZ","img_art/21.jpg","2","","","","","","","","","","","","","","","","","","","","","","","","",""
"null","","html-keyboard-response","169","1142070","0.0-165.0","A21HYG0E8SK3ZZ","<p style=""font-size: 48px;"">+</p>","","","","","null","allTrialResponses","1000","1","17","img_art/21.jpg","38","this looks like a storm rolling in off the sea","Natalie,Catherine,Samantha,Kristen,Olivia,Marissa","my response to the picture is what is going on?,-13,400,20","Nature, water, ever changing. Cold then warm. Reaction is mostly positive and some negative,30,160,20","Love the colors and the relationship between the light and storm,50,140,20","calm, ship at sea, sunset,16,280,20","feels like a wave coming into light,9,40,20","I feel confused,-18,160,20","Olivia","feels like a wave coming into light,9,40,20","Kristen","calm, ship at sea, sunset,16,280,20","Samantha","Love the colors and the relationship between the light and storm,50,140,20","8"
"10007","","survey-text","170","1152086","0.0-166.0-0.0","A21HYG0E8SK3ZZ","","","","{""Q0"":""Tiger King? Is that you?""}","","","","","","","","","","","","","","","","","","","","","","",""
"9362.800000000745","","image-slider-response","171","1161449","0.0-167.0","A21HYG0E8SK3ZZ","","","","","-16","","","","","","","","","","","","","","","","","","","","","",""
"4569","","image-button-response","172","1166451","0.0-168.0","A21HYG0E8SK3ZZ","img_art/18.jpg","2","","","","","","","","","","","","","","","","","","","","","","","","",""
"4884","","image-button-response","173","1171339","0.0-169.0","A21HYG0E8SK3ZZ","img_art/18.jpg","4","","","","","","","","","","","","","","","","","","","","","","","","",""
"1539","","image-button-response","174","1172880","0.0-170.0-0.0","A21HYG0E8SK3ZZ","img_art/18.jpg","5","","","","","","","","","","","","","","","","","","","","","","","","",""
"1056","","image-button-response","175","1173938","0.0-171.0-0.0","A21HYG0E8SK3ZZ","img_art/18.jpg","2","","","","","","","","","","","","","","","","","","","","","","","","",""
"null","","html-keyboard-response","176","1175440","0.0-172.0","A21HYG0E8SK3ZZ","<p style=""font-size: 48px;"">+</p>","","","","","null","allTrialResponses","1500","1","18","img_art/18.jpg","-16","Tiger King? Is that you?","Emily,Savannah,Samantha,Kristen,Olivia,Katherine","Not my style but I can see some serious skill went int it.,21,40,20","Accents make this piece.,21,200,20","Id love to see this piece closer. So much extra details hidden it it.,50,140,20","pegssus going into battle,25,280,20","death rides in life,-25,40,20","Ok this is really badass. Like a warrior come to the last battle,50,120,20","Olivia","death rides in life,-25,40,20","Katherine","Ok this is really badass. Like a warrior come to the last battle,50,120,20","Samantha","Id love to see this piece closer. So much extra details hidden it it.,50,140,20","8"
"17119","","survey-text","177","1192569","0.0-173.0-0.0","A21HYG0E8SK3ZZ","","","","{""Q0"":""this annoys me for some reason""}","","","","","","","","","","","","","","","","","","","","","","",""
"3463.800000000745","","image-slider-response","178","1196034","0.0-174.0","A21HYG0E8SK3ZZ","","","","","-43","","","","","","","","","","","","","","","","","","","","","",""
"null","","image-button-response","179","1201037","0.0-175.0","A21HYG0E8SK3ZZ","img_art/5.jpg","null","","","","","","","","","","","","","","","","","","","","","","","","",""
"8587","","image-button-response","180","1209625","0.0-176.0","A21HYG0E8SK3ZZ","img_art/5.jpg","1","","","","","","","","","","","","","","","","","","","","","","","","",""
"968","","image-button-response","181","1210595","0.0-177.0-0.0","A21HYG0E8SK3ZZ","img_art/5.jpg","0","","","","","","","","","","","","","","","","","","","","","","","","",""
"2614","","image-button-response","182","1213213","0.0-178.0-0.0","A21HYG0E8SK3ZZ","img_art/5.jpg","2","","","","","","","","","","","","","","","","","","","","","","","","",""
"null","","html-keyboard-response","183","1214215","0.0-179.0","A21HYG0E8SK3ZZ","<p style=""font-size: 48px;"">+</p>","","","","","null","allTrialResponses","1000","1","19","img_art/5.jpg","-43","this annoys me for some reason","Anna,Cassidy,Samantha,Bailey,Olivia,Katherine","It's kind of boring.,-20,300,20","I like these colors together and the tiny splatters, but what is this?,7,140,20","I cant explain why i like this so much but it really calls out to me,50,140,20","Not sure what that even is. Looks like a 2-year old drawing,-40,360,20","a brush in time,-14,40,20","Don't love don't hate,8,120,20","Cassidy","I like these colors together and the tiny splatters, but what is this?,7,140,20","Anna","It's kind of boring.,-20,300,20","Samantha","I cant explain why i like this so much but it really calls out to me,50,140,20","8"
"27778","","survey-text","184","1242002","0.0-180.0-0.0","A21HYG0E8SK3ZZ","","","","{""Q0"":""the forest is on fire""}","","","","","","","","","","","","","","","","","","","","","","",""
"2436.300000000745","","image-slider-response","185","1244442","0.0-181.0","A21HYG0E8SK3ZZ","","","","","-29","","","","","","","","","","","","","","","","","","","","","",""
"2673","","image-button-response","186","1249449","0.0-182.0","A21HYG0E8SK3ZZ","img_art/27.jpg","0","","","","","","","","","","","","","","","","","","","","","","","","",""
"999","","image-button-response","187","1250450","0.0-183.0","A21HYG0E8SK3ZZ","img_art/27.jpg","1","","","","","","","","","","","","","","","","","","","","","","","","",""
"4494","","image-button-response","188","1254946","0.0-184.0-0.0","A21HYG0E8SK3ZZ","img_art/27.jpg","5","","","","","","","","","","","","","","","","","","","","","","","","",""
"7298","","image-button-response","189","1262247","0.0-185.0-0.0","A21HYG0E8SK3ZZ","img_art/27.jpg","0","","","","","","","","","","","","","","","","","","","","","","","","",""
"null","","html-keyboard-response","190","1263249","0.0-186.0","A21HYG0E8SK3ZZ","<p style=""font-size: 48px;"">+</p>","","","","","null","allTrialResponses","1000","1","20","img_art/27.jpg","-29","the forest is on fire","Anna,Cassidy,Samantha,Caroline,Kimberly,Megan","It looks like when my little sister took magic markers to the wall.,-11,300,20","doesn't look like any effort was put into this piece.,-19,140,20","I like all it has going but i wouldnt put it in my house unless my child did it,25,140,20","Didnt actually make me feel anything, sort of bland,3,100,20","Nothing stands out,-23,260,20","Nice back ground with childish scribble on top,-30,200,20","Cassidy","doesn't look like any effort was put into this piece.,-19,140,20","Megan","Nice back ground with childish scribble on top,-30,200,20","Anna","It looks like when my little sister took magic markers to the wall.,-11,300,20","8"
"3689","","survey-text","191","1266950","0.0-187.0-0.0","A21HYG0E8SK3ZZ","","","","{""Q0"":""we""}","","","","","","","","","","","","","","","","","","","","","","",""
"25871","","survey-text","192","1292822","0.0-188.0-0.0","A21HYG0E8SK3ZZ","","","","{""Q0"":""i actually love this. it looks like an instrument, but also a storm at sea, but also a tornado, but also a million other things.""}","","","","","","","","","","","","","","","","","","","","","","",""
"2485","","image-slider-response","193","1295310","0.0-189.0","A21HYG0E8SK3ZZ","","","","","29","","","","","","","","","","","","","","","","","","","","","",""
"null","","image-button-response","194","1300318","0.0-190.0","A21HYG0E8SK3ZZ","img_art/10.jpg","null","","","","","","","","","","","","","","","","","","","","","","","","",""
"492","","image-button-response","195","1300814","0.0-191.0","A21HYG0E8SK3ZZ","img_art/10.jpg","0","","","","","","","","","","","","","","","","","","","","","","","","",""
"6310","","image-button-response","196","1307126","0.0-192.0-0.0","A21HYG0E8SK3ZZ","img_art/10.jpg","5","","","","","","","","","","","","","","","","","","","","","","","","",""
"4823","","image-button-response","197","1311952","0.0-193.0-0.0","A21HYG0E8SK3ZZ","img_art/10.jpg","4","","","","","","","","","","","","","","","","","","","","","","","","",""
"null","","html-keyboard-response","198","1313457","0.0-194.0","A21HYG0E8SK3ZZ","<p style=""font-size: 48px;"">+</p>","","","","","null","allTrialResponses","1500","1","21","img_art/10.jpg","29","i actually love this. it looks like an instrument, but also a storm at sea, but also a tornado, but also a million other things.","Anna,Cassidy,Maria,Katie,Crystal,Megan","I like how simple but intricate it is.,30,300,20","Looks like someone just smeared some paint and called it good. Do not like.,-6,140,20","not sure what to make of this one,0,120,20","Dark and weird. Unidentifiable shape. I can't tell what it is, so I don't like it.,-50,160,20","The contrast between the messy dots/dabs vs the straight affluent lines is unappealing,-20,300,20","Music visualized with subtle color,17,200,20","Anna","I like how simple but intricate it is.,30,300,20","Megan","Music visualized with subtle color,17,200,20","Crystal","The contrast between the messy dots/dabs vs the straight affluent lines is unappealing,-20,300,20","8"
"11563","","survey-text","199","1325031","0.0-195.0-0.0","A21HYG0E8SK3ZZ","","","","{""Q0"":""i'm not sure what to make of this one""}","","","","","","","","","","","","","","","","","","","","","","",""
"2531.60000000149","","image-slider-response","200","1327565","0.0-196.0","A21HYG0E8SK3ZZ","","","","","-35","","","","","","","","","","","","","","","","","","","","","",""
"null","","image-button-response","201","1332570","0.0-197.0","A21HYG0E8SK3ZZ","img_art/11.jpg","null","","","","","","","","","","","","","","","","","","","","","","","","",""
"1056","","image-button-response","202","1333630","0.0-198.0","A21HYG0E8SK3ZZ","img_art/11.jpg","2","","","","","","","","","","","","","","","","","","","","","","","","",""
"5849","","image-button-response","203","1339480","0.0-199.0-0.0","A21HYG0E8SK3ZZ","img_art/11.jpg","5","","","","","","","","","","","","","","","","","","","","","","","","",""
"6860","","image-button-response","204","1346342","0.0-200.0-0.0","A21HYG0E8SK3ZZ","img_art/11.jpg","0","","","","","","","","","","","","","","","","","","","","","","","","",""
"null","","html-keyboard-response","205","1347845","0.0-201.0","A21HYG0E8SK3ZZ","<p style=""font-size: 48px;"">+</p>","","","","","null","allTrialResponses","1500","1","22","img_art/11.jpg","-35","i'm not sure what to make of this one","Anna,Shelby,Kathryn,Abigail,Crystal,Megan","It makes me think of a coastal sea town.,50,300,20","The movement in this one is extremely pleasent,40,240,20","This is disorienting, like motion sickness.,-20,140,20","Rainy highways in RI,20,20,20","Enjoyed the lines representing different paths that encompass different entities,20,300,20","Some interesting color but scratchy train mess.,-14,200,20","Kathryn","This is disorienting, like motion sickness.,-20,140,20","Megan","Some interesting color but scratchy train mess.,-14,200,20","Anna","It makes me think of a coastal sea town.,50,300,20","8"
"9252","","survey-text","206","1357100","0.0-202.0-0.0","A21HYG0E8SK3ZZ","","","","{""Q0"":""fall vibes. pumpkin spice, anyone?""}","","","","","","","","","","","","","","","","","","","","","","",""
"2353.599999997765","","image-slider-response","207","1359455","0.0-203.0","A21HYG0E8SK3ZZ","","","","","19","","","","","","","","","","","","","","","","","","","","","",""
"null","","image-button-response","208","1364459","0.0-204.0","A21HYG0E8SK3ZZ","img_art/1.jpg","null","","","","","","","","","","","","","","","","","","","","","","","","",""
"1433","","image-button-response","209","1365894","0.0-205.0","A21HYG0E8SK3ZZ","img_art/1.jpg","2","","","","","","","","","","","","","","","","","","","","","","","","",""
"3382","","image-button-response","210","1369277","0.0-206.0-0.0","A21HYG0E8SK3ZZ","img_art/1.jpg","3","","","","","","","","","","","","","","","","","","","","","","","","",""
"3521","","image-button-response","211","1372801","0.0-207.0-0.0","A21HYG0E8SK3ZZ","img_art/1.jpg","1","","","","","","","","","","","","","","","","","","","","","","","","",""
"null","","html-keyboard-response","212","1374305","0.0-208.0","A21HYG0E8SK3ZZ","<p style=""font-size: 48px;"">+</p>","","","","","null","allTrialResponses","1500","1","23","img_art/1.jpg","19","fall vibes. pumpkin spice, anyone?","Anna,Cynthia,Kathryn,Angela,Melissa,Megan","The colors are nice but that's all it is,21,300,20","fishing on the lake surrounded by trees,42,320,20","For some reason this makes me want to go ice skating. It's whimsical and free but also very smooth.,20,140,20","Like the colors very much, and this piece makes me feel peaceful.,29,260,20","muddy and uninteresting,-16,240,20","Nice colors with some 3D effects,15,200,20","Kathryn","For some reason this makes me want to go ice skating. It's whimsical and free but also very smooth.,20,140,20","Angela","Like the colors very much, and this piece makes me feel peaceful.,29,260,20","Cynthia","fishing on the lake surrounded by trees,42,320,20","8"
"17114","","survey-text","213","1391429","0.0-209.0-0.0","A21HYG0E8SK3ZZ","","","","{""Q0"":""a band playing their hearts out in the middle of a crowd during a celebration""}","","","","","","","","","","","","","","","","","","","","","","",""
"2137.10000000149","","image-slider-response","214","1393568","0.0-210.0","A21HYG0E8SK3ZZ","","","","","39","","","","","","","","","","","","","","","","","","","","","",""
"null","","image-button-response","215","1398572","0.0-211.0","A21HYG0E8SK3ZZ","img_art/23.jpg","null","","","","","","","","","","","","","","","","","","","","","","","","",""
"148","","image-button-response","216","1398722","0.0-212.0","A21HYG0E8SK3ZZ","img_art/23.jpg","2","","","","","","","","","","","","","","","","","","","","","","","","",""
"8931","","image-button-response","217","1407654","0.0-213.0-0.0","A21HYG0E8SK3ZZ","img_art/23.jpg","0","","","","","","","","","","","","","","","","","","","","","","","","",""
"1758","","image-button-response","218","1409416","0.0-214.0-0.0","A21HYG0E8SK3ZZ","img_art/23.jpg","1","","","","","","","","","","","","","","","","","","","","","","","","",""
"null","","html-keyboard-response","219","1410418","0.0-215.0","A21HYG0E8SK3ZZ","<p style=""font-size: 48px;"">+</p>","","","","","null","allTrialResponses","1000","1","24","img_art/23.jpg","39","a band playing their hearts out in the middle of a crowd during a celebration","Jenna,Cynthia,Kathryn,Angela,Erika,Victoria","awesome colors. love the white drawing the eye to the center. oddly comforting.,50,360,20","puzzled with curiosity,31,320,20","I feel positive community and comfort. Singing along at a concert, united with a bunch of strangers through shared joy.,20,140,20","Like the background colors and the energy, but the white bits ruin it for me,-7,260,20","Very intense and unique,3,100,20","enjoy the colors,23,400,20","Kathryn","I feel positive community and comfort. Singing along at a concert, united with a bunch of strangers through shared joy.,20,140,20","Jenna","awesome colors. love the white drawing the eye to the center. oddly comforting.,50,360,20","Cynthia","puzzled with curiosity,31,320,20","8"
"23770","","survey-text","220","1434193","0.0-216.0-0.0","A21HYG0E8SK3ZZ","","","","{""Q0"":""this makes me uncomfortable but also intrigued because is that a rabbit or a mouse?""}","","","","","","","","","","","","","","","","","","","","","","",""
"2649.60000000149","","image-slider-response","221","1436845","0.0-217.0","A21HYG0E8SK3ZZ","","","","","9","","","","","","","","","","","","","","","","","","","","","",""
"2820","","image-button-response","222","1441850","0.0-218.0","A21HYG0E8SK3ZZ","img_art/28.jpg","0","","","","","","","","","","","","","","","","","","","","","","","","",""
"844","","image-button-response","223","1442695","0.0-219.0","A21HYG0E8SK3ZZ","img_art/28.jpg","0","","","","","","","","","","","","","","","","","","","","","","","","",""
"9551","","image-button-response","224","1452248","0.0-220.0-0.0","A21HYG0E8SK3ZZ","img_art/28.jpg","5","","","","","","","","","","","","","","","","","","","","","","","","",""
"1919","","image-button-response","225","1454171","0.0-221.0-0.0","A21HYG0E8SK3ZZ","img_art/28.jpg","1","","","","","","","","","","","","","","","","","","","","","","","","",""
"null","","html-keyboard-response","226","1455677","0.0-222.0","A21HYG0E8SK3ZZ","<p style=""font-size: 48px;"">+</p>","","","","","null","allTrialResponses","1500","1","25","img_art/28.jpg","9","this makes me uncomfortable but also intrigued because is that a rabbit or a mouse?","Jenna,Cynthia,Kathryn,Jordan,Cheyenne,Alexa","looks like humanoid figures in distress. I like it, but makes me slightly uncomfortable,35,360,20","nostalgic from a memory,11,320,20","My immediate reaction was to think of smog. It recalls choking on dirty air.,-20,140,20","It's a bike that was left abandoned by someone who doesnt care for it,1,20,20","Good use of shapes.,7,200,20","The colors are dull but there's some kind of nostalgic essence of this painting,15,40,20","Jenna","looks like humanoid figures in distress. I like it, but makes me slightly uncomfortable,35,360,20","Alexa","The colors are dull but there's some kind of nostalgic essence of this painting,15,40,20","Cynthia","nostalgic from a memory,11,320,20","8"
"3077","","survey-text","227","1458768","0.0-223.0-0.0","A21HYG0E8SK3ZZ","","","","{""Q0"":""table""}","","","","","","","","","","","","","","","","","","","","","","",""
"11817","","survey-text","228","1470588","0.0-224.0-0.0","A21HYG0E8SK3ZZ","","","","{""Q0"":""fingerpainting at its worst""}","","","","","","","","","","","","","","","","","","","","","","",""
"2524.10000000149","","image-slider-response","229","1473113","0.0-225.0","A21HYG0E8SK3ZZ","","","","","-49","","","","","","","","","","","","","","","","","","","","","",""
"null","","image-button-response","230","1478117","0.0-226.0","A21HYG0E8SK3ZZ","img_art/15.jpg","null","","","","","","","","","","","","","","","","","","","","","","","","",""
"7686","","image-button-response","231","1485804","0.0-227.0","A21HYG0E8SK3ZZ","img_art/15.jpg","4","","","","","","","","","","","","","","","","","","","","","","","","",""
"2326","","image-button-response","232","1488132","0.0-228.0-0.0","A21HYG0E8SK3ZZ","img_art/15.jpg","1","","","","","","","","","","","","","","","","","","","","","","","","",""
"1145","","image-button-response","233","1489280","0.0-229.0-0.0","A21HYG0E8SK3ZZ","img_art/15.jpg","0","","","","","","","","","","","","","","","","","","","","","","","","",""
"null","","html-keyboard-response","234","1489785","0.0-230.0","A21HYG0E8SK3ZZ","<p style=""font-size: 48px;"">+</p>","","","","","null","allTrialResponses","500","1","26","img_art/15.jpg","-49","fingerpainting at its worst","Jenna,Cynthia,Erin,Mariah,Amanda,Alexa","interesting technique. the blue is very pretty,18,360,20","interested in this transformation,20,320,20","Neat to explore meaning, blue is interesting,11,120,20","It is visually appealing, stark and simple but natural.,41,140,20","It triggers my tripophobia,-50,180,20","Although it looks a bit bland in terms of color, I really like the print/pattern,25,40,20","Amanda","It triggers my tripophobia,-50,180,20","Cynthia","interested in this transformation,20,320,20","Jenna","interesting technique. the blue is very pretty,18,360,20","8"
"19918","","survey-text","235","1509706","0.0-231.0-0.0","A21HYG0E8SK3ZZ","","","","{""Q0"":""this reminds me of Agrabah from Aladdin""}","","","","","","","","","","","","","","","","","","","","","","",""
"2158.400000002235","","image-slider-response","236","1511866","0.0-232.0","A21HYG0E8SK3ZZ","","","","","9","","","","","","","","","","","","","","","","","","","","","",""
"2557","","image-button-response","237","1516868","0.0-233.0","A21HYG0E8SK3ZZ","img_art/19.jpg","0","","","","","","","","","","","","","","","","","","","","","","","","",""
"5665","","image-button-response","238","1522535","0.0-234.0","A21HYG0E8SK3ZZ","img_art/19.jpg","4","","","","","","","","","","","","","","","","","","","","","","","","",""
"1233","","image-button-response","239","1523768","0.0-235.0-0.0","A21HYG0E8SK3ZZ","img_art/19.jpg","0","","","","","","","","","","","","","","","","","","","","","","","","",""
"1588","","image-button-response","240","1525359","0.0-236.0-0.0","A21HYG0E8SK3ZZ","img_art/19.jpg","2","","","","","","","","","","","","","","","","","","","","","","","","",""
"null","","html-keyboard-response","241","1525861","0.0-237.0","A21HYG0E8SK3ZZ","<p style=""font-size: 48px;"">+</p>","","","","","null","allTrialResponses","500","1","27","img_art/19.jpg","9","this reminds me of Agrabah from Aladdin","Jenna,Cynthia,Alexandria,Alexandra,Amanda,Kaitlyn","love the muted colors and added sketchy lines. calming without being boring.,50,360,20","confused and emotional,-4,320,20","it draws my eye and my mind fills in the spaces,14,80,20","This photo has too much going on.,-19,60,20","Its just a nice painting, nothing too special but nothing negative,25,180,20","The picture contains a lot of brown and weird drips,-4,80,20","Amanda","Its just a nice painting, nothing too special but nothing negative,25,180,20","Jenna","love the muted colors and added sketchy lines. calming without being boring.,50,360,20","Alexandria","it draws my eye and my mind fills in the spaces,14,80,20","8"
"21743","","survey-text","242","1547613","0.0-238.0-0.0","A21HYG0E8SK3ZZ","","","","{""Q0"":""this looks like veins and tree branches indoors""}","","","","","","","","","","","","","","","","","","","","","","",""
"3775.699999999255","","image-slider-response","243","1551391","0.0-239.0","A21HYG0E8SK3ZZ","","","","","-2","","","","","","","","","","","","","","","","","","","","","",""
"4888","","image-button-response","244","1556396","0.0-240.0","A21HYG0E8SK3ZZ","img_art/17.jpg","1","","","","","","","","","","","","","","","","","","","","","","","","",""
"896","","image-button-response","245","1557296","0.0-241.0","A21HYG0E8SK3ZZ","img_art/17.jpg","1","","","","","","","","","","","","","","","","","","","","","","","","",""
"11148","","image-button-response","246","1568445","0.0-242.0-0.0","A21HYG0E8SK3ZZ","img_art/17.jpg","4","","","","","","","","","","","","","","","","","","","","","","","","",""
"2615","","image-button-response","247","1571062","0.0-243.0-0.0","A21HYG0E8SK3ZZ","img_art/17.jpg","5","","","","","","","","","","","","","","","","","","","","","","","","",""
"null","","html-keyboard-response","248","1572069","0.0-244.0","A21HYG0E8SK3ZZ","<p style=""font-size: 48px;"">+</p>","","","","","null","allTrialResponses","1000","1","28","img_art/17.jpg","-2","this looks like veins and tree branches indoors","Jenna,Hannah,Alexandria,Allison,Amanda,Alyssa","stunning. makes me feel happy, hopeful, serene, and a little wistful.,50,360,20","Looks like an abandoned building that is being overtaken by nature.,-10,240,20","it looks very intricate and colorful,50,80,20","Very washed out.,-10,140,20","Feels supernatural and scary,-16,180,20","It gorgeous and i love how the tree is almost 3 dimensional.So many elements to it.,50,160,20","Hannah","Looks like an abandoned building that is being overtaken by nature.,-10,240,20","Amanda","Feels supernatural and scary,-16,180,20","Alyssa","It gorgeous and i love how the tree is almost 3 dimensional.So many elements to it.,50,160,20","8"
"10573","","survey-text","249","1582653","0.0-245.0-0.0","A21HYG0E8SK3ZZ","","","","{""Q0"":""sesame street!""}","","","","","","","","","","","","","","","","","","","","","","",""
"3436.599999997765","","image-slider-response","250","1586091","0.0-246.0","A21HYG0E8SK3ZZ","","","","","12","","","","","","","","","","","","","","","","","","","","","",""
"null","","image-button-response","251","1591094","0.0-247.0","A21HYG0E8SK3ZZ","img_art/26.jpg","null","","","","","","","","","","","","","","","","","","","","","","","","",""
"1332","","image-button-response","252","1592429","0.0-248.0","A21HYG0E8SK3ZZ","img_art/26.jpg","3","","","","","","","","","","","","","","","","","","","","","","","","",""
"5183","","image-button-response","253","1597615","0.0-249.0-0.0","A21HYG0E8SK3ZZ","img_art/26.jpg","0","","","","","","","","","","","","","","","","","","","","","","","","",""
"561","","image-button-response","254","1598178","0.0-250.0-0.0","A21HYG0E8SK3ZZ","img_art/26.jpg","2","","","","","","","","","","","","","","","","","","","","","","","","",""
"null","","html-keyboard-response","255","1598680","0.0-251.0","A21HYG0E8SK3ZZ","<p style=""font-size: 48px;"">+</p>","","","","","null","allTrialResponses","500","1","29","img_art/26.jpg","12","sesame street!","Meghan,Hannah,Christina,Isabella,Amanda,Alyssa","nothing really special, quite bland,1,220,20","This is boring.,-15,240,20","looks like a little kids painting,-17,240,20","Colors are full and reminds me of a messy room,-9,280,20","Pleasant to look at,28,180,20","Its pretty.And a nice use of water colors.,25,160,20","Isabella","Colors are full and reminds me of a messy room,-9,280,20","Meghan","nothing really special, quite bland,1,220,20","Christina","looks like a little kids painting,-17,240,20","8"
"27080","","survey-text","256","1625767","0.0-252.0-0.0","A21HYG0E8SK3ZZ","","","","{""Q0"":""i love the flowers and the little waterfall in a small creek.""}","","","","","","","","","","","","","","","","","","","","","","",""
"3983.099999997765","","image-slider-response","257","1629752","0.0-253.0","A21HYG0E8SK3ZZ","","","","","36","","","","","","","","","","","","","","","","","","","","","",""
"4480","","image-button-response","258","1634757","0.0-254.0","A21HYG0E8SK3ZZ","img_art/24.jpg","2","","","","","","","","","","","","","","","","","","","","","","","","",""
"4469","","image-button-response","259","1639228","0.0-255.0","A21HYG0E8SK3ZZ","img_art/24.jpg","4","","","","","","","","","","","","","","","","","","","","","","","","",""
"8107","","image-button-response","260","1647337","0.0-256.0-0.0","A21HYG0E8SK3ZZ","img_art/24.jpg","3","","","","","","","","","","","","","","","","","","","","","","","","",""
"3305","","image-button-response","261","1650643","0.0-257.0-0.0","A21HYG0E8SK3ZZ","img_art/24.jpg","2","","","","","","","","","","","","","","","","","","","","","","","","",""
"null","","html-keyboard-response","262","1651648","0.0-258.0","A21HYG0E8SK3ZZ","<p style=""font-size: 48px;"">+</p>","","","","","null","allTrialResponses","1000","1","30","img_art/24.jpg","36","i love the flowers and the little waterfall in a small creek.","Meghan,Breanna,Christina,Isabella,Lauren,Brooke","pretty like a waterfall,22,220,20","Like it, nice attention to details,31,380,20","I like how it looks like a waterfall in an exotic place,50,240,20","A peaceful day by the river,42,280,20","Invokes a strong sense of nature, since the piece can interpreted as a stream or an abstracted bird.,40,340,20","Mountain stream pineapple texture?,30,60,20","Lauren","Invokes a strong sense of nature, since the piece can interpreted as a stream or an abstracted bird.,40,340,20","Isabella","A peaceful day by the river,42,280,20","Christina","I like how it looks like a waterfall in an exotic place,50,240,20","8"
"2280","","image-button-response_instructions","263","1653939","0.0-259.0","A21HYG0E8SK3ZZ","","0","instructions","","","","","","","","","","","","","","","","","","","","","","","",""
"1358","","image-button-response","264","1655300","0.0-260.0","A21HYG0E8SK3ZZ","","0","","","","","","","","","","","","","","","","","","","","","","","","",""
