"rt","url","trial_type","trial_index","time_elapsed","internal_node_id","participant_id","stimulus","button_pressed","Name","responses","response","key_press","variableName","fixationTime","condition","trial","photo","subjectRating","subjectResponse","agentsNames","agent_1_Response","agent_2_Response","agent_3_Response","agent_4_Response","agent_5_Response","agent_6_Response","kept_1_name","kept_1_response","kept_2_name","kept_2_response","kept_3_name","kept_3_response","errorCounter"
"23885","external_page_harvard.html","external-html","0","24673","0.0-0.0","A21J4SY5NBBDG6","","","","","","","","","","","","","","","","","","","","","","","","","","",""
"2228","","image-button-response","1","26904","0.0-1.0","A21J4SY5NBBDG6","","0","","","","","","","","","","","","","","","","","","","","","","","","",""
"2761","","image-button-response","2","29674","0.0-2.0-0.0","A21J4SY5NBBDG6","","1","phone","","","","","","","","","","","","","","","","","","","","","","","",""
"3956","","survey-text","3","33633","0.0-3.0-0.0","A21J4SY5NBBDG6","","","","{""Q0"":""A21J4SY5NBBDG6""}","","","","","","","","","","","","","","","","","","","","","","",""
"4802","","image-button-response_instructions","4","38439","0.0-4.0","A21J4SY5NBBDG6","","0","instructions","","","","","","","","","","","","","","","","","","","","","","","",""
"38170","","image-button-response_instructions","5","76611","0.0-5.0","A21J4SY5NBBDG6","img_art/ins/popularity/ins1.png","0","instructions","","","","","","","","","","","","","","","","","","","","","","","",""
"6042","","image-button-response_instructions","6","82655","0.0-6.0","A21J4SY5NBBDG6","img_art/ins/popularity/ins2.png","0","instructions","","","","","","","","","","","","","","","","","","","","","","","",""
"3541","","image-button-response_instructions","7","86198","0.0-7.0","A21J4SY5NBBDG6","img_art/ins/popularity/ins2Extreme.png","0","instructions","","","","","","","","","","","","","","","","","","","","","","","",""
"14167","","image-button-response_instructions","8","100367","0.0-8.0","A21J4SY5NBBDG6","img_art/ins/popularity/ins3KEEPpop.PNG","0","instructions","","","","","","","","","","","","","","","","","","","","","","","",""
"3535","","image-button-response_instructions","9","103905","0.0-9.0","A21J4SY5NBBDG6","img_art/ins/popularity/ins3ANamepop.PNG","0","instructions","","","","","","","","","","","","","","","","","","","","","","","",""
"2587","","image-button-response_instructions","10","106495","0.0-10.0","A21J4SY5NBBDG6","img_art/ins/popularity/ins3ARatingpop.png","0","instructions","","","","","","","","","","","","","","","","","","","","","","","",""
"2542","","image-button-response_instructions","11","109039","0.0-11.0","A21J4SY5NBBDG6","img_art/ins/popularity/ins3ATextpop.png","0","instructions","","","","","","","","","","","","","","","","","","","","","","","",""
"4169","","image-button-response_instructions","12","113210","0.0-12.0","A21J4SY5NBBDG6","img_art/ins/popularity/ins3ALikespop.png","0","instructions","","","","","","","","","","","","","","","","","","","","","","","",""
"10207","","image-button-response_instructions","13","123418","0.0-13.0","A21J4SY5NBBDG6","img_art/ins/popularity/ins3KEEPpop.PNG","0","instructions","","","","","","","","","","","","","","","","","","","","","","","",""
"4602","","image-button-response_instructions","14","128024","0.0-14.0","A21J4SY5NBBDG6","img_art/ins/popularity/ins3_5RED.png","0","instructions","","","","","","","","","","","","","","","","","","","","","","","",""
"3490","","image-button-response_instructions","15","131519","0.0-15.0","A21J4SY5NBBDG6","img_art/ins/popularity/ins3KEEPpop.PNG","0","instructions","","","","","","","","","","","","","","","","","","","","","","","",""
"6951","","image-button-response_instructions","16","138472","0.0-16.0","A21J4SY5NBBDG6","img_art/ins/popularity/ins4KEEPpop.PNG","0","instructions","","","","","","","","","","","","","","","","","","","","","","","",""
"7174","","image-button-response_instructions","17","145648","0.0-17.0","A21J4SY5NBBDG6","img_art/ins/popularity/ins5KEEPpop.PNG","0","instructions","","","","","","","","","","","","","","","","","","","","","","","",""
"2089","","image-button-response_instructions","18","147739","0.0-18.0","A21J4SY5NBBDG6","","0","instructions","","","","","","","","","","","","","","","","","","","","","","","",""
"9545","","survey-text","19","157337","0.0-19.0-0.0","A21J4SY5NBBDG6","","","","{""Q0"":""but""}","","","","","","","","","","","","","","","","","","","","","","",""
"24151","","survey-text","20","181493","0.0-20.0-0.0","A21J4SY5NBBDG6","","","","{""Q0"":""Brush work seem it took long time to paint""}","","","","","","","","","","","","","","","","","","","","","","",""
"4771.5","","image-slider-response","21","186269","0.0-21.0","A21J4SY5NBBDG6","","","","","30","","","","","","","","","","","","","","","","","","","","","",""
"null","","image-button-response","22","191275","0.0-22.0","A21J4SY5NBBDG6","img_art/ins/1.jpg","null","","","","","","","","","","","","","","","","","","","","","","","","",""
"2247","","image-button-response","23","193524","0.0-23.0","A21J4SY5NBBDG6","img_art/ins/1.jpg","1","","","","","","","","","","","","","","","","","","","","","","","","",""
"4766","","image-button-response","24","198294","0.0-24.0-0.0","A21J4SY5NBBDG6","img_art/ins/1.jpg","5","","","","","","","","","","","","","","","","","","","","","","","","",""
"1630","","image-button-response","25","199928","0.0-25.0-0.0","A21J4SY5NBBDG6","img_art/ins/1.jpg","3","","","","","","","","","","","","","","","","","","","","","","","","",""
"null","","html-keyboard-response","26","201433","0.0-26.0","A21J4SY5NBBDG6","<p style=""font-size: 48px;"">+</p>","","","","","null","allTrialResponses","1500","1","-2","img_art/ins/1.jpg","30","Brush work seem it took long time to paint","Adam,Alex,Ben,Carl,Daniel,Jack","Seems like doodles,-20,20,20","very creative work.,36,40,20","This color reminds me of poo,-46,60,20","very calming artwork,42,80,20","It looks like a murder scene.,-48,100,20","I like the sophisticated brushwork,40,120,20","Alex","very creative work.,36,40,20","Jack","I like the sophisticated brushwork,40,120,20","Carl","very calming artwork,42,80,20","0"
"14046","","survey-text","27","215493","0.0-27.0-0.0","A21J4SY5NBBDG6","","","","{""Q0"":""Colors are very eyecatching""}","","","","","","","","","","","","","","","","","","","","","","",""
"4486.299999952316","","image-slider-response","28","219984","0.0-28.0","A21J4SY5NBBDG6","","","","","33","","","","","","","","","","","","","","","","","","","","","",""
"3849","","image-button-response","29","225251","0.0-29.0","A21J4SY5NBBDG6","img_art/ins/2.jpg","3","","","","","","","","","","","","","","","","","","","","","","","","",""
"219","","image-button-response","30","225482","0.0-30.0","A21J4SY5NBBDG6","img_art/ins/2.jpg","4","","","","","","","","","","","","","","","","","","","","","","","","",""
"1642","","image-button-response","31","227127","0.0-31.0-0.0","A21J4SY5NBBDG6","img_art/ins/2.jpg","3","","","","","","","","","","","","","","","","","","","","","","","","",""
"1732","","image-button-response","32","228862","0.0-32.0-0.0","A21J4SY5NBBDG6","img_art/ins/2.jpg","5","","","","","","","","","","","","","","","","","","","","","","","","",""
"null","","html-keyboard-response","33","229376","0.0-33.0","A21J4SY5NBBDG6","<p style=""font-size: 48px;"">+</p>","","","","","null","allTrialResponses","500","1","-1","img_art/ins/2.jpg","33","Colors are very eyecatching","James,Alex,Kyle,Carl,John,Jack","looks too angry,-50,140,20","I like the blocks of color arrangements,30,40,20","Idk, it is just annoying,-32,180,20","I can feel the artist's passion in it,45,80,20","love the texture of paint,48,160,20","I would never be able to compose a sophisticated pallete like this,48,120,20","John","love the texture of paint,48,160,20","Carl","I can feel the artist's passion in it,45,80,20","Jack","I would never be able to compose a sophisticated pallete like this,48,120,20","0"
"9522","","survey-text","34","238910","0.0-34.0-0.0","A21J4SY5NBBDG6","","","","{""Q0"":""Reminds me of ocean""}","","","","","","","","","","","","","","","","","","","","","","",""
"6829.100000143051","","image-slider-response","35","245742","0.0-35.0","A21J4SY5NBBDG6","","","","","35","","","","","","","","","","","","","","","","","","","","","",""
"3259","","image-button-response","36","250837","0.0-36.0","A21J4SY5NBBDG6","img_art/ins/3.jpg","3","","","","","","","","","","","","","","","","","","","","","","","","",""
"788","","image-button-response","37","251635","0.0-37.0","A21J4SY5NBBDG6","img_art/ins/3.jpg","5","","","","","","","","","","","","","","","","","","","","","","","","",""
"545","","image-button-response","38","252183","0.0-38.0-0.0","A21J4SY5NBBDG6","img_art/ins/3.jpg","4","","","","","","","","","","","","","","","","","","","","","","","","",""
"522","","image-button-response","39","252708","0.0-39.0-0.0","A21J4SY5NBBDG6","img_art/ins/3.jpg","3","","","","","","","","","","","","","","","","","","","","","","","","",""
"null","","html-keyboard-response","40","253211","0.0-40.0","A21J4SY5NBBDG6","<p style=""font-size: 48px;"">+</p>","","","","","null","allTrialResponses","500","1","0","img_art/ins/3.jpg","35","Reminds me of ocean","Mike,Sam,Ron,Carl,John,Jack","enjoy the different shades of blue,22,200,20","I can feel a rainy day from this painting,18,240,20","It looks depressing,-26,220,20","It's an alright work,15,80,20","I like the overlapping of brushes,41,160,20","I feel connected to the artist,40,120,20","Jack","I feel connected to the artist,40,120,20","John","I like the overlapping of brushes,41,160,20","Carl","It's an alright work,15,80,20","0"
"4926","","image-button-response_instructions","41","258145","0.0-41.0","A21J4SY5NBBDG6","","0","instructions","","","","","","","","","","","","","","","","","","","","","","","",""
"27760","","survey-likert","42","285914","0.0-42.0-0.0","A21J4SY5NBBDG6","","","","{""Q0"":"""",""Q1"":0,""Q2"":1}","","","","","","","","","","","","","","","","","","","","","","",""
"4387","","survey-text","43","290310","0.0-43.0-0.0","A21J4SY5NBBDG6","","","","{""Q0"":""rock""}","","","","","","","","","","","","","","","","","","","","","","",""
"14863","","survey-text","44","305178","0.0-44.0-0.0","A21J4SY5NBBDG6","","","","{""Q0"":""Looks like a bunch of paint. not good""}","","","","","","","","","","","","","","","","","","","","","","",""
"6188.399999856949","","image-slider-response","45","311369","0.0-45.0","A21J4SY5NBBDG6","","","","","-45","","","","","","","","","","","","","","","","","","","","","",""
"4558","","image-button-response","46","316633","0.0-46.0","A21J4SY5NBBDG6","img_art/5.jpg","1","","","","","","","","","","","","","","","","","","","","","","","","",""
"1178","","image-button-response","47","317815","0.0-47.0","A21J4SY5NBBDG6","img_art/5.jpg","1","","","","","","","","","","","","","","","","","","","","","","","","",""
"2550","","image-button-response","48","320367","0.0-48.0-0.0","A21J4SY5NBBDG6","img_art/5.jpg","3","","","","","","","","","","","","","","","","","","","","","","","","",""
"4463","","image-button-response","49","324835","0.0-49.0-0.0","A21J4SY5NBBDG6","img_art/5.jpg","2","","","","","","","","","","","","","","","","","","","","","","","","",""
"null","","html-keyboard-response","50","326034","0.0-50.0","A21J4SY5NBBDG6","<p style=""font-size: 48px;"">+</p>","","","","","null","allTrialResponses","1000","1","1","img_art/5.jpg","-45","Looks like a bunch of paint. not good","Tyler,Spencer,Patrick,Marcus,Vincent,Jeffrey","Bright and luminous,31,320,20","Boring, no flow except the pink feathery band,-42,120,20","It looks random,-10,280,20","I really dislike this. It's ugly and looks dirty.,-44,60,20","It speaks volumes to some. It's also a conversational piece. And very different ideas,34,360,20","positive colours; yellow calls attention,6,40,20","Spencer","Boring, no flow except the pink feathery band,-42,120,20","Marcus","I really dislike this. It's ugly and looks dirty.,-44,60,20","Patrick","It looks random,-10,280,20","0"
"9864","","survey-text","51","335911","0.0-51.0-0.0","A21J4SY5NBBDG6","","","","{""Q0"":""Looks like a ghost""}","","","","","","","","","","","","","","","","","","","","","","",""
"6924.700000047684","","image-slider-response","52","342842","0.0-52.0","A21J4SY5NBBDG6","","","","","-24","","","","","","","","","","","","","","","","","","","","","",""
"null","","image-button-response","53","347851","0.0-53.0","A21J4SY5NBBDG6","img_art/3.jpg","null","","","","","","","","","","","","","","","","","","","","","","","","",""
"13308","","image-button-response","54","361161","0.0-54.0","A21J4SY5NBBDG6","img_art/3.jpg","1","","","","","","","","","","","","","","","","","","","","","","","","",""
"1592","","image-button-response","55","362759","0.0-55.0-0.0","A21J4SY5NBBDG6","img_art/3.jpg","0","","","","","","","","","","","","","","","","","","","","","","","","",""
"4756","","image-button-response","56","367519","0.0-56.0-0.0","A21J4SY5NBBDG6","img_art/3.jpg","5","","","","","","","","","","","","","","","","","","","","","","","","",""
"null","","html-keyboard-response","57","368106","0.0-57.0","A21J4SY5NBBDG6","<p style=""font-size: 48px;"">+</p>","","","","","null","allTrialResponses","500","1","2","img_art/3.jpg","-24","Looks like a ghost","Thomas,Spencer,Patrick,Marcus,Charles,John","Too messy and structure-less,-10,220,20","Scratchy scrawly all one color, looks like a mistake,-28,120,20","Random use of red and looks scary,-50,280,20","Like the colors and energy of this work.,10,60,20","I like that it feels kind of simple but still chaotic,6,100,20","Looks like someone spilled ketchup and forgot to clean it up,-30,120,20","Spencer","Scratchy scrawly all one color, looks like a mistake,-28,120,20","Thomas","Too messy and structure-less,-10,220,20","John","Looks like someone spilled ketchup and forgot to clean it up,-30,120,20","0"
"16829","","survey-text","58","384952","0.0-58.0-0.0","A21J4SY5NBBDG6","","","","{""Q0"":""A kid definitely drew this""}","","","","","","","","","","","","","","","","","","","","","","",""
"10196.899999856949","","image-slider-response","59","395151","0.0-59.0","A21J4SY5NBBDG6","","","","","-31","","","","","","","","","","","","","","","","","","","","","",""
"null","","image-button-response","60","400161","0.0-60.0","A21J4SY5NBBDG6","img_art/26.jpg","null","","","","","","","","","","","","","","","","","","","","","","","","",""
"22903","","image-button-response","61","423067","0.0-61.0","A21J4SY5NBBDG6","img_art/26.jpg","0","","","","","","","","","","","","","","","","","","","","","","","","",""
"1872","","image-button-response","62","424945","0.0-62.0-0.0","A21J4SY5NBBDG6","img_art/26.jpg","3","","","","","","","","","","","","","","","","","","","","","","","","",""
"2167","","image-button-response","63","427119","0.0-63.0-0.0","A21J4SY5NBBDG6","img_art/26.jpg","0","","","","","","","","","","","","","","","","","","","","","","","","",""
"2558","","image-button-response","64","433808","0.0-63.1-0.1","A21J4SY5NBBDG6","img_art/26.jpg","0","","","","","","","","","","","","","","","","","","","","","","","","",""
"4252","","image-button-response","65","443416","0.0-63.2-0.2","A21J4SY5NBBDG6","img_art/26.jpg","4","","","","","","","","","","","","","","","","","","","","","","","","",""
"null","","html-keyboard-response","66","443919","0.0-64.0","A21J4SY5NBBDG6","<p style=""font-size: 48px;"">+</p>","","","","","null","allTrialResponses","500","1","3","img_art/26.jpg","-31","A kid definitely drew this","Thomas,Spencer,Isaac,Anthony,Kyle,John","It feels almost unfinished, but I like the color palette,9,220,20","Really like it, a very nice neighborhood scene to me,42,120,20","I wish it were more pastel but I think it is relaxing to look at.,30,280,20","This picture doesn't really stand out.,0,200,20","This seems like a quiet painting,11,340,20","Its pretty.And a nice use of water colors.,25,120,20","Thomas","It feels almost unfinished, but I like the color palette,9,220,20","Anthony","This picture doesn't really stand out.,0,200,20","Kyle","This seems like a quiet painting,11,340,20","4"
"119338","","survey-text","67","563266","0.0-65.0-0.0","A21J4SY5NBBDG6","","","","{""Q0"":""Worst picture""}","","","","","","","","","","","","","","","","","","","","","","",""
"10135.799999952316","","image-slider-response","68","573411","0.0-66.0","A21J4SY5NBBDG6","","","","","-31","","","","","","","","","","","","","","","","","","","","","",""
"3011","","image-button-response","69","578439","0.0-67.0","A21J4SY5NBBDG6","img_art/11.jpg","1","","","","","","","","","","","","","","","","","","","","","","","","",""
"1216","","image-button-response","70","579658","0.0-68.0","A21J4SY5NBBDG6","img_art/11.jpg","4","","","","","","","","","","","","","","","","","","","","","","","","",""
"693","","image-button-response","71","580354","0.0-69.0-0.0","A21J4SY5NBBDG6","img_art/11.jpg","3","","","","","","","","","","","","","","","","","","","","","","","","",""
"2129","","image-button-response","72","582487","0.0-70.0-0.0","A21J4SY5NBBDG6","img_art/11.jpg","1","","","","","","","","","","","","","","","","","","","","","","","","",""
"null","","html-keyboard-response","73","582990","0.0-71.0","A21J4SY5NBBDG6","<p style=""font-size: 48px;"">+</p>","","","","","null","allTrialResponses","500","1","4","img_art/11.jpg","-31","Worst picture","Thomas,Kevin,James,Anthony,Kyle,Paul","Lovely. I could look at this for a really long time. I love the details and the composition.,40,220,20","Thats a creepy old rollercoasters abandoned,-2,320,20","I like dark colors.,31,380,20","The narrow groups of lines in the center make me feel uneasy for some reason,-31,200,20","Reminds me of a city on a grey/rainy winter's day,25,340,20","I like how it reminds me of music and at the same time it looks like colorful train tracks.,10,300,20","Kyle","Reminds me of a city on a grey/rainy winter's day,25,340,20","Anthony","The narrow groups of lines in the center make me feel uneasy for some reason,-31,200,20","Kevin","Thats a creepy old rollercoasters abandoned,-2,320,20","4"
"11317","","survey-text","74","594314","0.0-72.0-0.0","A21J4SY5NBBDG6","","","","{""Q0"":""Detailling is good""}","","","","","","","","","","","","","","","","","","","","","","",""
"11271.599999904633","","image-slider-response","75","605588","0.0-73.0","A21J4SY5NBBDG6","","","","","23","","","","","","","","","","","","","","","","","","","","","",""
"null","","image-button-response","76","610594","0.0-74.0","A21J4SY5NBBDG6","img_art/18.jpg","null","","","","","","","","","","","","","","","","","","","","","","","","",""
"25722","","image-button-response","77","636321","0.0-75.0","A21J4SY5NBBDG6","img_art/18.jpg","4","","","","","","","","","","","","","","","","","","","","","","","","",""
"606","","image-button-response","78","636931","0.0-76.0-0.0","A21J4SY5NBBDG6","img_art/18.jpg","3","","","","","","","","","","","","","","","","","","","","","","","","",""
"2477","","image-button-response","79","639411","0.0-77.0-0.0","A21J4SY5NBBDG6","img_art/18.jpg","3","","","","","","","","","","","","","","","","","","","","","","","","",""
"898","","image-button-response","80","643338","0.0-77.1-0.1","A21J4SY5NBBDG6","img_art/18.jpg","1","","","","","","","","","","","","","","","","","","","","","","","","",""
"null","","html-keyboard-response","81","644853","0.0-78.0","A21J4SY5NBBDG6","<p style=""font-size: 48px;"">+</p>","","","","","null","allTrialResponses","1500","1","5","img_art/18.jpg","23","Detailling is good","Dalton,Kevin,Aaron,Anthony,Kyle,Austin","i like the colors in the picture and can make out my own images,42,300,20","Pirate ship in stormy seas before it sank.,11,320,20","I could spend a long time looking at it and see different things in the shapes.,21,20,20","I have no strong feelings about this image,1,200,20","I feel indifferent about this one,0,340,20","Nice abstract art,50,240,20","Kyle","I feel indifferent about this one,0,340,20","Anthony","I have no strong feelings about this image,1,200,20","Kevin","Pirate ship in stormy seas before it sank.,11,320,20","6"
"9001","","survey-text","82","653878","0.0-79.0-0.0","A21J4SY5NBBDG6","","","","{""Q0"":""sky""}","","","","","","","","","","","","","","","","","","","","","","",""
"11735","","survey-text","83","665618","0.0-80.0-0.0","A21J4SY5NBBDG6","","","","{""Q0"":""looks funny""}","","","","","","","","","","","","","","","","","","","","","","",""
"6093.299999952316","","image-slider-response","84","671714","0.0-81.0","A21J4SY5NBBDG6","","","","","-33","","","","","","","","","","","","","","","","","","","","","",""
"4981","","image-button-response","85","676717","0.0-82.0","A21J4SY5NBBDG6","img_art/17.jpg","3","","","","","","","","","","","","","","","","","","","","","","","","",""
"1186","","image-button-response","86","677906","0.0-83.0","A21J4SY5NBBDG6","img_art/17.jpg","0","","","","","","","","","","","","","","","","","","","","","","","","",""
"864","","image-button-response","87","678774","0.0-84.0-0.0","A21J4SY5NBBDG6","img_art/17.jpg","1","","","","","","","","","","","","","","","","","","","","","","","","",""
"2159","","image-button-response","88","680941","0.0-85.0-0.0","A21J4SY5NBBDG6","img_art/17.jpg","2","","","","","","","","","","","","","","","","","","","","","","","","",""
"null","","html-keyboard-response","89","681448","0.0-86.0","A21J4SY5NBBDG6","<p style=""font-size: 48px;"">+</p>","","","","","null","allTrialResponses","500","1","6","img_art/17.jpg","-33","looks funny","Blake,Kevin,William,Anthony,Kyle,Elijah","soft and warm light colors are relaxing,12,280,20","Some new perm we got there.,12,320,20","love the wispyness of it,34,380,20","Very elegant, this design reminds me of trees,31,200,20","I like the use of color in this and how you can actually see shapes form. Seems thoughtful,22,340,20","Very cool, makes me feel calm,43,80,20","Blake","soft and warm light colors are relaxing,12,280,20","Kevin","Some new perm we got there.,12,320,20","William","love the wispyness of it,34,380,20","6"
"15685","","survey-text","90","697139","0.0-87.0-0.0","A21J4SY5NBBDG6","","","","{""Q0"":""1st grade kid drawing ""}","","","","","","","","","","","","","","","","","","","","","","",""
"6800.099999904633","","image-slider-response","91","703945","0.0-88.0","A21J4SY5NBBDG6","","","","","-34","","","","","","","","","","","","","","","","","","","","","",""
"null","","image-button-response","92","708950","0.0-89.0","A21J4SY5NBBDG6","img_art/2.jpg","null","","","","","","","","","","","","","","","","","","","","","","","","",""
"15731","","image-button-response","93","724683","0.0-90.0","A21J4SY5NBBDG6","img_art/2.jpg","1","","","","","","","","","","","","","","","","","","","","","","","","",""
"1293","","image-button-response","94","725980","0.0-91.0-0.0","A21J4SY5NBBDG6","img_art/2.jpg","0","","","","","","","","","","","","","","","","","","","","","","","","",""
"3484","","image-button-response","95","729467","0.0-92.0-0.0","A21J4SY5NBBDG6","img_art/2.jpg","3","","","","","","","","","","","","","","","","","","","","","","","","",""
"null","","html-keyboard-response","96","730078","0.0-93.0","A21J4SY5NBBDG6","<p style=""font-size: 48px;"">+</p>","","","","","null","allTrialResponses","500","1","7","img_art/2.jpg","-34","1st grade kid drawing ","Blake,Kevin,William,Dakota,Steven,Jack","ugly green color and makes me sick,-29,280,20","That looks look a cartoon character of some kind.,11,320,20","I like the colors,22,380,20","active and kinetic- simplified,14,280,20","I can't get past the fact that it looks like someone wearing a mask,-46,160,20","the colors are a bit odd, and the squiggly line at the top is distracting,0,320,20","Kevin","That looks look a cartoon character of some kind.,11,320,20","Blake","ugly green color and makes me sick,-29,280,20","Dakota","active and kinetic- simplified,14,280,20","6"
"27350","","survey-text","97","757443","0.0-94.0-0.0","A21J4SY5NBBDG6","","","","{""Q0"":""Colors are beautiful""}","","","","","","","","","","","","","","","","","","","","","","",""
"35330","","image-slider-response","98","792775","0.0-95.0","A21J4SY5NBBDG6","","","","","17","","","","","","","","","","","","","","","","","","","","","",""
"4290","","image-button-response","99","797779","0.0-96.0","A21J4SY5NBBDG6","img_art/14.jpg","3","","","","","","","","","","","","","","","","","","","","","","","","",""
"866","","image-button-response","100","798651","0.0-97.0","A21J4SY5NBBDG6","img_art/14.jpg","5","","","","","","","","","","","","","","","","","","","","","","","","",""
"924","","image-button-response","101","799578","0.0-98.0-0.0","A21J4SY5NBBDG6","img_art/14.jpg","2","","","","","","","","","","","","","","","","","","","","","","","","",""
"1486","","image-button-response","102","801067","0.0-99.0-0.0","A21J4SY5NBBDG6","img_art/14.jpg","1","","","","","","","","","","","","","","","","","","","","","","","","",""
"null","","html-keyboard-response","103","801572","0.0-100.0","A21J4SY5NBBDG6","<p style=""font-size: 48px;"">+</p>","","","","","null","allTrialResponses","500","1","8","img_art/14.jpg","17","Colors are beautiful","Blake,Kevin,Timothy,Dakota,Christian,Mitchell","fuzzy and confused. ok then well,16,280,20","The pirates ship is sinking.,27,320,20","Something about the cahotic imagery makes me uncomfortable,-15,240,20","feels incomplete, poorly planned/executed,-34,280,20","medium recalls back to an oriental style,16,140,20","Tornado, nature. trees falling and displaced creatures. Love the colors though.,1,180,20","Mitchell","Tornado, nature. trees falling and displaced creatures. Love the colors though.,1,180,20","Timothy","Something about the cahotic imagery makes me uncomfortable,-15,240,20","Kevin","The pirates ship is sinking.,27,320,20","6"
"14515","","survey-text","104","816094","0.0-101.0-0.0","A21J4SY5NBBDG6","","","","{""Q0"":""Extraordinary""}","","","","","","","","","","","","","","","","","","","","","","",""
"3920.800000190735","","image-slider-response","105","820018","0.0-102.0","A21J4SY5NBBDG6","","","","","21","","","","","","","","","","","","","","","","","","","","","",""
"null","","image-button-response","106","825102","0.0-103.0","A21J4SY5NBBDG6","img_art/8.jpg","null","","","","","","","","","","","","","","","","","","","","","","","","",""
"8515","","image-button-response","107","833621","0.0-104.0","A21J4SY5NBBDG6","img_art/8.jpg","3","","","","","","","","","","","","","","","","","","","","","","","","",""
"14268","","image-button-response","108","847892","0.0-105.0-0.0","A21J4SY5NBBDG6","img_art/8.jpg","1","","","","","","","","","","","","","","","","","","","","","","","","",""
"1741","","image-button-response","109","849637","0.0-106.0-0.0","A21J4SY5NBBDG6","img_art/8.jpg","0","","","","","","","","","","","","","","","","","","","","","","","","",""
"null","","html-keyboard-response","110","850148","0.0-107.0","A21J4SY5NBBDG6","<p style=""font-size: 48px;"">+</p>","","","","","null","allTrialResponses","500","1","9","img_art/8.jpg","21","Extraordinary","Devon,Kevin,Timothy,Alejandro,Angel,Mitchell","wow - the colors were very well mixed,12,400,20","Now that one is wild. Looks like maybe mother nature isnt happy.,28,320,20","Too much going on, too many colors, makes me feel uneasy,-20,240,20","i like the abstract nature of a birds eye view of the city. The hard shapes and squares present with a softness rather than rigidity.,26,80,20","The angle makes it kind of disorienting but I enjoy the fantastical colors and imagery. It's like a dream.,10,180,20","Lost in a big city confuse as to where to go to next. No matter if you live in a mansion or homeless. Being bigger than what is going on around you,30,180,20","Alejandro","i like the abstract nature of a birds eye view of the city. The hard shapes and squares present with a softness rather than rigidity.,26,80,20","Kevin","Now that one is wild. Looks like maybe mother nature isnt happy.,28,320,20","Devon","wow - the colors were very well mixed,12,400,20","6"
"18274","","survey-text","111","868437","0.0-108.0-0.0","A21J4SY5NBBDG6","","","","{""Q0"":""Images make me calming""}","","","","","","","","","","","","","","","","","","","","","","",""
"4996.400000095367","","image-slider-response","112","873441","0.0-109.0","A21J4SY5NBBDG6","","","","","20","","","","","","","","","","","","","","","","","","","","","",""
"4416","","image-button-response","113","878445","0.0-110.0","A21J4SY5NBBDG6","img_art/13.jpg","0","","","","","","","","","","","","","","","","","","","","","","","","",""
"1173","","image-button-response","114","879620","0.0-111.0","A21J4SY5NBBDG6","img_art/13.jpg","4","","","","","","","","","","","","","","","","","","","","","","","","",""
"830","","image-button-response","115","880452","0.0-112.0-0.0","A21J4SY5NBBDG6","img_art/13.jpg","1","","","","","","","","","","","","","","","","","","","","","","","","",""
"1276","","image-button-response","116","881732","0.0-113.0-0.0","A21J4SY5NBBDG6","img_art/13.jpg","3","","","","","","","","","","","","","","","","","","","","","","","","",""
"null","","html-keyboard-response","117","882734","0.0-114.0","A21J4SY5NBBDG6","<p style=""font-size: 48px;"">+</p>","","","","","null","allTrialResponses","1000","1","10","img_art/13.jpg","20","Images make me calming","Devon,Kevin,Mason,Alejandro,Juan,Malik","I like this picture. The choice of colors are good,31,400,20","Debree on top of a calm pond.,18,320,20","meh, 80's. retro,-9,100,20","Reminiscent of Jackson Pollock and gives me a feeling of chaotic satisfaction,50,80,20","I love the colors and the contrast between the different blues.,21,260,20","Gorgeous contrast and color choice, very pleasing,50,40,20","Juan","I love the colors and the contrast between the different blues.,21,260,20","Kevin","Debree on top of a calm pond.,18,320,20","Alejandro","Reminiscent of Jackson Pollock and gives me a feeling of chaotic satisfaction,50,80,20","6"
"23378","","survey-text","118","906124","0.0-115.0-0.0","A21J4SY5NBBDG6","","","","{""Q0"":""our""}","","","","","","","","","","","","","","","","","","","","","","",""
"19557","","survey-text","119","925683","0.0-116.0-0.0","A21J4SY5NBBDG6","","","","{""Q0"":""Brush strokes are great""}","","","","","","","","","","","","","","","","","","","","","","",""
"4814.899999856949","","image-slider-response","120","930501","0.0-117.0","A21J4SY5NBBDG6","","","","","15","","","","","","","","","","","","","","","","","","","","","",""
"null","","image-button-response","121","935550","0.0-118.0","A21J4SY5NBBDG6","img_art/30.jpg","null","","","","","","","","","","","","","","","","","","","","","","","","",""
"10464","","image-button-response","122","946021","0.0-119.0","A21J4SY5NBBDG6","img_art/30.jpg","1","","","","","","","","","","","","","","","","","","","","","","","","",""
"870","","image-button-response","123","946895","0.0-120.0-0.0","A21J4SY5NBBDG6","img_art/30.jpg","0","","","","","","","","","","","","","","","","","","","","","","","","",""
"1791","","image-button-response","124","948691","0.0-121.0-0.0","A21J4SY5NBBDG6","img_art/30.jpg","4","","","","","","","","","","","","","","","","","","","","","","","","",""
"null","","html-keyboard-response","125","949309","0.0-122.0","A21J4SY5NBBDG6","<p style=""font-size: 48px;"">+</p>","","","","","null","allTrialResponses","500","1","11","img_art/30.jpg","15","Brush strokes are great","Antonio,Kevin,Tristan,Alejandro,Juan,Connor","Fear. It looks like snakes in the picture,13,220,20","Some people dancing.,-7,320,20","Too much abstraction for me, leaving my focus mainly on color. I like the texture.,-20,300,20","An interesting design but don't like the colors. I value the time and effort put into it, but not a huge fan.,10,80,20","I like the red against the blue, but otherwise, it's not really my taste,4,260,20","Layers are interesting,22,240,20","Kevin","Some people dancing.,-7,320,20","Antonio","Fear. It looks like snakes in the picture,13,220,20","Juan","I like the red against the blue, but otherwise, it's not really my taste,4,260,20","6"
"15959","","survey-text","126","965277","0.0-123.0-0.0","A21J4SY5NBBDG6","","","","{""Q0"":""Worst picture i have seen""}","","","","","","","","","","","","","","","","","","","","","","",""
"4928.799999952316","","image-slider-response","127","970208","0.0-124.0","A21J4SY5NBBDG6","","","","","16","","","","","","","","","","","","","","","","","","","","","",""
"null","","image-button-response","128","975217","0.0-125.0","A21J4SY5NBBDG6","img_art/7.jpg","null","","","","","","","","","","","","","","","","","","","","","","","","",""
"5577","","image-button-response","129","980797","0.0-126.0","A21J4SY5NBBDG6","img_art/7.jpg","1","","","","","","","","","","","","","","","","","","","","","","","","",""
"1185","","image-button-response","130","981986","0.0-127.0-0.0","A21J4SY5NBBDG6","img_art/7.jpg","3","","","","","","","","","","","","","","","","","","","","","","","","",""
"839","","image-button-response","131","982830","0.0-128.0-0.0","A21J4SY5NBBDG6","img_art/7.jpg","4","","","","","","","","","","","","","","","","","","","","","","","","",""
"null","","html-keyboard-response","132","984332","0.0-129.0","A21J4SY5NBBDG6","<p style=""font-size: 48px;"">+</p>","","","","","null","allTrialResponses","1500","1","12","img_art/7.jpg","16","Worst picture i have seen","Antonio,Kevin,Hunter,Jesse,Juan,Cody","Looks like dirt on the ground. Makes me feel unclean,-37,220,20","That a desert floor,16,320,20","textures are engaging,8,240,20","Makes me think of the beach which makes me happy,14,80,20","This is borning and lifeless.,-50,260,20","Cool, makes me think of archeology,15,180,20","Kevin","That a desert floor,16,320,20","Jesse","Makes me think of the beach which makes me happy,14,80,20","Juan","This is borning and lifeless.,-50,260,20","6"
"20937","","survey-text","133","1005277","0.0-130.0-0.0","A21J4SY5NBBDG6","","","","{""Q0"":""Looks like a black poo""}","","","","","","","","","","","","","","","","","","","","","","",""
"10804.899999856949","","image-slider-response","134","1016084","0.0-131.0","A21J4SY5NBBDG6","","","","","-41","","","","","","","","","","","","","","","","","","","","","",""
"null","","image-button-response","135","1021091","0.0-132.0","A21J4SY5NBBDG6","img_art/29.jpg","null","","","","","","","","","","","","","","","","","","","","","","","","",""
"1475","","image-button-response","136","1022569","0.0-133.0","A21J4SY5NBBDG6","img_art/29.jpg","4","","","","","","","","","","","","","","","","","","","","","","","","",""
"827","","image-button-response","137","1023410","0.0-134.0-0.0","A21J4SY5NBBDG6","img_art/29.jpg","1","","","","","","","","","","","","","","","","","","","","","","","","",""
"1049","","image-button-response","138","1024462","0.0-135.0-0.0","A21J4SY5NBBDG6","img_art/29.jpg","3","","","","","","","","","","","","","","","","","","","","","","","","",""
"null","","html-keyboard-response","139","1025979","0.0-136.0","A21J4SY5NBBDG6","<p style=""font-size: 48px;"">+</p>","","","","","null","allTrialResponses","1500","1","13","img_art/29.jpg","-41","Looks like a black poo","Trevor,Kevin,Scott,Jesse,Juan,Alexis","It's too on trend with the gray and doesn't look like a lasting piece,-4,280,20","Thats a pretty wierd picture.,6,320,20","feels random and not thoughtout,-37,20,20","Grabs interest but then confuses me,6,80,20","I hate the red x over everything, hate the black hate how hopeless this is.,-50,260,20","I like that it looks like a scene from perhaps a failed painted project,10,140,20","Juan","I hate the red x over everything, hate the black hate how hopeless this is.,-50,260,20","Kevin","Thats a pretty wierd picture.,6,320,20","Jesse","Grabs interest but then confuses me,6,80,20","6"
"12946","","survey-text","140","1038936","0.0-137.0-0.0","A21J4SY5NBBDG6","","","","{""Q0"":""Kids will be afraid seeing this""}","","","","","","","","","","","","","","","","","","","","","","",""
"4182.799999952316","","image-slider-response","141","1043121","0.0-138.0","A21J4SY5NBBDG6","","","","","-30","","","","","","","","","","","","","","","","","","","","","",""
"null","","image-button-response","142","1048128","0.0-139.0","A21J4SY5NBBDG6","img_art/16.jpg","null","","","","","","","","","","","","","","","","","","","","","","","","",""
"1259","","image-button-response","143","1049390","0.0-140.0","A21J4SY5NBBDG6","img_art/16.jpg","1","","","","","","","","","","","","","","","","","","","","","","","","",""
"3918","","image-button-response","144","1053312","0.0-141.0-0.0","A21J4SY5NBBDG6","img_art/16.jpg","0","","","","","","","","","","","","","","","","","","","","","","","","",""
"1931","","image-button-response","145","1055246","0.0-142.0-0.0","A21J4SY5NBBDG6","img_art/16.jpg","3","","","","","","","","","","","","","","","","","","","","","","","","",""
"null","","html-keyboard-response","146","1055864","0.0-143.0","A21J4SY5NBBDG6","<p style=""font-size: 48px;"">+</p>","","","","","null","allTrialResponses","500","1","14","img_art/16.jpg","-30","Kids will be afraid seeing this","Seth,Kevin,Daniel,Jesse,Juan,Justin","This one isn't for me. It came off as strange but not in a good way.,-44,60,20","Hmm i don't know what going on here.,1,320,20","Ugly, broken up and mismatched,-50,320,20","I dont feel any real response,5,80,20","This is too bizarre.,-39,260,20","Kind of dull, colors and drawings are not really interesting.,0,280,20","Kevin","Hmm i don't know what going on here.,1,320,20","Seth","This one isn't for me. It came off as strange but not in a good way.,-44,60,20","Jesse","I dont feel any real response,5,80,20","6"
"12914","","survey-text","147","1068810","0.0-144.0-0.0","A21J4SY5NBBDG6","","","","{""Q0"":""Great work""}","","","","","","","","","","","","","","","","","","","","","","",""
"5487.300000190735","","image-slider-response","148","1074301","0.0-145.0","A21J4SY5NBBDG6","","","","","24","","","","","","","","","","","","","","","","","","","","","",""
"null","","image-button-response","149","1079305","0.0-146.0","A21J4SY5NBBDG6","img_art/21.jpg","null","","","","","","","","","","","","","","","","","","","","","","","","",""
"843","","image-button-response","150","1080150","0.0-147.0","A21J4SY5NBBDG6","img_art/21.jpg","4","","","","","","","","","","","","","","","","","","","","","","","","",""
"911","","image-button-response","151","1081065","0.0-148.0-0.0","A21J4SY5NBBDG6","img_art/21.jpg","3","","","","","","","","","","","","","","","","","","","","","","","","",""
"1458","","image-button-response","152","1082526","0.0-149.0-0.0","A21J4SY5NBBDG6","img_art/21.jpg","1","","","","","","","","","","","","","","","","","","","","","","","","",""
"null","","html-keyboard-response","153","1083062","0.0-150.0","A21J4SY5NBBDG6","<p style=""font-size: 48px;"">+</p>","","","","","null","allTrialResponses","500","1","15","img_art/21.jpg","24","Great work","Seth,Kevin,Sean,Jesse,Brian,Jeremy","Makes me feel light and airy. Like I've gone back in time to 1700th century France.,43,60,20","Another ship on fire.,-10,320,20","my response to the picture is what is going on?,-13,40,20","I dont like how nothing is defined and the colors dont work for me,-5,80,20","there's not enough fine detail in this one,-27,380,20","the picture is boring,1,60,20","Brian","there's not enough fine detail in this one,-27,380,20","Jesse","I dont like how nothing is defined and the colors dont work for me,-5,80,20","Kevin","Another ship on fire.,-10,320,20","6"
"4208","","survey-text","154","1087310","0.0-151.0-0.0","A21J4SY5NBBDG6","","","","{""Q0"":""course""}","","","","","","","","","","","","","","","","","","","","","","",""
"17301","","survey-text","155","1104613","0.0-152.0-0.0","A21J4SY5NBBDG6","","","","{""Q0"":""looks like a drawing of desert""}","","","","","","","","","","","","","","","","","","","","","","",""
"4865.899999856949","","image-slider-response","156","1109482","0.0-153.0","A21J4SY5NBBDG6","","","","","11","","","","","","","","","","","","","","","","","","","","","",""
"null","","image-button-response","157","1114487","0.0-154.0","A21J4SY5NBBDG6","img_art/6.jpg","null","","","","","","","","","","","","","","","","","","","","","","","","",""
"1027","","image-button-response","158","1115517","0.0-155.0","A21J4SY5NBBDG6","img_art/6.jpg","0","","","","","","","","","","","","","","","","","","","","","","","","",""
"1086","","image-button-response","159","1116607","0.0-156.0-0.0","A21J4SY5NBBDG6","img_art/6.jpg","3","","","","","","","","","","","","","","","","","","","","","","","","",""
"1196","","image-button-response","160","1117807","0.0-157.0-0.0","A21J4SY5NBBDG6","img_art/6.jpg","4","","","","","","","","","","","","","","","","","","","","","","","","",""
"null","","html-keyboard-response","161","1119310","0.0-158.0","A21J4SY5NBBDG6","<p style=""font-size: 48px;"">+</p>","","","","","null","allTrialResponses","1500","1","16","img_art/6.jpg","11","looks like a drawing of desert","Tanner,Kevin,Mark,Jesse,Brian,Victor","loneliness, fragile, forever alone, a girl who's been there for eternity, only think tracking time is the length of her hair,9,180,20","Its the headless bird. But why?,21,320,20","So forlorn, and beauty amid desolation.,25,80,20","Nothing grabs at me here,-11,80,20","this is too simple for me,-34,380,20","The background on the upper half is nice. I also like the contrast of the top and bottom halves,5,340,20","Tanner","loneliness, fragile, forever alone, a girl who's been there for eternity, only think tracking time is the length of her hair,9,180,20","Jesse","Nothing grabs at me here,-11,80,20","Brian","this is too simple for me,-34,380,20","6"
"22774","","survey-text","162","1142093","0.0-159.0-0.0","A21J4SY5NBBDG6","","","","{""Q0"":""Want to show my middle finger to this painting""}","","","","","","","","","","","","","","","","","","","","","","",""
"3502.4000000953674","","image-slider-response","163","1145598","0.0-160.0","A21J4SY5NBBDG6","","","","","-50","","","","","","","","","","","","","","","","","","","","","",""
"2950","","image-button-response","164","1150618","0.0-161.0","A21J4SY5NBBDG6","img_art/19.jpg","1","","","","","","","","","","","","","","","","","","","","","","","","",""
"994","","image-button-response","165","1151615","0.0-162.0","A21J4SY5NBBDG6","img_art/19.jpg","3","","","","","","","","","","","","","","","","","","","","","","","","",""
"1001","","image-button-response","166","1152620","0.0-163.0-0.0","A21J4SY5NBBDG6","img_art/19.jpg","1","","","","","","","","","","","","","","","","","","","","","","","","",""
"1191","","image-button-response","167","1153815","0.0-164.0-0.0","A21J4SY5NBBDG6","img_art/19.jpg","0","","","","","","","","","","","","","","","","","","","","","","","","",""
"null","","html-keyboard-response","168","1155320","0.0-165.0","A21J4SY5NBBDG6","<p style=""font-size: 48px;"">+</p>","","","","","null","allTrialResponses","1500","1","17","img_art/19.jpg","-50","Want to show my middle finger to this painting","Tanner,Kenneth,Shawn,Jesse,Brian,Alexander","city, stress of urbanism, slightly panicked,2,180,20","TOo much brown.,-24,300,20","The use of space isn't my favorite.,-20,100,20","I dont like the smudge effect,-7,80,20","I like this style but don't really like the specific setting of the landscape,-7,380,20","Messy pantry full of food.,5,120,20","Jesse","I dont like the smudge effect,-7,80,20","Kenneth","TOo much brown.,-24,300,20","Tanner","city, stress of urbanism, slightly panicked,2,180,20","6"
"18973","","survey-text","169","1174302","0.0-166.0-0.0","A21J4SY5NBBDG6","","","","{""Q0"":""Ghost in drawing""}","","","","","","","","","","","","","","","","","","","","","","",""
"3540.600000143051","","image-slider-response","170","1177846","0.0-167.0","A21J4SY5NBBDG6","","","","","-20","","","","","","","","","","","","","","","","","","","","","",""
"null","","image-button-response","171","1182865","0.0-168.0","A21J4SY5NBBDG6","img_art/28.jpg","null","","","","","","","","","","","","","","","","","","","","","","","","",""
"804","","image-button-response","172","1183671","0.0-169.0","A21J4SY5NBBDG6","img_art/28.jpg","0","","","","","","","","","","","","","","","","","","","","","","","","",""
"1348","","image-button-response","173","1185023","0.0-170.0-0.0","A21J4SY5NBBDG6","img_art/28.jpg","4","","","","","","","","","","","","","","","","","","","","","","","","",""
"824","","image-button-response","174","1185855","0.0-171.0-0.0","A21J4SY5NBBDG6","img_art/28.jpg","3","","","","","","","","","","","","","","","","","","","","","","","","",""
"null","","html-keyboard-response","175","1186904","0.0-172.0","A21J4SY5NBBDG6","<p style=""font-size: 48px;"">+</p>","","","","","null","allTrialResponses","1000","1","18","img_art/28.jpg","-20","Ghost in drawing","Tanner,Kenneth,Adam,Jesse,Jorge,Samuel","almost reminds me of thomas becket getting his head cut off,21,180,20","This one is too bleak, not a fan of the image or colors.,-28,300,20","Dislike the colors.,-20,40,20","Just all blurs together for me. No substance.,-23,80,20","nostalgic from a memory,11,180,20","conversating means hope,15,400,20","Tanner","almost reminds me of thomas becket getting his head cut off,21,180,20","Jorge","nostalgic from a memory,11,180,20","Jesse","Just all blurs together for me. No substance.,-23,80,20","6"
"15383","","survey-text","176","1202303","0.0-173.0-0.0","A21J4SY5NBBDG6","","","","{""Q0"":""Random dots using different colors""}","","","","","","","","","","","","","","","","","","","","","","",""
"3957.2000000476837","","image-slider-response","177","1206263","0.0-174.0","A21J4SY5NBBDG6","","","","","-30","","","","","","","","","","","","","","","","","","","","","",""
"null","","image-button-response","178","1211265","0.0-175.0","A21J4SY5NBBDG6","img_art/23.jpg","null","","","","","","","","","","","","","","","","","","","","","","","","",""
"2241","","image-button-response","179","1213508","0.0-176.0","A21J4SY5NBBDG6","img_art/23.jpg","0","","","","","","","","","","","","","","","","","","","","","","","","",""
"1710","","image-button-response","180","1215222","0.0-177.0-0.0","A21J4SY5NBBDG6","img_art/23.jpg","1","","","","","","","","","","","","","","","","","","","","","","","","",""
"1768","","image-button-response","181","1216994","0.0-178.0-0.0","A21J4SY5NBBDG6","img_art/23.jpg","2","","","","","","","","","","","","","","","","","","","","","","","","",""
"null","","html-keyboard-response","182","1217997","0.0-179.0","A21J4SY5NBBDG6","<p style=""font-size: 48px;"">+</p>","","","","","null","allTrialResponses","1000","1","19","img_art/23.jpg","-30","Random dots using different colors","Tanner,Jonathan,Jared,Jesse,Jorge,Jesus","fsiries, happy, spiritual,16,180,20","Those colors are awesome! And I love the strip of negative space that almost looks like a line of people,50,140,20","it makes me aggitated,-21,400,20","Makes me want to stare at it for hours. Like there is something deeper to find.,37,80,20","puzzled with curiosity,31,180,20","The usage of color is great, but not my style.,-15,100,20","Tanner","fsiries, happy, spiritual,16,180,20","Jonathan","Those colors are awesome! And I love the strip of negative space that almost looks like a line of people,50,140,20","Jared","it makes me aggitated,-21,400,20","6"
"12664","","survey-text","183","1230671","0.0-180.0-0.0","A21J4SY5NBBDG6","","","","{""Q0"":""Difficult to process""}","","","","","","","","","","","","","","","","","","","","","","",""
"4637.200000047684","","image-slider-response","184","1235311","0.0-181.0","A21J4SY5NBBDG6","","","","","15","","","","","","","","","","","","","","","","","","","","","",""
"null","","image-button-response","185","1240314","0.0-182.0","A21J4SY5NBBDG6","img_art/10.jpg","null","","","","","","","","","","","","","","","","","","","","","","","","",""
"1146","","image-button-response","186","1241463","0.0-183.0","A21J4SY5NBBDG6","img_art/10.jpg","5","","","","","","","","","","","","","","","","","","","","","","","","",""
"877","","image-button-response","187","1242344","0.0-184.0-0.0","A21J4SY5NBBDG6","img_art/10.jpg","4","","","","","","","","","","","","","","","","","","","","","","","","",""
"1219","","image-button-response","188","1243568","0.0-185.0-0.0","A21J4SY5NBBDG6","img_art/10.jpg","1","","","","","","","","","","","","","","","","","","","","","","","","",""
"null","","html-keyboard-response","189","1244072","0.0-186.0","A21J4SY5NBBDG6","<p style=""font-size: 48px;"">+</p>","","","","","null","allTrialResponses","500","1","20","img_art/10.jpg","15","Difficult to process","Tanner,Jonathan,Jared,Joseph,Noah,Luis","music, serenity, love,33,180,20","Too much negative space makes it feel unfinished,-25,140,20","it just doesnt appeal to me.,-10,400,20","The loop type thing reminds me of interconnectedness and life and hope.,12,220,20","not sure what to make of this one,0,260,20","I love the dark and edgy nature of this,50,400,20","Luis","I love the dark and edgy nature of this,50,400,20","Noah","not sure what to make of this one,0,260,20","Jonathan","Too much negative space makes it feel unfinished,-25,140,20","6"
"3283","","survey-text","190","1247368","0.0-187.0-0.0","A21J4SY5NBBDG6","","","","{""Q0"":""we""}","","","","","","","","","","","","","","","","","","","","","","",""
"20643","","survey-text","191","1268015","0.0-188.0-0.0","A21J4SY5NBBDG6","","","","{""Q0"":""one of the worst drawing""}","","","","","","","","","","","","","","","","","","","","","","",""
"3797.300000190735","","image-slider-response","192","1271815","0.0-189.0","A21J4SY5NBBDG6","","","","","-23","","","","","","","","","","","","","","","","","","","","","",""
"4135","","image-button-response","193","1276996","0.0-190.0","A21J4SY5NBBDG6","img_art/9.jpg","0","","","","","","","","","","","","","","","","","","","","","","","","",""
"1508","","image-button-response","194","1278505","0.0-191.0","A21J4SY5NBBDG6","img_art/9.jpg","0","","","","","","","","","","","","","","","","","","","","","","","","",""
"965","","image-button-response","195","1279520","0.0-192.0-0.0","A21J4SY5NBBDG6","img_art/9.jpg","3","","","","","","","","","","","","","","","","","","","","","","","","",""
"1375","","image-button-response","196","1280899","0.0-193.0-0.0","A21J4SY5NBBDG6","img_art/9.jpg","4","","","","","","","","","","","","","","","","","","","","","","","","",""
"null","","html-keyboard-response","197","1282414","0.0-194.0","A21J4SY5NBBDG6","<p style=""font-size: 48px;"">+</p>","","","","","null","allTrialResponses","1500","1","21","img_art/9.jpg","-23","one of the worst drawing","Chase,Jonathan,Bryce,Cole,Noah,Luis","Looks like a sloppy iguana.,-11,120,20","It's peaceful and relaxing,24,140,20","Looks like a crayon drawing.,21,20,20","I see a foot. Idk colors are pleasant,12,200,20","while I don't dispute the art, it feels childish,-20,260,20","Calming and relaxing,42,400,20","Chase","Looks like a sloppy iguana.,-11,120,20","Cole","I see a foot. Idk colors are pleasant,12,200,20","Noah","while I don't dispute the art, it feels childish,-20,260,20","6"
"8961","","survey-text","198","1291392","0.0-195.0-0.0","A21J4SY5NBBDG6","","","","{""Q0"":""Too much black""}","","","","","","","","","","","","","","","","","","","","","","",""
"3764.7999999523163","","image-slider-response","199","1295159","0.0-196.0","A21J4SY5NBBDG6","","","","","-43","","","","","","","","","","","","","","","","","","","","","",""
"4950","","image-button-response","200","1300177","0.0-197.0","A21J4SY5NBBDG6","img_art/15.jpg","5","","","","","","","","","","","","","","","","","","","","","","","","",""
"823","","image-button-response","201","1301002","0.0-198.0","A21J4SY5NBBDG6","img_art/15.jpg","5","","","","","","","","","","","","","","","","","","","","","","","","",""
"650","","image-button-response","202","1301655","0.0-199.0-0.0","A21J4SY5NBBDG6","img_art/15.jpg","4","","","","","","","","","","","","","","","","","","","","","","","","",""
"960","","image-button-response","203","1302618","0.0-200.0-0.0","A21J4SY5NBBDG6","img_art/15.jpg","3","","","","","","","","","","","","","","","","","","","","","","","","",""
"null","","html-keyboard-response","204","1303162","0.0-201.0","A21J4SY5NBBDG6","<p style=""font-size: 48px;"">+</p>","","","","","null","allTrialResponses","500","1","22","img_art/15.jpg","-43","Too much black","Chase,Carlos,Derek,Cole,Noah,Robert","I don't like how the black dots are aligned.,-20,120,20","It is visually appealing, stark and simple but natural.,41,80,20","Although it looks a bit bland in terms of color, I really like the print/pattern,25,360,20","It reminds me of when you look up into a tree,21,200,20","i enjoy its apaprent simplicity (of colour and shape),32,260,20","This piece is too dark,-42,360,20","Robert","This piece is too dark,-42,360,20","Noah","i enjoy its apaprent simplicity (of colour and shape),32,260,20","Cole","It reminds me of when you look up into a tree,21,200,20","6"
"8637","","survey-text","205","1311808","0.0-202.0-0.0","A21J4SY5NBBDG6","","","","{""Q0"":""Visually appealing""}","","","","","","","","","","","","","","","","","","","","","","",""
"4430.400000095367","","image-slider-response","206","1316242","0.0-203.0","A21J4SY5NBBDG6","","","","","40","","","","","","","","","","","","","","","","","","","","","",""
"null","","image-button-response","207","1321258","0.0-204.0","A21J4SY5NBBDG6","img_art/24.jpg","null","","","","","","","","","","","","","","","","","","","","","","","","",""
"780","","image-button-response","208","1322040","0.0-205.0","A21J4SY5NBBDG6","img_art/24.jpg","5","","","","","","","","","","","","","","","","","","","","","","","","",""
"838","","image-button-response","209","1322881","0.0-206.0-0.0","A21J4SY5NBBDG6","img_art/24.jpg","3","","","","","","","","","","","","","","","","","","","","","","","","",""
"1285","","image-button-response","210","1324170","0.0-207.0-0.0","A21J4SY5NBBDG6","img_art/24.jpg","2","","","","","","","","","","","","","","","","","","","","","","","","",""
"null","","html-keyboard-response","211","1325672","0.0-208.0","A21J4SY5NBBDG6","<p style=""font-size: 48px;"">+</p>","","","","","null","allTrialResponses","1500","1","23","img_art/24.jpg","40","Visually appealing","Brandon,Cameron,Eric,Cole,Noah,Robert","Simple. Not too abstract. Love the different flower colors.,20,320,20","Mountain stream pineapple texture?,30,60,20","I'm reminded of a waterfall, but I feel like it could've been better portrayed.,5,100,20","Abstract waterfall landscape. Confusing,-13,200,20","this evokes a gutural reaction - it displeases me how similar it is to art I saw growing up,-30,260,20","A beautiful waterfall in the springtime.,40,360,20","Robert","A beautiful waterfall in the springtime.,40,360,20","Cole","Abstract waterfall landscape. Confusing,-13,200,20","Eric","I'm reminded of a waterfall, but I feel like it could've been better portrayed.,5,100,20","6"
"14831","","survey-text","212","1340512","0.0-209.0-0.0","A21J4SY5NBBDG6","","","","{""Q0"":""Colors are very vibrant""}","","","","","","","","","","","","","","","","","","","","","","",""
"3989.2999999523163","","image-slider-response","213","1344504","0.0-210.0","A21J4SY5NBBDG6","","","","","27","","","","","","","","","","","","","","","","","","","","","",""
"null","","image-button-response","214","1349516","0.0-211.0","A21J4SY5NBBDG6","img_art/20.jpg","null","","","","","","","","","","","","","","","","","","","","","","","","",""
"2010","","image-button-response","215","1351529","0.0-212.0","A21J4SY5NBBDG6","img_art/20.jpg","3","","","","","","","","","","","","","","","","","","","","","","","","",""
"981","","image-button-response","216","1352513","0.0-213.0-0.0","A21J4SY5NBBDG6","img_art/20.jpg","5","","","","","","","","","","","","","","","","","","","","","","","","",""
"740","","image-button-response","217","1353256","0.0-214.0-0.0","A21J4SY5NBBDG6","img_art/20.jpg","4","","","","","","","","","","","","","","","","","","","","","","","","",""
"null","","html-keyboard-response","218","1354833","0.0-215.0","A21J4SY5NBBDG6","<p style=""font-size: 48px;"">+</p>","","","","","null","allTrialResponses","1500","1","24","img_art/20.jpg","27","Colors are very vibrant","Garrett,Bryan,Eric,Cole,Dustin,Robert","I really like this. There are lots of objects the artist wanted to show and the colors are good.,38,180,20","Reminds me of Georgia O'Keefe.,11,400,20","I love the color choice.,25,100,20","Someone trying to be dali,-15,200,20","I don't like it. Dark sky and black figures. White objects remind me of bones.,-30,20,20","Looks like an old gold mining down now deserted.,11,360,20","Cole","Someone trying to be dali,-15,200,20","Robert","Looks like an old gold mining down now deserted.,11,360,20","Dustin","I don't like it. Dark sky and black figures. White objects remind me of bones.,-30,20,20","6"
"7963","","survey-text","219","1362816","0.0-216.0-0.0","A21J4SY5NBBDG6","","","","{""Q0"":""Nothing to see here""}","","","","","","","","","","","","","","","","","","","","","","",""
"4244.799999952316","","image-slider-response","220","1367064","0.0-217.0","A21J4SY5NBBDG6","","","","","-37","","","","","","","","","","","","","","","","","","","","","",""
"null","","image-button-response","221","1372090","0.0-218.0","A21J4SY5NBBDG6","img_art/12.jpg","null","","","","","","","","","","","","","","","","","","","","","","","","",""
"11097","","image-button-response","222","1383193","0.0-219.0","A21J4SY5NBBDG6","img_art/12.jpg","1","","","","","","","","","","","","","","","","","","","","","","","","",""
"3449","","image-button-response","223","1386646","0.0-220.0-0.0","A21J4SY5NBBDG6","img_art/12.jpg","0","","","","","","","","","","","","","","","","","","","","","","","","",""
"2012","","image-button-response","224","1388661","0.0-221.0-0.0","A21J4SY5NBBDG6","img_art/12.jpg","0","","","","","","","","","","","","","","","","","","","","","","","","",""
"705","","image-button-response","225","1392035","0.0-221.1-0.1","A21J4SY5NBBDG6","img_art/12.jpg","4","","","","","","","","","","","","","","","","","","","","","","","","",""
"null","","html-keyboard-response","226","1393038","0.0-222.0","A21J4SY5NBBDG6","<p style=""font-size: 48px;"">+</p>","","","","","null","allTrialResponses","1000","1","25","img_art/12.jpg","-37","Nothing to see here","Jake,Brett,Colton,Cole,Dustin,Robert","It's strange looking and unappealing.,-4,360,20","Night and day, light and dark,35,360,20","i like the repetition,30,220,20","Interesting colors. I really dont like modern art though,24,200,20","Squares are rigid. I'm ambivalent.,1,20,20","I like the pattern to it.,31,360,20","Brett","Night and day, light and dark,35,360,20","Jake","It's strange looking and unappealing.,-4,360,20","Dustin","Squares are rigid. I'm ambivalent.,1,20,20","8"
"8225","","survey-text","227","1401275","0.0-223.0-0.0","A21J4SY5NBBDG6","","","","{""Q0"":""table""}","","","","","","","","","","","","","","","","","","","","","","",""
"34979","","survey-text","228","1436257","0.0-224.0-0.0","A21J4SY5NBBDG6","","","","{""Q0"":""Green skeleton""}","","","","","","","","","","","","","","","","","","","","","","",""
"9437.299999952316","","image-slider-response","229","1445697","0.0-225.0","A21J4SY5NBBDG6","","","","","-24","","","","","","","","","","","","","","","","","","","","","",""
"null","","image-button-response","230","1450708","0.0-226.0","A21J4SY5NBBDG6","img_art/25.jpg","null","","","","","","","","","","","","","","","","","","","","","","","","",""
"4897","","image-button-response","231","1455607","0.0-227.0","A21J4SY5NBBDG6","img_art/25.jpg","4","","","","","","","","","","","","","","","","","","","","","","","","",""
"1812","","image-button-response","232","1457425","0.0-228.0-0.0","A21J4SY5NBBDG6","img_art/25.jpg","1","","","","","","","","","","","","","","","","","","","","","","","","",""
"1133","","image-button-response","233","1458562","0.0-229.0-0.0","A21J4SY5NBBDG6","img_art/25.jpg","0","","","","","","","","","","","","","","","","","","","","","","","","",""
"null","","html-keyboard-response","234","1459103","0.0-230.0","A21J4SY5NBBDG6","<p style=""font-size: 48px;"">+</p>","","","","","null","allTrialResponses","500","1","26","img_art/25.jpg","-24","Green skeleton","Jake,Brett,Matthew,Gregory,Dustin,Benjamin","This is strange and poorly done.,-2,360,20","Egyptian heiroglyphics and painting,15,360,20","haunting, a lovely impression.,50,120,20","Cool color scheme and appears to be a statue of some type of revered god,40,220,20","Reminds me of ancient civilization art. I like the aqua color; soothing to me.,1,20,20","Regal. Reminds me of Egyptian art.,11,260,20","Dustin","Reminds me of ancient civilization art. I like the aqua color; soothing to me.,1,20,20","Brett","Egyptian heiroglyphics and painting,15,360,20","Jake","This is strange and poorly done.,-2,360,20","8"
"16599","","survey-text","235","1475721","0.0-231.0-0.0","A21J4SY5NBBDG6","","","","{""Q0"":""Orange balls""}","","","","","","","","","","","","","","","","","","","","","","",""
"6133.799999952316","","image-slider-response","236","1481857","0.0-232.0","A21J4SY5NBBDG6","","","","","-13","","","","","","","","","","","","","","","","","","","","","",""
"null","","image-button-response","237","1486870","0.0-233.0","A21J4SY5NBBDG6","img_art/22.jpg","null","","","","","","","","","","","","","","","","","","","","","","","","",""
"7842","","image-button-response","238","1494714","0.0-234.0","A21J4SY5NBBDG6","img_art/22.jpg","1","","","","","","","","","","","","","","","","","","","","","","","","",""
"1941","","image-button-response","239","1496658","0.0-235.0-0.0","A21J4SY5NBBDG6","img_art/22.jpg","0","","","","","","","","","","","","","","","","","","","","","","","","",""
"37","","image-button-response","240","1496698","0.0-236.0-0.0","A21J4SY5NBBDG6","img_art/22.jpg","0","","","","","","","","","","","","","","","","","","","","","","","","",""
"731","","image-button-response","241","1500994","0.0-236.1-0.1","A21J4SY5NBBDG6","img_art/22.jpg","3","","","","","","","","","","","","","","","","","","","","","","","","",""
"null","","html-keyboard-response","242","1501997","0.0-237.0","A21J4SY5NBBDG6","<p style=""font-size: 48px;"">+</p>","","","","","null","allTrialResponses","1000","1","27","img_art/22.jpg","-13","Orange balls","Jake,Brett,Christopher,Evan,Dustin,Taylor","It's bland and ugly.,-21,360,20","Climate change in a big city,35,360,20","boring, too many red and yellow tones for my taste,-15,160,20","I enjoy the vibrant colors,23,140,20","Too much red. The red/yellow/orange make me think of heat/fire, which makes me anxious.,-10,20,20","Looks like the kind of art I would see at the doctor's office.,-5,200,20","Brett","Climate change in a big city,35,360,20","Jake","It's bland and ugly.,-21,360,20","Evan","I enjoy the vibrant colors,23,140,20","10"
"18789","","survey-text","243","1520794","0.0-238.0-0.0","A21J4SY5NBBDG6","","","","{""Q0"":""waste of ,y time seeing this""}","","","","","","","","","","","","","","","","","","","","","","",""
"4598.200000047684","","image-slider-response","244","1525395","0.0-239.0","A21J4SY5NBBDG6","","","","","-37","","","","","","","","","","","","","","","","","","","","","",""
"null","","image-button-response","245","1530411","0.0-240.0","A21J4SY5NBBDG6","img_art/27.jpg","null","","","","","","","","","","","","","","","","","","","","","","","","",""
"23431","","image-button-response","246","1553848","0.0-241.0","A21J4SY5NBBDG6","img_art/27.jpg","4","","","","","","","","","","","","","","","","","","","","","","","","",""
"2483","","image-button-response","247","1556338","0.0-242.0-0.0","A21J4SY5NBBDG6","img_art/27.jpg","1","","","","","","","","","","","","","","","","","","","","","","","","",""
"1412","","image-button-response","248","1557754","0.0-243.0-0.0","A21J4SY5NBBDG6","img_art/27.jpg","0","","","","","","","","","","","","","","","","","","","","","","","","",""
"null","","html-keyboard-response","249","1558260","0.0-244.0","A21J4SY5NBBDG6","<p style=""font-size: 48px;"">+</p>","","","","","null","allTrialResponses","500","1","28","img_art/27.jpg","-37","waste of ,y time seeing this","Jake,Brett,Luke,Evan,Shane,Jason","This looks like a poor copy of Cy Twombly's style.,-3,360,20","Soothing in the middle of some confusion,40,360,20","it looks very simple and childlike,-31,20,20","I am bothered by the green doodles,-20,140,20","Makes me feel warm inside,21,80,20","The variation of orange is nice,9,20,20","Shane","Makes me feel warm inside,21,80,20","Brett","Soothing in the middle of some confusion,40,360,20","Jake","This looks like a poor copy of Cy Twombly's style.,-3,360,20","10"
"24584","","survey-text","250","1582868","0.0-245.0-0.0","A21J4SY5NBBDG6","","","","{""Q0"":""Looks attractive""}","","","","","","","","","","","","","","","","","","","","","","",""
"9458.899999856949","","image-slider-response","251","1592330","0.0-246.0","A21J4SY5NBBDG6","","","","","-13","","","","","","","","","","","","","","","","","","","","","",""
"null","","image-button-response","252","1597340","0.0-247.0","A21J4SY5NBBDG6","img_art/4.jpg","null","","","","","","","","","","","","","","","","","","","","","","","","",""
"25328","","image-button-response","253","1622683","0.0-248.0","A21J4SY5NBBDG6","img_art/4.jpg","4","","","","","","","","","","","","","","","","","","","","","","","","",""
"1877","","image-button-response","254","1624563","0.0-249.0-0.0","A21J4SY5NBBDG6","img_art/4.jpg","3","","","","","","","","","","","","","","","","","","","","","","","","",""
"1077","","image-button-response","255","1625644","0.0-250.0-0.0","A21J4SY5NBBDG6","img_art/4.jpg","1","","","","","","","","","","","","","","","","","","","","","","","","",""
"null","","html-keyboard-response","256","1626646","0.0-251.0","A21J4SY5NBBDG6","<p style=""font-size: 48px;"">+</p>","","","","","null","allTrialResponses","1000","1","29","img_art/4.jpg","-13","Looks attractive","Jake,Brett,Nathan,Dylan,Shane,Lucas","This is ugly in color and in terms of the shape on it.,-32,360,20","I just have no clue,26,360,20","Not my preference when it comes to art styles or subjects,-10,200,20","This artwork looks like a child did it,-41,40,20","Looks like a creative hand,45,80,20","Not bad at all.,20,380,20","Shane","Looks like a creative hand,45,80,20","Dylan","This artwork looks like a child did it,-41,40,20","Brett","I just have no clue,26,360,20","10"
"16034","","survey-text","257","1642690","0.0-252.0-0.0","A21J4SY5NBBDG6","","","","{""Q0"":""Colourfull""}","","","","","","","","","","","","","","","","","","","","","","",""
"3343.899999856949","","image-slider-response","258","1646037","0.0-253.0","A21J4SY5NBBDG6","","","","","40","","","","","","","","","","","","","","","","","","","","","",""
"null","","image-button-response","259","1651044","0.0-254.0","A21J4SY5NBBDG6","img_art/1.jpg","null","","","","","","","","","","","","","","","","","","","","","","","","",""
"3950","","image-button-response","260","1654996","0.0-255.0","A21J4SY5NBBDG6","img_art/1.jpg","0","","","","","","","","","","","","","","","","","","","","","","","","",""
"5","","image-button-response","261","1655003","0.0-256.0-0.0","A21J4SY5NBBDG6","img_art/1.jpg","0","","","","","","","","","","","","","","","","","","","","","","","","",""
"714","","image-button-response","262","1661676","0.0-256.1-0.1","A21J4SY5NBBDG6","img_art/1.jpg","3","","","","","","","","","","","","","","","","","","","","","","","","",""
"933","","image-button-response","263","1662612","0.0-257.0-0.0","A21J4SY5NBBDG6","img_art/1.jpg","4","","","","","","","","","","","","","","","","","","","","","","","","",""
"null","","html-keyboard-response","264","1663615","0.0-258.0","A21J4SY5NBBDG6","<p style=""font-size: 48px;"">+</p>","","","","","null","allTrialResponses","1000","1","30","img_art/1.jpg","40","Colourfull","Stephen,Brett,David,Dylan,Shane,Devin","Nothing really going on but good color choices.,-3,140,20","I don't know how I feel about this,1,360,20","This image doesn't invoke much in me.,0,340,20","I love the warm colors of the art,32,40,20","Warmth of the sun,22,80,20","Quite messy looking,-22,380,20","Stephen","Nothing really going on but good color choices.,-3,140,20","Dylan","I love the warm colors of the art,32,40,20","Shane","Warmth of the sun,22,80,20","12"
"23922","","image-button-response_instructions","265","1687550","0.0-259.0","A21J4SY5NBBDG6","","0","instructions","","","","","","","","","","","","","","","","","","","","","","","",""
"1576","","image-button-response","266","1689138","0.0-260.0","A21J4SY5NBBDG6","","0","","","","","","","","","","","","","","","","","","","","","","","","",""
