"rt","url","trial_type","trial_index","time_elapsed","internal_node_id","participant_id","stimulus","button_pressed","Name","responses","response","key_press","variableName","fixationTime","condition","trial","photo","subjectRating","subjectResponse","agentsNames","agent_1_Response","agent_2_Response","agent_3_Response","agent_4_Response","agent_5_Response","agent_6_Response","kept_1_name","kept_1_response","kept_2_name","kept_2_response","kept_3_name","kept_3_response","errorCounter"
"15470","external_page_harvard.html","external-html","0","15612","0.0-0.0","A23G1L7KYHK9F2","","","","","","","","","","","","","","","","","","","","","","","","","","",""
"1198","","image-button-response","1","16812","0.0-1.0","A23G1L7KYHK9F2","","0","","","","","","","","","","","","","","","","","","","","","","","","",""
"1147","","image-button-response","2","17964","0.0-2.0-0.0","A23G1L7KYHK9F2","","1","phone","","","","","","","","","","","","","","","","","","","","","","","",""
"2302","","survey-text","3","20267","0.0-3.0-0.0","A23G1L7KYHK9F2","","","","{""Q0"":""A23G1L7KYHK9F2""}","","","","","","","","","","","","","","","","","","","","","","",""
"3348","","image-button-response_instructions","4","23618","0.0-4.0","A23G1L7KYHK9F2","","0","instructions","","","","","","","","","","","","","","","","","","","","","","","",""
"16843","","image-button-response_instructions","5","40462","0.0-5.0","A23G1L7KYHK9F2","img_art/ins/popularity/ins1.png","0","instructions","","","","","","","","","","","","","","","","","","","","","","","",""
"2506","","image-button-response_instructions","6","42970","0.0-6.0","A23G1L7KYHK9F2","img_art/ins/popularity/ins2.png","0","instructions","","","","","","","","","","","","","","","","","","","","","","","",""
"45535","","image-button-response_instructions","7","88506","0.0-7.0","A23G1L7KYHK9F2","img_art/ins/popularity/ins2Extreme.png","0","instructions","","","","","","","","","","","","","","","","","","","","","","","",""
"6584","","image-button-response_instructions","8","95092","0.0-8.0","A23G1L7KYHK9F2","img_art/ins/popularity/ins3KEEPpop.PNG","0","instructions","","","","","","","","","","","","","","","","","","","","","","","",""
"3339","","image-button-response_instructions","9","98432","0.0-9.0","A23G1L7KYHK9F2","img_art/ins/popularity/ins3ANamepop.PNG","0","instructions","","","","","","","","","","","","","","","","","","","","","","","",""
"2683","","image-button-response_instructions","10","101116","0.0-10.0","A23G1L7KYHK9F2","img_art/ins/popularity/ins3ARatingpop.png","0","instructions","","","","","","","","","","","","","","","","","","","","","","","",""
"1793","","image-button-response_instructions","11","102910","0.0-11.0","A23G1L7KYHK9F2","img_art/ins/popularity/ins3ATextpop.png","0","instructions","","","","","","","","","","","","","","","","","","","","","","","",""
"4361","","image-button-response_instructions","12","107271","0.0-12.0","A23G1L7KYHK9F2","img_art/ins/popularity/ins3ALikespop.png","0","instructions","","","","","","","","","","","","","","","","","","","","","","","",""
"7797","","image-button-response_instructions","13","115070","0.0-13.0","A23G1L7KYHK9F2","img_art/ins/popularity/ins3KEEPpop.PNG","0","instructions","","","","","","","","","","","","","","","","","","","","","","","",""
"3753","","image-button-response_instructions","14","118824","0.0-14.0","A23G1L7KYHK9F2","img_art/ins/popularity/ins3_5RED.png","0","instructions","","","","","","","","","","","","","","","","","","","","","","","",""
"23153","","image-button-response_instructions","15","141978","0.0-15.0","A23G1L7KYHK9F2","img_art/ins/popularity/ins3KEEPpop.PNG","0","instructions","","","","","","","","","","","","","","","","","","","","","","","",""
"4544","","image-button-response_instructions","16","146522","0.0-16.0","A23G1L7KYHK9F2","img_art/ins/popularity/ins4KEEPpop.PNG","0","instructions","","","","","","","","","","","","","","","","","","","","","","","",""
"3556","","image-button-response_instructions","17","150080","0.0-17.0","A23G1L7KYHK9F2","img_art/ins/popularity/ins5KEEPpop.PNG","0","instructions","","","","","","","","","","","","","","","","","","","","","","","",""
"1000","","image-button-response_instructions","18","151082","0.0-18.0","A23G1L7KYHK9F2","","0","instructions","","","","","","","","","","","","","","","","","","","","","","","",""
"4267","","survey-text","19","155370","0.0-19.0-0.0","A23G1L7KYHK9F2","","","","{""Q0"":""but""}","","","","","","","","","","","","","","","","","","","","","","",""
"13773","","survey-text","20","169144","0.0-20.0-0.0","A23G1L7KYHK9F2","","","","{""Q0"":""looks too messy, and that brown is a disgusting color""}","","","","","","","","","","","","","","","","","","","","","","",""
"2513.7999999988824","","image-slider-response","21","171660","0.0-21.0","A23G1L7KYHK9F2","","","","","-27","","","","","","","","","","","","","","","","","","","","","",""
"3931","","image-button-response","22","176663","0.0-22.0","A23G1L7KYHK9F2","img_art/ins/1.jpg","2","","","","","","","","","","","","","","","","","","","","","","","","",""
"3377","","image-button-response","23","180043","0.0-23.0","A23G1L7KYHK9F2","img_art/ins/1.jpg","4","","","","","","","","","","","","","","","","","","","","","","","","",""
"3130","","image-button-response","24","183174","0.0-24.0-0.0","A23G1L7KYHK9F2","img_art/ins/1.jpg","0","","","","","","","","","","","","","","","","","","","","","","","","",""
"3217","","image-button-response","25","186395","0.0-25.0-0.0","A23G1L7KYHK9F2","img_art/ins/1.jpg","2","","","","","","","","","","","","","","","","","","","","","","","","",""
"null","","html-keyboard-response","26","186911","0.0-26.0","A23G1L7KYHK9F2","<p style=""font-size: 48px;"">+</p>","","","","","null","allTrialResponses","500","1","-2","img_art/ins/1.jpg","-27","looks too messy, and that brown is a disgusting color","Adam,Alex,Ben,Carl,Daniel,Jack","Seems like doodles,-20,20,20","very creative work.,36,40,20","This color reminds me of poo,-46,60,20","very calming artwork,42,80,20","It looks like a murder scene.,-48,100,20","I like the sophisticated brushwork,40,120,20","Daniel","It looks like a murder scene.,-48,100,20","Adam","Seems like doodles,-20,20,20","Ben","This color reminds me of poo,-46,60,20","0"
"19299","","survey-text","27","206214","0.0-27.0-0.0","A23G1L7KYHK9F2","","","","{""Q0"":""interesting use of colors and textures that really pop off the canvas""}","","","","","","","","","","","","","","","","","","","","","","",""
"2930.2999999988824","","image-slider-response","28","209146","0.0-28.0","A23G1L7KYHK9F2","","","","","25","","","","","","","","","","","","","","","","","","","","","",""
"null","","image-button-response","29","214148","0.0-29.0","A23G1L7KYHK9F2","img_art/ins/2.jpg","null","","","","","","","","","","","","","","","","","","","","","","","","",""
"1889","","image-button-response","30","216038","0.0-30.0","A23G1L7KYHK9F2","img_art/ins/2.jpg","1","","","","","","","","","","","","","","","","","","","","","","","","",""
"4574","","image-button-response","31","220614","0.0-31.0-0.0","A23G1L7KYHK9F2","img_art/ins/2.jpg","2","","","","","","","","","","","","","","","","","","","","","","","","",""
"4355","","image-button-response","32","224973","0.0-32.0-0.0","A23G1L7KYHK9F2","img_art/ins/2.jpg","4","","","","","","","","","","","","","","","","","","","","","","","","",""
"null","","html-keyboard-response","33","225476","0.0-33.0","A23G1L7KYHK9F2","<p style=""font-size: 48px;"">+</p>","","","","","null","allTrialResponses","500","1","-1","img_art/ins/2.jpg","25","interesting use of colors and textures that really pop off the canvas","Adam,John,Ben,James,Daniel,Kyle","too much color,-18,20,20","love the texture of paint,48,160,20","meaningless painting,-45,60,20","looks too angry,-50,140,20","One of my pet peevs,-48,100,20","Idk, it is just annoying,-32,180,20","John","love the texture of paint,48,160,20","Ben","meaningless painting,-45,60,20","Daniel","One of my pet peevs,-48,100,20","0"
"29733","","survey-text","34","255212","0.0-34.0-0.0","A23G1L7KYHK9F2","","","","{""Q0"":""very calming, reminds me of seeing an ice storm from inside my house""}","","","","","","","","","","","","","","","","","","","","","","",""
"3514.39999999851","","image-slider-response","35","258728","0.0-35.0","A23G1L7KYHK9F2","","","","","21","","","","","","","","","","","","","","","","","","","","","",""
"4284","","image-button-response","36","263734","0.0-36.0","A23G1L7KYHK9F2","img_art/ins/3.jpg","1","","","","","","","","","","","","","","","","","","","","","","","","",""
"649","","image-button-response","37","264384","0.0-37.0","A23G1L7KYHK9F2","img_art/ins/3.jpg","1","","","","","","","","","","","","","","","","","","","","","","","","",""
"3460","","image-button-response","38","267847","0.0-38.0-0.0","A23G1L7KYHK9F2","img_art/ins/3.jpg","3","","","","","","","","","","","","","","","","","","","","","","","","",""
"1287","","image-button-response","39","269137","0.0-39.0-0.0","A23G1L7KYHK9F2","img_art/ins/3.jpg","5","","","","","","","","","","","","","","","","","","","","","","","","",""
"null","","html-keyboard-response","40","269641","0.0-40.0","A23G1L7KYHK9F2","<p style=""font-size: 48px;"">+</p>","","","","","null","allTrialResponses","500","1","0","img_art/ins/3.jpg","21","very calming, reminds me of seeing an ice storm from inside my house","Ron,John,Ben,Mike,Daniel,Sam","It looks depressing,-26,220,20","I like the overlapping of brushes,41,160,20","This thing gives me anxiety,-41,60,20","enjoy the different shades of blue,22,200,20","looks like a murder room,-35,100,20","I can feel a rainy day from this painting,18,240,20","John","I like the overlapping of brushes,41,160,20","Mike","enjoy the different shades of blue,22,200,20","Sam","I can feel a rainy day from this painting,18,240,20","0"
"7907","","image-button-response_instructions","41","277552","0.0-41.0","A23G1L7KYHK9F2","","0","instructions","","","","","","","","","","","","","","","","","","","","","","","",""
"9285","","survey-likert","42","286839","0.0-42.0-0.0","A23G1L7KYHK9F2","","","","{""Q0"":"""",""Q1"":0,""Q2"":1}","","","","","","","","","","","","","","","","","","","","","","",""
"3890","","survey-text","43","290732","0.0-43.0-0.0","A23G1L7KYHK9F2","","","","{""Q0"":""rock""}","","","","","","","","","","","","","","","","","","","","","","",""
"19114","","survey-text","44","309848","0.0-44.0-0.0","A23G1L7KYHK9F2","","","","{""Q0"":""feels like I'm looking in on someone camping peacefully; it's serene""}","","","","","","","","","","","","","","","","","","","","","","",""
"2002.800000000745","","image-slider-response","45","311852","0.0-45.0","A23G1L7KYHK9F2","","","","","37","","","","","","","","","","","","","","","","","","","","","",""
"3386","","image-button-response","46","316870","0.0-46.0","A23G1L7KYHK9F2","img_art/9.jpg","0","","","","","","","","","","","","","","","","","","","","","","","","",""
"2030","","image-button-response","47","318902","0.0-47.0","A23G1L7KYHK9F2","img_art/9.jpg","1","","","","","","","","","","","","","","","","","","","","","","","","",""
"912","","image-button-response","48","319816","0.0-48.0-0.0","A23G1L7KYHK9F2","img_art/9.jpg","0","","","","","","","","","","","","","","","","","","","","","","","","",""
"1840","","image-button-response","49","321658","0.0-49.0-0.0","A23G1L7KYHK9F2","img_art/9.jpg","0","","","","","","","","","","","","","","","","","","","","","","","","",""
"1362","","image-button-response","50","326672","0.0-49.1-0.1","A23G1L7KYHK9F2","img_art/9.jpg","2","","","","","","","","","","","","","","","","","","","","","","","","",""
"null","","html-keyboard-response","51","327175","0.0-50.0","A23G1L7KYHK9F2","<p style=""font-size: 48px;"">+</p>","","","","","null","allTrialResponses","500","1","1","img_art/9.jpg","37","feels like I'm looking in on someone camping peacefully; it's serene","Ian,Mason,Robert,Nathan,Charles,Jorge","It looks like someone gave a kid a coloring book page but the colors are soothing and look put together and elegant,27,260,20","Abstract titanic scene. It's nice though. I like how it makes me feel.,28,100,20","Someone sleeping in a cave. Dont like the scribble look.,-30,360,20","Looks like a child's drawing,-40,200,20","It's too all over the place,-37,100,20","curious and unsure,12,180,20","Mason","Abstract titanic scene. It's nice though. I like how it makes me feel.,28,100,20","Ian","It looks like someone gave a kid a coloring book page but the colors are soothing and look put together and elegant,27,260,20","Robert","Someone sleeping in a cave. Dont like the scribble look.,-30,360,20","2"
"13931","","survey-text","52","341110","0.0-51.0-0.0","A23G1L7KYHK9F2","","","","{""Q0"":""Too dark, and just looks like a muddled mess. No cohesion.""}","","","","","","","","","","","","","","","","","","","","","","",""
"1746.300000000745","","image-slider-response","53","342858","0.0-52.0","A23G1L7KYHK9F2","","","","","-31","","","","","","","","","","","","","","","","","","","","","",""
"3642","","image-button-response","54","347860","0.0-53.0","A23G1L7KYHK9F2","img_art/29.jpg","1","","","","","","","","","","","","","","","","","","","","","","","","",""
"1750","","image-button-response","55","349612","0.0-54.0","A23G1L7KYHK9F2","img_art/29.jpg","1","","","","","","","","","","","","","","","","","","","","","","","","",""
"3292","","image-button-response","56","352907","0.0-55.0-0.0","A23G1L7KYHK9F2","img_art/29.jpg","3","","","","","","","","","","","","","","","","","","","","","","","","",""
"2985","","image-button-response","57","355895","0.0-56.0-0.0","A23G1L7KYHK9F2","img_art/29.jpg","5","","","","","","","","","","","","","","","","","","","","","","","","",""
"null","","html-keyboard-response","58","357397","0.0-57.0","A23G1L7KYHK9F2","<p style=""font-size: 48px;"">+</p>","","","","","null","allTrialResponses","1500","1","2","img_art/29.jpg","-31","Too dark, and just looks like a muddled mess. No cohesion.","Ian,Mason,Robert,Adam,Tanner,Marcus","This feels chaotic and I like the energy that it gives off.,21,260,20","easy, too abstract for me, don't get it.,-25,100,20","Looks like a murder,-50,360,20","Flash is too strong. Dislike the colors,-5,40,20","danger, crime scene,,10,180,20","I would like this piece better without the red X across it,-10,60,20","Mason","easy, too abstract for me, don't get it.,-25,100,20","Adam","Flash is too strong. Dislike the colors,-5,40,20","Marcus","I would like this piece better without the red X across it,-10,60,20","2"
"12250","","survey-text","59","369650","0.0-58.0-0.0","A23G1L7KYHK9F2","","","","{""Q0"":""mindnumbingly simple to the point of being useless""}","","","","","","","","","","","","","","","","","","","","","","",""
"3138.699999999255","","image-slider-response","60","372790","0.0-59.0","A23G1L7KYHK9F2","","","","","-50","","","","","","","","","","","","","","","","","","","","","",""
"4622","","image-button-response","61","377807","0.0-60.0","A23G1L7KYHK9F2","img_art/5.jpg","1","","","","","","","","","","","","","","","","","","","","","","","","",""
"549","","image-button-response","62","378358","0.0-61.0","A23G1L7KYHK9F2","img_art/5.jpg","1","","","","","","","","","","","","","","","","","","","","","","","","",""
"3124","","image-button-response","63","381484","0.0-62.0-0.0","A23G1L7KYHK9F2","img_art/5.jpg","2","","","","","","","","","","","","","","","","","","","","","","","","",""
"984","","image-button-response","64","382471","0.0-63.0-0.0","A23G1L7KYHK9F2","img_art/5.jpg","5","","","","","","","","","","","","","","","","","","","","","","","","",""
"null","","html-keyboard-response","65","383473","0.0-64.0","A23G1L7KYHK9F2","<p style=""font-size: 48px;"">+</p>","","","","","null","allTrialResponses","1000","1","3","img_art/5.jpg","-50","mindnumbingly simple to the point of being useless","Aaron,Mason,Devin,Adam,Peter,Marcus","It's kind of boring.,-20,20,20","pointless, ugly, not creative.,-50,100,20","A bit too messy in my eyes,-4,380,20","Too loud. Dislike the bright yellow.,-5,40,20","Bright and sunny,19,320,20","I really dislike this. It's ugly and looks dirty.,-44,60,20","Mason","pointless, ugly, not creative.,-50,100,20","Devin","A bit too messy in my eyes,-4,380,20","Marcus","I really dislike this. It's ugly and looks dirty.,-44,60,20","2"
"22302","","survey-text","66","405778","0.0-65.0-0.0","A23G1L7KYHK9F2","","","","{""Q0"":""abstract to the point of being weird, colors too muted.""}","","","","","","","","","","","","","","","","","","","","","","",""
"2264.5999999996275","","image-slider-response","67","408044","0.0-66.0","A23G1L7KYHK9F2","","","","","-27","","","","","","","","","","","","","","","","","","","","","",""
"1456","","image-button-response","68","413046","0.0-67.0","A23G1L7KYHK9F2","img_art/28.jpg","1","","","","","","","","","","","","","","","","","","","","","","","","",""
"365","","image-button-response","69","413414","0.0-68.0","A23G1L7KYHK9F2","img_art/28.jpg","1","","","","","","","","","","","","","","","","","","","","","","","","",""
"2443","","image-button-response","70","415859","0.0-69.0-0.0","A23G1L7KYHK9F2","img_art/28.jpg","2","","","","","","","","","","","","","","","","","","","","","","","","",""
"5008","","image-button-response","71","420869","0.0-70.0-0.0","A23G1L7KYHK9F2","img_art/28.jpg","3","","","","","","","","","","","","","","","","","","","","","","","","",""
"null","","html-keyboard-response","72","422373","0.0-71.0","A23G1L7KYHK9F2","<p style=""font-size: 48px;"">+</p>","","","","","null","allTrialResponses","1500","1","4","img_art/28.jpg","-27","abstract to the point of being weird, colors too muted.","Thomas,Mason,Devin,Victor,Shane,Marcus","I can't explain why, but I really love this one,50,220,20","bland busy ugly,-31,100,20","It is a bit drab,-10,380,20","Almost looks like child's artwork, sloppy and chaotic,6,340,20","This is also something I would see in a serious but safe environment,14,80,20","This reminds me of internal organs.,-10,60,20","Mason","bland busy ugly,-31,100,20","Devin","It is a bit drab,-10,380,20","Victor","Almost looks like child's artwork, sloppy and chaotic,6,340,20","2"
"18619","","survey-text","73","440998","0.0-72.0-0.0","A23G1L7KYHK9F2","","","","{""Q0"":""looks like a really poor photocopy of a children's book.""}","","","","","","","","","","","","","","","","","","","","","","",""
"2444.699999999255","","image-slider-response","74","443444","0.0-73.0","A23G1L7KYHK9F2","","","","","-36","","","","","","","","","","","","","","","","","","","","","",""
"1794","","image-button-response","75","448448","0.0-74.0","A23G1L7KYHK9F2","img_art/16.jpg","0","","","","","","","","","","","","","","","","","","","","","","","","",""
"2051","","image-button-response","76","450502","0.0-75.0","A23G1L7KYHK9F2","img_art/16.jpg","0","","","","","","","","","","","","","","","","","","","","","","","","",""
"1224","","image-button-response","77","451728","0.0-76.0-0.0","A23G1L7KYHK9F2","img_art/16.jpg","1","","","","","","","","","","","","","","","","","","","","","","","","",""
"678","","image-button-response","78","452408","0.0-77.0-0.0","A23G1L7KYHK9F2","img_art/16.jpg","2","","","","","","","","","","","","","","","","","","","","","","","","",""
"null","","html-keyboard-response","79","452911","0.0-78.0","A23G1L7KYHK9F2","<p style=""font-size: 48px;"">+</p>","","","","","null","allTrialResponses","500","1","5","img_art/16.jpg","-36","looks like a really poor photocopy of a children's book.","Cody,Mason,Devin,Victor,Miguel,Grant","Kind of creepyyyyyy,-41,180,20","Don't get it. Hate it. ugly.,-44,100,20","That bear looks unfitting!,-8,380,20","I don't know why, I just don't like it,-28,340,20","Very cool abstraction.,19,160,20","This is making me feel nervous in an enjoyable way.,20,200,20","Cody","Kind of creepyyyyyy,-41,180,20","Mason","Don't get it. Hate it. ugly.,-44,100,20","Devin","That bear looks unfitting!,-8,380,20","2"
"3249","","survey-text","80","456166","0.0-79.0-0.0","A23G1L7KYHK9F2","","","","{""Q0"":""sky""}","","","","","","","","","","","","","","","","","","","","","","",""
"28201","","survey-text","81","484368","0.0-80.0-0.0","A23G1L7KYHK9F2","","","","{""Q0"":""looks like bacon chunks in a very poorly made cake""}","","","","","","","","","","","","","","","","","","","","","","",""
"2578.2999999988824","","image-slider-response","82","486948","0.0-81.0","A23G1L7KYHK9F2","","","","","-31","","","","","","","","","","","","","","","","","","","","","",""
"2882","","image-button-response","83","491950","0.0-82.0","A23G1L7KYHK9F2","img_art/7.jpg","1","","","","","","","","","","","","","","","","","","","","","","","","",""
"951","","image-button-response","84","492903","0.0-83.0","A23G1L7KYHK9F2","img_art/7.jpg","1","","","","","","","","","","","","","","","","","","","","","","","","",""
"872","","image-button-response","85","493777","0.0-84.0-0.0","A23G1L7KYHK9F2","img_art/7.jpg","2","","","","","","","","","","","","","","","","","","","","","","","","",""
"2600","","image-button-response","86","496379","0.0-85.0-0.0","A23G1L7KYHK9F2","img_art/7.jpg","5","","","","","","","","","","","","","","","","","","","","","","","","",""
"null","","html-keyboard-response","87","497381","0.0-86.0","A23G1L7KYHK9F2","<p style=""font-size: 48px;"">+</p>","","","","","null","allTrialResponses","1000","1","6","img_art/7.jpg","-31","looks like bacon chunks in a very poorly made cake","Cody,Mason,Devin,Jesse,Richard,Jordan","Cool, makes me think of archeology,15,180,20","I don't get it. looks like a picture of the ground.,-42,100,20","Not very big on the sameness here,-20,380,20","Makes me think of the beach which makes me happy,14,80,20","looks like wallpaper,-6,340,20","Looks like a skin disease,-31,160,20","Mason","I don't get it. looks like a picture of the ground.,-42,100,20","Devin","Not very big on the sameness here,-20,380,20","Jordan","Looks like a skin disease,-31,160,20","2"
"31397","","survey-text","88","528780","0.0-87.0-0.0","A23G1L7KYHK9F2","","","","{""Q0"":""not a lot going on here. not much variety.""}","","","","","","","","","","","","","","","","","","","","","","",""
"2354.5","","image-slider-response","89","531136","0.0-88.0","A23G1L7KYHK9F2","","","","","-13","","","","","","","","","","","","","","","","","","","","","",""
"4126","","image-button-response","90","536154","0.0-89.0","A23G1L7KYHK9F2","img_art/23.jpg","1","","","","","","","","","","","","","","","","","","","","","","","","",""
"1833","","image-button-response","91","537989","0.0-90.0","A23G1L7KYHK9F2","img_art/23.jpg","2","","","","","","","","","","","","","","","","","","","","","","","","",""
"6778","","image-button-response","92","544768","0.0-91.0-0.0","A23G1L7KYHK9F2","img_art/23.jpg","0","","","","","","","","","","","","","","","","","","","","","","","","",""
"4188","","image-button-response","93","548959","0.0-92.0-0.0","A23G1L7KYHK9F2","img_art/23.jpg","1","","","","","","","","","","","","","","","","","","","","","","","","",""
"null","","html-keyboard-response","94","549961","0.0-93.0","A23G1L7KYHK9F2","<p style=""font-size: 48px;"">+</p>","","","","","null","allTrialResponses","1000","1","7","img_art/23.jpg","-13","not a lot going on here. not much variety.","Timothy,Mason,Devin,Edward,Dustin,Jordan","This feels so energized, i love it,50,240,20","No reactions, childish.,-19,100,20","background is great but the white is a bit weird,3,380,20","This would make a great mural,37,60,20","I don't get it! the white in the middle of the speckled rainbow is confusing.,-10,20,20","I like the contrast,29,160,20","Devin","background is great but the white is a bit weird,3,380,20","Timothy","This feels so energized, i love it,50,240,20","Mason","No reactions, childish.,-19,100,20","2"
"17410","","survey-text","95","567375","0.0-94.0-0.0","A23G1L7KYHK9F2","","","","{""Q0"":""Great use of color, a lot to look at and explore visually""}","","","","","","","","","","","","","","","","","","","","","","",""
"2498.5","","image-slider-response","96","569875","0.0-95.0","A23G1L7KYHK9F2","","","","","50","","","","","","","","","","","","","","","","","","","","","",""
"4486","","image-button-response","97","574893","0.0-96.0","A23G1L7KYHK9F2","img_art/8.jpg","1","","","","","","","","","","","","","","","","","","","","","","","","",""
"3788","","image-button-response","98","578683","0.0-97.0","A23G1L7KYHK9F2","img_art/8.jpg","1","","","","","","","","","","","","","","","","","","","","","","","","",""
"6618","","image-button-response","99","585303","0.0-98.0-0.0","A23G1L7KYHK9F2","img_art/8.jpg","4","","","","","","","","","","","","","","","","","","","","","","","","",""
"1563","","image-button-response","100","586869","0.0-99.0-0.0","A23G1L7KYHK9F2","img_art/8.jpg","2","","","","","","","","","","","","","","","","","","","","","","","","",""
"null","","html-keyboard-response","101","587883","0.0-100.0","A23G1L7KYHK9F2","<p style=""font-size: 48px;"">+</p>","","","","","null","allTrialResponses","1000","1","8","img_art/8.jpg","50","Great use of color, a lot to look at and explore visually","Timothy,Mason,Devin,Joshua,Evan,Shawn","Too much going on, too many colors, makes me feel uneasy,-20,240,20","wow. blocky, angled, neat colors. The faces are what makes it. love it.,45,100,20","Very nice detail and colors!,10,380,20","I don't understand it. Makes no sense to me.,5,240,20","I can't tell if this is supposed to portray just city life or a town crumbling,-5,140,20","Cheesy. A little too knock you over the dead with its message without making it emotional,-31,100,20","Mason","wow. blocky, angled, neat colors. The faces are what makes it. love it.,45,100,20","Evan","I can't tell if this is supposed to portray just city life or a town crumbling,-5,140,20","Devin","Very nice detail and colors!,10,380,20","2"
"38256","","survey-text","102","626143","0.0-101.0-0.0","A23G1L7KYHK9F2","","","","{""Q0"":""dark, ominous, but would be better without all of those weird slash throughs""}","","","","","","","","","","","","","","","","","","","","","","",""
"1952.4000000003725","","image-slider-response","103","628097","0.0-102.0","A23G1L7KYHK9F2","","","","","6","","","","","","","","","","","","","","","","","","","","","",""
"4446","","image-button-response","104","633100","0.0-103.0","A23G1L7KYHK9F2","img_art/18.jpg","3","","","","","","","","","","","","","","","","","","","","","","","","",""
"6025","","image-button-response","105","639127","0.0-104.0","A23G1L7KYHK9F2","img_art/18.jpg","4","","","","","","","","","","","","","","","","","","","","","","","","",""
"2298","","image-button-response","106","641427","0.0-105.0-0.0","A23G1L7KYHK9F2","img_art/18.jpg","2","","","","","","","","","","","","","","","","","","","","","","","","",""
"1376","","image-button-response","107","642805","0.0-106.0-0.0","A23G1L7KYHK9F2","img_art/18.jpg","3","","","","","","","","","","","","","","","","","","","","","","","","",""
"null","","html-keyboard-response","108","643807","0.0-107.0","A23G1L7KYHK9F2","<p style=""font-size: 48px;"">+</p>","","","","","null","allTrialResponses","1000","1","9","img_art/18.jpg","6","dark, ominous, but would be better without all of those weird slash throughs","Christian,Mason,Devin,Jose,Evan,Spencer","reminds me of the little prince, with the color scheme and all,16,140,20","Skeletons, death, bleak colors, still kinda like it.,16,100,20","Good concept but then scribbled on a bit?,15,380,20","Ok this is really badass. Like a warrior come to the last battle,50,200,20","This brings to mind the four horsemen of the apocalypse,8,140,20","I really like it, like hells drivers,43,120,20","Evan","This brings to mind the four horsemen of the apocalypse,8,140,20","Devin","Good concept but then scribbled on a bit?,15,380,20","Jose","Ok this is really badass. Like a warrior come to the last battle,50,200,20","2"
"20825","","survey-text","109","664635","0.0-108.0-0.0","A23G1L7KYHK9F2","","","","{""Q0"":""looks like a child's finger painting. that green looks sickly.""}","","","","","","","","","","","","","","","","","","","","","","",""
"2346.4000000003725","","image-slider-response","110","666982","0.0-109.0","A23G1L7KYHK9F2","","","","","-33","","","","","","","","","","","","","","","","","","","","","",""
"null","","image-button-response","111","671984","0.0-110.0","A23G1L7KYHK9F2","img_art/2.jpg","null","","","","","","","","","","","","","","","","","","","","","","","","",""
"2657","","image-button-response","112","674643","0.0-111.0","A23G1L7KYHK9F2","img_art/2.jpg","4","","","","","","","","","","","","","","","","","","","","","","","","",""
"3250","","image-button-response","113","677895","0.0-112.0-0.0","A23G1L7KYHK9F2","img_art/2.jpg","5","","","","","","","","","","","","","","","","","","","","","","","","",""
"1248","","image-button-response","114","679145","0.0-113.0-0.0","A23G1L7KYHK9F2","img_art/2.jpg","2","","","","","","","","","","","","","","","","","","","","","","","","",""
"null","","html-keyboard-response","115","680155","0.0-114.0","A23G1L7KYHK9F2","<p style=""font-size: 48px;"">+</p>","","","","","null","allTrialResponses","1000","1","10","img_art/2.jpg","-33","looks like a child's finger painting. that green looks sickly.","Nicholas,Jared,Devin,Jose,Evan,Eric","Cute and happy,22,240,20","looks like a happy child,15,400,20","I don't really like this style,-5,380,20","The color combo is kind of ugly but there's something charming about it still,17,200,20","I feel bothered by the dark and dingy choice of colors,-22,140,20","I like the color, but I feel like I see a creepy face which I dislike.,-5,100,20","Evan","I feel bothered by the dark and dingy choice of colors,-22,140,20","Eric","I like the color, but I feel like I see a creepy face which I dislike.,-5,100,20","Devin","I don't really like this style,-5,380,20","2"
"5596","","survey-text","116","685756","0.0-115.0-0.0","A23G1L7KYHK9F2","","","","{""Q0"":""our""}","","","","","","","","","","","","","","","","","","","","","","",""
"57113","","survey-text","117","742871","0.0-116.0-0.0","A23G1L7KYHK9F2","","","","{""Q0"":""just looks like a paper that got condiment stains on it and then got left out in the rain""}","","","","","","","","","","","","","","","","","","","","","","",""
"2818.4000000003725","","image-slider-response","118","745691","0.0-117.0","A23G1L7KYHK9F2","","","","","-40","","","","","","","","","","","","","","","","","","","","","",""
"4696","","image-button-response","119","750693","0.0-118.0","A23G1L7KYHK9F2","img_art/27.jpg","2","","","","","","","","","","","","","","","","","","","","","","","","",""
"2722","","image-button-response","120","753417","0.0-119.0","A23G1L7KYHK9F2","img_art/27.jpg","2","","","","","","","","","","","","","","","","","","","","","","","","",""
"1135","","image-button-response","121","754556","0.0-120.0-0.0","A23G1L7KYHK9F2","img_art/27.jpg","4","","","","","","","","","","","","","","","","","","","","","","","","",""
"1773","","image-button-response","122","756333","0.0-121.0-0.0","A23G1L7KYHK9F2","img_art/27.jpg","3","","","","","","","","","","","","","","","","","","","","","","","","",""
"null","","html-keyboard-response","123","757844","0.0-122.0","A23G1L7KYHK9F2","<p style=""font-size: 48px;"">+</p>","","","","","null","allTrialResponses","1500","1","11","img_art/27.jpg","-40","just looks like a paper that got condiment stains on it and then got left out in the rain","William,Derek,Devin,Trevor,Evan,Eric","reminds me of fall,33,380,20","I love the mood of this painting,30,360,20","Looks like the green bits were added on later,-1,380,20","I like the orange but it's a little blah,1,280,20","I am bothered by the green doodles,-20,140,20","This piece reminds me of a summer day.,30,100,20","Devin","Looks like the green bits were added on later,-1,380,20","Evan","I am bothered by the green doodles,-20,140,20","Trevor","I like the orange but it's a little blah,1,280,20","2"
"35877","","survey-text","124","793724","0.0-123.0-0.0","A23G1L7KYHK9F2","","","","{""Q0"":""really interesting use of patterns, gives you a lot to look at.""}","","","","","","","","","","","","","","","","","","","","","","",""
"1820.699999999255","","image-slider-response","125","795546","0.0-124.0","A23G1L7KYHK9F2","","","","","23","","","","","","","","","","","","","","","","","","","","","",""
"null","","image-button-response","126","800549","0.0-125.0","A23G1L7KYHK9F2","img_art/10.jpg","null","","","","","","","","","","","","","","","","","","","","","","","","",""
"1066","","image-button-response","127","801617","0.0-126.0","A23G1L7KYHK9F2","img_art/10.jpg","3","","","","","","","","","","","","","","","","","","","","","","","","",""
"1712","","image-button-response","128","803331","0.0-127.0-0.0","A23G1L7KYHK9F2","img_art/10.jpg","4","","","","","","","","","","","","","","","","","","","","","","","","",""
"1760","","image-button-response","129","805093","0.0-128.0-0.0","A23G1L7KYHK9F2","img_art/10.jpg","5","","","","","","","","","","","","","","","","","","","","","","","","",""
"null","","html-keyboard-response","130","806095","0.0-129.0","A23G1L7KYHK9F2","<p style=""font-size: 48px;"">+</p>","","","","","null","allTrialResponses","1000","1","12","img_art/10.jpg","23","really interesting use of patterns, gives you a lot to look at.","John,James,Devin,Trevor,Evan,Carlos","Bleak and uninteresting,-10,120,20","I have no opinions on this one,0,380,20","Looks a bit as though someone ran over it?,-13,380,20","It's very dark and angry looking,-31,280,20","My immediate thought is WTF is this,-20,140,20","The colors and shapes are soothing but also disconcerting.,21,80,20","Trevor","It's very dark and angry looking,-31,280,20","Evan","My immediate thought is WTF is this,-20,140,20","Carlos","The colors and shapes are soothing but also disconcerting.,21,80,20","2"
"15287","","survey-text","131","821384","0.0-130.0-0.0","A23G1L7KYHK9F2","","","","{""Q0"":""looks like a shaman up to no good, and I'm into it.""}","","","","","","","","","","","","","","","","","","","","","","",""
"2088.5","","image-slider-response","132","823474","0.0-131.0","A23G1L7KYHK9F2","","","","","34","","","","","","","","","","","","","","","","","","","","","",""
"null","","image-button-response","133","828478","0.0-132.0","A23G1L7KYHK9F2","img_art/25.jpg","null","","","","","","","","","","","","","","","","","","","","","","","","",""
"903","","image-button-response","134","829383","0.0-133.0","A23G1L7KYHK9F2","img_art/25.jpg","1","","","","","","","","","","","","","","","","","","","","","","","","",""
"4014","","image-button-response","135","833399","0.0-134.0-0.0","A23G1L7KYHK9F2","img_art/25.jpg","2","","","","","","","","","","","","","","","","","","","","","","","","",""
"1936","","image-button-response","136","835337","0.0-135.0-0.0","A23G1L7KYHK9F2","img_art/25.jpg","3","","","","","","","","","","","","","","","","","","","","","","","","",""
"null","","html-keyboard-response","137","835839","0.0-136.0","A23G1L7KYHK9F2","<p style=""font-size: 48px;"">+</p>","","","","","null","allTrialResponses","500","1","13","img_art/25.jpg","34","looks like a shaman up to no good, and I'm into it.","Jeffrey,Tristan,Steven,Trevor,Evan,Carlos","reminds me of a demon,-25,40,20","The limited palette make this figure mysterious and interpret-able.,20,300,20","It's fine, belongs in a church, or somewhere else mystical,15,160,20","nice colors and it looks like a native work,32,280,20","I really like the green and the fact that it is tattered on the edges,23,140,20","The proportions are unpleasant.,-30,80,20","Tristan","The limited palette make this figure mysterious and interpret-able.,20,300,20","Steven","It's fine, belongs in a church, or somewhere else mystical,15,160,20","Trevor","nice colors and it looks like a native work,32,280,20","2"
"30268","","survey-text","138","866111","0.0-137.0-0.0","A23G1L7KYHK9F2","","","","{""Q0"":""I think I've seen this in a goodwill for $5 before.""}","","","","","","","","","","","","","","","","","","","","","","",""
"2722.5","","image-slider-response","139","868835","0.0-138.0","A23G1L7KYHK9F2","","","","","-37","","","","","","","","","","","","","","","","","","","","","",""
"4158","","image-button-response","140","873851","0.0-139.0","A23G1L7KYHK9F2","img_art/22.jpg","1","","","","","","","","","","","","","","","","","","","","","","","","",""
"2050","","image-button-response","141","875903","0.0-140.0","A23G1L7KYHK9F2","img_art/22.jpg","1","","","","","","","","","","","","","","","","","","","","","","","","",""
"2980","","image-button-response","142","878885","0.0-141.0-0.0","A23G1L7KYHK9F2","img_art/22.jpg","2","","","","","","","","","","","","","","","","","","","","","","","","",""
"1960","","image-button-response","143","880848","0.0-142.0-0.0","A23G1L7KYHK9F2","img_art/22.jpg","5","","","","","","","","","","","","","","","","","","","","","","","","",""
"null","","html-keyboard-response","144","881849","0.0-143.0","A23G1L7KYHK9F2","<p style=""font-size: 48px;"">+</p>","","","","","null","allTrialResponses","1000","1","14","img_art/22.jpg","-37","I think I've seen this in a goodwill for $5 before.","Brendan,Tristan,Steven,Trevor,Juan,Matthew","its just ugly for me,-50,340,20","I appreciate the shapes but the abundance of primary colors make it seem garrish.,-10,300,20","not a fan of this, it's boring,1,160,20","i like the colors but it looks too 80s for me,7,280,20","I don't like the colors or the way they've been arranged.,-20,260,20","Another servicable piece of abstract art?,20,120,20","Tristan","I appreciate the shapes but the abundance of primary colors make it seem garrish.,-10,300,20","Steven","not a fan of this, it's boring,1,160,20","Matthew","Another servicable piece of abstract art?,20,120,20","2"
"53282","","survey-text","145","935135","0.0-144.0-0.0","A23G1L7KYHK9F2","","","","{""Q0"":""looks like 1,000 cigarette burns""}","","","","","","","","","","","","","","","","","","","","","","",""
"2576.300000000745","","image-slider-response","146","937713","0.0-145.0","A23G1L7KYHK9F2","","","","","-40","","","","","","","","","","","","","","","","","","","","","",""
"null","","image-button-response","147","942718","0.0-146.0","A23G1L7KYHK9F2","img_art/15.jpg","null","","","","","","","","","","","","","","","","","","","","","","","","",""
"571","","image-button-response","148","943292","0.0-147.0","A23G1L7KYHK9F2","img_art/15.jpg","2","","","","","","","","","","","","","","","","","","","","","","","","",""
"2625","","image-button-response","149","945920","0.0-148.0-0.0","A23G1L7KYHK9F2","img_art/15.jpg","4","","","","","","","","","","","","","","","","","","","","","","","","",""
"847","","image-button-response","150","946770","0.0-149.0-0.0","A23G1L7KYHK9F2","img_art/15.jpg","3","","","","","","","","","","","","","","","","","","","","","","","","",""
"null","","html-keyboard-response","151","947284","0.0-150.0","A23G1L7KYHK9F2","<p style=""font-size: 48px;"">+</p>","","","","","null","allTrialResponses","500","1","15","img_art/15.jpg","-40","looks like 1,000 cigarette burns","Alejandro,Tristan,Steven,Jacob,Cameron,Matthew","The blotted black spots create a nice contrast between the brush strokes within the center and sides. I like it.,41,80,20","basic colors and pleasing shapes providing a calming effect,15,300,20","I'm just not into it,-5,160,20","I think it's trying to execute a cool idea, but unfortunately it doesn't appeal,5,340,20","This one reminds me of a postage stamp, but branches and leaves. Kind of fun.,15,60,20","I think of birds, nature, levels of space.,18,120,20","Steven","I'm just not into it,-5,160,20","Cameron","This one reminds me of a postage stamp, but branches and leaves. Kind of fun.,15,60,20","Jacob","I think it's trying to execute a cool idea, but unfortunately it doesn't appeal,5,340,20","2"
"3262","","survey-text","152","950551","0.0-151.0-0.0","A23G1L7KYHK9F2","","","","{""Q0"":""course""}","","","","","","","","","","","","","","","","","","","","","","",""
"52661","","survey-text","153","1003213","0.0-152.0-0.0","A23G1L7KYHK9F2","","","","{""Q0"":""a little too abstract to really resonate with me, it's like the artist got bored and just started making white splotches everywhere""}","","","","","","","","","","","","","","","","","","","","","","",""
"2714.5","","image-slider-response","154","1005929","0.0-153.0","A23G1L7KYHK9F2","","","","","-40","","","","","","","","","","","","","","","","","","","","","",""
"null","","image-button-response","155","1010942","0.0-154.0","A23G1L7KYHK9F2","img_art/20.jpg","null","","","","","","","","","","","","","","","","","","","","","","","","",""
"22824","","image-button-response","156","1033768","0.0-155.0","A23G1L7KYHK9F2","img_art/20.jpg","1","","","","","","","","","","","","","","","","","","","","","","","","",""
"4804","","image-button-response","157","1038574","0.0-156.0-0.0","A23G1L7KYHK9F2","img_art/20.jpg","5","","","","","","","","","","","","","","","","","","","","","","","","",""
"1295","","image-button-response","158","1039872","0.0-157.0-0.0","A23G1L7KYHK9F2","img_art/20.jpg","0","","","","","","","","","","","","","","","","","","","","","","","","",""
"null","","html-keyboard-response","159","1040389","0.0-158.0","A23G1L7KYHK9F2","<p style=""font-size: 48px;"">+</p>","","","","","null","allTrialResponses","500","1","16","img_art/20.jpg","-40","a little too abstract to really resonate with me, it's like the artist got bored and just started making white splotches everywhere","Brett,Cole,Steven,Jacob,Cameron,Mitchell","City life vs shore life,40,360,20","Someone trying to be dali,-15,200,20","It's okay, I see what looks like a truck laying on it's side. Meh,10,160,20","It looks painted really nicely.,5,340,20","Dinosaur skill and some dark shadow above,-30,60,20","Interesting. Empty place, wondering what happened, leaving what you used to know.,10,180,20","Cole","Someone trying to be dali,-15,200,20","Mitchell","Interesting. Empty place, wondering what happened, leaving what you used to know.,10,180,20","Brett","City life vs shore life,40,360,20","2"
"46743","","survey-text","160","1087135","0.0-159.0-0.0","A23G1L7KYHK9F2","","","","{""Q0"":""bland, uninspiring, and just not enough striking colors where needed""}","","","","","","","","","","","","","","","","","","","","","","",""
"2336.5999999996275","","image-slider-response","161","1089473","0.0-160.0","A23G1L7KYHK9F2","","","","","-26","","","","","","","","","","","","","","","","","","","","","",""
"3507","","image-button-response","162","1094476","0.0-161.0","A23G1L7KYHK9F2","img_art/14.jpg","1","","","","","","","","","","","","","","","","","","","","","","","","",""
"819","","image-button-response","163","1095297","0.0-162.0","A23G1L7KYHK9F2","img_art/14.jpg","1","","","","","","","","","","","","","","","","","","","","","","","","",""
"4582","","image-button-response","164","1099882","0.0-163.0-0.0","A23G1L7KYHK9F2","img_art/14.jpg","5","","","","","","","","","","","","","","","","","","","","","","","","",""
"687","","image-button-response","165","1100572","0.0-164.0-0.0","A23G1L7KYHK9F2","img_art/14.jpg","3","","","","","","","","","","","","","","","","","","","","","","","","",""
"null","","html-keyboard-response","166","1101576","0.0-165.0","A23G1L7KYHK9F2","<p style=""font-size: 48px;"">+</p>","","","","","null","allTrialResponses","1000","1","17","img_art/14.jpg","-26","bland, uninspiring, and just not enough striking colors where needed","Brett,Cole,Dylan,Jesus,Scott,Mitchell","Confusion or an explosion,40,360,20","Simplistic. Looks like a child did it,14,200,20","Pretty, dainty, unique,22,40,20","I like the combination of colors and textures.,35,100,20","its okay nothing special,11,20,20","Tornado, nature. trees falling and displaced creatures. Love the colors though.,1,180,20","Cole","Simplistic. Looks like a child did it,14,200,20","Mitchell","Tornado, nature. trees falling and displaced creatures. Love the colors though.,1,180,20","Jesus","I like the combination of colors and textures.,35,100,20","2"
"26090","","survey-text","167","1127669","0.0-166.0-0.0","A23G1L7KYHK9F2","","","","{""Q0"":""nice use of texture, and i like that i can make out a few figures. it's like a journey.""}","","","","","","","","","","","","","","","","","","","","","","",""
"1600.300000000745","","image-slider-response","168","1129271","0.0-167.0","A23G1L7KYHK9F2","","","","","31","","","","","","","","","","","","","","","","","","","","","",""
"4854","","image-button-response","169","1134273","0.0-168.0","A23G1L7KYHK9F2","img_art/12.jpg","1","","","","","","","","","","","","","","","","","","","","","","","","",""
"1393","","image-button-response","170","1135668","0.0-169.0","A23G1L7KYHK9F2","img_art/12.jpg","4","","","","","","","","","","","","","","","","","","","","","","","","",""
"2224","","image-button-response","171","1137894","0.0-170.0-0.0","A23G1L7KYHK9F2","img_art/12.jpg","5","","","","","","","","","","","","","","","","","","","","","","","","",""
"2063","","image-button-response","172","1139959","0.0-171.0-0.0","A23G1L7KYHK9F2","img_art/12.jpg","1","","","","","","","","","","","","","","","","","","","","","","","","",""
"null","","html-keyboard-response","173","1141464","0.0-172.0","A23G1L7KYHK9F2","<p style=""font-size: 48px;"">+</p>","","","","","null","allTrialResponses","1500","1","18","img_art/12.jpg","31","nice use of texture, and i like that i can make out a few figures. it's like a journey.","Brandon,Cole,Dalton,Jesus,Joseph,Mitchell","I like the cubic feel.,11,320,20","Interesting colors. I really dont like modern art though,24,200,20","beautiful also reminds me of a quilt,1,300,20","I like the color scheme.,10,100,20","Yay! Lots of people, lots of lives.,25,220,20","confused. stages of a persons life from beginning positive to ending negative.,-10,180,20","Joseph","Yay! Lots of people, lots of lives.,25,220,20","Mitchell","confused. stages of a persons life from beginning positive to ending negative.,-10,180,20","Cole","Interesting colors. I really dont like modern art though,24,200,20","2"
"48017","","survey-text","174","1189485","0.0-173.0-0.0","A23G1L7KYHK9F2","","","","{""Q0"":""looks like someone spilling a soda""}","","","","","","","","","","","","","","","","","","","","","","",""
"2432.199999999255","","image-slider-response","175","1191919","0.0-174.0","A23G1L7KYHK9F2","","","","","-50","","","","","","","","","","","","","","","","","","","","","",""
"null","","image-button-response","176","1196926","0.0-175.0","A23G1L7KYHK9F2","img_art/4.jpg","null","","","","","","","","","","","","","","","","","","","","","","","","",""
"1179","","image-button-response","177","1198106","0.0-176.0","A23G1L7KYHK9F2","img_art/4.jpg","2","","","","","","","","","","","","","","","","","","","","","","","","",""
"3716","","image-button-response","178","1201824","0.0-177.0-0.0","A23G1L7KYHK9F2","img_art/4.jpg","4","","","","","","","","","","","","","","","","","","","","","","","","",""
"1544","","image-button-response","179","1203370","0.0-178.0-0.0","A23G1L7KYHK9F2","img_art/4.jpg","0","","","","","","","","","","","","","","","","","","","","","","","","",""
"null","","html-keyboard-response","180","1203882","0.0-179.0","A23G1L7KYHK9F2","<p style=""font-size: 48px;"">+</p>","","","","","null","allTrialResponses","500","1","19","img_art/4.jpg","-50","looks like someone spilling a soda","Alexander,Cole,Caleb,David,Joseph,Mitchell","Pretzel noodles.,7,120,20","Fingerpaint of a hand?,-30,200,20","Colors are horrendous, look like bodily fluids have been smeared.,-50,40,20","I like the design. It can be interpreted in various ways, such as a hand of horror or still piece.,15,340,20","It's okay, I guess. Nothing much either way.,5,220,20","Hearts, family connected. They are standing on a narrow base and could fall to pieces at anytime.,40,180,20","Caleb","Colors are horrendous, look like bodily fluids have been smeared.,-50,40,20","Joseph","It's okay, I guess. Nothing much either way.,5,220,20","Alexander","Pretzel noodles.,7,120,20","2"
"37781","","survey-text","181","1241666","0.0-180.0-0.0","A23G1L7KYHK9F2","","","","{""Q0"":""looks like those red things are about to drop the dopest rap album of 2021""}","","","","","","","","","","","","","","","","","","","","","","",""
"2376.89999999851","","image-slider-response","182","1244045","0.0-181.0","A23G1L7KYHK9F2","","","","","12","","","","","","","","","","","","","","","","","","","","","",""
"4013","","image-button-response","183","1249048","0.0-182.0","A23G1L7KYHK9F2","img_art/30.jpg","0","","","","","","","","","","","","","","","","","","","","","","","","",""
"998","","image-button-response","184","1250047","0.0-183.0","A23G1L7KYHK9F2","img_art/30.jpg","0","","","","","","","","","","","","","","","","","","","","","","","","",""
"2755","","image-button-response","185","1252804","0.0-184.0-0.0","A23G1L7KYHK9F2","img_art/30.jpg","3","","","","","","","","","","","","","","","","","","","","","","","","",""
"1216","","image-button-response","186","1254022","0.0-185.0-0.0","A23G1L7KYHK9F2","img_art/30.jpg","5","","","","","","","","","","","","","","","","","","","","","","","","",""
"null","","html-keyboard-response","187","1255538","0.0-186.0","A23G1L7KYHK9F2","<p style=""font-size: 48px;"">+</p>","","","","","null","allTrialResponses","1500","1","20","img_art/30.jpg","12","looks like those red things are about to drop the dopest rap album of 2021","Alexander,Devon,Caleb,Michael,Joseph,Paul","Sleek eel in the abstract ocean.,30,120,20","the different roads to take in life,10,400,20","Colors are nice but it just seems too simple.,-26,40,20","It looks like a child did it. There is nothing talented or special about it.,-16,140,20","It's soothing- the page is full, but there aren't too many things happening.,23,220,20","It looked like a random scribble but I can see a person's face in it now and I think it's clever,13,300,20","Alexander","Sleek eel in the abstract ocean.,30,120,20","Michael","It looks like a child did it. There is nothing talented or special about it.,-16,140,20","Paul","It looked like a random scribble but I can see a person's face in it now and I think it's clever,13,300,20","2"
"12347","","survey-text","188","1267891","0.0-187.0-0.0","A23G1L7KYHK9F2","","","","{""Q0"":""we""}","","","","","","","","","","","","","","","","","","","","","","",""
"14327","","survey-text","189","1282219","0.0-188.0-0.0","A23G1L7KYHK9F2","","","","{""Q0"":""looks like a bustling minimalist city""}","","","","","","","","","","","","","","","","","","","","","","",""
"2234.2999999988824","","image-slider-response","190","1284455","0.0-189.0","A23G1L7KYHK9F2","","","","","4","","","","","","","","","","","","","","","","","","","","","",""
"3047","","image-button-response","191","1289458","0.0-190.0","A23G1L7KYHK9F2","img_art/11.jpg","0","","","","","","","","","","","","","","","","","","","","","","","","",""
"594","","image-button-response","192","1290054","0.0-191.0","A23G1L7KYHK9F2","img_art/11.jpg","2","","","","","","","","","","","","","","","","","","","","","","","","",""
"990","","image-button-response","193","1291045","0.0-192.0-0.0","A23G1L7KYHK9F2","img_art/11.jpg","0","","","","","","","","","","","","","","","","","","","","","","","","",""
"3428","","image-button-response","194","1294476","0.0-193.0-0.0","A23G1L7KYHK9F2","img_art/11.jpg","4","","","","","","","","","","","","","","","","","","","","","","","","",""
"null","","html-keyboard-response","195","1295479","0.0-194.0","A23G1L7KYHK9F2","<p style=""font-size: 48px;"">+</p>","","","","","null","allTrialResponses","1000","1","21","img_art/11.jpg","4","looks like a bustling minimalist city","Alexander,Hunter,Corey,Michael,Angel,Paul","Waves of signs.,15,120,20","reminds me of home,5,240,20","dont like the colors. Its a gloomy day in london and this is the transit system,-26,260,20","It's kind of cool and I see it looks clean.,22,140,20","This is disorienting, like motion sickness.,-20,180,20","I like how it reminds me of music and at the same time it looks like colorful train tracks.,10,300,20","Corey","dont like the colors. Its a gloomy day in london and this is the transit system,-26,260,20","Alexander","Waves of signs.,15,120,20","Angel","This is disorienting, like motion sickness.,-20,180,20","2"
"35133","","survey-text","196","1330615","0.0-195.0-0.0","A23G1L7KYHK9F2","","","","{""Q0"":""too disjointed/lacking in color. looks unfinished.""}","","","","","","","","","","","","","","","","","","","","","","",""
"10176.400000000373","","image-slider-response","197","1340793","0.0-196.0","A23G1L7KYHK9F2","","","","","-17","","","","","","","","","","","","","","","","","","","","","",""
"4180","","image-button-response","198","1345797","0.0-197.0","A23G1L7KYHK9F2","img_art/17.jpg","1","","","","","","","","","","","","","","","","","","","","","","","","",""
"857","","image-button-response","199","1346656","0.0-198.0","A23G1L7KYHK9F2","img_art/17.jpg","1","","","","","","","","","","","","","","","","","","","","","","","","",""
"2739","","image-button-response","200","1349399","0.0-199.0-0.0","A23G1L7KYHK9F2","img_art/17.jpg","4","","","","","","","","","","","","","","","","","","","","","","","","",""
"808","","image-button-response","201","1350212","0.0-200.0-0.0","A23G1L7KYHK9F2","img_art/17.jpg","5","","","","","","","","","","","","","","","","","","","","","","","","",""
"null","","html-keyboard-response","202","1351214","0.0-201.0","A23G1L7KYHK9F2","<p style=""font-size: 48px;"">+</p>","","","","","null","allTrialResponses","1000","1","22","img_art/17.jpg","-17","too disjointed/lacking in color. looks unfinished.","Alexander,Ethan,Corey,Jason,Angel,Taylor","Tree of knowledge in a quiet school.,17,120,20","The colors are nice and soft but not very complimentary.,7,120,20","gentle watercolor vibes,12,260,20","Very beautiful,19,20,20","Reminds me of the modern art museum in Rome. I didn't ""get"" many pieces, but had a positive cultural experience overall.,20,180,20","Somewhat should trim the tree branches at the shopping mall.,10,200,20","Ethan","The colors are nice and soft but not very complimentary.,7,120,20","Angel","Reminds me of the modern art museum in Rome. I didn't ""get"" many pieces, but had a positive cultural experience overall.,20,180,20","Taylor","Somewhat should trim the tree branches at the shopping mall.,10,200,20","2"
"18755","","survey-text","203","1369974","0.0-202.0-0.0","A23G1L7KYHK9F2","","","","{""Q0"":""I think I had this same dream the last time I had a high grade fever.""}","","","","","","","","","","","","","","","","","","","","","","",""
"2818.5","","image-slider-response","204","1372794","0.0-203.0","A23G1L7KYHK9F2","","","","","16","","","","","","","","","","","","","","","","","","","","","",""
"2698","","image-button-response","205","1377797","0.0-204.0","A23G1L7KYHK9F2","img_art/19.jpg","0","","","","","","","","","","","","","","","","","","","","","","","","",""
"1099","","image-button-response","206","1378898","0.0-205.0","A23G1L7KYHK9F2","img_art/19.jpg","1","","","","","","","","","","","","","","","","","","","","","","","","",""
"4093","","image-button-response","207","1382994","0.0-206.0-0.0","A23G1L7KYHK9F2","img_art/19.jpg","3","","","","","","","","","","","","","","","","","","","","","","","","",""
"1698","","image-button-response","208","1384698","0.0-207.0-0.0","A23G1L7KYHK9F2","img_art/19.jpg","4","","","","","","","","","","","","","","","","","","","","","","","","",""
"null","","html-keyboard-response","209","1386204","0.0-208.0","A23G1L7KYHK9F2","<p style=""font-size: 48px;"">+</p>","","","","","null","allTrialResponses","1500","1","23","img_art/19.jpg","16","I think I had this same dream the last time I had a high grade fever.","Zachary,Ethan,Christopher,Anthony,Angel,Taylor","Reminds me of a busy town. Chaotic in nature.,-11,400,20","I interpret an outdoor scene. It's good because it makes me want to look longer.,22,120,20","too much of a mix of lines and shading,-22,160,20","Very, very ugly and sloppy,-31,200,20","This one feels pretty neutral. Like a window into someone's life, one person in a bustling metropolis.,0,180,20","Looks like a homeless man and this painting should be too.,-5,200,20","Ethan","I interpret an outdoor scene. It's good because it makes me want to look longer.,22,120,20","Anthony","Very, very ugly and sloppy,-31,200,20","Angel","This one feels pretty neutral. Like a window into someone's life, one person in a bustling metropolis.,0,180,20","2"
"39171","","survey-text","210","1425380","0.0-209.0-0.0","A23G1L7KYHK9F2","","","","{""Q0"":""Someone huffed paint and then sneezed on a window.""}","","","","","","","","","","","","","","","","","","","","","","",""
"3246.5","","image-slider-response","211","1428628","0.0-210.0","A23G1L7KYHK9F2","","","","","-41","","","","","","","","","","","","","","","","","","","","","",""
"2518","","image-button-response","212","1433641","0.0-211.0","A23G1L7KYHK9F2","img_art/13.jpg","1","","","","","","","","","","","","","","","","","","","","","","","","",""
"2019","","image-button-response","213","1435662","0.0-212.0","A23G1L7KYHK9F2","img_art/13.jpg","1","","","","","","","","","","","","","","","","","","","","","","","","",""
"1008","","image-button-response","214","1436672","0.0-213.0-0.0","A23G1L7KYHK9F2","img_art/13.jpg","4","","","","","","","","","","","","","","","","","","","","","","","","",""
"1255","","image-button-response","215","1437930","0.0-214.0-0.0","A23G1L7KYHK9F2","img_art/13.jpg","5","","","","","","","","","","","","","","","","","","","","","","","","",""
"null","","html-keyboard-response","216","1439434","0.0-215.0","A23G1L7KYHK9F2","<p style=""font-size: 48px;"">+</p>","","","","","null","allTrialResponses","1500","1","24","img_art/13.jpg","-41","Someone huffed paint and then sneezed on a window.","Andrew,Ethan,Luis,Anthony,Angel,Antonio","It makes me think of sitting inside on a rainy day while drinking a warm coffee,32,160,20","I do not care for the colors in this art. it doesnt go well at all.,-15,120,20","I love the edgy nature,50,400,20","I like the color scheme,41,200,20","Reminds me of depression anxiety, but negativity is dampened by motion. It's trying to release itself through expression.,-10,180,20","Pretty but didnt cause a reaction,33,220,20","Ethan","I do not care for the colors in this art. it doesnt go well at all.,-15,120,20","Angel","Reminds me of depression anxiety, but negativity is dampened by motion. It's trying to release itself through expression.,-10,180,20","Antonio","Pretty but didnt cause a reaction,33,220,20","2"
"34879","","survey-text","217","1474318","0.0-216.0-0.0","A23G1L7KYHK9F2","","","","{""Q0"":""This looks like how I see the beach if I take my glasses off.""}","","","","","","","","","","","","","","","","","","","","","","",""
"1848.4000000003725","","image-slider-response","218","1476168","0.0-217.0","A23G1L7KYHK9F2","","","","","-11","","","","","","","","","","","","","","","","","","","","","",""
"1768","","image-button-response","219","1481170","0.0-218.0","A23G1L7KYHK9F2","img_art/21.jpg","5","","","","","","","","","","","","","","","","","","","","","","","","",""
"1896","","image-button-response","220","1483068","0.0-219.0","A23G1L7KYHK9F2","img_art/21.jpg","5","","","","","","","","","","","","","","","","","","","","","","","","",""
"1088","","image-button-response","221","1484158","0.0-220.0-0.0","A23G1L7KYHK9F2","img_art/21.jpg","0","","","","","","","","","","","","","","","","","","","","","","","","",""
"976","","image-button-response","222","1485136","0.0-221.0-0.0","A23G1L7KYHK9F2","img_art/21.jpg","3","","","","","","","","","","","","","","","","","","","","","","","","",""
"null","","html-keyboard-response","223","1486638","0.0-222.0","A23G1L7KYHK9F2","<p style=""font-size: 48px;"">+</p>","","","","","null","allTrialResponses","1500","1","25","img_art/21.jpg","-11","This looks like how I see the beach if I take my glasses off.","Dakota,Ethan,Malik,Sean,Angel,Antonio","a serene, calm and eloquent storm,9,280,20","This is lovely. I like the mix of colors, the warn and cool slowly combining.,39,120,20","Indistinct, but beautiful hues,10,40,20","my response to the picture is what is going on?,-13,40,20","This feels chaotic, like a battle or a storm.,-20,180,20","the colors are pretty but I did not feel any thing looking at it,33,220,20","Antonio","the colors are pretty but I did not feel any thing looking at it,33,220,20","Dakota","a serene, calm and eloquent storm,9,280,20","Sean","my response to the picture is what is going on?,-13,40,20","2"
"3008","","survey-text","224","1489654","0.0-223.0-0.0","A23G1L7KYHK9F2","","","","{""Q0"":""table""}","","","","","","","","","","","","","","","","","","","","","","",""
"35995","","survey-text","225","1525650","0.0-224.0-0.0","A23G1L7KYHK9F2","","","","{""Q0"":""Nance has this in her home next to the 'live, laugh, love' poster because she thinks it makes her look intellectual. It doesn't.""}","","","","","","","","","","","","","","","","","","","","","","",""
"2202.2999999988824","","image-slider-response","226","1527854","0.0-225.0","A23G1L7KYHK9F2","","","","","-31","","","","","","","","","","","","","","","","","","","","","",""
"3884","","image-button-response","227","1532856","0.0-226.0","A23G1L7KYHK9F2","img_art/1.jpg","1","","","","","","","","","","","","","","","","","","","","","","","","",""
"876","","image-button-response","228","1533734","0.0-227.0","A23G1L7KYHK9F2","img_art/1.jpg","1","","","","","","","","","","","","","","","","","","","","","","","","",""
"5344","","image-button-response","229","1539080","0.0-228.0-0.0","A23G1L7KYHK9F2","img_art/1.jpg","3","","","","","","","","","","","","","","","","","","","","","","","","",""
"3035","","image-button-response","230","1542118","0.0-229.0-0.0","A23G1L7KYHK9F2","img_art/1.jpg","2","","","","","","","","","","","","","","","","","","","","","","","","",""
"null","","html-keyboard-response","231","1543629","0.0-230.0","A23G1L7KYHK9F2","<p style=""font-size: 48px;"">+</p>","","","","","null","allTrialResponses","1500","1","26","img_art/1.jpg","-31","Nance has this in her home next to the 'live, laugh, love' poster because she thinks it makes her look intellectual. It doesn't.","Dakota,Tyler,Gregory,Sean,Luke,Antonio","soft and touchable, muddled,15,280,20","This looks like the same artist as the first picture, but cropped? Looks incomplete.,28,320,20","Looks like just a bunch of colors with no real point,-5,220,20","my reaction is that the picture is that Ive seen it before,-14,40,20","it is very colorful and makes me happy,44,20,20","Felt nothing in response to this painting,3,220,20","Tyler","This looks like the same artist as the first picture, but cropped? Looks incomplete.,28,320,20","Sean","my reaction is that the picture is that Ive seen it before,-14,40,20","Gregory","Looks like just a bunch of colors with no real point,-5,220,20","2"
"91412","","survey-text","232","1635046","0.0-231.0-0.0","A23G1L7KYHK9F2","","","","{""Q0"":""It seems impossible to make a waterfall look uninviting, and yet here we are.""}","","","","","","","","","","","","","","","","","","","","","","",""
"2498.4000000003725","","image-slider-response","233","1637546","0.0-232.0","A23G1L7KYHK9F2","","","","","-28","","","","","","","","","","","","","","","","","","","","","",""
"null","","image-button-response","234","1642548","0.0-233.0","A23G1L7KYHK9F2","img_art/24.jpg","null","","","","","","","","","","","","","","","","","","","","","","","","",""
"5144","","image-button-response","235","1647694","0.0-234.0","A23G1L7KYHK9F2","img_art/24.jpg","0","","","","","","","","","","","","","","","","","","","","","","","","",""
"826","","image-button-response","236","1648522","0.0-235.0-0.0","A23G1L7KYHK9F2","img_art/24.jpg","1","","","","","","","","","","","","","","","","","","","","","","","","",""
"2618","","image-button-response","237","1651142","0.0-236.0-0.0","A23G1L7KYHK9F2","img_art/24.jpg","5","","","","","","","","","","","","","","","","","","","","","","","","",""
"null","","html-keyboard-response","238","1652145","0.0-237.0","A23G1L7KYHK9F2","<p style=""font-size: 48px;"">+</p>","","","","","null","allTrialResponses","1000","1","27","img_art/24.jpg","-28","It seems impossible to make a waterfall look uninviting, and yet here we are.","Jake,Tyler,Gregory,Sean,Isaac,Blake","This looks ugly and simple, as if done by a young person.,-2,360,20","Exceedingly garish,-19,320,20","Beautiful waterfall with nice colors,40,220,20","I like the waterfall,22,40,20","The colors are relaxing and cheerful.,32,280,20","warm spring day after a rain. soft,20,280,20","Jake","This looks ugly and simple, as if done by a young person.,-2,360,20","Tyler","Exceedingly garish,-19,320,20","Blake","warm spring day after a rain. soft,20,280,20","2"
"47146","","survey-text","239","1699296","0.0-238.0-0.0","A23G1L7KYHK9F2","","","","{""Q0"":""I wouldn't sign my name on this if I killed someone and then angrily smeared his blood all over the canvas.""}","","","","","","","","","","","","","","","","","","","","","","",""
"1912.2000000011176","","image-slider-response","240","1701210","0.0-239.0","A23G1L7KYHK9F2","","","","","-50","","","","","","","","","","","","","","","","","","","","","",""
"4667","","image-button-response","241","1706213","0.0-240.0","A23G1L7KYHK9F2","img_art/3.jpg","0","","","","","","","","","","","","","","","","","","","","","","","","",""
"738","","image-button-response","242","1706952","0.0-241.0","A23G1L7KYHK9F2","img_art/3.jpg","0","","","","","","","","","","","","","","","","","","","","","","","","",""
"4063","","image-button-response","243","1711017","0.0-242.0-0.0","A23G1L7KYHK9F2","img_art/3.jpg","1","","","","","","","","","","","","","","","","","","","","","","","","",""
"1424","","image-button-response","244","1712443","0.0-243.0-0.0","A23G1L7KYHK9F2","img_art/3.jpg","3","","","","","","","","","","","","","","","","","","","","","","","","",""
"null","","html-keyboard-response","245","1713445","0.0-244.0","A23G1L7KYHK9F2","<p style=""font-size: 48px;"">+</p>","","","","","null","allTrialResponses","1000","1","28","img_art/3.jpg","-50","I wouldn't sign my name on this if I killed someone and then angrily smeared his blood all over the canvas.","Jake,Tyler,Nathaniel,Alex,Kenneth,Blake","This is angry and childish looking.,-49,360,20","This doesn't grab me. Perhaps the red is meant to be provocative; I find it gimmicky.,-9,320,20","Just scribbles. People buy that?,-47,220,20","Ok, just a bunch of red lines and a grey smudge. Would pass this right by in a gallery,-12,100,20","Reminds me of blood.,-28,300,20","painted by a 2 year old. cold and boring,-30,280,20","Jake","This is angry and childish looking.,-49,360,20","Tyler","This doesn't grab me. Perhaps the red is meant to be provocative; I find it gimmicky.,-9,320,20","Alex","Ok, just a bunch of red lines and a grey smudge. Would pass this right by in a gallery,-12,100,20","2"
"75816","","survey-text","246","1789266","0.0-245.0-0.0","A23G1L7KYHK9F2","","","","{""Q0"":""Looks like a child's watercolor painting.""}","","","","","","","","","","","","","","","","","","","","","","",""
"1440.5","","image-slider-response","247","1790708","0.0-246.0","A23G1L7KYHK9F2","","","","","-39","","","","","","","","","","","","","","","","","","","","","",""
"null","","image-button-response","248","1795722","0.0-247.0","A23G1L7KYHK9F2","img_art/26.jpg","null","","","","","","","","","","","","","","","","","","","","","","","","",""
"587","","image-button-response","249","1796311","0.0-248.0","A23G1L7KYHK9F2","img_art/26.jpg","1","","","","","","","","","","","","","","","","","","","","","","","","",""
"2162","","image-button-response","250","1798475","0.0-249.0-0.0","A23G1L7KYHK9F2","img_art/26.jpg","2","","","","","","","","","","","","","","","","","","","","","","","","",""
"976","","image-button-response","251","1799453","0.0-250.0-0.0","A23G1L7KYHK9F2","img_art/26.jpg","4","","","","","","","","","","","","","","","","","","","","","","","","",""
"null","","html-keyboard-response","252","1799955","0.0-251.0","A23G1L7KYHK9F2","<p style=""font-size: 48px;"">+</p>","","","","","null","allTrialResponses","500","1","29","img_art/26.jpg","-39","Looks like a child's watercolor painting.","Jake,Tyler,Adrian,Alex,Brian,Vincent","It's not ugly but not beautiful at all.,-3,360,20","Colors look glum; photograph is not properly contrasted and does not reflect the appropriate amount of natural light.,-10,320,20","I see a suburban neighborhood with townhouses and trees. Not a fan of the colors or style.,-16,60,20","I can make out a street view and I am a fan of watercolors but still too boring,15,100,20","I'm not really into landscapes unless I have a personal connection to them,-21,380,20","Small town and home feel on A nice day.,28,360,20","Tyler","Colors look glum; photograph is not properly contrasted and does not reflect the appropriate amount of natural light.,-10,320,20","Adrian","I see a suburban neighborhood with townhouses and trees. Not a fan of the colors or style.,-16,60,20","Brian","I'm not really into landscapes unless I have a personal connection to them,-21,380,20","2"
"18053","","survey-text","253","1818012","0.0-252.0-0.0","A23G1L7KYHK9F2","","","","{""Q0"":""Someone left their wig in the desert. That's gonna dry out fast.""}","","","","","","","","","","","","","","","","","","","","","","",""
"2160.4000000003725","","image-slider-response","254","1820174","0.0-253.0","A23G1L7KYHK9F2","","","","","-39","","","","","","","","","","","","","","","","","","","","","",""
"4287","","image-button-response","255","1825176","0.0-254.0","A23G1L7KYHK9F2","img_art/6.jpg","1","","","","","","","","","","","","","","","","","","","","","","","","",""
"359","","image-button-response","256","1825537","0.0-255.0","A23G1L7KYHK9F2","img_art/6.jpg","1","","","","","","","","","","","","","","","","","","","","","","","","",""
"3988","","image-button-response","257","1829527","0.0-256.0-0.0","A23G1L7KYHK9F2","img_art/6.jpg","3","","","","","","","","","","","","","","","","","","","","","","","","",""
"2556","","image-button-response","258","1832085","0.0-257.0-0.0","A23G1L7KYHK9F2","img_art/6.jpg","4","","","","","","","","","","","","","","","","","","","","","","","","",""
"null","","html-keyboard-response","259","1833090","0.0-258.0","A23G1L7KYHK9F2","<p style=""font-size: 48px;"">+</p>","","","","","null","allTrialResponses","1000","1","30","img_art/6.jpg","-39","Someone left their wig in the desert. That's gonna dry out fast.","Logan,Tyler,Adrian,Bryan,Brian,Austin","boring. don't really like birds,1,360,20","Is this the villain from Despicable Me?,29,320,20","Simple, warm, hopeful.,12,60,20","Growth in the desert?  Don't care for it very much.,-26,400,20","this is too simple for me,-34,380,20","Love the simplicity of it,41,240,20","Tyler","Is this the villain from Despicable Me?,29,320,20","Bryan","Growth in the desert?  Don't care for it very much.,-26,400,20","Brian","this is too simple for me,-34,380,20","2"
"12500","","image-button-response_instructions","260","1845595","0.0-259.0","A23G1L7KYHK9F2","","0","instructions","","","","","","","","","","","","","","","","","","","","","","","",""
"1242","","image-button-response","261","1846841","0.0-260.0","A23G1L7KYHK9F2","","0","","","","","","","","","","","","","","","","","","","","","","","","",""
