"rt","url","trial_type","trial_index","time_elapsed","internal_node_id","participant_id","stimulus","button_pressed","Name","responses","response","key_press","variableName","fixationTime","condition","trial","photo","subjectRating","subjectResponse","agentsNames","agent_1_Response","agent_2_Response","agent_3_Response","agent_4_Response","agent_5_Response","agent_6_Response","kept_1_name","kept_1_response","kept_2_name","kept_2_response","kept_3_name","kept_3_response","errorCounter"
"7684","external_page_harvard.html","external-html","0","7730","0.0-0.0","A24FHD04JCEDJQ","","","","","","","","","","","","","","","","","","","","","","","","","","",""
"2112","","image-button-response","1","9846","0.0-1.0","A24FHD04JCEDJQ","","1","","","","","","","","","","","","","","","","","","","","","","","","",""
"3441","","image-button-response","2","13296","0.0-2.0-0.0","A24FHD04JCEDJQ","","1","phone","","","","","","","","","","","","","","","","","","","","","","","",""
"3704","","survey-text","3","17004","0.0-3.0-0.0","A24FHD04JCEDJQ","","","","{""Q0"":""A24FHD04JCEDJQ""}","","","","","","","","","","","","","","","","","","","","","","",""
"7141","","image-button-response_instructions","4","24149","0.0-4.0","A24FHD04JCEDJQ","","0","instructions","","","","","","","","","","","","","","","","","","","","","","","",""
"8257","","image-button-response_instructions","5","32409","0.0-5.0","A24FHD04JCEDJQ","img_art/ins/popularity/ins1.png","0","instructions","","","","","","","","","","","","","","","","","","","","","","","",""
"4489","","image-button-response_instructions","6","36900","0.0-6.0","A24FHD04JCEDJQ","img_art/ins/popularity/ins2.png","0","instructions","","","","","","","","","","","","","","","","","","","","","","","",""
"6029","","image-button-response_instructions","7","42931","0.0-7.0","A24FHD04JCEDJQ","img_art/ins/popularity/ins2Extreme.png","0","instructions","","","","","","","","","","","","","","","","","","","","","","","",""
"7283","","image-button-response_instructions","8","50217","0.0-8.0","A24FHD04JCEDJQ","img_art/ins/popularity/ins3KEEPpop.PNG","0","instructions","","","","","","","","","","","","","","","","","","","","","","","",""
"6054","","image-button-response_instructions","9","56273","0.0-9.0","A24FHD04JCEDJQ","img_art/ins/popularity/ins3ANamepop.PNG","0","instructions","","","","","","","","","","","","","","","","","","","","","","","",""
"8599","","image-button-response_instructions","10","64875","0.0-10.0","A24FHD04JCEDJQ","img_art/ins/popularity/ins3ARatingpop.png","0","instructions","","","","","","","","","","","","","","","","","","","","","","","",""
"5729","","image-button-response_instructions","11","70606","0.0-11.0","A24FHD04JCEDJQ","img_art/ins/popularity/ins3ATextpop.png","0","instructions","","","","","","","","","","","","","","","","","","","","","","","",""
"23448","","image-button-response_instructions","12","94056","0.0-12.0","A24FHD04JCEDJQ","img_art/ins/popularity/ins3ALikespop.png","0","instructions","","","","","","","","","","","","","","","","","","","","","","","",""
"18242","","image-button-response_instructions","13","112300","0.0-13.0","A24FHD04JCEDJQ","img_art/ins/popularity/ins3KEEPpop.PNG","0","instructions","","","","","","","","","","","","","","","","","","","","","","","",""
"9495","","image-button-response_instructions","14","121798","0.0-14.0","A24FHD04JCEDJQ","img_art/ins/popularity/ins3_5RED.png","0","instructions","","","","","","","","","","","","","","","","","","","","","","","",""
"7914","","image-button-response_instructions","15","129715","0.0-15.0","A24FHD04JCEDJQ","img_art/ins/popularity/ins3KEEPpop.PNG","0","instructions","","","","","","","","","","","","","","","","","","","","","","","",""
"10435","","image-button-response_instructions","16","140155","0.0-16.0","A24FHD04JCEDJQ","img_art/ins/popularity/ins4KEEPpop.PNG","0","instructions","","","","","","","","","","","","","","","","","","","","","","","",""
"16839","","image-button-response_instructions","17","156997","0.0-17.0","A24FHD04JCEDJQ","img_art/ins/popularity/ins5KEEPpop.PNG","0","instructions","","","","","","","","","","","","","","","","","","","","","","","",""
"3761","","image-button-response_instructions","18","160760","0.0-18.0","A24FHD04JCEDJQ","","0","instructions","","","","","","","","","","","","","","","","","","","","","","","",""
"5096","","survey-text","19","165888","0.0-19.0-0.0","A24FHD04JCEDJQ","","","","{""Q0"":""but""}","","","","","","","","","","","","","","","","","","","","","","",""
"24485","","survey-text","20","190377","0.0-20.0-0.0","A24FHD04JCEDJQ","","","","{""Q0"":""Colorful and vibrant, but doesn't really evoke anything in me. ""}","","","","","","","","","","","","","","","","","","","","","","",""
"6763.800000011921","","image-slider-response","21","197146","0.0-21.0","A24FHD04JCEDJQ","","","","","18","","","","","","","","","","","","","","","","","","","","","",""
"null","","image-button-response","22","202158","0.0-22.0","A24FHD04JCEDJQ","img_art/ins/1.jpg","null","","","","","","","","","","","","","","","","","","","","","","","","",""
"12124","","image-button-response","23","214288","0.0-23.0","A24FHD04JCEDJQ","img_art/ins/1.jpg","4","","","","","","","","","","","","","","","","","","","","","","","","",""
"2237","","image-button-response","24","216531","0.0-24.0-0.0","A24FHD04JCEDJQ","img_art/ins/1.jpg","0","","","","","","","","","","","","","","","","","","","","","","","","",""
"5214","","image-button-response","25","221749","0.0-25.0-0.0","A24FHD04JCEDJQ","img_art/ins/1.jpg","5","","","","","","","","","","","","","","","","","","","","","","","","",""
"null","","html-keyboard-response","26","222256","0.0-26.0","A24FHD04JCEDJQ","<p style=""font-size: 48px;"">+</p>","","","","","null","allTrialResponses","500","1","-2","img_art/ins/1.jpg","18","Colorful and vibrant, but doesn't really evoke anything in me. ","Allison,Ashley,Beth,Dora,Erika,Jen","looks like a lot of things going on in the mist,20,20,20","I just don't get why these type of art would be popular,-32,40,20","This color reminds me of poo,-46,60,20","looks like what my niece in 3rd grade did this afternoon,-50,80,20","I like the sophisticated brushwork,40,100,20","It reminds me of a candy land dream I had,36,120,20","Erika","I like the sophisticated brushwork,40,100,20","Allison","looks like a lot of things going on in the mist,20,20,20","Jen","It reminds me of a candy land dream I had,36,120,20","0"
"27413","","survey-text","27","249677","0.0-27.0-0.0","A24FHD04JCEDJQ","","","","{""Q0"":""The color choices are very striking. It immediately got a reaction from me. ""}","","","","","","","","","","","","","","","","","","","","","","",""
"3493.400000035763","","image-slider-response","28","253175","0.0-28.0","A24FHD04JCEDJQ","","","","","39","","","","","","","","","","","","","","","","","","","","","",""
"null","","image-button-response","29","258181","0.0-29.0","A24FHD04JCEDJQ","img_art/ins/2.jpg","null","","","","","","","","","","","","","","","","","","","","","","","","",""
"3927","","image-button-response","30","262112","0.0-30.0","A24FHD04JCEDJQ","img_art/ins/2.jpg","5","","","","","","","","","","","","","","","","","","","","","","","","",""
"2286","","image-button-response","31","264402","0.0-31.0-0.0","A24FHD04JCEDJQ","img_art/ins/2.jpg","1","","","","","","","","","","","","","","","","","","","","","","","","",""
"4818","","image-button-response","32","269225","0.0-32.0-0.0","A24FHD04JCEDJQ","img_art/ins/2.jpg","4","","","","","","","","","","","","","","","","","","","","","","","","",""
"null","","html-keyboard-response","33","270228","0.0-33.0","A24FHD04JCEDJQ","<p style=""font-size: 48px;"">+</p>","","","","","null","allTrialResponses","1000","1","-1","img_art/ins/2.jpg","39","The color choices are very striking. It immediately got a reaction from me. ","Allison,Kara,Katie,Jenna,Erika,Jen","I don't have strong feelings about this,10,20,20","I like the blocks of color arrangements,30,160,20","too much color!,-28,180,20","One of my pet peevs,-48,140,20","I would never be able to compose a sophisticated pallete like this,48,100,20","It reminds me of a fireplace,36,120,20","Jen","It reminds me of a fireplace,36,120,20","Kara","I like the blocks of color arrangements,30,160,20","Erika","I would never be able to compose a sophisticated pallete like this,48,100,20","0"
"14021","","survey-text","34","284260","0.0-34.0-0.0","A24FHD04JCEDJQ","","","","{""Q0"":""Cool. Reminds me of winter.""}","","","","","","","","","","","","","","","","","","","","","","",""
"4052.5","","image-slider-response","35","288318","0.0-35.0","A24FHD04JCEDJQ","","","","","34","","","","","","","","","","","","","","","","","","","","","",""
"3447","","image-button-response","36","293327","0.0-36.0","A24FHD04JCEDJQ","img_art/ins/3.jpg","1","","","","","","","","","","","","","","","","","","","","","","","","",""
"1597","","image-button-response","37","294928","0.0-37.0","A24FHD04JCEDJQ","img_art/ins/3.jpg","1","","","","","","","","","","","","","","","","","","","","","","","","",""
"1713","","image-button-response","38","296644","0.0-38.0-0.0","A24FHD04JCEDJQ","img_art/ins/3.jpg","2","","","","","","","","","","","","","","","","","","","","","","","","",""
"3074","","image-button-response","39","299720","0.0-39.0-0.0","A24FHD04JCEDJQ","img_art/ins/3.jpg","0","","","","","","","","","","","","","","","","","","","","","","","","",""
"null","","html-keyboard-response","40","300726","0.0-40.0","A24FHD04JCEDJQ","<p style=""font-size: 48px;"">+</p>","","","","","null","allTrialResponses","1000","1","0","img_art/ins/3.jpg","34","Cool. Reminds me of winter.","Mary,Kara,Rose,Leslie,Erika,Jen","I like the overlapping of brushes,41,220,20","calming blue is very nice,36,160,20","My daily routine, it's depressing,-20,240,20","It's an alright work,15,200,20","I feel connected to the artist,40,100,20","I can feel a rainy day from this painting,18,120,20","Kara","calming blue is very nice,36,160,20","Rose","My daily routine, it's depressing,-20,240,20","Mary","I like the overlapping of brushes,41,220,20","0"
"6626","","image-button-response_instructions","41","307363","0.0-41.0","A24FHD04JCEDJQ","","0","instructions","","","","","","","","","","","","","","","","","","","","","","","",""
"9533","","survey-likert","42","316900","0.0-42.0-0.0","A24FHD04JCEDJQ","","","","{""Q0"":"""",""Q1"":0,""Q2"":1}","","","","","","","","","","","","","","","","","","","","","","",""
"4795","","survey-text","43","321704","0.0-43.0-0.0","A24FHD04JCEDJQ","","","","{""Q0"":""rock""}","","","","","","","","","","","","","","","","","","","","","","",""
"20508","","survey-text","44","342221","0.0-44.0-0.0","A24FHD04JCEDJQ","","","","{""Q0"":""Wonderfully vague. I like the brushwork. ""}","","","","","","","","","","","","","","","","","","","","","","",""
"4767","","image-slider-response","45","346993","0.0-45.0","A24FHD04JCEDJQ","","","","","17","","","","","","","","","","","","","","","","","","","","","",""
"3711","","image-button-response","46","352019","0.0-46.0","A24FHD04JCEDJQ","img_art/1.jpg","0","","","","","","","","","","","","","","","","","","","","","","","","",""
"471","","image-button-response","47","352494","0.0-47.0","A24FHD04JCEDJQ","img_art/1.jpg","1","","","","","","","","","","","","","","","","","","","","","","","","",""
"1469","","image-button-response","48","353967","0.0-48.0-0.0","A24FHD04JCEDJQ","img_art/1.jpg","0","","","","","","","","","","","","","","","","","","","","","","","","",""
"912","","image-button-response","49","354882","0.0-49.0-0.0","A24FHD04JCEDJQ","img_art/1.jpg","0","","","","","","","","","","","","","","","","","","","","","","","","",""
"4709","","image-button-response","50","363539","0.0-49.1-0.1","A24FHD04JCEDJQ","img_art/1.jpg","5","","","","","","","","","","","","","","","","","","","","","","","","",""
"null","","html-keyboard-response","51","364547","0.0-50.0","A24FHD04JCEDJQ","<p style=""font-size: 48px;"">+</p>","","","","","null","allTrialResponses","1000","1","1","img_art/1.jpg","17","Wonderfully vague. I like the brushwork. ","Stephanie,Gabriela,Briana,Kaylee,Amy,Kelly","Pretty colors. Fall day in the East Coast of USA.,42,300,20","This photo reminds me of a fall afternoon, serene,11,140,20","I like the colors. But it doesnt look like anything,27,400,20","a colorful piece of art,25,200,20","Unpleasing palette. I see a figure but it seems incongrous to the highly abstract background.,-20,220,20","I love colorful photos and I like this one a lot.,25,220,20","Gabriela","This photo reminds me of a fall afternoon, serene,11,140,20","Stephanie","Pretty colors. Fall day in the East Coast of USA.,42,300,20","Kelly","I love colorful photos and I like this one a lot.,25,220,20","2"
"19429","","survey-text","52","383981","0.0-51.0-0.0","A24FHD04JCEDJQ","","","","{""Q0"":""Interesting piece. Reminds me of art that Radiohead would use. ""}","","","","","","","","","","","","","","","","","","","","","","",""
"3142.600000023842","","image-slider-response","53","387130","0.0-52.0","A24FHD04JCEDJQ","","","","","39","","","","","","","","","","","","","","","","","","","","","",""
"null","","image-button-response","54","392134","0.0-53.0","A24FHD04JCEDJQ","img_art/28.jpg","null","","","","","","","","","","","","","","","","","","","","","","","","",""
"2226","","image-button-response","55","394363","0.0-54.0","A24FHD04JCEDJQ","img_art/28.jpg","0","","","","","","","","","","","","","","","","","","","","","","","","",""
"4466","","image-button-response","56","398838","0.0-55.0-0.0","A24FHD04JCEDJQ","img_art/28.jpg","4","","","","","","","","","","","","","","","","","","","","","","","","",""
"5422","","image-button-response","57","404266","0.0-56.0-0.0","A24FHD04JCEDJQ","img_art/28.jpg","3","","","","","","","","","","","","","","","","","","","","","","","","",""
"null","","html-keyboard-response","58","405272","0.0-57.0","A24FHD04JCEDJQ","<p style=""font-size: 48px;"">+</p>","","","","","null","allTrialResponses","1000","1","2","img_art/28.jpg","39","Interesting piece. Reminds me of art that Radiohead would use. ","Stephanie,Gabriela,Elizabeth,Sydney,Tiffany,Kelly","The colors are neutral but I see a mother helping her child,31,300,20","The brown and green colors used look dull and unappealing,-30,140,20","Not really exciting,23,20,20","I enjoy the colors.,25,320,20","It makes me feel happy, and a little anxious.,50,360,20","This one is too bleak, not a fan of the image or colors.,-28,220,20","Stephanie","The colors are neutral but I see a mother helping her child,31,300,20","Tiffany","It makes me feel happy, and a little anxious.,50,360,20","Sydney","I enjoy the colors.,25,320,20","2"
"19800","","survey-text","59","425083","0.0-58.0-0.0","A24FHD04JCEDJQ","","","","{""Q0"":""Interesting interpretation of a scene, but the colors don't excite me. ""}","","","","","","","","","","","","","","","","","","","","","","",""
"4606.899999976158","","image-slider-response","60","429695","0.0-59.0","A24FHD04JCEDJQ","","","","","-9","","","","","","","","","","","","","","","","","","","","","",""
"null","","image-button-response","61","434699","0.0-60.0","A24FHD04JCEDJQ","img_art/9.jpg","null","","","","","","","","","","","","","","","","","","","","","","","","",""
"6605","","image-button-response","62","441308","0.0-61.0","A24FHD04JCEDJQ","img_art/9.jpg","5","","","","","","","","","","","","","","","","","","","","","","","","",""
"2802","","image-button-response","63","444115","0.0-62.0-0.0","A24FHD04JCEDJQ","img_art/9.jpg","0","","","","","","","","","","","","","","","","","","","","","","","","",""
"3580","","image-button-response","64","447701","0.0-63.0-0.0","A24FHD04JCEDJQ","img_art/9.jpg","3","","","","","","","","","","","","","","","","","","","","","","","","",""
"null","","html-keyboard-response","65","449211","0.0-64.0","A24FHD04JCEDJQ","<p style=""font-size: 48px;"">+</p>","","","","","null","allTrialResponses","1500","1","3","img_art/9.jpg","-9","Interesting interpretation of a scene, but the colors don't excite me. ","Stephanie,Nicole,Amber,Sydney,Tiffany,Julia","Someone sleeping in a cave. Dont like the scribble look.,-30,300,20","It's peaceful and relaxing,24,20,20","looks like sleeping beauty in a garden,10,200,20","I see some of my favorite colors which I like, but I don't like what's portrayed.,35,320,20","The piece of art makes me happy, it reminds me of a lively carnival.,15,360,20","I don't like the framing of this one,-25,40,20","Julia","I don't like the framing of this one,-25,40,20","Stephanie","Someone sleeping in a cave. Dont like the scribble look.,-30,300,20","Sydney","I see some of my favorite colors which I like, but I don't like what's portrayed.,35,320,20","2"
"22511","","survey-text","66","471736","0.0-65.0-0.0","A24FHD04JCEDJQ","","","","{""Q0"":""Ominous. I love the style here. ""}","","","","","","","","","","","","","","","","","","","","","","",""
"2858","","image-slider-response","67","474597","0.0-66.0","A24FHD04JCEDJQ","","","","","26","","","","","","","","","","","","","","","","","","","","","",""
"null","","image-button-response","68","479606","0.0-67.0","A24FHD04JCEDJQ","img_art/25.jpg","null","","","","","","","","","","","","","","","","","","","","","","","","",""
"9384","","image-button-response","69","489001","0.0-68.0","A24FHD04JCEDJQ","img_art/25.jpg","2","","","","","","","","","","","","","","","","","","","","","","","","",""
"2312","","image-button-response","70","491319","0.0-69.0-0.0","A24FHD04JCEDJQ","img_art/25.jpg","3","","","","","","","","","","","","","","","","","","","","","","","","",""
"1759","","image-button-response","71","493082","0.0-70.0-0.0","A24FHD04JCEDJQ","img_art/25.jpg","4","","","","","","","","","","","","","","","","","","","","","","","","",""
"null","","html-keyboard-response","72","494588","0.0-71.0","A24FHD04JCEDJQ","<p style=""font-size: 48px;"">+</p>","","","","","null","allTrialResponses","1500","1","4","img_art/25.jpg","26","Ominous. I love the style here. ","Stephanie,Madison,Mackenzie,Sydney,Brittany,Julia","It made me think of healing.,22,300,20","Meh. Hardly abstract, though.,-40,60,20","Very nice color contrast and design.,40,20,20","This piece gives me a lot of questions which I kind of like.,10,320,20","It's a rather intriguing design,12,40,20","the color is pleasing and draws out the contrast of the lines,10,40,20","Mackenzie","Very nice color contrast and design.,40,20,20","Sydney","This piece gives me a lot of questions which I kind of like.,10,320,20","Brittany","It's a rather intriguing design,12,40,20","2"
"22859","","survey-text","73","517460","0.0-72.0-0.0","A24FHD04JCEDJQ","","","","{""Q0"":""It doesn't look like too much to me, although I like the brushwork.""}","","","","","","","","","","","","","","","","","","","","","","",""
"3527.2999999523163","","image-slider-response","74","520993","0.0-73.0","A24FHD04JCEDJQ","","","","","1","","","","","","","","","","","","","","","","","","","","","",""
"4688","","image-button-response","75","525998","0.0-74.0","A24FHD04JCEDJQ","img_art/15.jpg","2","","","","","","","","","","","","","","","","","","","","","","","","",""
"4114","","image-button-response","76","530117","0.0-75.0","A24FHD04JCEDJQ","img_art/15.jpg","4","","","","","","","","","","","","","","","","","","","","","","","","",""
"1871","","image-button-response","77","531992","0.0-76.0-0.0","A24FHD04JCEDJQ","img_art/15.jpg","5","","","","","","","","","","","","","","","","","","","","","","","","",""
"4331","","image-button-response","78","536327","0.0-77.0-0.0","A24FHD04JCEDJQ","img_art/15.jpg","2","","","","","","","","","","","","","","","","","","","","","","","","",""
"null","","html-keyboard-response","79","537833","0.0-78.0","A24FHD04JCEDJQ","<p style=""font-size: 48px;"">+</p>","","","","","null","allTrialResponses","1500","1","5","img_art/15.jpg","1","It doesn't look like too much to me, although I like the brushwork.","Kaitlyn,Grace,Mackenzie,Sydney,Brittany,Savannah","Simplicity of colors is nice,11,80,20","Interesting. Reminds me of a biopsy slide.,21,180,20","I like the colors and textures.,32,20,20","This picture is too confusing for me. I wouldn't want to stare at it to figure it out.,-10,320,20","Color scheme and design are rather boring.,-10,40,20","Love the accent colors in this piece!,20,200,20","Brittany","Color scheme and design are rather boring.,-10,40,20","Savannah","Love the accent colors in this piece!,20,200,20","Mackenzie","I like the colors and textures.,32,20,20","2"
"6852","","survey-text","80","544693","0.0-79.0-0.0","A24FHD04JCEDJQ","","","","{""Q0"":""sky""}","","","","","","","","","","","","","","","","","","","","","","",""
"28535","","survey-text","81","573237","0.0-80.0-0.0","A24FHD04JCEDJQ","","","","{""Q0"":""I like the watercolor technique used.""}","","","","","","","","","","","","","","","","","","","","","","",""
"1845.699999988079","","image-slider-response","82","575088","0.0-81.0","A24FHD04JCEDJQ","","","","","6","","","","","","","","","","","","","","","","","","","","","",""
"null","","image-button-response","83","580093","0.0-82.0","A24FHD04JCEDJQ","img_art/19.jpg","null","","","","","","","","","","","","","","","","","","","","","","","","",""
"1378","","image-button-response","84","581476","0.0-83.0","A24FHD04JCEDJQ","img_art/19.jpg","1","","","","","","","","","","","","","","","","","","","","","","","","",""
"4542","","image-button-response","85","586021","0.0-84.0-0.0","A24FHD04JCEDJQ","img_art/19.jpg","5","","","","","","","","","","","","","","","","","","","","","","","","",""
"4108","","image-button-response","86","590134","0.0-85.0-0.0","A24FHD04JCEDJQ","img_art/19.jpg","2","","","","","","","","","","","","","","","","","","","","","","","","",""
"null","","html-keyboard-response","87","590637","0.0-86.0","A24FHD04JCEDJQ","<p style=""font-size: 48px;"">+</p>","","","","","null","allTrialResponses","500","1","6","img_art/19.jpg","6","I like the watercolor technique used.","Morgan,Jessica,Mackenzie,Makayla,Brittany,Savannah","Messy pantry full of food.,5,380,20","Vibrant and colorful,13,400,20","Shapes give it a feeling of being crowded,-18,20,20","Looks like hustle and bustle ,,3,80,20","It looks too much of a rough sketch. Don't really enjoy looking at it.,-9,40,20","Watercolor abstract? Strange.,1,200,20","Jessica","Vibrant and colorful,13,400,20","Savannah","Watercolor abstract? Strange.,1,200,20","Mackenzie","Shapes give it a feeling of being crowded,-18,20,20","2"
"22994","","survey-text","88","613635","0.0-87.0-0.0","A24FHD04JCEDJQ","","","","{""Q0"":""I'm not sure why this evoked a response in me, but I like it. ""}","","","","","","","","","","","","","","","","","","","","","","",""
"2324.199999988079","","image-slider-response","89","615964","0.0-88.0","A24FHD04JCEDJQ","","","","","28","","","","","","","","","","","","","","","","","","","","","",""
"null","","image-button-response","90","620969","0.0-89.0","A24FHD04JCEDJQ","img_art/4.jpg","null","","","","","","","","","","","","","","","","","","","","","","","","",""
"14430","","image-button-response","91","635404","0.0-90.0","A24FHD04JCEDJQ","img_art/4.jpg","4","","","","","","","","","","","","","","","","","","","","","","","","",""
"1627","","image-button-response","92","637036","0.0-91.0-0.0","A24FHD04JCEDJQ","img_art/4.jpg","1","","","","","","","","","","","","","","","","","","","","","","","","",""
"2906","","image-button-response","93","639947","0.0-92.0-0.0","A24FHD04JCEDJQ","img_art/4.jpg","0","","","","","","","","","","","","","","","","","","","","","","","","",""
"null","","html-keyboard-response","94","641452","0.0-93.0","A24FHD04JCEDJQ","<p style=""font-size: 48px;"">+</p>","","","","","null","allTrialResponses","1500","1","7","img_art/4.jpg","28","I'm not sure why this evoked a response in me, but I like it. ","Leslie,Jessica,Mackenzie,Bailey,Brianna,Savannah","This elicits no reaction in me.,0,380,20","Looks like they just smothered on some paint and called it a day.,-17,400,20","I don't enjoy the colors, or texture, it seems like mustard,-23,20,20","Boring and tasteless. Almost reminds me of when an art gallery called a banana 'art',-42,360,20","Really don't care for the yellowish brown color in the center.,-19,20,20","Colors are horrendous, look like bodily fluids have been smeared.,-50,200,20","Brianna","Really don't care for the yellowish brown color in the center.,-19,20,20","Jessica","Looks like they just smothered on some paint and called it a day.,-17,400,20","Leslie","This elicits no reaction in me.,0,380,20","2"
"24124","","survey-text","95","665597","0.0-94.0-0.0","A24FHD04JCEDJQ","","","","{""Q0"":""I feel like the colors are a bit too dull. I'm not really seeing anything. ""}","","","","","","","","","","","","","","","","","","","","","","",""
"4202.5","","image-slider-response","96","669806","0.0-95.0","A24FHD04JCEDJQ","","","","","-3","","","","","","","","","","","","","","","","","","","","","",""
"1833","","image-button-response","97","674815","0.0-96.0","A24FHD04JCEDJQ","img_art/2.jpg","0","","","","","","","","","","","","","","","","","","","","","","","","",""
"295","","image-button-response","98","675115","0.0-97.0","A24FHD04JCEDJQ","img_art/2.jpg","0","","","","","","","","","","","","","","","","","","","","","","","","",""
"3101","","image-button-response","99","678219","0.0-98.0-0.0","A24FHD04JCEDJQ","img_art/2.jpg","1","","","","","","","","","","","","","","","","","","","","","","","","",""
"9995","","image-button-response","100","688219","0.0-99.0-0.0","A24FHD04JCEDJQ","img_art/2.jpg","4","","","","","","","","","","","","","","","","","","","","","","","","",""
"null","","html-keyboard-response","101","688725","0.0-100.0","A24FHD04JCEDJQ","<p style=""font-size: 48px;"">+</p>","","","","","null","allTrialResponses","500","1","8","img_art/2.jpg","-3","I feel like the colors are a bit too dull. I'm not really seeing anything. ","Leslie,Jessica,Alexa,Mary,Brianna,Kayla","The colors are entirely unappealing and very unpleasant to look at.,-20,380,20","I don't get the meaning of this piece either.,-13,400,20","Not my favorite but I can see this being hung in a art museum,25,40,20","This looks like a professional abstract drawing. I like the shapes.,7,180,20","The only parts I like is the light blue, red and black. The green color isn't very flattering.,11,20,20","Different cultures. I like that it brings differences together.,4,180,20","Leslie","The colors are entirely unappealing and very unpleasant to look at.,-20,380,20","Jessica","I don't get the meaning of this piece either.,-13,400,20","Brianna","The only parts I like is the light blue, red and black. The green color isn't very flattering.,11,20,20","2"
"21052","","survey-text","102","709787","0.0-101.0-0.0","A24FHD04JCEDJQ","","","","{""Q0"":""That bear looks very out-of-place.""}","","","","","","","","","","","","","","","","","","","","","","",""
"2313.699999988079","","image-slider-response","103","712107","0.0-102.0","A24FHD04JCEDJQ","","","","","-4","","","","","","","","","","","","","","","","","","","","","",""
"3022","","image-button-response","104","717116","0.0-103.0","A24FHD04JCEDJQ","img_art/16.jpg","1","","","","","","","","","","","","","","","","","","","","","","","","",""
"606","","image-button-response","105","717726","0.0-104.0","A24FHD04JCEDJQ","img_art/16.jpg","1","","","","","","","","","","","","","","","","","","","","","","","","",""
"4223","","image-button-response","106","721952","0.0-105.0-0.0","A24FHD04JCEDJQ","img_art/16.jpg","4","","","","","","","","","","","","","","","","","","","","","","","","",""
"1503","","image-button-response","107","723459","0.0-106.0-0.0","A24FHD04JCEDJQ","img_art/16.jpg","5","","","","","","","","","","","","","","","","","","","","","","","","",""
"null","","html-keyboard-response","108","723964","0.0-107.0","A24FHD04JCEDJQ","<p style=""font-size: 48px;"">+</p>","","","","","null","allTrialResponses","500","1","9","img_art/16.jpg","-4","That bear looks very out-of-place.","Leslie,Jessica,Alexandria,Sarah,Brianna,Allison","This is making me feel nervous in an enjoyable way.,20,380,20","Cool but the bear creeps me out?,8,400,20","while simple, it seems to have a deeper meaning on childhood,33,80,20","i don't like the collage aspect,-25,180,20","It is interesting to say the least,0,20,20","Hard contrast, but no emotions towards any of the objects.,-6,140,20","Jessica","Cool but the bear creeps me out?,8,400,20","Brianna","It is interesting to say the least,0,20,20","Allison","Hard contrast, but no emotions towards any of the objects.,-6,140,20","2"
"16110","","survey-text","109","740082","0.0-108.0-0.0","A24FHD04JCEDJQ","","","","{""Q0"":""Very cool. Looks almost like abstract sheet music.""}","","","","","","","","","","","","","","","","","","","","","","",""
"4607.899999976158","","image-slider-response","110","744694","0.0-109.0","A24FHD04JCEDJQ","","","","","29","","","","","","","","","","","","","","","","","","","","","",""
"1689","","image-button-response","111","749702","0.0-110.0","A24FHD04JCEDJQ","img_art/10.jpg","0","","","","","","","","","","","","","","","","","","","","","","","","",""
"4264","","image-button-response","112","753970","0.0-111.0","A24FHD04JCEDJQ","img_art/10.jpg","0","","","","","","","","","","","","","","","","","","","","","","","","",""
"1505","","image-button-response","113","755479","0.0-112.0-0.0","A24FHD04JCEDJQ","img_art/10.jpg","3","","","","","","","","","","","","","","","","","","","","","","","","",""
"2786","","image-button-response","114","758268","0.0-113.0-0.0","A24FHD04JCEDJQ","img_art/10.jpg","2","","","","","","","","","","","","","","","","","","","","","","","","",""
"null","","html-keyboard-response","115","759771","0.0-114.0","A24FHD04JCEDJQ","<p style=""font-size: 48px;"">+</p>","","","","","null","allTrialResponses","1500","1","10","img_art/10.jpg","29","Very cool. Looks almost like abstract sheet music.","Emma,Jessica,Caroline,Heather,Brianna,Allison","Feels musical .....,40,60,20","I feel like this has a cool concept behind it.,11,400,20","This painting made me think of a guitar which made me think of music which envoked happy feelings.,28,100,20","for some reason reminds me of music,2,260,20","I have no opinions on this one,0,20,20","I like the contrast,10,140,20","Emma","Feels musical .....,40,60,20","Heather","for some reason reminds me of music,2,260,20","Caroline","This painting made me think of a guitar which made me think of music which envoked happy feelings.,28,100,20","2"
"4083","","survey-text","116","763862","0.0-115.0-0.0","A24FHD04JCEDJQ","","","","{""Q0"":""our""}","","","","","","","","","","","","","","","","","","","","","","",""
"37255","","survey-text","117","801124","0.0-116.0-0.0","A24FHD04JCEDJQ","","","","{""Q0"":""I do like the contrast of the splatters against the different colored backgrounds.""}","","","","","","","","","","","","","","","","","","","","","","",""
"2206.900000035763","","image-slider-response","118","803335","0.0-117.0","A24FHD04JCEDJQ","","","","","2","","","","","","","","","","","","","","","","","","","","","",""
"null","","image-button-response","119","808340","0.0-118.0","A24FHD04JCEDJQ","img_art/13.jpg","null","","","","","","","","","","","","","","","","","","","","","","","","",""
"1717","","image-button-response","120","810061","0.0-119.0","A24FHD04JCEDJQ","img_art/13.jpg","2","","","","","","","","","","","","","","","","","","","","","","","","",""
"2973","","image-button-response","121","813038","0.0-120.0-0.0","A24FHD04JCEDJQ","img_art/13.jpg","5","","","","","","","","","","","","","","","","","","","","","","","","",""
"2695","","image-button-response","122","815738","0.0-121.0-0.0","A24FHD04JCEDJQ","img_art/13.jpg","3","","","","","","","","","","","","","","","","","","","","","","","","",""
"null","","html-keyboard-response","123","817250","0.0-122.0","A24FHD04JCEDJQ","<p style=""font-size: 48px;"">+</p>","","","","","null","allTrialResponses","1500","1","11","img_art/13.jpg","2","I do like the contrast of the splatters against the different colored backgrounds.","Emma,Sierra,Caroline,Heather,Alyssa,Diana","It's pretty ...........,41,60,20","the blues are soothing but the splatters are too much,-3,260,20","Pretty but didnt cause a reaction,33,100,20","rain in blue black and white,1,260,20","Pretty and it reminds me of rain droplets running down a window on a rainy day.,40,160,20","I really loved the color contrast. Having the white stripe in the center makes the it appear 3D.,11,380,20","Caroline","Pretty but didnt cause a reaction,33,100,20","Diana","I really loved the color contrast. Having the white stripe in the center makes the it appear 3D.,11,380,20","Heather","rain in blue black and white,1,260,20","2"
"27258","","survey-text","124","844518","0.0-123.0-0.0","A24FHD04JCEDJQ","","","","{""Q0"":""This piece seems pretty random. I'm not really getting anything from it. ""}","","","","","","","","","","","","","","","","","","","","","","",""
"5846.5","","image-slider-response","125","850371","0.0-124.0","A24FHD04JCEDJQ","","","","","-4","","","","","","","","","","","","","","","","","","","","","",""
"2688","","image-button-response","126","855377","0.0-125.0","A24FHD04JCEDJQ","img_art/30.jpg","0","","","","","","","","","","","","","","","","","","","","","","","","",""
"984","","image-button-response","127","856365","0.0-126.0","A24FHD04JCEDJQ","img_art/30.jpg","0","","","","","","","","","","","","","","","","","","","","","","","","",""
"2655","","image-button-response","128","859024","0.0-127.0-0.0","A24FHD04JCEDJQ","img_art/30.jpg","4","","","","","","","","","","","","","","","","","","","","","","","","",""
"4281","","image-button-response","129","863310","0.0-128.0-0.0","A24FHD04JCEDJQ","img_art/30.jpg","3","","","","","","","","","","","","","","","","","","","","","","","","",""
"null","","html-keyboard-response","130","864815","0.0-129.0","A24FHD04JCEDJQ","<p style=""font-size: 48px;"">+</p>","","","","","null","allTrialResponses","1500","1","12","img_art/30.jpg","-4","This piece seems pretty random. I'm not really getting anything from it. ","Emily,Caitlin,Caroline,Heather,Hannah,Diana","It looks like a child did it. There is nothing talented or special about it.,-16,40,20","My kid drew this same picture at daycare!!!,5,80,20","Fear. It looks like snakes in the picture,13,100,20","beautiful paint brush strokes,1,260,20","It's just all right.,5,240,20","I love the color contrast of the red against the blue.,9,380,20","Emily","It looks like a child did it. There is nothing talented or special about it.,-16,40,20","Hannah","It's just all right.,5,240,20","Heather","beautiful paint brush strokes,1,260,20","2"
"23755","","survey-text","131","888581","0.0-130.0-0.0","A24FHD04JCEDJQ","","","","{""Q0"":""This looks really cool. Like a gathering of people in front of an explosion of color. ""}","","","","","","","","","","","","","","","","","","","","","","",""
"3004.099999964237","","image-slider-response","132","891588","0.0-131.0","A24FHD04JCEDJQ","","","","","30","","","","","","","","","","","","","","","","","","","","","",""
"4654","","image-button-response","133","896591","0.0-132.0","A24FHD04JCEDJQ","img_art/23.jpg","2","","","","","","","","","","","","","","","","","","","","","","","","",""
"3143","","image-button-response","134","899741","0.0-133.0","A24FHD04JCEDJQ","img_art/23.jpg","4","","","","","","","","","","","","","","","","","","","","","","","","",""
"3883","","image-button-response","135","903635","0.0-134.0-0.0","A24FHD04JCEDJQ","img_art/23.jpg","5","","","","","","","","","","","","","","","","","","","","","","","","",""
"2437","","image-button-response","136","906077","0.0-135.0-0.0","A24FHD04JCEDJQ","img_art/23.jpg","2","","","","","","","","","","","","","","","","","","","","","","","","",""
"null","","html-keyboard-response","137","907581","0.0-136.0","A24FHD04JCEDJQ","<p style=""font-size: 48px;"">+</p>","","","","","null","allTrialResponses","1500","1","13","img_art/23.jpg","30","This looks really cool. Like a gathering of people in front of an explosion of color. ","Emily,Natalie,Katherine,Heather,Hannah,Abigail","I don't get it.,-40,40,20","so much detail .,31,400,20","This one is awesome, kinda looks like a cake with sprinkles but in a different universe,50,120,20","illegible wording with a graffiti background,1,260,20","This one is interesting. Looks like people with maybe musical instruments?,11,240,20","I like the contrast,29,20,20","Hannah","This one is interesting. Looks like people with maybe musical instruments?,11,240,20","Abigail","I like the contrast,29,20,20","Katherine","This one is awesome, kinda looks like a cake with sprinkles but in a different universe,50,120,20","2"
"15975","","survey-text","138","923563","0.0-137.0-0.0","A24FHD04JCEDJQ","","","","{""Q0"":""Random, but I still like the color contrast used.""}","","","","","","","","","","","","","","","","","","","","","","",""
"4154.300000011921","","image-slider-response","139","927721","0.0-138.0","A24FHD04JCEDJQ","","","","","1","","","","","","","","","","","","","","","","","","","","","",""
"null","","image-button-response","140","932730","0.0-139.0","A24FHD04JCEDJQ","img_art/3.jpg","null","","","","","","","","","","","","","","","","","","","","","","","","",""
"2082","","image-button-response","141","934815","0.0-140.0","A24FHD04JCEDJQ","img_art/3.jpg","3","","","","","","","","","","","","","","","","","","","","","","","","",""
"1489","","image-button-response","142","936307","0.0-141.0-0.0","A24FHD04JCEDJQ","img_art/3.jpg","4","","","","","","","","","","","","","","","","","","","","","","","","",""
"5459","","image-button-response","143","941771","0.0-142.0-0.0","A24FHD04JCEDJQ","img_art/3.jpg","5","","","","","","","","","","","","","","","","","","","","","","","","",""
"null","","html-keyboard-response","144","943280","0.0-143.0","A24FHD04JCEDJQ","<p style=""font-size: 48px;"">+</p>","","","","","null","allTrialResponses","1500","1","14","img_art/3.jpg","1","Random, but I still like the color contrast used.","Miranda,Jennifer,Katherine,Maria,Hannah,Abigail","It just makes me think of blood splattered everywhere.,-31,320,20","This looks like something a child created in 5 minutes.,-50,380,20","Too much red! Reminds me of blood. I hate blood.,-34,120,20","I struggle to see the art,-20,120,20","Looks like a Basquiat but just not my cup of tea.,-29,240,20","Reminded me of blood or something bad,-21,20,20","Maria","I struggle to see the art,-20,120,20","Hannah","Looks like a Basquiat but just not my cup of tea.,-29,240,20","Abigail","Reminded me of blood or something bad,-21,20,20","2"
"28148","","survey-text","145","971436","0.0-144.0-0.0","A24FHD04JCEDJQ","","","","{""Q0"":""It just kind of looks like a random photograph to me. I don't really feel emotion looking at it. ""}","","","","","","","","","","","","","","","","","","","","","","",""
"3468.199999988079","","image-slider-response","146","974909","0.0-145.0","A24FHD04JCEDJQ","","","","","-3","","","","","","","","","","","","","","","","","","","","","",""
"4014","","image-button-response","147","979914","0.0-146.0","A24FHD04JCEDJQ","img_art/7.jpg","3","","","","","","","","","","","","","","","","","","","","","","","","",""
"2946","","image-button-response","148","982862","0.0-147.0","A24FHD04JCEDJQ","img_art/7.jpg","3","","","","","","","","","","","","","","","","","","","","","","","","",""
"511","","image-button-response","149","983375","0.0-148.0-0.0","A24FHD04JCEDJQ","img_art/7.jpg","4","","","","","","","","","","","","","","","","","","","","","","","","",""
"2455","","image-button-response","150","985835","0.0-149.0-0.0","A24FHD04JCEDJQ","img_art/7.jpg","0","","","","","","","","","","","","","","","","","","","","","","","","",""
"null","","html-keyboard-response","151","987342","0.0-150.0","A24FHD04JCEDJQ","<p style=""font-size: 48px;"">+</p>","","","","","null","allTrialResponses","1500","1","15","img_art/7.jpg","-3","It just kind of looks like a random photograph to me. I don't really feel emotion looking at it. ","Cheyenne,Meghan,Sara,Maria,Hannah,Abigail","Nice realistic feel but nothing stands out.,4,200,20","I don't like the texture,-49,220,20","It feels cold and hard,-40,160,20","elicits no real response,0,120,20","Looks almost like a photograph of nature.,11,240,20","Looks like a skin disease,-31,20,20","Maria","elicits no real response,0,120,20","Hannah","Looks almost like a photograph of nature.,11,240,20","Cheyenne","Nice realistic feel but nothing stands out.,4,200,20","2"
"5432","","survey-text","152","992792","0.0-151.0-0.0","A24FHD04JCEDJQ","","","","{""Q0"":""course""}","","","","","","","","","","","","","","","","","","","","","","",""
"16913","","survey-text","153","1009709","0.0-152.0-0.0","A24FHD04JCEDJQ","","","","{""Q0"":""Nice, stark contrast against the white background, but nothing too special. ""}","","","","","","","","","","","","","","","","","","","","","","",""
"2994.899999976158","","image-slider-response","154","1012707","0.0-153.0","A24FHD04JCEDJQ","","","","","1","","","","","","","","","","","","","","","","","","","","","",""
"1920","","image-button-response","155","1017713","0.0-154.0","A24FHD04JCEDJQ","img_art/5.jpg","0","","","","","","","","","","","","","","","","","","","","","","","","",""
"5608","","image-button-response","156","1023332","0.0-155.0","A24FHD04JCEDJQ","img_art/5.jpg","0","","","","","","","","","","","","","","","","","","","","","","","","",""
"798","","image-button-response","157","1024134","0.0-156.0-0.0","A24FHD04JCEDJQ","img_art/5.jpg","2","","","","","","","","","","","","","","","","","","","","","","","","",""
"5618","","image-button-response","158","1029754","0.0-157.0-0.0","A24FHD04JCEDJQ","img_art/5.jpg","3","","","","","","","","","","","","","","","","","","","","","","","","",""
"null","","html-keyboard-response","159","1030261","0.0-158.0","A24FHD04JCEDJQ","<p style=""font-size: 48px;"">+</p>","","","","","null","allTrialResponses","500","1","16","img_art/5.jpg","1","Nice, stark contrast against the white background, but nothing too special. ","Cheyenne,Lindsey,Katelyn,Maria,Hannah,Kristen","Very little going on.,-4,200,20","Black bit reminds me of a giant splinter. Yellow bit reminds me of urine. I hate it.,-50,400,20","I just dont get it. Means very little to me,-22,100,20","this feels like something I should like, but I'm not feeling the execution,-10,120,20","Very basic, but at least has some color to it.,-9,240,20","sharp, painful yet playful,-5,280,20","Cheyenne","Very little going on.,-4,200,20","Katelyn","I just dont get it. Means very little to me,-22,100,20","Maria","this feels like something I should like, but I'm not feeling the execution,-10,120,20","2"
"24305","","survey-text","160","1054579","0.0-159.0-0.0","A24FHD04JCEDJQ","","","","{""Q0"":""Very cool. A lot of good detail work.""}","","","","","","","","","","","","","","","","","","","","","","",""
"2552.899999976158","","image-slider-response","161","1057135","0.0-160.0","A24FHD04JCEDJQ","","","","","32","","","","","","","","","","","","","","","","","","","","","",""
"null","","image-button-response","162","1062141","0.0-161.0","A24FHD04JCEDJQ","img_art/8.jpg","null","","","","","","","","","","","","","","","","","","","","","","","","",""
"1828","","image-button-response","163","1063974","0.0-162.0","A24FHD04JCEDJQ","img_art/8.jpg","2","","","","","","","","","","","","","","","","","","","","","","","","",""
"1712","","image-button-response","164","1065689","0.0-163.0-0.0","A24FHD04JCEDJQ","img_art/8.jpg","4","","","","","","","","","","","","","","","","","","","","","","","","",""
"1065","","image-button-response","165","1066757","0.0-164.0-0.0","A24FHD04JCEDJQ","img_art/8.jpg","5","","","","","","","","","","","","","","","","","","","","","","","","",""
"null","","html-keyboard-response","166","1067763","0.0-165.0","A24FHD04JCEDJQ","<p style=""font-size: 48px;"">+</p>","","","","","null","allTrialResponses","1000","1","17","img_art/8.jpg","32","Very cool. A lot of good detail work.","Cheyenne,Anna,Katelyn,Maria,Jamie,Haley","Has nice depth to it.,12,200,20","The shapes and colors work well together.,40,300,20","I like the definition and the strong lines. It makes me think of someone watching over the world,24,100,20","not sure what to make of this - just neutral again,-1,120,20","Cool designs and color schemes,44,320,20","Gorgeous! I love the colors and the details.,50,220,20","Katelyn","I like the definition and the strong lines. It makes me think of someone watching over the world,24,100,20","Jamie","Cool designs and color schemes,44,320,20","Haley","Gorgeous! I love the colors and the details.,50,220,20","2"
"33595","","survey-text","167","1101371","0.0-166.0-0.0","A24FHD04JCEDJQ","","","","{""Q0"":""The colors look a bit dull, but I can see the scene. No real response.""}","","","","","","","","","","","","","","","","","","","","","","",""
"5627.5","","image-slider-response","168","1107002","0.0-167.0","A24FHD04JCEDJQ","","","","","-1","","","","","","","","","","","","","","","","","","","","","",""
"3410","","image-button-response","169","1112014","0.0-168.0","A24FHD04JCEDJQ","img_art/26.jpg","1","","","","","","","","","","","","","","","","","","","","","","","","",""
"4768","","image-button-response","170","1116797","0.0-169.0","A24FHD04JCEDJQ","img_art/26.jpg","0","","","","","","","","","","","","","","","","","","","","","","","","",""
"394","","image-button-response","171","1117194","0.0-170.0-0.0","A24FHD04JCEDJQ","img_art/26.jpg","1","","","","","","","","","","","","","","","","","","","","","","","","",""
"1239","","image-button-response","172","1118437","0.0-171.0-0.0","A24FHD04JCEDJQ","img_art/26.jpg","5","","","","","","","","","","","","","","","","","","","","","","","","",""
"null","","html-keyboard-response","173","1119944","0.0-172.0","A24FHD04JCEDJQ","<p style=""font-size: 48px;"">+</p>","","","","","null","allTrialResponses","1500","1","18","img_art/26.jpg","-1","The colors look a bit dull, but I can see the scene. No real response.","Molly,Destiny,Katelyn,Leah,Jamie,Haley","Nothing to say.,0,340,20","I really love pastels and they're just being dimmed down too much here,-3,360,20","Looks bland and boring,-5,100,20","Really like it, a very nice neighborhood scene to me,42,360,20","Street corner on a sunny day,5,320,20","It feels almost unfinished, but I like the color palette,9,220,20","Molly","Nothing to say.,0,340,20","Destiny","I really love pastels and they're just being dimmed down too much here,-3,360,20","Haley","It feels almost unfinished, but I like the color palette,9,220,20","2"
"30683","","survey-text","174","1150637","0.0-173.0-0.0","A24FHD04JCEDJQ","","","","{""Q0"":""I'm not sure how to feel. I like the colors, but I guess I'm not understanding this composition.""}","","","","","","","","","","","","","","","","","","","","","","",""
"4665.300000011921","","image-slider-response","175","1155306","0.0-174.0","A24FHD04JCEDJQ","","","","","2","","","","","","","","","","","","","","","","","","","","","",""
"4775","","image-button-response","176","1160309","0.0-175.0","A24FHD04JCEDJQ","img_art/20.jpg","1","","","","","","","","","","","","","","","","","","","","","","","","",""
"1000","","image-button-response","177","1161311","0.0-176.0","A24FHD04JCEDJQ","img_art/20.jpg","1","","","","","","","","","","","","","","","","","","","","","","","","",""
"2425","","image-button-response","178","1163741","0.0-177.0-0.0","A24FHD04JCEDJQ","img_art/20.jpg","2","","","","","","","","","","","","","","","","","","","","","","","","",""
"4417","","image-button-response","179","1168162","0.0-178.0-0.0","A24FHD04JCEDJQ","img_art/20.jpg","4","","","","","","","","","","","","","","","","","","","","","","","","",""
"null","","html-keyboard-response","180","1168666","0.0-179.0","A24FHD04JCEDJQ","<p style=""font-size: 48px;"">+</p>","","","","","null","allTrialResponses","500","1","19","img_art/20.jpg","2","I'm not sure how to feel. I like the colors, but I guess I'm not understanding this composition.","Molly,Destiny,Rebecca,Taylor,Mariah,Haley","Phenomenal painting of building.,25,340,20","truck? train? dead cow? plane?,10,360,20","reminds me of georgia o'keeffe's skull,22,100,20","I just love this painting,47,340,20","It feels like it ""almost"" several things.,-10,140,20","I really enjoy the contrast of colors (blue/red/orange),30,220,20","Destiny","truck? train? dead cow? plane?,10,360,20","Rebecca","reminds me of georgia o'keeffe's skull,22,100,20","Mariah","It feels like it ""almost"" several things.,-10,140,20","2"
"44025","","survey-text","181","1212709","0.0-180.0-0.0","A24FHD04JCEDJQ","","","","{""Q0"":""I love this. It has so much detail and I love the scene it's portraying. ""}","","","","","","","","","","","","","","","","","","","","","","",""
"2723.5","","image-slider-response","182","1215436","0.0-181.0","A24FHD04JCEDJQ","","","","","42","","","","","","","","","","","","","","","","","","","","","",""
"null","","image-button-response","183","1220439","0.0-182.0","A24FHD04JCEDJQ","img_art/18.jpg","null","","","","","","","","","","","","","","","","","","","","","","","","",""
"3762","","image-button-response","184","1224206","0.0-183.0","A24FHD04JCEDJQ","img_art/18.jpg","5","","","","","","","","","","","","","","","","","","","","","","","","",""
"9665","","image-button-response","185","1233877","0.0-184.0-0.0","A24FHD04JCEDJQ","img_art/18.jpg","1","","","","","","","","","","","","","","","","","","","","","","","","",""
"1077","","image-button-response","186","1234959","0.0-185.0-0.0","A24FHD04JCEDJQ","img_art/18.jpg","1","","","","","","","","","","","","","","","","","","","","","","","","",""
"1440","","image-button-response","187","1240568","0.0-185.1-0.1","A24FHD04JCEDJQ","img_art/18.jpg","2","","","","","","","","","","","","","","","","","","","","","","","","",""
"null","","html-keyboard-response","188","1241574","0.0-186.0","A24FHD04JCEDJQ","<p style=""font-size: 48px;"">+</p>","","","","","null","allTrialResponses","1000","1","20","img_art/18.jpg","42","I love this. It has so much detail and I love the scene it's portraying. ","Danielle,Destiny,Rebecca,Victoria,Mariah,Jordan","Doesn't really speak to me well but I can appreciate it,10,340,20","Can't tell if I love it or hate it. That response warranted more than neutral so I gave it 20 but not sure,21,360,20","reminds me of the little prince, with the color scheme and all,16,100,20","Makes me think of stormy oceans,20,400,20","It is too busy, but the colors are pleasant.,15,140,20","Oh heck yes! I see two warriors riding down from valhalla, awesome painting,50,20,20","Jordan","Oh heck yes! I see two warriors riding down from valhalla, awesome painting,50,20,20","Destiny","Can't tell if I love it or hate it. That response warranted more than neutral so I gave it 20 but not sure,21,360,20","Rebecca","reminds me of the little prince, with the color scheme and all,16,100,20","4"
"3080","","survey-text","189","1244661","0.0-187.0-0.0","A24FHD04JCEDJQ","","","","{""Q0"":""we""}","","","","","","","","","","","","","","","","","","","","","","",""
"33790","","survey-text","190","1278455","0.0-188.0-0.0","A24FHD04JCEDJQ","","","","{""Q0"":""Looks like a pastel explosion. I like the different color values being presented.""}","","","","","","","","","","","","","","","","","","","","","","",""
"2196.5","","image-slider-response","191","1280656","0.0-189.0","A24FHD04JCEDJQ","","","","","9","","","","","","","","","","","","","","","","","","","","","",""
"4165","","image-button-response","192","1285666","0.0-190.0","A24FHD04JCEDJQ","img_art/21.jpg","1","","","","","","","","","","","","","","","","","","","","","","","","",""
"1314","","image-button-response","193","1286982","0.0-191.0","A24FHD04JCEDJQ","img_art/21.jpg","1","","","","","","","","","","","","","","","","","","","","","","","","",""
"7411","","image-button-response","194","1294397","0.0-192.0-0.0","A24FHD04JCEDJQ","img_art/21.jpg","5","","","","","","","","","","","","","","","","","","","","","","","","",""
"1843","","image-button-response","195","1296245","0.0-193.0-0.0","A24FHD04JCEDJQ","img_art/21.jpg","0","","","","","","","","","","","","","","","","","","","","","","","","",""
"null","","html-keyboard-response","196","1296748","0.0-194.0","A24FHD04JCEDJQ","<p style=""font-size: 48px;"">+</p>","","","","","null","allTrialResponses","500","1","21","img_art/21.jpg","9","Looks like a pastel explosion. I like the different color values being presented.","Catherine,Destiny,Rebecca,Angela,Kathryn,Jordan","Nature, water, ever changing. Cold then warm. Reaction is mostly positive and some negative,30,160,20","Pink is my favorite, against blue it looks like sunset. Seems like a boat burning down, so don't absolutely love it,23,360,20","stormy with gold lining,0,100,20","I feel like I'm looking at two different paintings mashed together in the middle.,20,260,20","This feels chaotic, like a battle or a storm.,-20,140,20","Okay, I love the color schemes, I can't quite figure it out though,14,20,20","Destiny","Pink is my favorite, against blue it looks like sunset. Seems like a boat burning down, so don't absolutely love it,23,360,20","Jordan","Okay, I love the color schemes, I can't quite figure it out though,14,20,20","Catherine","Nature, water, ever changing. Cold then warm. Reaction is mostly positive and some negative,30,160,20","4"
"43936","","survey-text","197","1340696","0.0-195.0-0.0","A24FHD04JCEDJQ","","","","{""Q0"":""A nice nature scene, but maybe a little bit boring. Nice use of color, though.""}","","","","","","","","","","","","","","","","","","","","","","",""
"2330","","image-slider-response","198","1343030","0.0-196.0","A24FHD04JCEDJQ","","","","","1","","","","","","","","","","","","","","","","","","","","","",""
"4293","","image-button-response","199","1348038","0.0-197.0","A24FHD04JCEDJQ","img_art/24.jpg","2","","","","","","","","","","","","","","","","","","","","","","","","",""
"772","","image-button-response","200","1348818","0.0-198.0","A24FHD04JCEDJQ","img_art/24.jpg","2","","","","","","","","","","","","","","","","","","","","","","","","",""
"3733","","image-button-response","201","1352563","0.0-199.0-0.0","A24FHD04JCEDJQ","img_art/24.jpg","4","","","","","","","","","","","","","","","","","","","","","","","","",""
"7065","","image-button-response","202","1359633","0.0-200.0-0.0","A24FHD04JCEDJQ","img_art/24.jpg","1","","","","","","","","","","","","","","","","","","","","","","","","",""
"null","","html-keyboard-response","203","1361137","0.0-201.0","A24FHD04JCEDJQ","<p style=""font-size: 48px;"">+</p>","","","","","null","allTrialResponses","1500","1","22","img_art/24.jpg","1","A nice nature scene, but maybe a little bit boring. Nice use of color, though.","Catherine,Destiny,Kimberly,Erica,Vanessa,Jordan","Nature, Peace, connected.,50,160,20","brick wall waterfall girl you think you got it all,50,360,20","It just feels a little bland for me,-23,260,20","Very refreshing and vigorous,19,80,20","I love the colors, but I wish the water was less abstract.,17,380,20","It's beautiful! I love it! I see a waterfall, and they are my favorite things in the world,50,20,20","Kimberly","It just feels a little bland for me,-23,260,20","Vanessa","I love the colors, but I wish the water was less abstract.,17,380,20","Destiny","brick wall waterfall girl you think you got it all,50,360,20","4"
"22562","","survey-text","204","1383706","0.0-202.0-0.0","A24FHD04JCEDJQ","","","","{""Q0"":""This one feels a little ominous. The lines look like they're forming a face. I like it.""}","","","","","","","","","","","","","","","","","","","","","","",""
"2597.399999976158","","image-slider-response","205","1386308","0.0-203.0","A24FHD04JCEDJQ","","","","","7","","","","","","","","","","","","","","","","","","","","","",""
"null","","image-button-response","206","1391313","0.0-204.0","A24FHD04JCEDJQ","img_art/17.jpg","null","","","","","","","","","","","","","","","","","","","","","","","","",""
"3361","","image-button-response","207","1394678","0.0-205.0","A24FHD04JCEDJQ","img_art/17.jpg","3","","","","","","","","","","","","","","","","","","","","","","","","",""
"2188","","image-button-response","208","1396877","0.0-206.0-0.0","A24FHD04JCEDJQ","img_art/17.jpg","4","","","","","","","","","","","","","","","","","","","","","","","","",""
"12621","","image-button-response","209","1409506","0.0-207.0-0.0","A24FHD04JCEDJQ","img_art/17.jpg","5","","","","","","","","","","","","","","","","","","","","","","","","",""
"null","","html-keyboard-response","210","1410014","0.0-208.0","A24FHD04JCEDJQ","<p style=""font-size: 48px;"">+</p>","","","","","null","allTrialResponses","500","1","23","img_art/17.jpg","7","This one feels a little ominous. The lines look like they're forming a face. I like it.","Laura,Destiny,Kimberly,Gabrielle,Vanessa,Alexis","home - reminds me of fond memories of the Barnes Museum courtyard (looks just like it),30,320,20","similar to last one, still pretty cool but I liked arrangement of last one better,13,360,20","I like the trees, but the doors less so,19,260,20","nice composition and colors, fairy land,28,160,20","I want to know more about this picture and where it leads if you could get inside it.,27,380,20","Love the color and nature motif,36,100,20","Gabrielle","nice composition and colors, fairy land,28,160,20","Vanessa","I want to know more about this picture and where it leads if you could get inside it.,27,380,20","Alexis","Love the color and nature motif,36,100,20","4"
"20443","","survey-text","211","1430467","0.0-209.0-0.0","A24FHD04JCEDJQ","","","","{""Q0"":""It just seems random, like not too much thought was put into it.""}","","","","","","","","","","","","","","","","","","","","","","",""
"3546.7000000476837","","image-slider-response","212","1434018","0.0-210.0","A24FHD04JCEDJQ","","","","","-12","","","","","","","","","","","","","","","","","","","","","",""
"null","","image-button-response","213","1439025","0.0-211.0","A24FHD04JCEDJQ","img_art/29.jpg","null","","","","","","","","","","","","","","","","","","","","","","","","",""
"5924","","image-button-response","214","1444955","0.0-212.0","A24FHD04JCEDJQ","img_art/29.jpg","5","","","","","","","","","","","","","","","","","","","","","","","","",""
"1734","","image-button-response","215","1446693","0.0-213.0-0.0","A24FHD04JCEDJQ","img_art/29.jpg","2","","","","","","","","","","","","","","","","","","","","","","","","",""
"4927","","image-button-response","216","1451623","0.0-214.0-0.0","A24FHD04JCEDJQ","img_art/29.jpg","3","","","","","","","","","","","","","","","","","","","","","","","","",""
"null","","html-keyboard-response","217","1452128","0.0-215.0","A24FHD04JCEDJQ","<p style=""font-size: 48px;"">+</p>","","","","","null","allTrialResponses","500","1","24","img_art/29.jpg","-12","It just seems random, like not too much thought was put into it.","Ashley,Jenna,Melissa,Gabrielle,Vanessa,Alexis","It that an actual PAINTBUSH! Love it.,50,320,20","risks well taken. the brush is hilarious. feels like an artist's frustration, which is relatable.,50,360,20","abrasive and grotesque textures,-36,240,20","it's OK, no clue to what's going on but good use of light and dark,4,160,20","I hate the red x over everything, hate the black hate how hopeless this is.,-50,380,20","The black color is great, but I'm really not a fan of this hectic style,-40,100,20","Alexis","The black color is great, but I'm really not a fan of this hectic style,-40,100,20","Melissa","abrasive and grotesque textures,-36,240,20","Gabrielle","it's OK, no clue to what's going on but good use of light and dark,4,160,20","4"
"28138","","survey-text","218","1480278","0.0-216.0-0.0","A24FHD04JCEDJQ","","","","{""Q0"":""I'm not sure about this one. I feel like I want to like it, but it needs more.""}","","","","","","","","","","","","","","","","","","","","","","",""
"3966.199999988079","","image-slider-response","219","1484248","0.0-217.0","A24FHD04JCEDJQ","","","","","-2","","","","","","","","","","","","","","","","","","","","","",""
"null","","image-button-response","220","1489251","0.0-218.0","A24FHD04JCEDJQ","img_art/6.jpg","null","","","","","","","","","","","","","","","","","","","","","","","","",""
"1161","","image-button-response","221","1490415","0.0-219.0","A24FHD04JCEDJQ","img_art/6.jpg","3","","","","","","","","","","","","","","","","","","","","","","","","",""
"1200","","image-button-response","222","1491618","0.0-220.0-0.0","A24FHD04JCEDJQ","img_art/6.jpg","4","","","","","","","","","","","","","","","","","","","","","","","","",""
"1710","","image-button-response","223","1493331","0.0-221.0-0.0","A24FHD04JCEDJQ","img_art/6.jpg","5","","","","","","","","","","","","","","","","","","","","","","","","",""
"null","","html-keyboard-response","224","1493838","0.0-222.0","A24FHD04JCEDJQ","<p style=""font-size: 48px;"">+</p>","","","","","null","allTrialResponses","500","1","25","img_art/6.jpg","-2","I'm not sure about this one. I feel like I want to like it, but it needs more.","Madeline,Crystal,Melissa,Gabrielle,Breanna,Alexis","Looks a bit like a pickle or something?,-16,40,20","Gives me a feeling of solitude and nothingness,11,300,20","composition is engaging,28,240,20","simplistic but reminds me of a crow in a field,-10,160,20","Not impressed, just very plain,-10,380,20","The feeling of isolation with so little objects. Great,20,100,20","Gabrielle","simplistic but reminds me of a crow in a field,-10,160,20","Breanna","Not impressed, just very plain,-10,380,20","Alexis","The feeling of isolation with so little objects. Great,20,100,20","4"
"6429","","survey-text","225","1500282","0.0-223.0-0.0","A24FHD04JCEDJQ","","","","{""Q0"":""table""}","","","","","","","","","","","","","","","","","","","","","","",""
"42928","","survey-text","226","1543218","0.0-224.0-0.0","A24FHD04JCEDJQ","","","","{""Q0"":""I like how each block looks like its own little work of art. And the gradually changing colors.""}","","","","","","","","","","","","","","","","","","","","","","",""
"3347.5","","image-slider-response","227","1546571","0.0-225.0","A24FHD04JCEDJQ","","","","","29","","","","","","","","","","","","","","","","","","","","","",""
"null","","image-button-response","228","1551580","0.0-226.0","A24FHD04JCEDJQ","img_art/12.jpg","null","","","","","","","","","","","","","","","","","","","","","","","","",""
"674","","image-button-response","229","1552258","0.0-227.0","A24FHD04JCEDJQ","img_art/12.jpg","1","","","","","","","","","","","","","","","","","","","","","","","","",""
"1731","","image-button-response","230","1553993","0.0-228.0-0.0","A24FHD04JCEDJQ","img_art/12.jpg","2","","","","","","","","","","","","","","","","","","","","","","","","",""
"1591","","image-button-response","231","1555587","0.0-229.0-0.0","A24FHD04JCEDJQ","img_art/12.jpg","5","","","","","","","","","","","","","","","","","","","","","","","","",""
"null","","html-keyboard-response","232","1557089","0.0-230.0","A24FHD04JCEDJQ","<p style=""font-size: 48px;"">+</p>","","","","","null","allTrialResponses","1500","1","26","img_art/12.jpg","29","I like how each block looks like its own little work of art. And the gradually changing colors.","Chloe,Kylie,Sabrina,Gabrielle,Breanna,Alexis","Nice hallway art for a hotel.,21,220,20","Night and day, light and dark,35,300,20","I like the fact it shares both light and edgy,32,120,20","seems too dark on top and too common on the bottom,-19,160,20","It makes me feel confused,-15,380,20","I like the cubic feel.,11,100,20","Kylie","Night and day, light and dark,35,300,20","Sabrina","I like the fact it shares both light and edgy,32,120,20","Alexis","I like the cubic feel.,11,100,20","4"
"13536","","survey-text","233","1570633","0.0-231.0-0.0","A24FHD04JCEDJQ","","","","{""Q0"":""A little bit random, but I like the colors used.""}","","","","","","","","","","","","","","","","","","","","","","",""
"3001","","image-slider-response","234","1573639","0.0-232.0","A24FHD04JCEDJQ","","","","","1","","","","","","","","","","","","","","","","","","","","","",""
"null","","image-button-response","235","1578646","0.0-233.0","A24FHD04JCEDJQ","img_art/14.jpg","null","","","","","","","","","","","","","","","","","","","","","","","","",""
"793","","image-button-response","236","1579448","0.0-234.0","A24FHD04JCEDJQ","img_art/14.jpg","4","","","","","","","","","","","","","","","","","","","","","","","","",""
"1624","","image-button-response","237","1581074","0.0-235.0-0.0","A24FHD04JCEDJQ","img_art/14.jpg","5","","","","","","","","","","","","","","","","","","","","","","","","",""
"3238","","image-button-response","238","1584318","0.0-236.0-0.0","A24FHD04JCEDJQ","img_art/14.jpg","1","","","","","","","","","","","","","","","","","","","","","","","","",""
"null","","html-keyboard-response","239","1584821","0.0-237.0","A24FHD04JCEDJQ","<p style=""font-size: 48px;"">+</p>","","","","","null","allTrialResponses","500","1","27","img_art/14.jpg","1","A little bit random, but I like the colors used.","Kaitlin,Kylie,Sabrina,Angelica,Cassidy,Alexis","this would make a very beautiful art project,22,60,20","Confusion or an explosion,40,300,20","Love the assortment of colors and flowers, expressing gentle and caring,50,120,20","This is poorly done and not aesthetically appealing.,-2,280,20","Meh. Pleasant to look at. Colors are nice,6,140,20","Don't like the colors on this. Too simple,-20,100,20","Cassidy","Meh. Pleasant to look at. Colors are nice,6,140,20","Alexis","Don't like the colors on this. Too simple,-20,100,20","Kylie","Confusion or an explosion,40,300,20","4"
"27302","","survey-text","240","1612130","0.0-238.0-0.0","A24FHD04JCEDJQ","","","","{""Q0"":""I like the bright colors against the dull background, but it feels a little bit simple. ""}","","","","","","","","","","","","","","","","","","","","","","",""
"2554.600000023842","","image-slider-response","241","1614688","0.0-239.0","A24FHD04JCEDJQ","","","","","3","","","","","","","","","","","","","","","","","","","","","",""
"3164","","image-button-response","242","1619697","0.0-240.0","A24FHD04JCEDJQ","img_art/11.jpg","0","","","","","","","","","","","","","","","","","","","","","","","","",""
"736","","image-button-response","243","1620437","0.0-241.0","A24FHD04JCEDJQ","img_art/11.jpg","0","","","","","","","","","","","","","","","","","","","","","","","","",""
"5026","","image-button-response","244","1625465","0.0-242.0-0.0","A24FHD04JCEDJQ","img_art/11.jpg","4","","","","","","","","","","","","","","","","","","","","","","","","",""
"3292","","image-button-response","245","1628761","0.0-243.0-0.0","A24FHD04JCEDJQ","img_art/11.jpg","2","","","","","","","","","","","","","","","","","","","","","","","","",""
"null","","html-keyboard-response","246","1629765","0.0-244.0","A24FHD04JCEDJQ","<p style=""font-size: 48px;"">+</p>","","","","","null","allTrialResponses","1000","1","28","img_art/11.jpg","3","I like the bright colors against the dull background, but it feels a little bit simple. ","Megan,Kylie,Courtney,Kelsey,Cassidy,Alexis","Some interesting color but scratchy train mess.,-14,200,20","This looks like a busy highway system along a suburban background,40,300,20","Thats a creepy old rollercoasters abandoned,-2,280,20","its like telephone wires, or mountains,-17,240,20","Love the colors against the black and gray. The lines are calming.,22,140,20","Don't like cityscapes, which this picture reminds me of,-29,100,20","Megan","Some interesting color but scratchy train mess.,-14,200,20","Cassidy","Love the colors against the black and gray. The lines are calming.,22,140,20","Courtney","Thats a creepy old rollercoasters abandoned,-2,280,20","4"
"45796","","survey-text","247","1675572","0.0-245.0-0.0","A24FHD04JCEDJQ","","","","{""Q0"":""I love the warm colors. Maybe a bit too abstract for me, though. It's not really giving me a lot.""}","","","","","","","","","","","","","","","","","","","","","","",""
"3309.699999988079","","image-slider-response","248","1678889","0.0-246.0","A24FHD04JCEDJQ","","","","","2","","","","","","","","","","","","","","","","","","","","","",""
"4756","","image-button-response","249","1683893","0.0-247.0","A24FHD04JCEDJQ","img_art/22.jpg","3","","","","","","","","","","","","","","","","","","","","","","","","",""
"3857","","image-button-response","250","1687753","0.0-248.0","A24FHD04JCEDJQ","img_art/22.jpg","3","","","","","","","","","","","","","","","","","","","","","","","","",""
"2467","","image-button-response","251","1690223","0.0-249.0-0.0","A24FHD04JCEDJQ","img_art/22.jpg","1","","","","","","","","","","","","","","","","","","","","","","","","",""
"1672","","image-button-response","252","1691905","0.0-250.0-0.0","A24FHD04JCEDJQ","img_art/22.jpg","2","","","","","","","","","","","","","","","","","","","","","","","","",""
"null","","html-keyboard-response","253","1693410","0.0-251.0","A24FHD04JCEDJQ","<p style=""font-size: 48px;"">+</p>","","","","","null","allTrialResponses","1500","1","29","img_art/22.jpg","2","I love the warm colors. Maybe a bit too abstract for me, though. It's not really giving me a lot.","Megan,Michaela,Courtney,Jacqueline,Cassidy,Chelsea","Organic sun spot on a flexible grid,18,200,20","I like the use of primary colors in an interesting way,29,260,20","Looks hot where ever that is.,-8,280,20","I feel like I've seen this one already.,-9,300,20","I don't really know why, I just like looking at it,10,140,20","The colors clash, and I don't know what is happening.,-23,180,20","Jacqueline","I feel like I've seen this one already.,-9,300,20","Michaela","I like the use of primary colors in an interesting way,29,260,20","Courtney","Looks hot where ever that is.,-8,280,20","4"
"25916","","survey-text","254","1719338","0.0-252.0-0.0","A24FHD04JCEDJQ","","","","{""Q0"":""I'd like it a bit more without the green lines. Maybe if they were a deeper red.""}","","","","","","","","","","","","","","","","","","","","","","",""
"2820.7999999523163","","image-slider-response","255","1722164","0.0-253.0","A24FHD04JCEDJQ","","","","","-1","","","","","","","","","","","","","","","","","","","","","",""
"null","","image-button-response","256","1727178","0.0-254.0","A24FHD04JCEDJQ","img_art/27.jpg","null","","","","","","","","","","","","","","","","","","","","","","","","",""
"1430","","image-button-response","257","1728613","0.0-255.0","A24FHD04JCEDJQ","img_art/27.jpg","3","","","","","","","","","","","","","","","","","","","","","","","","",""
"2146","","image-button-response","258","1730764","0.0-256.0-0.0","A24FHD04JCEDJQ","img_art/27.jpg","5","","","","","","","","","","","","","","","","","","","","","","","","",""
"5351","","image-button-response","259","1736123","0.0-257.0-0.0","A24FHD04JCEDJQ","img_art/27.jpg","4","","","","","","","","","","","","","","","","","","","","","","","","",""
"null","","html-keyboard-response","260","1737630","0.0-258.0","A24FHD04JCEDJQ","<p style=""font-size: 48px;"">+</p>","","","","","null","allTrialResponses","1500","1","30","img_art/27.jpg","-1","I'd like it a bit more without the green lines. Maybe if they were a deeper red.","Alexandra,Michaela,Courtney,Jacqueline,Cassandra,Erika","This is ugly and looks like a child did this,-36,60,20","It looks like a kid colored a picture and an adult added to it,19,260,20","A fall mess going on here,2,280,20","I don't really see anything to this art.,-5,300,20","I don't like any of it...just scibbles.,-37,120,20","Nice color, but too vague,-12,100,20","Jacqueline","I don't really see anything to this art.,-5,300,20","Erika","Nice color, but too vague,-12,100,20","Cassandra","I don't like any of it...just scibbles.,-37,120,20","4"
"2800","","image-button-response_instructions","261","1740438","0.0-259.0","A24FHD04JCEDJQ","","0","instructions","","","","","","","","","","","","","","","","","","","","","","","",""
"1624","","image-button-response","262","1742071","0.0-260.0","A24FHD04JCEDJQ","","0","","","","","","","","","","","","","","","","","","","","","","","","",""
