"rt","url","trial_type","trial_index","time_elapsed","internal_node_id","participant_id","stimulus","button_pressed","Name","responses","response","key_press","variableName","fixationTime","condition","trial","photo","subjectRating","subjectResponse","agentsNames","agent_1_Response","agent_2_Response","agent_3_Response","agent_4_Response","agent_5_Response","agent_6_Response","kept_1_name","kept_1_response","kept_2_name","kept_2_response","kept_3_name","kept_3_response","errorCounter"
"38125","external_page_harvard.html","external-html","0","38206","0.0-0.0","A24Y1NVEEY1ADM","","","","","","","","","","","","","","","","","","","","","","","","","","",""
"2988","","image-button-response","1","41197","0.0-1.0","A24Y1NVEEY1ADM","","0","","","","","","","","","","","","","","","","","","","","","","","","",""
"2492","","image-button-response","2","43694","0.0-2.0-0.0","A24Y1NVEEY1ADM","","1","phone","","","","","","","","","","","","","","","","","","","","","","","",""
"10521","","survey-text","3","54216","0.0-3.0-0.0","A24Y1NVEEY1ADM","","","","{""Q0"":""A24Y1NVEEY1ADM""}","","","","","","","","","","","","","","","","","","","","","","",""
"32814","","image-button-response_instructions","4","87033","0.0-4.0","A24Y1NVEEY1ADM","","0","instructions","","","","","","","","","","","","","","","","","","","","","","","",""
"27350","","image-button-response_instructions","5","114384","0.0-5.0","A24Y1NVEEY1ADM","img_art/ins/popularity/ins1.png","0","instructions","","","","","","","","","","","","","","","","","","","","","","","",""
"11647","","image-button-response_instructions","6","126032","0.0-6.0","A24Y1NVEEY1ADM","img_art/ins/popularity/ins2.png","0","instructions","","","","","","","","","","","","","","","","","","","","","","","",""
"10026","","image-button-response_instructions","7","136061","0.0-7.0","A24Y1NVEEY1ADM","img_art/ins/popularity/ins2Extreme.png","0","instructions","","","","","","","","","","","","","","","","","","","","","","","",""
"17334","","image-button-response_instructions","8","153396","0.0-8.0","A24Y1NVEEY1ADM","img_art/ins/popularity/ins3KEEPpop.PNG","0","instructions","","","","","","","","","","","","","","","","","","","","","","","",""
"11383","","image-button-response_instructions","9","164780","0.0-9.0","A24Y1NVEEY1ADM","img_art/ins/popularity/ins3ANamepop.PNG","0","instructions","","","","","","","","","","","","","","","","","","","","","","","",""
"3425","","image-button-response_instructions","10","168206","0.0-10.0","A24Y1NVEEY1ADM","img_art/ins/popularity/ins3ARatingpop.png","0","instructions","","","","","","","","","","","","","","","","","","","","","","","",""
"10319","","image-button-response_instructions","11","178526","0.0-11.0","A24Y1NVEEY1ADM","img_art/ins/popularity/ins3ATextpop.png","0","instructions","","","","","","","","","","","","","","","","","","","","","","","",""
"11539","","image-button-response_instructions","12","190066","0.0-12.0","A24Y1NVEEY1ADM","img_art/ins/popularity/ins3ALikespop.png","0","instructions","","","","","","","","","","","","","","","","","","","","","","","",""
"23931","","image-button-response_instructions","13","213998","0.0-13.0","A24Y1NVEEY1ADM","img_art/ins/popularity/ins3KEEPpop.PNG","0","instructions","","","","","","","","","","","","","","","","","","","","","","","",""
"22223","","image-button-response_instructions","14","236221","0.0-14.0","A24Y1NVEEY1ADM","img_art/ins/popularity/ins3_5RED.png","0","instructions","","","","","","","","","","","","","","","","","","","","","","","",""
"13670","","image-button-response_instructions","15","249892","0.0-15.0","A24Y1NVEEY1ADM","img_art/ins/popularity/ins3KEEPpop.PNG","0","instructions","","","","","","","","","","","","","","","","","","","","","","","",""
"9835","","image-button-response_instructions","16","259728","0.0-16.0","A24Y1NVEEY1ADM","img_art/ins/popularity/ins4KEEPpop.PNG","0","instructions","","","","","","","","","","","","","","","","","","","","","","","",""
"10427","","image-button-response_instructions","17","270156","0.0-17.0","A24Y1NVEEY1ADM","img_art/ins/popularity/ins5KEEPpop.PNG","0","instructions","","","","","","","","","","","","","","","","","","","","","","","",""
"3986","","image-button-response_instructions","18","274144","0.0-18.0","A24Y1NVEEY1ADM","","0","instructions","","","","","","","","","","","","","","","","","","","","","","","",""
"10674","","survey-text","19","284868","0.0-19.0-0.0","A24Y1NVEEY1ADM","","","","{""Q0"":""but""}","","","","","","","","","","","","","","","","","","","","","","",""
"22137","","survey-text","20","307008","0.0-20.0-0.0","A24Y1NVEEY1ADM","","","","{""Q0"":""Look nice with color and lines""}","","","","","","","","","","","","","","","","","","","","","","",""
"6193.89999961853","","image-slider-response","21","313204","0.0-21.0","A24Y1NVEEY1ADM","","","","","17","","","","","","","","","","","","","","","","","","","","","",""
"null","","image-button-response","22","318209","0.0-22.0","A24Y1NVEEY1ADM","img_art/ins/1.jpg","null","","","","","","","","","","","","","","","","","","","","","","","","",""
"5559","","image-button-response","23","323771","0.0-23.0","A24Y1NVEEY1ADM","img_art/ins/1.jpg","4","","","","","","","","","","","","","","","","","","","","","","","","",""
"3918","","image-button-response","24","327691","0.0-24.0-0.0","A24Y1NVEEY1ADM","img_art/ins/1.jpg","5","","","","","","","","","","","","","","","","","","","","","","","","",""
"4711","","image-button-response","25","332404","0.0-25.0-0.0","A24Y1NVEEY1ADM","img_art/ins/1.jpg","0","","","","","","","","","","","","","","","","","","","","","","","","",""
"null","","html-keyboard-response","26","332908","0.0-26.0","A24Y1NVEEY1ADM","<p style=""font-size: 48px;"">+</p>","","","","","null","allTrialResponses","500","1","-2","img_art/ins/1.jpg","17","Look nice with color and lines","Adam,Alex,Ben,Carl,Daniel,Jack","Seems like doodles,-20,20,20","very creative work.,36,40,20","This color reminds me of poo,-46,60,20","very calming artwork,42,80,20","It looks like a murder scene.,-48,100,20","I like the sophisticated brushwork,40,120,20","Daniel","It looks like a murder scene.,-48,100,20","Jack","I like the sophisticated brushwork,40,120,20","Adam","Seems like doodles,-20,20,20","0"
"60155","","survey-text","27","393076","0.0-27.0-0.0","A24Y1NVEEY1ADM","","","","{""Q0"":""Like the strong expression ""}","","","","","","","","","","","","","","","","","","","","","","",""
"4628.199999809265","","image-slider-response","28","397706","0.0-28.0","A24Y1NVEEY1ADM","","","","","27","","","","","","","","","","","","","","","","","","","","","",""
"4726","","image-button-response","29","402711","0.0-29.0","A24Y1NVEEY1ADM","img_art/ins/2.jpg","4","","","","","","","","","","","","","","","","","","","","","","","","",""
"1158","","image-button-response","30","403872","0.0-30.0","A24Y1NVEEY1ADM","img_art/ins/2.jpg","4","","","","","","","","","","","","","","","","","","","","","","","","",""
"5397","","image-button-response","31","409271","0.0-31.0-0.0","A24Y1NVEEY1ADM","img_art/ins/2.jpg","1","","","","","","","","","","","","","","","","","","","","","","","","",""
"3118","","image-button-response","32","412392","0.0-32.0-0.0","A24Y1NVEEY1ADM","img_art/ins/2.jpg","5","","","","","","","","","","","","","","","","","","","","","","","","",""
"null","","html-keyboard-response","33","413895","0.0-33.0","A24Y1NVEEY1ADM","<p style=""font-size: 48px;"">+</p>","","","","","null","allTrialResponses","1500","1","-1","img_art/ins/2.jpg","27","Like the strong expression ","Adam,John,Kyle,James,Daniel,Jack","too much color,-18,20,20","love the texture of paint,48,160,20","Idk, it is just annoying,-32,180,20","looks too angry,-50,140,20","One of my pet peevs,-48,100,20","I would never be able to compose a sophisticated pallete like this,48,120,20","Daniel","One of my pet peevs,-48,100,20","John","love the texture of paint,48,160,20","Jack","I would never be able to compose a sophisticated pallete like this,48,120,20","0"
"36958","","survey-text","34","450864","0.0-34.0-0.0","A24Y1NVEEY1ADM","","","","{""Q0"":""Look simple and peaceful""}","","","","","","","","","","","","","","","","","","","","","","",""
"4602.599999904633","","image-slider-response","35","455468","0.0-35.0","A24Y1NVEEY1ADM","","","","","24","","","","","","","","","","","","","","","","","","","","","",""
"3254","","image-button-response","36","460472","0.0-36.0","A24Y1NVEEY1ADM","img_art/ins/3.jpg","3","","","","","","","","","","","","","","","","","","","","","","","","",""
"848","","image-button-response","37","461326","0.0-37.0","A24Y1NVEEY1ADM","img_art/ins/3.jpg","3","","","","","","","","","","","","","","","","","","","","","","","","",""
"4466","","image-button-response","38","465794","0.0-38.0-0.0","A24Y1NVEEY1ADM","img_art/ins/3.jpg","1","","","","","","","","","","","","","","","","","","","","","","","","",""
"4717","","image-button-response","39","470514","0.0-39.0-0.0","A24Y1NVEEY1ADM","img_art/ins/3.jpg","5","","","","","","","","","","","","","","","","","","","","","","","","",""
"null","","html-keyboard-response","40","471516","0.0-40.0","A24Y1NVEEY1ADM","<p style=""font-size: 48px;"">+</p>","","","","","null","allTrialResponses","1000","1","0","img_art/ins/3.jpg","24","Look simple and peaceful","Ron,John,Sam,Mike,Daniel,Jack","It looks depressing,-26,220,20","I like the overlapping of brushes,41,160,20","I can feel a rainy day from this painting,18,240,20","enjoy the different shades of blue,22,200,20","looks like a murder room,-35,100,20","I feel connected to the artist,40,120,20","Mike","enjoy the different shades of blue,22,200,20","John","I like the overlapping of brushes,41,160,20","Jack","I feel connected to the artist,40,120,20","0"
"10033","","image-button-response_instructions","41","481562","0.0-41.0","A24Y1NVEEY1ADM","","0","instructions","","","","","","","","","","","","","","","","","","","","","","","",""
"46167","","survey-likert","42","527731","0.0-42.0-0.0","A24Y1NVEEY1ADM","","","","{""Q0"":"""",""Q1"":1,""Q2"":0}","","","","","","","","","","","","","","","","","","","","","","",""
"19601","","survey-likert","43","551512","0.0-42.1-0.1","A24Y1NVEEY1ADM","","","","{""Q0"":"""",""Q1"":0,""Q2"":0}","","","","","","","","","","","","","","","","","","","","","","",""
"8334","","survey-likert","44","562818","0.0-42.2-0.2","A24Y1NVEEY1ADM","","","","{""Q0"":"""",""Q1"":0,""Q2"":1}","","","","","","","","","","","","","","","","","","","","","","",""
"6698","","survey-text","45","569526","0.0-43.0-0.0","A24Y1NVEEY1ADM","","","","{""Q0"":""rock""}","","","","","","","","","","","","","","","","","","","","","","",""
"24870","","survey-text","46","594398","0.0-44.0-0.0","A24Y1NVEEY1ADM","","","","{""Q0"":""look like rain""}","","","","","","","","","","","","","","","","","","","","","","",""
"4941.700000286102","","image-slider-response","47","599342","0.0-45.0","A24Y1NVEEY1ADM","","","","","23","","","","","","","","","","","","","","","","","","","","","",""
"4700","","image-button-response","48","604375","0.0-46.0","A24Y1NVEEY1ADM","img_art/13.jpg","4","","","","","","","","","","","","","","","","","","","","","","","","",""
"1066","","image-button-response","49","605444","0.0-47.0","A24Y1NVEEY1ADM","img_art/13.jpg","4","","","","","","","","","","","","","","","","","","","","","","","","",""
"1625","","image-button-response","50","607071","0.0-48.0-0.0","A24Y1NVEEY1ADM","img_art/13.jpg","5","","","","","","","","","","","","","","","","","","","","","","","","",""
"10676","","image-button-response","51","617749","0.0-49.0-0.0","A24Y1NVEEY1ADM","img_art/13.jpg","2","","","","","","","","","","","","","","","","","","","","","","","","",""
"null","","html-keyboard-response","52","618751","0.0-50.0","A24Y1NVEEY1ADM","<p style=""font-size: 48px;"">+</p>","","","","","null","allTrialResponses","1000","1","1","img_art/13.jpg","23","look like rain","Logan,Jeffrey,Jeremy,Sean,Kenneth,Robert","so simple and stupid this looks like what I did to my cousins wall when we repainted it for her 13th bday,0,360,20","Messy but organised, helps me to relax and observe,8,40,20","Pleased. I like to combination of colors,17,60,20","I like the colors,7,40,20","I would hang this photo in my room.,21,300,20","Raindrops splashing on the window.,50,360,20","Kenneth","I would hang this photo in my room.,21,300,20","Robert","Raindrops splashing on the window.,50,360,20","Jeremy","Pleased. I like to combination of colors,17,60,20","2"
"44342","","survey-text","53","663102","0.0-51.0-0.0","A24Y1NVEEY1ADM","","","","{""Q0"":""very good expression""}","","","","","","","","","","","","","","","","","","","","","","",""
"5909.900000095367","","image-slider-response","54","669014","0.0-52.0","A24Y1NVEEY1ADM","","","","","38","","","","","","","","","","","","","","","","","","","","","",""
"3817","","image-button-response","55","674017","0.0-53.0","A24Y1NVEEY1ADM","img_art/11.jpg","4","","","","","","","","","","","","","","","","","","","","","","","","",""
"838","","image-button-response","56","674858","0.0-54.0","A24Y1NVEEY1ADM","img_art/11.jpg","5","","","","","","","","","","","","","","","","","","","","","","","","",""
"1414","","image-button-response","57","676274","0.0-55.0-0.0","A24Y1NVEEY1ADM","img_art/11.jpg","4","","","","","","","","","","","","","","","","","","","","","","","","",""
"3053","","image-button-response","58","679330","0.0-56.0-0.0","A24Y1NVEEY1ADM","img_art/11.jpg","3","","","","","","","","","","","","","","","","","","","","","","","","",""
"null","","html-keyboard-response","59","680834","0.0-57.0","A24Y1NVEEY1ADM","<p style=""font-size: 48px;"">+</p>","","","","","null","allTrialResponses","1500","1","2","img_art/11.jpg","38","very good expression","Cole,Angel,Jeremy,Mark,Kenneth,Robert","Grays arent my thing,-25,200,20","This is disorienting, like motion sickness.,-20,180,20","gave me a sense of gloom,-21,60,20","My initial thought was roller coasters but I see ship masts on a cloudy day too.,35,80,20","Its a little psychedelic.,10,300,20","Rainy dreary day in a town.,7,360,20","Robert","Rainy dreary day in a town.,7,360,20","Kenneth","Its a little psychedelic.,10,300,20","Mark","My initial thought was roller coasters but I see ship masts on a cloudy day too.,35,80,20","2"
"53225","","survey-text","60","734070","0.0-58.0-0.0","A24Y1NVEEY1ADM","","","","{""Q0"":""It is little mess""}","","","","","","","","","","","","","","","","","","","","","","",""
"4738","","image-slider-response","61","738810","0.0-59.0","A24Y1NVEEY1ADM","","","","","-12","","","","","","","","","","","","","","","","","","","","","",""
"null","","image-button-response","62","743812","0.0-60.0","A24Y1NVEEY1ADM","img_art/20.jpg","null","","","","","","","","","","","","","","","","","","","","","","","","",""
"526","","image-button-response","63","744340","0.0-61.0","A24Y1NVEEY1ADM","img_art/20.jpg","3","","","","","","","","","","","","","","","","","","","","","","","","",""
"1914","","image-button-response","64","746256","0.0-62.0-0.0","A24Y1NVEEY1ADM","img_art/20.jpg","0","","","","","","","","","","","","","","","","","","","","","","","","",""
"5870","","image-button-response","65","752129","0.0-63.0-0.0","A24Y1NVEEY1ADM","img_art/20.jpg","2","","","","","","","","","","","","","","","","","","","","","","","","",""
"null","","html-keyboard-response","66","752631","0.0-64.0","A24Y1NVEEY1ADM","<p style=""font-size: 48px;"">+</p>","","","","","null","allTrialResponses","500","1","3","img_art/20.jpg","-12","It is little mess","Joseph,Thomas,Tanner,Mark,Kenneth,Robert","Something fell over and is burning, but it's kinda dope, you know?,14,220,20","I really enjoy the contrast of colors (blue/red/orange),30,220,20","danger, car crash, stressful,-12,180,20","Reminds me of persistance of time (a favorite of mine).,30,80,20","I want to like this more, but i wish it was more detailed. It's hard for me to see what it is.,5,300,20","Looks like an old gold mining down now deserted.,11,360,20","Mark","Reminds me of persistance of time (a favorite of mine).,30,80,20","Joseph","Something fell over and is burning, but it's kinda dope, you know?,14,220,20","Tanner","danger, car crash, stressful,-12,180,20","2"
"24972","","survey-text","67","777620","0.0-65.0-0.0","A24Y1NVEEY1ADM","","","","{""Q0"":""Look ok""}","","","","","","","","","","","","","","","","","","","","","","",""
"7984.300000190735","","image-slider-response","68","785606","0.0-66.0","A24Y1NVEEY1ADM","","","","","-2","","","","","","","","","","","","","","","","","","","","","",""
"4675","","image-button-response","69","790610","0.0-67.0","A24Y1NVEEY1ADM","img_art/24.jpg","5","","","","","","","","","","","","","","","","","","","","","","","","",""
"2959","","image-button-response","70","793570","0.0-68.0","A24Y1NVEEY1ADM","img_art/24.jpg","5","","","","","","","","","","","","","","","","","","","","","","","","",""
"3388","","image-button-response","71","796960","0.0-69.0-0.0","A24Y1NVEEY1ADM","img_art/24.jpg","0","","","","","","","","","","","","","","","","","","","","","","","","",""
"1313","","image-button-response","72","798276","0.0-70.0-0.0","A24Y1NVEEY1ADM","img_art/24.jpg","0","","","","","","","","","","","","","","","","","","","","","","","","",""
"1879","","image-button-response","73","803930","0.0-70.1-0.1","A24Y1NVEEY1ADM","img_art/24.jpg","1","","","","","","","","","","","","","","","","","","","","","","","","",""
"null","","html-keyboard-response","74","804933","0.0-71.0","A24Y1NVEEY1ADM","<p style=""font-size: 48px;"">+</p>","","","","","null","allTrialResponses","1000","1","4","img_art/24.jpg","-2","Look ok","Joseph,Blake,Tanner,Mark,Richard,Victor","It looks like a poor dead bunny in a field of flowers. I don't want the bunny to be dead.,-37,220,20","warm spring day after a rain. soft,20,280,20","calm, nature, safe, happy place,,50,180,20","Waterfall, and I love the coloring.,48,80,20","flowing water part is good, some of the rest is ok but dark,14,340,20","I don't even know. It's just kind of meh,1,340,20","Victor","I don't even know. It's just kind of meh,1,340,20","Joseph","It looks like a poor dead bunny in a field of flowers. I don't want the bunny to be dead.,-37,220,20","Blake","warm spring day after a rain. soft,20,280,20","4"
"29727","","survey-text","75","834682","0.0-72.0-0.0","A24Y1NVEEY1ADM","","","","{""Q0"":""Look interesting""}","","","","","","","","","","","","","","","","","","","","","","",""
"3660.0999999046326","","image-slider-response","76","838344","0.0-73.0","A24Y1NVEEY1ADM","","","","","26","","","","","","","","","","","","","","","","","","","","","",""
"null","","image-button-response","77","843347","0.0-74.0","A24Y1NVEEY1ADM","img_art/22.jpg","null","","","","","","","","","","","","","","","","","","","","","","","","",""
"1133","","image-button-response","78","844483","0.0-75.0","A24Y1NVEEY1ADM","img_art/22.jpg","4","","","","","","","","","","","","","","","","","","","","","","","","",""
"1234","","image-button-response","79","845718","0.0-76.0-0.0","A24Y1NVEEY1ADM","img_art/22.jpg","3","","","","","","","","","","","","","","","","","","","","","","","","",""
"1743","","image-button-response","80","847464","0.0-77.0-0.0","A24Y1NVEEY1ADM","img_art/22.jpg","5","","","","","","","","","","","","","","","","","","","","","","","","",""
"null","","html-keyboard-response","81","848466","0.0-78.0","A24Y1NVEEY1ADM","<p style=""font-size: 48px;"">+</p>","","","","","null","allTrialResponses","1000","1","5","img_art/22.jpg","26","Look interesting","Joseph,Blake,Travis,Brett,Eric,Victor","I don't like that it looks like a person is there upside down.,-16,220,20","a lost balloon in outer space,12,280,20","Don't like it...too much red,-17,260,20","Climate change in a big city,35,360,20","I don't normally like bright colors, but I like them in this. Don't like the random black paint.,30,100,20","I don't really know why, I just like looking at it,10,340,20","Eric","I don't normally like bright colors, but I like them in this. Don't like the random black paint.,30,100,20","Brett","Climate change in a big city,35,360,20","Victor","I don't really know why, I just like looking at it,10,340,20","4"
"5247","","survey-text","82","853724","0.0-79.0-0.0","A24Y1NVEEY1ADM","","","","{""Q0"":""sky""}","","","","","","","","","","","","","","","","","","","","","","",""
"64614","","survey-text","83","918340","0.0-80.0-0.0","A24Y1NVEEY1ADM","","","","{""Q0"":""very nice street view""}","","","","","","","","","","","","","","","","","","","","","","",""
"4116.099999904633","","image-slider-response","84","922458","0.0-81.0","A24Y1NVEEY1ADM","","","","","29","","","","","","","","","","","","","","","","","","","","","",""
"2758","","image-button-response","85","927462","0.0-82.0","A24Y1NVEEY1ADM","img_art/19.jpg","3","","","","","","","","","","","","","","","","","","","","","","","","",""
"611","","image-button-response","86","928076","0.0-83.0","A24Y1NVEEY1ADM","img_art/19.jpg","3","","","","","","","","","","","","","","","","","","","","","","","","",""
"3183","","image-button-response","87","931260","0.0-84.0-0.0","A24Y1NVEEY1ADM","img_art/19.jpg","4","","","","","","","","","","","","","","","","","","","","","","","","",""
"4319","","image-button-response","88","935582","0.0-85.0-0.0","A24Y1NVEEY1ADM","img_art/19.jpg","0","","","","","","","","","","","","","","","","","","","","","","","","",""
"null","","html-keyboard-response","89","936584","0.0-86.0","A24Y1NVEEY1ADM","<p style=""font-size: 48px;"">+</p>","","","","","null","allTrialResponses","1000","1","6","img_art/19.jpg","29","very nice street view","Bryan,Isaac,Miguel,Brett,Eric,Victor","Looks like a child's rendering of a city street but not too sure.,0,400,20","It is too busy.,-34,280,20","Messy and kid like.,-36,160,20","Reminds me of a quaint little town I once visited in Italy,50,360,20","I like the color and the mix of sketches along with paint.,30,100,20","too much going on, can't tell what it is,-14,340,20","Brett","Reminds me of a quaint little town I once visited in Italy,50,360,20","Eric","I like the color and the mix of sketches along with paint.,30,100,20","Bryan","Looks like a child's rendering of a city street but not too sure.,0,400,20","4"
"40804","","survey-text","90","977392","0.0-87.0-0.0","A24Y1NVEEY1ADM","","","","{""Q0"":""You can feel the life of the plant""}","","","","","","","","","","","","","","","","","","","","","","",""
"4426.199999809265","","image-slider-response","91","981820","0.0-88.0","A24Y1NVEEY1ADM","","","","","30","","","","","","","","","","","","","","","","","","","","","",""
"3679","","image-button-response","92","986823","0.0-89.0","A24Y1NVEEY1ADM","img_art/14.jpg","3","","","","","","","","","","","","","","","","","","","","","","","","",""
"926","","image-button-response","93","987754","0.0-90.0","A24Y1NVEEY1ADM","img_art/14.jpg","3","","","","","","","","","","","","","","","","","","","","","","","","",""
"2277","","image-button-response","94","990032","0.0-91.0-0.0","A24Y1NVEEY1ADM","img_art/14.jpg","4","","","","","","","","","","","","","","","","","","","","","","","","",""
"5204","","image-button-response","95","995238","0.0-92.0-0.0","A24Y1NVEEY1ADM","img_art/14.jpg","1","","","","","","","","","","","","","","","","","","","","","","","","",""
"null","","html-keyboard-response","96","996241","0.0-93.0","A24Y1NVEEY1ADM","<p style=""font-size: 48px;"">+</p>","","","","","null","allTrialResponses","1000","1","7","img_art/14.jpg","30","You can feel the life of the plant","Bryan,Edward,Andrew,Brett,Eric,Jordan","Like some of the colors but not much else.,1,400,20","I just really like light and wispy things,33,60,20","Makes me think of my plants growing,11,160,20","Confusion or an explosion,40,360,20","I'm imagining a flower bouquet with pretty colors which I like.,35,100,20","Reminds me of art class,22,160,20","Brett","Confusion or an explosion,40,360,20","Eric","I'm imagining a flower bouquet with pretty colors which I like.,35,100,20","Edward","I just really like light and wispy things,33,60,20","4"
"26179","","survey-text","97","1022426","0.0-94.0-0.0","A24Y1NVEEY1ADM","","","","{""Q0"":""great expression""}","","","","","","","","","","","","","","","","","","","","","","",""
"6680.400000095367","","image-slider-response","98","1029108","0.0-95.0","A24Y1NVEEY1ADM","","","","","16","","","","","","","","","","","","","","","","","","","","","",""
"3538","","image-button-response","99","1034111","0.0-96.0","A24Y1NVEEY1ADM","img_art/17.jpg","0","","","","","","","","","","","","","","","","","","","","","","","","",""
"665","","image-button-response","100","1034780","0.0-97.0","A24Y1NVEEY1ADM","img_art/17.jpg","0","","","","","","","","","","","","","","","","","","","","","","","","",""
"3735","","image-button-response","101","1038518","0.0-98.0-0.0","A24Y1NVEEY1ADM","img_art/17.jpg","1","","","","","","","","","","","","","","","","","","","","","","","","",""
"4148","","image-button-response","102","1042668","0.0-99.0-0.0","A24Y1NVEEY1ADM","img_art/17.jpg","5","","","","","","","","","","","","","","","","","","","","","","","","",""
"null","","html-keyboard-response","103","1043670","0.0-100.0","A24Y1NVEEY1ADM","<p style=""font-size: 48px;"">+</p>","","","","","null","allTrialResponses","1000","1","8","img_art/17.jpg","16","great expression","Jose,Edward,Kyle,Brett,Eric,Devon","Looks like a weird blurry heaven again! I dig,32,200,20","I love how soft it is,35,60,20","I like the use of color in this and how you can actually see shapes form. Seems thoughtful,22,340,20","Looks like an explosion of pretty artwork,45,360,20","This picture is calming to me, and I love the colors.,45,100,20","i feel some sadness in this picture,25,400,20","Jose","Looks like a weird blurry heaven again! I dig,32,200,20","Edward","I love how soft it is,35,60,20","Devon","i feel some sadness in this picture,25,400,20","4"
"41853","","survey-text","104","1085540","0.0-101.0-0.0","A24Y1NVEEY1ADM","","","","{""Q0"":""good ""}","","","","","","","","","","","","","","","","","","","","","","",""
"13214","","survey-text","105","1100470","0.0-101.1-0.1","A24Y1NVEEY1ADM","","","","{""Q0"":""good way the present""}","","","","","","","","","","","","","","","","","","","","","","",""
"4891.900000095367","","image-slider-response","106","1105364","0.0-102.0","A24Y1NVEEY1ADM","","","","","2","","","","","","","","","","","","","","","","","","","","","",""
"null","","image-button-response","107","1110368","0.0-103.0","A24Y1NVEEY1ADM","img_art/25.jpg","null","","","","","","","","","","","","","","","","","","","","","","","","",""
"870","","image-button-response","108","1111240","0.0-104.0","A24Y1NVEEY1ADM","img_art/25.jpg","2","","","","","","","","","","","","","","","","","","","","","","","","",""
"3936","","image-button-response","109","1115178","0.0-105.0-0.0","A24Y1NVEEY1ADM","img_art/25.jpg","0","","","","","","","","","","","","","","","","","","","","","","","","",""
"2690","","image-button-response","110","1117870","0.0-106.0-0.0","A24Y1NVEEY1ADM","img_art/25.jpg","3","","","","","","","","","","","","","","","","","","","","","","","","",""
"null","","html-keyboard-response","111","1119372","0.0-107.0","A24Y1NVEEY1ADM","<p style=""font-size: 48px;"">+</p>","","","","","null","allTrialResponses","1500","1","9","img_art/25.jpg","2","good way the present","Jose,Edward,Cody,Caleb,Carlos,Devon","That's pretty awesome. I love the green and black combo, reminds me of one of those cartoon creepy movies,47,200,20","It looks like people worshipping a statue,33,60,20","Like the colors and the figure,30,180,20","Very cool color, very clear message!,50,40,20","The proportions are unpleasant.,-30,80,20","i feel a bit dull, a bit scared,-20,400,20","Cody","Like the colors and the figure,30,180,20","Jose","That's pretty awesome. I love the green and black combo, reminds me of one of those cartoon creepy movies,47,200,20","Caleb","Very cool color, very clear message!,50,40,20","4"
"23118","","survey-text","112","1142506","0.0-108.0-0.0","A24Y1NVEEY1ADM","","","","{""Q0"":""is it a tree?""}","","","","","","","","","","","","","","","","","","","","","","",""
"7952.300000190735","","image-slider-response","113","1150460","0.0-109.0","A24Y1NVEEY1ADM","","","","","-1","","","","","","","","","","","","","","","","","","","","","",""
"4691","","image-button-response","114","1155465","0.0-110.0","A24Y1NVEEY1ADM","img_art/15.jpg","5","","","","","","","","","","","","","","","","","","","","","","","","",""
"1091","","image-button-response","115","1156561","0.0-111.0","A24Y1NVEEY1ADM","img_art/15.jpg","5","","","","","","","","","","","","","","","","","","","","","","","","",""
"4738","","image-button-response","116","1161302","0.0-112.0-0.0","A24Y1NVEEY1ADM","img_art/15.jpg","1","","","","","","","","","","","","","","","","","","","","","","","","",""
"2977","","image-button-response","117","1164282","0.0-113.0-0.0","A24Y1NVEEY1ADM","img_art/15.jpg","4","","","","","","","","","","","","","","","","","","","","","","","","",""
"null","","html-keyboard-response","118","1164785","0.0-114.0","A24Y1NVEEY1ADM","<p style=""font-size: 48px;"">+</p>","","","","","null","allTrialResponses","500","1","10","img_art/15.jpg","-1","is it a tree?","Jose,Seth,Cody,Caleb,Benjamin,Jesse","black dots too ant-like,-25,200,20","There should be more space between the black marks. The black comes off harsh and the blue between the trees can barely be seen.,-21,60,20","Don't love it but it's cute,16,180,20","Love the accent colors in this piece!,20,40,20","Reminds me of blueberry bushes.,7,260,20","Doesnt trigger much of a reaction overall,-2,80,20","Jesse","Doesnt trigger much of a reaction overall,-2,80,20","Seth","There should be more space between the black marks. The black comes off harsh and the blue between the trees can barely be seen.,-21,60,20","Benjamin","Reminds me of blueberry bushes.,7,260,20","4"
"4645","","survey-text","119","1169456","0.0-115.0-0.0","A24Y1NVEEY1ADM","","","","{""Q0"":""our""}","","","","","","","","","","","","","","","","","","","","","","",""
"26772","","survey-text","120","1196229","0.0-116.0-0.0","A24Y1NVEEY1ADM","","","","{""Q0"":""very fine color mix""}","","","","","","","","","","","","","","","","","","","","","","",""
"3894","","image-slider-response","121","1200125","0.0-117.0","A24Y1NVEEY1ADM","","","","","22","","","","","","","","","","","","","","","","","","","","","",""
"null","","image-button-response","122","1205129","0.0-118.0","A24Y1NVEEY1ADM","img_art/1.jpg","null","","","","","","","","","","","","","","","","","","","","","","","","",""
"651","","image-button-response","123","1205784","0.0-119.0","A24Y1NVEEY1ADM","img_art/1.jpg","4","","","","","","","","","","","","","","","","","","","","","","","","",""
"1914","","image-button-response","124","1207700","0.0-120.0-0.0","A24Y1NVEEY1ADM","img_art/1.jpg","3","","","","","","","","","","","","","","","","","","","","","","","","",""
"2104","","image-button-response","125","1209806","0.0-121.0-0.0","A24Y1NVEEY1ADM","img_art/1.jpg","1","","","","","","","","","","","","","","","","","","","","","","","","",""
"null","","html-keyboard-response","126","1210312","0.0-122.0","A24Y1NVEEY1ADM","<p style=""font-size: 48px;"">+</p>","","","","","null","allTrialResponses","500","1","11","img_art/1.jpg","22","very fine color mix","Brian,Seth,Chase,Luis,Benjamin,Jesse","I don't feel like much is happening in this painting,-25,380,20","Might be a person rowing their boat across the lake. Not sure if the background is trees or not.,12,60,20","It's alright but lacks any depth.,-5,120,20","I love the calming comfort and safe feeling of this,50,400,20","Really like all of the colors and how they mesh well.,27,260,20","Im not a fan of the bluriness,-18,80,20","Benjamin","Really like all of the colors and how they mesh well.,27,260,20","Luis","I love the calming comfort and safe feeling of this,50,400,20","Seth","Might be a person rowing their boat across the lake. Not sure if the background is trees or not.,12,60,20","4"
"40243","","survey-text","127","1250563","0.0-123.0-0.0","A24Y1NVEEY1ADM","","","","{""Q0"":""Bird on a bench""}","","","","","","","","","","","","","","","","","","","","","","",""
"5638.300000190735","","image-slider-response","128","1256204","0.0-124.0","A24Y1NVEEY1ADM","","","","","7","","","","","","","","","","","","","","","","","","","","","",""
"4819","","image-button-response","129","1261209","0.0-125.0","A24Y1NVEEY1ADM","img_art/6.jpg","4","","","","","","","","","","","","","","","","","","","","","","","","",""
"954","","image-button-response","130","1262166","0.0-126.0","A24Y1NVEEY1ADM","img_art/6.jpg","4","","","","","","","","","","","","","","","","","","","","","","","","",""
"5834","","image-button-response","131","1268002","0.0-127.0-0.0","A24Y1NVEEY1ADM","img_art/6.jpg","0","","","","","","","","","","","","","","","","","","","","","","","","",""
"1826","","image-button-response","132","1269831","0.0-128.0-0.0","A24Y1NVEEY1ADM","img_art/6.jpg","1","","","","","","","","","","","","","","","","","","","","","","","","",""
"null","","html-keyboard-response","133","1270334","0.0-129.0","A24Y1NVEEY1ADM","<p style=""font-size: 48px;"">+</p>","","","","","null","allTrialResponses","500","1","12","img_art/6.jpg","7","Bird on a bench","Shane,Seth,Mason,Luis,Benjamin,Dustin","A bird standing in the sun,37,80,20","I love it. It reminds me of a bird sitting on a wall.,26,60,20","kids book cover, uninteresting.,-10,100,20","I love the representation of death and life.,50,400,20","Something very simplistic about it. The colors mesh well.,10,260,20","I like the warmth of the orange. But, I feel like it's a partial view. I'm frustrated I can't see the entirety.,-20,20,20","Benjamin","Something very simplistic about it. The colors mesh well.,10,260,20","Shane","A bird standing in the sun,37,80,20","Seth","I love it. It reminds me of a bird sitting on a wall.,26,60,20","4"
"38976","","survey-text","134","1309317","0.0-130.0-0.0","A24Y1NVEEY1ADM","","","","{""Q0"":""3D expression""}","","","","","","","","","","","","","","","","","","","","","","",""
"4392.099999904633","","image-slider-response","135","1313711","0.0-131.0","A24Y1NVEEY1ADM","","","","","18","","","","","","","","","","","","","","","","","","","","","",""
"4480","","image-button-response","136","1318715","0.0-132.0","A24Y1NVEEY1ADM","img_art/29.jpg","5","","","","","","","","","","","","","","","","","","","","","","","","",""
"641","","image-button-response","137","1319360","0.0-133.0","A24Y1NVEEY1ADM","img_art/29.jpg","5","","","","","","","","","","","","","","","","","","","","","","","","",""
"3122","","image-button-response","138","1322483","0.0-134.0-0.0","A24Y1NVEEY1ADM","img_art/29.jpg","2","","","","","","","","","","","","","","","","","","","","","","","","",""
"9482","","image-button-response","139","1331967","0.0-135.0-0.0","A24Y1NVEEY1ADM","img_art/29.jpg","1","","","","","","","","","","","","","","","","","","","","","","","","",""
"null","","html-keyboard-response","140","1332469","0.0-136.0","A24Y1NVEEY1ADM","<p style=""font-size: 48px;"">+</p>","","","","","null","allTrialResponses","500","1","13","img_art/29.jpg","18","3D expression","Shane,Seth,Ian,Brandon,Benjamin,Anthony","Darkness and torment,-50,80,20","I rated it lower because it looked like a crime scene. It didn't make me feel good.,-44,60,20","This feels chaotic and I like the energy that it gives off.,21,260,20","The black color is great, but I'm really not a fan of this hectic style,-40,320,20","Don't like the red X across the painting.,-15,260,20","Very interesting composition,41,200,20","Anthony","Very interesting composition,41,200,20","Ian","This feels chaotic and I like the energy that it gives off.,21,260,20","Seth","I rated it lower because it looked like a crime scene. It didn't make me feel good.,-44,60,20","4"
"50119","","survey-text","141","1382593","0.0-137.0-0.0","A24Y1NVEEY1ADM","","","","{""Q0"":""Lot of detail""}","","","","","","","","","","","","","","","","","","","","","","",""
"4648.400000095367","","image-slider-response","142","1387243","0.0-138.0","A24Y1NVEEY1ADM","","","","","6","","","","","","","","","","","","","","","","","","","","","",""
"null","","image-button-response","143","1392246","0.0-139.0","A24Y1NVEEY1ADM","img_art/12.jpg","null","","","","","","","","","","","","","","","","","","","","","","","","",""
"2520","","image-button-response","144","1394768","0.0-140.0","A24Y1NVEEY1ADM","img_art/12.jpg","1","","","","","","","","","","","","","","","","","","","","","","","","",""
"4764","","image-button-response","145","1399534","0.0-141.0-0.0","A24Y1NVEEY1ADM","img_art/12.jpg","4","","","","","","","","","","","","","","","","","","","","","","","","",""
"7376","","image-button-response","146","1406912","0.0-142.0-0.0","A24Y1NVEEY1ADM","img_art/12.jpg","3","","","","","","","","","","","","","","","","","","","","","","","","",""
"null","","html-keyboard-response","147","1408414","0.0-143.0","A24Y1NVEEY1ADM","<p style=""font-size: 48px;"">+</p>","","","","","null","allTrialResponses","1500","1","14","img_art/12.jpg","6","Lot of detail","Elijah,Seth,Ian,Vincent,Evan,Anthony","It makes me feel confused,-15,80,20","This is beautiful. It looks like 1,000 different sunrises and sunsets.,44,60,20","This is like going to a really old mcdoanlds in a tiny town and it's never been renovated so it's breaking down,-31,260,20","I have seen some like this before very popular and full of life,42,360,20","It reminds me of the documentary Paris is Burning, though I'm not sure why,11,140,20","This piece doesn't provoke any kind of reaction,0,200,20","Seth","This is beautiful. It looks like 1,000 different sunrises and sunsets.,44,60,20","Evan","It reminds me of the documentary Paris is Burning, though I'm not sure why,11,140,20","Vincent","I have seen some like this before very popular and full of life,42,360,20","4"
"187724","","survey-text","148","1596153","0.0-144.0-0.0","A24Y1NVEEY1ADM","","","","{""Q0"":""Composite very good""}","","","","","","","","","","","","","","","","","","","","","","",""
"2459.4000000953674","","image-slider-response","149","1598615","0.0-145.0","A24Y1NVEEY1ADM","","","","","3","","","","","","","","","","","","","","","","","","","","","",""
"null","","image-button-response","150","1603618","0.0-146.0","A24Y1NVEEY1ADM","img_art/18.jpg","null","","","","","","","","","","","","","","","","","","","","","","","","",""
"693","","image-button-response","151","1604313","0.0-147.0","A24Y1NVEEY1ADM","img_art/18.jpg","4","","","","","","","","","","","","","","","","","","","","","","","","",""
"10140","","image-button-response","152","1614456","0.0-148.0-0.0","A24Y1NVEEY1ADM","img_art/18.jpg","5","","","","","","","","","","","","","","","","","","","","","","","","",""
"5659","","image-button-response","153","1620118","0.0-149.0-0.0","A24Y1NVEEY1ADM","img_art/18.jpg","0","","","","","","","","","","","","","","","","","","","","","","","","",""
"null","","html-keyboard-response","154","1621121","0.0-150.0","A24Y1NVEEY1ADM","<p style=""font-size: 48px;"">+</p>","","","","","null","allTrialResponses","1000","1","15","img_art/18.jpg","3","Composite very good","Adrian,Seth,Gregory,Vincent,Evan,Matthew","Interesting piece - gives you more the more you look at it. I like it but wouldn't buy it.,11,60,20","This painting reminds me of the 4 horsemen of the apocalypse. It feels haunting.,31,60,20","Mash up of colors and don't see a grander picture,-10,220,20","Very conversational and can see many different looks and feels from this .,34,360,20","This brings to mind the four horsemen of the apocalypse,8,140,20","Resembles a ship at sea, storm of activity.,28,120,20","Evan","This brings to mind the four horsemen of the apocalypse,8,140,20","Matthew","Resembles a ship at sea, storm of activity.,28,120,20","Adrian","Interesting piece - gives you more the more you look at it. I like it but wouldn't buy it.,11,60,20","4"
"6678","","survey-text","155","1627827","0.0-151.0-0.0","A24Y1NVEEY1ADM","","","","{""Q0"":""course""}","","","","","","","","","","","","","","","","","","","","","","",""
"139519","","survey-text","156","1767348","0.0-152.0-0.0","A24Y1NVEEY1ADM","","","","{""Q0"":""Is it a roller coaster""}","","","","","","","","","","","","","","","","","","","","","","",""
"4280.400000095367","","image-slider-response","157","1771630","0.0-153.0","A24Y1NVEEY1ADM","","","","","7","","","","","","","","","","","","","","","","","","","","","",""
"null","","image-button-response","158","1776633","0.0-154.0","A24Y1NVEEY1ADM","img_art/10.jpg","null","","","","","","","","","","","","","","","","","","","","","","","","",""
"4792","","image-button-response","159","1781428","0.0-155.0","A24Y1NVEEY1ADM","img_art/10.jpg","2","","","","","","","","","","","","","","","","","","","","","","","","",""
"3970","","image-button-response","160","1785400","0.0-156.0-0.0","A24Y1NVEEY1ADM","img_art/10.jpg","5","","","","","","","","","","","","","","","","","","","","","","","","",""
"1703","","image-button-response","161","1787106","0.0-157.0-0.0","A24Y1NVEEY1ADM","img_art/10.jpg","4","","","","","","","","","","","","","","","","","","","","","","","","",""
"null","","html-keyboard-response","162","1788108","0.0-158.0","A24Y1NVEEY1ADM","<p style=""font-size: 48px;"">+</p>","","","","","null","allTrialResponses","1000","1","16","img_art/10.jpg","7","Is it a roller coaster","Adrian,William,Bradley,Nathan,Evan,Matthew","Looks like a violin. Not a fan of the smudges and smears, but my initial reaction was positive.,11,60,20","absolutely beautiful piece of art,49,380,20","This piece is very intriguing to me.,3,300,20","Seems very lovecraftian, which I love that style,25,200,20","My immediate thought is WTF is this,-20,140,20","AWESOME VIOLIN!`,26,120,20","Bradley","This piece is very intriguing to me.,3,300,20","Matthew","AWESOME VIOLIN!`,26,120,20","Evan","My immediate thought is WTF is this,-20,140,20","4"
"47806","","survey-text","163","1835935","0.0-159.0-0.0","A24Y1NVEEY1ADM","","","","{""Q0"":""It look like a cliffside""}","","","","","","","","","","","","","","","","","","","","","","",""
"4270.099999904633","","image-slider-response","164","1840207","0.0-160.0","A24Y1NVEEY1ADM","","","","","28","","","","","","","","","","","","","","","","","","","","","",""
"null","","image-button-response","165","1845211","0.0-161.0","A24Y1NVEEY1ADM","img_art/21.jpg","null","","","","","","","","","","","","","","","","","","","","","","","","",""
"425","","image-button-response","166","1845640","0.0-162.0","A24Y1NVEEY1ADM","img_art/21.jpg","3","","","","","","","","","","","","","","","","","","","","","","","","",""
"5171","","image-button-response","167","1850812","0.0-163.0-0.0","A24Y1NVEEY1ADM","img_art/21.jpg","5","","","","","","","","","","","","","","","","","","","","","","","","",""
"5188","","image-button-response","168","1856003","0.0-164.0-0.0","A24Y1NVEEY1ADM","img_art/21.jpg","1","","","","","","","","","","","","","","","","","","","","","","","","",""
"null","","html-keyboard-response","169","1857506","0.0-165.0","A24Y1NVEEY1ADM","<p style=""font-size: 48px;"">+</p>","","","","","null","allTrialResponses","1500","1","17","img_art/21.jpg","28","It look like a cliffside","Brendan,Alejandro,Bradley,Colton,Evan,Matthew","looks like a sea during some war,27,340,20","Feels like a clash between land and sea,31,80,20","Indifferent toward this one.,6,300,20","i enjoy the clash of colors, reminds me of a storm at sea,32,220,20","I feel confused,-18,140,20","Disturbing, land meets ocean, lvoely really.,43,120,20","Colton","i enjoy the clash of colors, reminds me of a storm at sea,32,220,20","Matthew","Disturbing, land meets ocean, lvoely really.,43,120,20","Alejandro","Feels like a clash between land and sea,31,80,20","4"
"53460","","survey-text","170","1910983","0.0-166.0-0.0","A24Y1NVEEY1ADM","","","","{""Q0"":""very interesting teddy bear""}","","","","","","","","","","","","","","","","","","","","","","",""
"4606.099999904633","","image-slider-response","171","1915591","0.0-167.0","A24Y1NVEEY1ADM","","","","","5","","","","","","","","","","","","","","","","","","","","","",""
"null","","image-button-response","172","1920594","0.0-168.0","A24Y1NVEEY1ADM","img_art/16.jpg","null","","","","","","","","","","","","","","","","","","","","","","","","",""
"5852","","image-button-response","173","1926451","0.0-169.0","A24Y1NVEEY1ADM","img_art/16.jpg","3","","","","","","","","","","","","","","","","","","","","","","","","",""
"3044","","image-button-response","174","1929497","0.0-170.0-0.0","A24Y1NVEEY1ADM","img_art/16.jpg","0","","","","","","","","","","","","","","","","","","","","","","","","",""
"3343","","image-button-response","175","1932842","0.0-171.0-0.0","A24Y1NVEEY1ADM","img_art/16.jpg","5","","","","","","","","","","","","","","","","","","","","","","","","",""
"null","","html-keyboard-response","176","1933344","0.0-172.0","A24Y1NVEEY1ADM","<p style=""font-size: 48px;"">+</p>","","","","","null","allTrialResponses","500","1","18","img_art/16.jpg","5","very interesting teddy bear","Dakota,Alejandro,Alexis,Colton,Jack,Matthew","depressing and confrontational,-9,280,20","Garble and nonsense,-50,80,20","It looks very generic, like items were pasted onto the background,-38,140,20","the materials used are interesting,30,220,20","very bizarre and confusing, but that feels purposeful, so i don't completely hate it.,-25,320,20","A lot fo these could abstract or childrens work.,23,120,20","Colton","the materials used are interesting,30,220,20","Dakota","depressing and confrontational,-9,280,20","Matthew","A lot fo these could abstract or childrens work.,23,120,20","4"
"25173","","survey-text","177","1958535","0.0-173.0-0.0","A24Y1NVEEY1ADM","","","","{""Q0"":""Not to sure what is it""}","","","","","","","","","","","","","","","","","","","","","","",""
"4217.699999809265","","image-slider-response","178","1962755","0.0-174.0","A24Y1NVEEY1ADM","","","","","-21","","","","","","","","","","","","","","","","","","","","","",""
"3896","","image-button-response","179","1967758","0.0-175.0","A24Y1NVEEY1ADM","img_art/3.jpg","1","","","","","","","","","","","","","","","","","","","","","","","","",""
"761","","image-button-response","180","1968525","0.0-176.0","A24Y1NVEEY1ADM","img_art/3.jpg","1","","","","","","","","","","","","","","","","","","","","","","","","",""
"2470","","image-button-response","181","1970998","0.0-177.0-0.0","A24Y1NVEEY1ADM","img_art/3.jpg","2","","","","","","","","","","","","","","","","","","","","","","","","",""
"4452","","image-button-response","182","1975452","0.0-178.0-0.0","A24Y1NVEEY1ADM","img_art/3.jpg","4","","","","","","","","","","","","","","","","","","","","","","","","",""
"null","","html-keyboard-response","183","1976954","0.0-179.0","A24Y1NVEEY1ADM","<p style=""font-size: 48px;"">+</p>","","","","","null","allTrialResponses","1500","1","19","img_art/3.jpg","-21","Not to sure what is it","Dakota,Jake,Patrick,Colton,Tyler,Matthew","wild scribbling, freedom, expression,40,280,20","This is angry and childish looking.,-49,360,20","Random use of red and looks scary,-50,280,20","looks like a kid scribbled with crayon,-35,220,20","This doesn't grab me. Perhaps the red is meant to be provocative; I find it gimmicky.,-9,320,20","Reminds of John Lenonn's art a bit.,27,120,20","Jake","This is angry and childish looking.,-49,360,20","Patrick","Random use of red and looks scary,-50,280,20","Tyler","This doesn't grab me. Perhaps the red is meant to be provocative; I find it gimmicky.,-9,320,20","4"
"72059","","survey-text","184","2049031","0.0-180.0-0.0","A24Y1NVEEY1ADM","","","","{""Q0"":""Street view can be composited better""}","","","","","","","","","","","","","","","","","","","","","","",""
"2948.1000003814697","","image-slider-response","185","2051981","0.0-181.0","A24Y1NVEEY1ADM","","","","","-37","","","","","","","","","","","","","","","","","","","","","",""
"4746","","image-button-response","186","2056984","0.0-182.0","A24Y1NVEEY1ADM","img_art/26.jpg","4","","","","","","","","","","","","","","","","","","","","","","","","",""
"1405","","image-button-response","187","2058394","0.0-183.0","A24Y1NVEEY1ADM","img_art/26.jpg","4","","","","","","","","","","","","","","","","","","","","","","","","",""
"2963","","image-button-response","188","2061360","0.0-184.0-0.0","A24Y1NVEEY1ADM","img_art/26.jpg","1","","","","","","","","","","","","","","","","","","","","","","","","",""
"4340","","image-button-response","189","2065701","0.0-185.0-0.0","A24Y1NVEEY1ADM","img_art/26.jpg","3","","","","","","","","","","","","","","","","","","","","","","","","",""
"null","","html-keyboard-response","190","2067204","0.0-186.0","A24Y1NVEEY1ADM","<p style=""font-size: 48px;"">+</p>","","","","","null","allTrialResponses","1500","1","20","img_art/26.jpg","-37","Street view can be composited better","Stephen,Jake,Patrick,Lucas,Tyler,Devin","No strong reaction but the color scheme is nice,10,140,20","It's not ugly but not beautiful at all.,-3,360,20","I can somewhat city a city in this drawing,11,280,20","Nothing to say.,0,380,20","Colors look glum; photograph is not properly contrasted and does not reflect the appropriate amount of natural light.,-10,320,20","I like the shapes but needs more detail i think,3,380,20","Tyler","Colors look glum; photograph is not properly contrasted and does not reflect the appropriate amount of natural light.,-10,320,20","Jake","It's not ugly but not beautiful at all.,-3,360,20","Lucas","Nothing to say.,0,380,20","4"
"4006","","survey-text","191","2071241","0.0-187.0-0.0","A24Y1NVEEY1ADM","","","","{""Q0"":""we""}","","","","","","","","","","","","","","","","","","","","","","",""
"101637","","survey-text","192","2172880","0.0-188.0-0.0","A24Y1NVEEY1ADM","","","","{""Q0"":""Is it a baby in the stroller""}","","","","","","","","","","","","","","","","","","","","","","",""
"4540.200000286102","","image-slider-response","193","2177422","0.0-189.0","A24Y1NVEEY1ADM","","","","","14","","","","","","","","","","","","","","","","","","","","","",""
"null","","image-button-response","194","2182425","0.0-190.0","A24Y1NVEEY1ADM","img_art/28.jpg","null","","","","","","","","","","","","","","","","","","","","","","","","",""
"3486","","image-button-response","195","2185912","0.0-191.0","A24Y1NVEEY1ADM","img_art/28.jpg","4","","","","","","","","","","","","","","","","","","","","","","","","",""
"1731","","image-button-response","196","2187646","0.0-192.0-0.0","A24Y1NVEEY1ADM","img_art/28.jpg","5","","","","","","","","","","","","","","","","","","","","","","","","",""
"9409","","image-button-response","197","2197058","0.0-193.0-0.0","A24Y1NVEEY1ADM","img_art/28.jpg","2","","","","","","","","","","","","","","","","","","","","","","","","",""
"null","","html-keyboard-response","198","2198560","0.0-194.0","A24Y1NVEEY1ADM","<p style=""font-size: 48px;"">+</p>","","","","","null","allTrialResponses","1500","1","21","img_art/28.jpg","14","Is it a baby in the stroller","Daniel,Jake,Marcus,Lucas,Tyler,Malik","Compact grey mess lack negative space,-10,320,20","This is very ugly with poor colors.,-23,360,20","This reminds me of internal organs.,-10,60,20","This painting is mysterious, it makes me curious.,5,380,20","It's okay. There is harmony and balance.,11,320,20","Invokes curiosity, I want to know it's story.,15,40,20","Tyler","It's okay. There is harmony and balance.,11,320,20","Malik","Invokes curiosity, I want to know it's story.,15,40,20","Marcus","This reminds me of internal organs.,-10,60,20","4"
"99805","","survey-text","199","2298383","0.0-195.0-0.0","A24Y1NVEEY1ADM","","","","{""Q0"":""It look like a home""}","","","","","","","","","","","","","","","","","","","","","","",""
"4534","","image-slider-response","200","2302919","0.0-196.0","A24Y1NVEEY1ADM","","","","","1","","","","","","","","","","","","","","","","","","","","","",""
"null","","image-button-response","201","2307923","0.0-197.0","A24Y1NVEEY1ADM","img_art/8.jpg","null","","","","","","","","","","","","","","","","","","","","","","","","",""
"1214","","image-button-response","202","2309141","0.0-198.0","A24Y1NVEEY1ADM","img_art/8.jpg","4","","","","","","","","","","","","","","","","","","","","","","","","",""
"7480","","image-button-response","203","2316623","0.0-199.0-0.0","A24Y1NVEEY1ADM","img_art/8.jpg","1","","","","","","","","","","","","","","","","","","","","","","","","",""
"1145","","image-button-response","204","2317771","0.0-200.0-0.0","A24Y1NVEEY1ADM","img_art/8.jpg","2","","","","","","","","","","","","","","","","","","","","","","","","",""
"null","","html-keyboard-response","205","2318273","0.0-201.0","A24Y1NVEEY1ADM","<p style=""font-size: 48px;"">+</p>","","","","","null","allTrialResponses","500","1","22","img_art/8.jpg","1","It look like a home","Isaiah,Adam,Marcus,Alex,Tyler,Malik","It makes me feel nervous. I can't tell ifI'm looking at an apartment, or a hellscape.,-18,300,20","Eclectic city with good mix of colors.,10,40,20","Like the colors and the energy, but the face feels jarring to me,13,60,20","I appreciate the complexity of this piece but it's too cubist for me,3,100,20","The composition is striking, and some of the images are quite dramatic,11,320,20","Striking, but not my taste,20,40,20","Tyler","The composition is striking, and some of the images are quite dramatic,11,320,20","Adam","Eclectic city with good mix of colors.,10,40,20","Marcus","Like the colors and the energy, but the face feels jarring to me,13,60,20","4"
"38764","","survey-text","206","2357046","0.0-202.0-0.0","A24Y1NVEEY1ADM","","","","{""Q0"":""Lines look good""}","","","","","","","","","","","","","","","","","","","","","","",""
"4256","","image-slider-response","207","2361303","0.0-203.0","A24Y1NVEEY1ADM","","","","","4","","","","","","","","","","","","","","","","","","","","","",""
"null","","image-button-response","208","2366306","0.0-204.0","A24Y1NVEEY1ADM","img_art/30.jpg","null","","","","","","","","","","","","","","","","","","","","","","","","",""
"1826","","image-button-response","209","2368134","0.0-205.0","A24Y1NVEEY1ADM","img_art/30.jpg","3","","","","","","","","","","","","","","","","","","","","","","","","",""
"2581","","image-button-response","210","2370717","0.0-206.0-0.0","A24Y1NVEEY1ADM","img_art/30.jpg","4","","","","","","","","","","","","","","","","","","","","","","","","",""
"6633","","image-button-response","211","2377353","0.0-207.0-0.0","A24Y1NVEEY1ADM","img_art/30.jpg","0","","","","","","","","","","","","","","","","","","","","","","","","",""
"null","","html-keyboard-response","212","2378856","0.0-208.0","A24Y1NVEEY1ADM","<p style=""font-size: 48px;"">+</p>","","","","","null","allTrialResponses","1500","1","23","img_art/30.jpg","4","Lines look good","Jonathan,Adam,Marcus,Jacob,Tyler,Alexander","I like the softness of this but it doesn't make me feel that nice,5,140,20","Dislike the contrast here.,-5,40,20","Really don't like this piece. It feels very lazy to me.,-31,60,20","Looks cool , but no meaning,1,340,20","Interesting brushstroke work, but not particularly memorable.,21,320,20","Sleek eel in the abstract ocean.,30,120,20","Jacob","Looks cool , but no meaning,1,340,20","Tyler","Interesting brushstroke work, but not particularly memorable.,21,320,20","Jonathan","I like the softness of this but it doesn't make me feel that nice,5,140,20","4"
"21460","","survey-text","213","2400337","0.0-209.0-0.0","A24Y1NVEEY1ADM","","","","{""Q0"":""simple composite""}","","","","","","","","","","","","","","","","","","","","","","",""
"4627.200000286102","","image-slider-response","214","2404967","0.0-210.0","A24Y1NVEEY1ADM","","","","","2","","","","","","","","","","","","","","","","","","","","","",""
"null","","image-button-response","215","2409970","0.0-211.0","A24Y1NVEEY1ADM","img_art/5.jpg","null","","","","","","","","","","","","","","","","","","","","","","","","",""
"4674","","image-button-response","216","2414645","0.0-212.0","A24Y1NVEEY1ADM","img_art/5.jpg","1","","","","","","","","","","","","","","","","","","","","","","","","",""
"3159","","image-button-response","217","2417807","0.0-213.0-0.0","A24Y1NVEEY1ADM","img_art/5.jpg","2","","","","","","","","","","","","","","","","","","","","","","","","",""
"5796","","image-button-response","218","2423605","0.0-214.0-0.0","A24Y1NVEEY1ADM","img_art/5.jpg","5","","","","","","","","","","","","","","","","","","","","","","","","",""
"null","","html-keyboard-response","219","2425107","0.0-215.0","A24Y1NVEEY1ADM","<p style=""font-size: 48px;"">+</p>","","","","","null","allTrialResponses","1500","1","24","img_art/5.jpg","2","simple composite","Jonathan,Samuel,Juan,Jacob,Tyler,Shawn","I hate the shapes,-30,140,20","a brush in time,-14,400,20","The yellow is garish and the picture doesn't look liked anything.,-49,260,20","Don't really know the point of this one.,-11,340,20","Bright and luminous,31,320,20","Black stripe looks violent,-31,100,20","Samuel","a brush in time,-14,400,20","Juan","The yellow is garish and the picture doesn't look liked anything.,-49,260,20","Shawn","Black stripe looks violent,-31,100,20","4"
"21810","","survey-text","220","2446941","0.0-216.0-0.0","A24Y1NVEEY1ADM","","","","{""Q0"":""It is mess""}","","","","","","","","","","","","","","","","","","","","","","",""
"4296","","image-slider-response","221","2451239","0.0-217.0","A24Y1NVEEY1ADM","","","","","-18","","","","","","","","","","","","","","","","","","","","","",""
"3758","","image-button-response","222","2456241","0.0-218.0","A24Y1NVEEY1ADM","img_art/2.jpg","4","","","","","","","","","","","","","","","","","","","","","","","","",""
"825","","image-button-response","223","2457069","0.0-219.0","A24Y1NVEEY1ADM","img_art/2.jpg","4","","","","","","","","","","","","","","","","","","","","","","","","",""
"2659","","image-button-response","224","2459729","0.0-220.0-0.0","A24Y1NVEEY1ADM","img_art/2.jpg","3","","","","","","","","","","","","","","","","","","","","","","","","",""
"3399","","image-button-response","225","2463132","0.0-221.0-0.0","A24Y1NVEEY1ADM","img_art/2.jpg","5","","","","","","","","","","","","","","","","","","","","","","","","",""
"null","","html-keyboard-response","226","2464136","0.0-222.0","A24Y1NVEEY1ADM","<p style=""font-size: 48px;"">+</p>","","","","","null","allTrialResponses","1000","1","25","img_art/2.jpg","-18","It is mess","Bryce,Samuel,Juan,Luke,Nathaniel,Shawn","I love the colors in this.,29,20,20","i liked the bright colors,13,400,20","I don't like the abstract nature of this painting or the colors used.,-50,260,20","too abstract and confusing,-19,20,20","Too gloopy and unfocused,-38,220,20","The color choices and lines seem a bit sloppy?,-10,100,20","Nathaniel","Too gloopy and unfocused,-38,220,20","Luke","too abstract and confusing,-19,20,20","Shawn","The color choices and lines seem a bit sloppy?,-10,100,20","4"
"5891","","survey-text","227","2470069","0.0-223.0-0.0","A24Y1NVEEY1ADM","","","","{""Q0"":""table""}","","","","","","","","","","","","","","","","","","","","","","",""
"43400","","survey-text","228","2513471","0.0-224.0-0.0","A24Y1NVEEY1ADM","","","","{""Q0"":""Is it a wall""}","","","","","","","","","","","","","","","","","","","","","","",""
"5878.199999809265","","image-slider-response","229","2519351","0.0-225.0","A24Y1NVEEY1ADM","","","","","9","","","","","","","","","","","","","","","","","","","","","",""
"4625","","image-button-response","230","2524353","0.0-226.0","A24Y1NVEEY1ADM","img_art/7.jpg","4","","","","","","","","","","","","","","","","","","","","","","","","",""
"902","","image-button-response","231","2525257","0.0-227.0","A24Y1NVEEY1ADM","img_art/7.jpg","4","","","","","","","","","","","","","","","","","","","","","","","","",""
"5293","","image-button-response","232","2530551","0.0-228.0-0.0","A24Y1NVEEY1ADM","img_art/7.jpg","5","","","","","","","","","","","","","","","","","","","","","","","","",""
"11560","","image-button-response","233","2542114","0.0-229.0-0.0","A24Y1NVEEY1ADM","img_art/7.jpg","0","","","","","","","","","","","","","","","","","","","","","","","","",""
"null","","html-keyboard-response","234","2542618","0.0-230.0","A24Y1NVEEY1ADM","<p style=""font-size: 48px;"">+</p>","","","","","null","allTrialResponses","500","1","26","img_art/7.jpg","9","Is it a wall","Derek,Corey,Dylan,Luke,Nathaniel,Shawn","Not a fan of the pattern or colors,-40,360,20","looks like a close up of irritated skin under a microscope,-49,260,20","I do not like the boring colors in this.,-20,40,20","reminds me of the desert,-20,20,20","It gives off an alien-like vastness of space vibe which I like,9,220,20","Like the tactile quality,30,100,20","Nathaniel","It gives off an alien-like vastness of space vibe which I like,9,220,20","Shawn","Like the tactile quality,30,100,20","Derek","Not a fan of the pattern or colors,-40,360,20","4"
"30575","","survey-text","235","2573202","0.0-231.0-0.0","A24Y1NVEEY1ADM","","","","{""Q0"":""Do not balance""}","","","","","","","","","","","","","","","","","","","","","","",""
"3538.2999997138977","","image-slider-response","236","2576742","0.0-232.0","A24Y1NVEEY1ADM","","","","","-7","","","","","","","","","","","","","","","","","","","","","",""
"null","","image-button-response","237","2581746","0.0-233.0","A24Y1NVEEY1ADM","img_art/4.jpg","null","","","","","","","","","","","","","","","","","","","","","","","","",""
"3210","","image-button-response","238","2584960","0.0-234.0","A24Y1NVEEY1ADM","img_art/4.jpg","0","","","","","","","","","","","","","","","","","","","","","","","","",""
"4152","","image-button-response","239","2589114","0.0-235.0-0.0","A24Y1NVEEY1ADM","img_art/4.jpg","4","","","","","","","","","","","","","","","","","","","","","","","","",""
"901","","image-button-response","240","2590018","0.0-236.0-0.0","A24Y1NVEEY1ADM","img_art/4.jpg","3","","","","","","","","","","","","","","","","","","","","","","","","",""
"null","","html-keyboard-response","241","2590519","0.0-237.0","A24Y1NVEEY1ADM","<p style=""font-size: 48px;"">+</p>","","","","","null","allTrialResponses","500","1","27","img_art/4.jpg","-7","Do not balance","Derek,Trevor,Scott,Aaron,Nathaniel,Shawn","A bit too plain for my tastes,-10,360,20","not enough color and too yellow for me. Not my favorite colors,-10,280,20","feels free flowing and relaxed,21,20,20","It doesn't make me feel anything it just looks like a kid did it.,-30,20,20","Boring and tasteless. Almost reminds me of when an art gallery called a banana 'art',-42,220,20","Great movement but don't love the yellowy tones.,31,100,20","Derek","A bit too plain for my tastes,-10,360,20","Nathaniel","Boring and tasteless. Almost reminds me of when an art gallery called a banana 'art',-42,220,20","Aaron","It doesn't make me feel anything it just looks like a kid did it.,-30,20,20","4"
"30500","","survey-text","242","2621027","0.0-238.0-0.0","A24Y1NVEEY1ADM","","","","{""Q0"":""Is it a bed room""}","","","","","","","","","","","","","","","","","","","","","","",""
"4186.199999809265","","image-slider-response","243","2625215","0.0-239.0","A24Y1NVEEY1ADM","","","","","-12","","","","","","","","","","","","","","","","","","","","","",""
"null","","image-button-response","244","2630219","0.0-240.0","A24Y1NVEEY1ADM","img_art/9.jpg","null","","","","","","","","","","","","","","","","","","","","","","","","",""
"176","","image-button-response","245","2630402","0.0-241.0","A24Y1NVEEY1ADM","img_art/9.jpg","4","","","","","","","","","","","","","","","","","","","","","","","","",""
"7521","","image-button-response","246","2637926","0.0-242.0-0.0","A24Y1NVEEY1ADM","img_art/9.jpg","2","","","","","","","","","","","","","","","","","","","","","","","","",""
"4746","","image-button-response","247","2642675","0.0-243.0-0.0","A24Y1NVEEY1ADM","img_art/9.jpg","1","","","","","","","","","","","","","","","","","","","","","","","","",""
"null","","html-keyboard-response","248","2644178","0.0-244.0","A24Y1NVEEY1ADM","<p style=""font-size: 48px;"">+</p>","","","","","null","allTrialResponses","1500","1","28","img_art/9.jpg","-12","Is it a bed room","Derek,Justin,Nicholas,Aaron,Nathaniel,Gabriel","It's wild and chaotic but also beautiful and has some kind of calming factor about it,20,360,20","It reminds me of an illustration for a fairy tale.,19,280,20","Some nice colors but i do not like it,-18,240,20","It looks like a child's crayon drawing.,-10,20,20","Not very enticing. No real substance other than a lady laying down,-35,220,20","i like the colors but not the composition,-17,160,20","Nathaniel","Not very enticing. No real substance other than a lady laying down,-35,220,20","Nicholas","Some nice colors but i do not like it,-18,240,20","Justin","It reminds me of an illustration for a fairy tale.,19,280,20","4"
"31920","","survey-text","249","2676111","0.0-245.0-0.0","A24Y1NVEEY1ADM","","","","{""Q0"":""Very nice present""}","","","","","","","","","","","","","","","","","","","","","","",""
"4117.699999809265","","image-slider-response","250","2680231","0.0-246.0","A24Y1NVEEY1ADM","","","","","24","","","","","","","","","","","","","","","","","","","","","",""
"null","","image-button-response","251","2685235","0.0-247.0","A24Y1NVEEY1ADM","img_art/23.jpg","null","","","","","","","","","","","","","","","","","","","","","","","","",""
"279","","image-button-response","252","2685517","0.0-248.0","A24Y1NVEEY1ADM","img_art/23.jpg","5","","","","","","","","","","","","","","","","","","","","","","","","",""
"2124","","image-button-response","253","2687643","0.0-249.0-0.0","A24Y1NVEEY1ADM","img_art/23.jpg","3","","","","","","","","","","","","","","","","","","","","","","","","",""
"8271","","image-button-response","254","2695917","0.0-250.0-0.0","A24Y1NVEEY1ADM","img_art/23.jpg","1","","","","","","","","","","","","","","","","","","","","","","","","",""
"null","","html-keyboard-response","255","2696419","0.0-251.0","A24Y1NVEEY1ADM","<p style=""font-size: 48px;"">+</p>","","","","","null","allTrialResponses","500","1","29","img_art/23.jpg","24","Very nice present","Peter,Justin,Nicholas,Paul,Nathaniel,Timothy","Reminds me of disco/70's, not my favorite design,-12,320,20","The white paint through the middle really draws the eye.,30,280,20","The more i look at it the more i like it  the dots of color and very interesting,50,240,20","I like the sharp contrast of the white on the colorful background,27,300,20","Not a fan of these dot pieces. They hurt my eyes.,-25,220,20","This feels so energized, i love it,50,240,20","Timothy","This feels so energized, i love it,50,240,20","Paul","I like the sharp contrast of the white on the colorful background,27,300,20","Justin","The white paint through the middle really draws the eye.,30,280,20","4"
"61199","","survey-text","256","2757629","0.0-252.0-0.0","A24Y1NVEEY1ADM","","","","{""Q0"":""It look like little town""}","","","","","","","","","","","","","","","","","","","","","","",""
"4235.900000095367","","image-slider-response","257","2761867","0.0-253.0","A24Y1NVEEY1ADM","","","","","6","","","","","","","","","","","","","","","","","","","","","",""
"null","","image-button-response","258","2766872","0.0-254.0","A24Y1NVEEY1ADM","img_art/27.jpg","null","","","","","","","","","","","","","","","","","","","","","","","","",""
"3167","","image-button-response","259","2770043","0.0-255.0","A24Y1NVEEY1ADM","img_art/27.jpg","1","","","","","","","","","","","","","","","","","","","","","","","","",""
"7288","","image-button-response","260","2777333","0.0-256.0-0.0","A24Y1NVEEY1ADM","img_art/27.jpg","2","","","","","","","","","","","","","","","","","","","","","","","","",""
"1989","","image-button-response","261","2779325","0.0-257.0-0.0","A24Y1NVEEY1ADM","img_art/27.jpg","3","","","","","","","","","","","","","","","","","","","","","","","","",""
"null","","html-keyboard-response","262","2780827","0.0-258.0","A24Y1NVEEY1ADM","<p style=""font-size: 48px;"">+</p>","","","","","null","allTrialResponses","1500","1","30","img_art/27.jpg","6","It look like little town","Spencer,Justin,Noah,Paul,Taylor,Timothy","An attractive assortment of squiggles and colors,22,120,20","The colors are put together in an interesting way.,-9,280,20","I generally enjoy the style, but I'm finding the green lines grating,-9,260,20","It tries to remind me of the autumn season but it's grey and looks dirty,-5,300,20","Looks like a child added his own interpretation with a black marker.,-5,200,20","The colors in this one are wonderful,20,240,20","Justin","The colors are put together in an interesting way.,-9,280,20","Noah","I generally enjoy the style, but I'm finding the green lines grating,-9,260,20","Paul","It tries to remind me of the autumn season but it's grey and looks dirty,-5,300,20","4"
"4928","","image-button-response_instructions","263","2785773","0.0-259.0","A24Y1NVEEY1ADM","","0","instructions","","","","","","","","","","","","","","","","","","","","","","","",""
"2197","","image-button-response","264","2787981","0.0-260.0","A24Y1NVEEY1ADM","","0","","","","","","","","","","","","","","","","","","","","","","","","",""
