"rt","url","trial_type","trial_index","time_elapsed","internal_node_id","participant_id","stimulus","button_pressed","Name","responses","response","key_press","variableName","fixationTime","condition","trial","photo","subjectRating","subjectResponse","agentsNames","agent_1_Response","agent_2_Response","agent_3_Response","agent_4_Response","agent_5_Response","agent_6_Response","kept_1_name","kept_1_response","kept_2_name","kept_2_response","kept_3_name","kept_3_response","errorCounter"
"8796","external_page_harvard.html","external-html","0","9072","0.0-0.0","A25F4VG7W3BTWV","","","","","","","","","","","","","","","","","","","","","","","","","","",""
"1328","","image-button-response","1","10403","0.0-1.0","A25F4VG7W3BTWV","","1","","","","","","","","","","","","","","","","","","","","","","","","",""
"2076","","image-button-response","2","12485","0.0-2.0-0.0","A25F4VG7W3BTWV","","1","phone","","","","","","","","","","","","","","","","","","","","","","","",""
"3181","","survey-text","3","15668","0.0-3.0-0.0","A25F4VG7W3BTWV","","","","{""Q0"":""A25F4VG7W3BTWV""}","","","","","","","","","","","","","","","","","","","","","","",""
"6961","","image-button-response_instructions","4","22632","0.0-4.0","A25F4VG7W3BTWV","","0","instructions","","","","","","","","","","","","","","","","","","","","","","","",""
"11290","","image-button-response_instructions","5","33924","0.0-5.0","A25F4VG7W3BTWV","img_art/ins/popularity/ins1.png","0","instructions","","","","","","","","","","","","","","","","","","","","","","","",""
"3988","","image-button-response_instructions","6","37914","0.0-6.0","A25F4VG7W3BTWV","img_art/ins/popularity/ins2.png","0","instructions","","","","","","","","","","","","","","","","","","","","","","","",""
"5553","","image-button-response_instructions","7","43469","0.0-7.0","A25F4VG7W3BTWV","img_art/ins/popularity/ins2Extreme.png","0","instructions","","","","","","","","","","","","","","","","","","","","","","","",""
"10553","","image-button-response_instructions","8","54024","0.0-8.0","A25F4VG7W3BTWV","img_art/ins/popularity/ins3KEEPpop.PNG","0","instructions","","","","","","","","","","","","","","","","","","","","","","","",""
"3851","","image-button-response_instructions","9","57877","0.0-9.0","A25F4VG7W3BTWV","img_art/ins/popularity/ins3ANamepop.PNG","0","instructions","","","","","","","","","","","","","","","","","","","","","","","",""
"3019","","image-button-response_instructions","10","60899","0.0-10.0","A25F4VG7W3BTWV","img_art/ins/popularity/ins3ARatingpop.png","0","instructions","","","","","","","","","","","","","","","","","","","","","","","",""
"2052","","image-button-response_instructions","11","62952","0.0-11.0","A25F4VG7W3BTWV","img_art/ins/popularity/ins3ATextpop.png","0","instructions","","","","","","","","","","","","","","","","","","","","","","","",""
"3928","","image-button-response_instructions","12","66882","0.0-12.0","A25F4VG7W3BTWV","img_art/ins/popularity/ins3ALikespop.png","0","instructions","","","","","","","","","","","","","","","","","","","","","","","",""
"11477","","image-button-response_instructions","13","78360","0.0-13.0","A25F4VG7W3BTWV","img_art/ins/popularity/ins3KEEPpop.PNG","0","instructions","","","","","","","","","","","","","","","","","","","","","","","",""
"4674","","image-button-response_instructions","14","83036","0.0-14.0","A25F4VG7W3BTWV","img_art/ins/popularity/ins3_5RED.png","0","instructions","","","","","","","","","","","","","","","","","","","","","","","",""
"3474","","image-button-response_instructions","15","86512","0.0-15.0","A25F4VG7W3BTWV","img_art/ins/popularity/ins3KEEPpop.PNG","0","instructions","","","","","","","","","","","","","","","","","","","","","","","",""
"5145","","image-button-response_instructions","16","91658","0.0-16.0","A25F4VG7W3BTWV","img_art/ins/popularity/ins4KEEPpop.PNG","0","instructions","","","","","","","","","","","","","","","","","","","","","","","",""
"3565","","image-button-response_instructions","17","95224","0.0-17.0","A25F4VG7W3BTWV","img_art/ins/popularity/ins5KEEPpop.PNG","0","instructions","","","","","","","","","","","","","","","","","","","","","","","",""
"1933","","image-button-response_instructions","18","97158","0.0-18.0","A25F4VG7W3BTWV","","0","instructions","","","","","","","","","","","","","","","","","","","","","","","",""
"8733","","survey-text","19","105928","0.0-19.0-0.0","A25F4VG7W3BTWV","","","","{""Q0"":""but""}","","","","","","","","","","","","","","","","","","","","","","",""
"28445","","survey-text","20","134375","0.0-20.0-0.0","A25F4VG7W3BTWV","","","","{""Q0"":""Interesting matte, pastel colored abstract""}","","","","","","","","","","","","","","","","","","","","","","",""
"5697.199999809265","","image-slider-response","21","140078","0.0-21.0","A25F4VG7W3BTWV","","","","","-9","","","","","","","","","","","","","","","","","","","","","",""
"null","","image-button-response","22","145096","0.0-22.0","A25F4VG7W3BTWV","img_art/ins/1.jpg","null","","","","","","","","","","","","","","","","","","","","","","","","",""
"4691","","image-button-response","23","149791","0.0-23.0","A25F4VG7W3BTWV","img_art/ins/1.jpg","5","","","","","","","","","","","","","","","","","","","","","","","","",""
"3352","","image-button-response","24","153147","0.0-24.0-0.0","A25F4VG7W3BTWV","img_art/ins/1.jpg","4","","","","","","","","","","","","","","","","","","","","","","","","",""
"5378","","image-button-response","25","158528","0.0-25.0-0.0","A25F4VG7W3BTWV","img_art/ins/1.jpg","0","","","","","","","","","","","","","","","","","","","","","","","","",""
"null","","html-keyboard-response","26","159037","0.0-26.0","A25F4VG7W3BTWV","<p style=""font-size: 48px;"">+</p>","","","","","null","allTrialResponses","500","1","-2","img_art/ins/1.jpg","-9","Interesting matte, pastel colored abstract","Allison,Ashley,Beth,Dora,Erika,Jen","looks like a lot of things going on in the mist,20,20,20","I just don't get why these type of art would be popular,-32,40,20","This color reminds me of poo,-46,60,20","looks like what my niece in 3rd grade did this afternoon,-50,80,20","I like the sophisticated brushwork,40,100,20","It reminds me of a candy land dream I had,36,120,20","Jen","It reminds me of a candy land dream I had,36,120,20","Erika","I like the sophisticated brushwork,40,100,20","Allison","looks like a lot of things going on in the mist,20,20,20","0"
"22609","","survey-text","27","181658","0.0-27.0-0.0","A25F4VG7W3BTWV","","","","{""Q0"":""bold colored abstract""}","","","","","","","","","","","","","","","","","","","","","","",""
"2645.7000000476837","","image-slider-response","28","184305","0.0-28.0","A25F4VG7W3BTWV","","","","","6","","","","","","","","","","","","","","","","","","","","","",""
"4974","","image-button-response","29","189308","0.0-29.0","A25F4VG7W3BTWV","img_art/ins/2.jpg","5","","","","","","","","","","","","","","","","","","","","","","","","",""
"613","","image-button-response","30","189924","0.0-30.0","A25F4VG7W3BTWV","img_art/ins/2.jpg","5","","","","","","","","","","","","","","","","","","","","","","","","",""
"1546","","image-button-response","31","191473","0.0-31.0-0.0","A25F4VG7W3BTWV","img_art/ins/2.jpg","4","","","","","","","","","","","","","","","","","","","","","","","","",""
"3044","","image-button-response","32","194520","0.0-32.0-0.0","A25F4VG7W3BTWV","img_art/ins/2.jpg","0","","","","","","","","","","","","","","","","","","","","","","","","",""
"null","","html-keyboard-response","33","195029","0.0-33.0","A25F4VG7W3BTWV","<p style=""font-size: 48px;"">+</p>","","","","","null","allTrialResponses","500","1","-1","img_art/ins/2.jpg","6","bold colored abstract","Allison,Kara,Katie,Jenna,Erika,Jen","I don't have strong feelings about this,10,20,20","I like the blocks of color arrangements,30,160,20","too much color!,-28,180,20","One of my pet peevs,-48,140,20","I would never be able to compose a sophisticated pallete like this,48,100,20","It reminds me of a fireplace,36,120,20","Jen","It reminds me of a fireplace,36,120,20","Erika","I would never be able to compose a sophisticated pallete like this,48,100,20","Allison","I don't have strong feelings about this,10,20,20","0"
"24220","","survey-text","34","219253","0.0-34.0-0.0","A25F4VG7W3BTWV","","","","{""Q0"":""brush strokes in blue paint on canvas""}","","","","","","","","","","","","","","","","","","","","","","",""
"3385.800000190735","","image-slider-response","35","222642","0.0-35.0","A25F4VG7W3BTWV","","","","","9","","","","","","","","","","","","","","","","","","","","","",""
"4640","","image-button-response","36","227645","0.0-36.0","A25F4VG7W3BTWV","img_art/ins/3.jpg","0","","","","","","","","","","","","","","","","","","","","","","","","",""
"493","","image-button-response","37","228141","0.0-37.0","A25F4VG7W3BTWV","img_art/ins/3.jpg","0","","","","","","","","","","","","","","","","","","","","","","","","",""
"1635","","image-button-response","38","229780","0.0-38.0-0.0","A25F4VG7W3BTWV","img_art/ins/3.jpg","1","","","","","","","","","","","","","","","","","","","","","","","","",""
"1643","","image-button-response","39","231425","0.0-39.0-0.0","A25F4VG7W3BTWV","img_art/ins/3.jpg","0","","","","","","","","","","","","","","","","","","","","","","","","",""
"702","","image-button-response","40","238892","0.0-39.1-0.1","A25F4VG7W3BTWV","img_art/ins/3.jpg","4","","","","","","","","","","","","","","","","","","","","","","","","",""
"null","","html-keyboard-response","41","239396","0.0-40.0","A25F4VG7W3BTWV","<p style=""font-size: 48px;"">+</p>","","","","","null","allTrialResponses","500","1","0","img_art/ins/3.jpg","9","brush strokes in blue paint on canvas","Allison,Mary,Rose,Leslie,Erika,Jen","enjoy the different shades of blue,22,20,20","I like the overlapping of brushes,41,220,20","My daily routine, it's depressing,-20,240,20","It's an alright work,15,200,20","I feel connected to the artist,40,100,20","I can feel a rainy day from this painting,18,120,20","Allison","enjoy the different shades of blue,22,20,20","Mary","I like the overlapping of brushes,41,220,20","Erika","I feel connected to the artist,40,100,20","2"
"6137","","image-button-response_instructions","42","245546","0.0-41.0","A25F4VG7W3BTWV","","0","instructions","","","","","","","","","","","","","","","","","","","","","","","",""
"18153","","survey-likert","43","263702","0.0-42.0-0.0","A25F4VG7W3BTWV","","","","{""Q0"":"""",""Q1"":0,""Q2"":1}","","","","","","","","","","","","","","","","","","","","","","",""
"5537","","survey-text","44","269258","0.0-43.0-0.0","A25F4VG7W3BTWV","","","","{""Q0"":""rock""}","","","","","","","","","","","","","","","","","","","","","","",""
"20022","","survey-text","45","289281","0.0-44.0-0.0","A25F4VG7W3BTWV","","","","{""Q0"":""This can be found in a nice hotel""}","","","","","","","","","","","","","","","","","","","","","","",""
"3041.7999999523163","","image-slider-response","46","292326","0.0-45.0","A25F4VG7W3BTWV","","","","","11","","","","","","","","","","","","","","","","","","","","","",""
"3362","","image-button-response","47","297359","0.0-46.0","A25F4VG7W3BTWV","img_art/17.jpg","1","","","","","","","","","","","","","","","","","","","","","","","","",""
"3034","","image-button-response","48","300398","0.0-47.0","A25F4VG7W3BTWV","img_art/17.jpg","5","","","","","","","","","","","","","","","","","","","","","","","","",""
"1028","","image-button-response","49","301429","0.0-48.0-0.0","A25F4VG7W3BTWV","img_art/17.jpg","4","","","","","","","","","","","","","","","","","","","","","","","","",""
"1644","","image-button-response","50","303076","0.0-49.0-0.0","A25F4VG7W3BTWV","img_art/17.jpg","3","","","","","","","","","","","","","","","","","","","","","","","","",""
"null","","html-keyboard-response","51","304587","0.0-50.0","A25F4VG7W3BTWV","<p style=""font-size: 48px;"">+</p>","","","","","null","allTrialResponses","1500","1","1","img_art/17.jpg","11","This can be found in a nice hotel","Bailey,Madeline,Dominique,Caroline,Crystal,Leah","I like the artistic sketching pattern.,24,360,20","So expressive and wonderful wow!,17,40,20","Another favorite a relaxing day with nature a day to take it all In,34,400,20","Beautiful colors. Made me feel soft and feminine,50,100,20","Embodies beauty and complexity and in simplicity as well,50,300,20","Love the colors, the flow, like a strange storm or tree off the balcony,50,360,20","Leah","Love the colors, the flow, like a strange storm or tree off the balcony,50,360,20","Crystal","Embodies beauty and complexity and in simplicity as well,50,300,20","Caroline","Beautiful colors. Made me feel soft and feminine,50,100,20","2"
"13087","","survey-text","52","317686","0.0-51.0-0.0","A25F4VG7W3BTWV","","","","{""Q0"":""doesn't look like art""}","","","","","","","","","","","","","","","","","","","","","","",""
"3686.0999999046326","","image-slider-response","53","321374","0.0-52.0","A25F4VG7W3BTWV","","","","","-32","","","","","","","","","","","","","","","","","","","","","",""
"3116","","image-button-response","54","326377","0.0-53.0","A25F4VG7W3BTWV","img_art/7.jpg","1","","","","","","","","","","","","","","","","","","","","","","","","",""
"3797","","image-button-response","55","330178","0.0-54.0","A25F4VG7W3BTWV","img_art/7.jpg","5","","","","","","","","","","","","","","","","","","","","","","","","",""
"1431","","image-button-response","56","331612","0.0-55.0-0.0","A25F4VG7W3BTWV","img_art/7.jpg","4","","","","","","","","","","","","","","","","","","","","","","","","",""
"1189","","image-button-response","57","332804","0.0-56.0-0.0","A25F4VG7W3BTWV","img_art/7.jpg","1","","","","","","","","","","","","","","","","","","","","","","","","",""
"null","","html-keyboard-response","58","333307","0.0-57.0","A25F4VG7W3BTWV","<p style=""font-size: 48px;"">+</p>","","","","","null","allTrialResponses","500","1","2","img_art/7.jpg","-32","doesn't look like art","Sophia,Madison,Hannah,Caroline,Crystal,Leah","Is this cookie dough?  Yum!,-10,280,20","Is this a painting, really? Very compelling if so, the texture work is incredible.,15,60,20","Looks almost like a photograph of nature.,11,240,20","Looks like dirt on the ground. Makes me feel unclean,-37,100,20","I thought I was looking at a satellite image of mars.,21,300,20","I love it, it looks like a landscape photograph in desert or rocky mountain,50,360,20","Leah","I love it, it looks like a landscape photograph in desert or rocky mountain,50,360,20","Crystal","I thought I was looking at a satellite image of mars.,21,300,20","Madison","Is this a painting, really? Very compelling if so, the texture work is incredible.,15,60,20","2"
"21011","","survey-text","59","354324","0.0-58.0-0.0","A25F4VG7W3BTWV","","","","{""Q0"":""It's nice to look at but I wouldn't buy it""}","","","","","","","","","","","","","","","","","","","","","","",""
"3503.2000000476837","","image-slider-response","60","357830","0.0-59.0","A25F4VG7W3BTWV","","","","","-18","","","","","","","","","","","","","","","","","","","","","",""
"4557","","image-button-response","61","362835","0.0-60.0","A25F4VG7W3BTWV","img_art/30.jpg","5","","","","","","","","","","","","","","","","","","","","","","","","",""
"1567","","image-button-response","62","364404","0.0-61.0","A25F4VG7W3BTWV","img_art/30.jpg","0","","","","","","","","","","","","","","","","","","","","","","","","",""
"1783","","image-button-response","63","366190","0.0-62.0-0.0","A25F4VG7W3BTWV","img_art/30.jpg","3","","","","","","","","","","","","","","","","","","","","","","","","",""
"1074","","image-button-response","64","367270","0.0-63.0-0.0","A25F4VG7W3BTWV","img_art/30.jpg","4","","","","","","","","","","","","","","","","","","","","","","","","",""
"null","","html-keyboard-response","65","368773","0.0-64.0","A25F4VG7W3BTWV","<p style=""font-size: 48px;"">+</p>","","","","","null","allTrialResponses","1500","1","3","img_art/30.jpg","-18","It's nice to look at but I wouldn't buy it","Megan,Madison,Monica,Mariah,Crystal,Leah","10 year old 10 minute project ""Fun with Painting"",-42,200,20","Interesting brushstroke work, but not particularly memorable.,21,60,20","It looked like a random scribble but I can see a person's face in it now and I think it's clever,13,360,20","It just feels hasty and not well composed. Has an angsty teen feel,-31,140,20","An interesting design but don't like the colors. I value the time and effort put into it, but not a huge fan.,10,300,20","Interesting, almost an underworld of plant life,11,360,20","Megan","10 year old 10 minute project ""Fun with Painting"",-42,200,20","Mariah","It just feels hasty and not well composed. Has an angsty teen feel,-31,140,20","Crystal","An interesting design but don't like the colors. I value the time and effort put into it, but not a huge fan.,10,300,20","2"
"13301","","survey-text","66","382079","0.0-65.0-0.0","A25F4VG7W3BTWV","","","","{""Q0"":""I'm sorry but I don't like this at all""}","","","","","","","","","","","","","","","","","","","","","","",""
"4138","","image-slider-response","67","386220","0.0-66.0","A25F4VG7W3BTWV","","","","","-50","","","","","","","","","","","","","","","","","","","","","",""
"null","","image-button-response","68","391224","0.0-67.0","A25F4VG7W3BTWV","img_art/3.jpg","null","","","","","","","","","","","","","","","","","","","","","","","","",""
"2279","","image-button-response","69","393507","0.0-68.0","A25F4VG7W3BTWV","img_art/3.jpg","5","","","","","","","","","","","","","","","","","","","","","","","","",""
"1730","","image-button-response","70","395240","0.0-69.0-0.0","A25F4VG7W3BTWV","img_art/3.jpg","5","","","","","","","","","","","","","","","","","","","","","","","","",""
"659","","image-button-response","71","399524","0.0-69.1-0.1","A25F4VG7W3BTWV","img_art/3.jpg","0","","","","","","","","","","","","","","","","","","","","","","","","",""
"602","","image-button-response","72","400129","0.0-70.0-0.0","A25F4VG7W3BTWV","img_art/3.jpg","1","","","","","","","","","","","","","","","","","","","","","","","","",""
"null","","html-keyboard-response","73","401632","0.0-71.0","A25F4VG7W3BTWV","<p style=""font-size: 48px;"">+</p>","","","","","null","allTrialResponses","1500","1","4","img_art/3.jpg","-50","I'm sorry but I don't like this at all","Megan,Alexa,Kaitlin,Mariah,Crystal,Heather","5 min scribble by a 3 year old,-46,200,20","Looks messy and too much for my eyes,-35,40,20","good choice of color,12,60,20","The composition keeps the eye moving, the colors are satisfying.,31,140,20","I like the abstract flowing lines. It lacks hard rigid marks and flow nicely into a piece of calamity.,32,300,20","Blood splatter and one black spot.,1,260,20","Heather","Blood splatter and one black spot.,1,260,20","Megan","5 min scribble by a 3 year old,-46,200,20","Alexa","Looks messy and too much for my eyes,-35,40,20","4"
"26363","","survey-text","74","428002","0.0-72.0-0.0","A25F4VG7W3BTWV","","","","{""Q0"":""Dark and gloomy""}","","","","","","","","","","","","","","","","","","","","","","",""
"3139.5999999046326","","image-slider-response","75","431143","0.0-73.0","A25F4VG7W3BTWV","","","","","-45","","","","","","","","","","","","","","","","","","","","","",""
"3620","","image-button-response","76","436147","0.0-74.0","A25F4VG7W3BTWV","img_art/20.jpg","1","","","","","","","","","","","","","","","","","","","","","","","","",""
"559","","image-button-response","77","436708","0.0-75.0","A25F4VG7W3BTWV","img_art/20.jpg","2","","","","","","","","","","","","","","","","","","","","","","","","",""
"1508","","image-button-response","78","438219","0.0-76.0-0.0","A25F4VG7W3BTWV","img_art/20.jpg","5","","","","","","","","","","","","","","","","","","","","","","","","",""
"1577","","image-button-response","79","439799","0.0-77.0-0.0","A25F4VG7W3BTWV","img_art/20.jpg","4","","","","","","","","","","","","","","","","","","","","","","","","",""
"null","","html-keyboard-response","80","440301","0.0-78.0","A25F4VG7W3BTWV","<p style=""font-size: 48px;"">+</p>","","","","","null","allTrialResponses","500","1","5","img_art/20.jpg","-45","Dark and gloomy","Megan,Alexa,Makayla,Cassidy,Cheyenne,Heather","Fails to capture what similar styles do,-12,200,20","I like the calming mood of this painting,35,40,20","Little picturesque town that I would like to visit,19,80,20","sort of pleasant to look at, but can't tell if it's supposed to be something,13,140,20","Liked the background,15,200,20","make me feel like its a little country maybe a tractor and a skull head of a bull,1,260,20","Makayla","Little picturesque town that I would like to visit,19,80,20","Heather","make me feel like its a little country maybe a tractor and a skull head of a bull,1,260,20","Cheyenne","Liked the background,15,200,20","4"
"4787","","survey-text","81","445098","0.0-79.0-0.0","A25F4VG7W3BTWV","","","","{""Q0"":""sky""}","","","","","","","","","","","","","","","","","","","","","","",""
"23380","","survey-text","82","468480","0.0-80.0-0.0","A25F4VG7W3BTWV","","","","{""Q0"":""nice contrast of black and blue paint""}","","","","","","","","","","","","","","","","","","","","","","",""
"2590.0999999046326","","image-slider-response","83","471073","0.0-81.0","A25F4VG7W3BTWV","","","","","-38","","","","","","","","","","","","","","","","","","","","","",""
"4820","","image-button-response","84","476076","0.0-82.0","A25F4VG7W3BTWV","img_art/15.jpg","2","","","","","","","","","","","","","","","","","","","","","","","","",""
"1617","","image-button-response","85","477697","0.0-83.0","A25F4VG7W3BTWV","img_art/15.jpg","2","","","","","","","","","","","","","","","","","","","","","","","","",""
"4564","","image-button-response","86","482264","0.0-84.0-0.0","A25F4VG7W3BTWV","img_art/15.jpg","4","","","","","","","","","","","","","","","","","","","","","","","","",""
"1515","","image-button-response","87","483785","0.0-85.0-0.0","A25F4VG7W3BTWV","img_art/15.jpg","3","","","","","","","","","","","","","","","","","","","","","","","","",""
"null","","html-keyboard-response","88","484789","0.0-86.0","A25F4VG7W3BTWV","<p style=""font-size: 48px;"">+</p>","","","","","null","allTrialResponses","1000","1","6","img_art/15.jpg","-38","nice contrast of black and blue paint","Cynthia,Emily,Makayla,Erica,Cheyenne,Heather","interested in this transformation,20,320,20","Looks incomplete.,-19,40,20","It's just dots. Doesn't bring any positive or negative feelings,2,80,20","dark and I can not see a meaning behind it,-31,80,20","I like how the black and blue clash.,14,200,20","black leaves makes the blue birds stand out.,1,260,20","Makayla","It's just dots. Doesn't bring any positive or negative feelings,2,80,20","Cheyenne","I like how the black and blue clash.,14,200,20","Erica","dark and I can not see a meaning behind it,-31,80,20","4"
"20203","","survey-text","89","504997","0.0-87.0-0.0","A25F4VG7W3BTWV","","","","{""Q0"":""Nice  and serene scene here""}","","","","","","","","","","","","","","","","","","","","","","",""
"2795.899999856949","","image-slider-response","90","507795","0.0-88.0","A25F4VG7W3BTWV","","","","","26","","","","","","","","","","","","","","","","","","","","","",""
"3149","","image-button-response","91","512811","0.0-89.0","A25F4VG7W3BTWV","img_art/26.jpg","4","","","","","","","","","","","","","","","","","","","","","","","","",""
"870","","image-button-response","92","513684","0.0-90.0","A25F4VG7W3BTWV","img_art/26.jpg","1","","","","","","","","","","","","","","","","","","","","","","","","",""
"1349","","image-button-response","93","515035","0.0-91.0-0.0","A25F4VG7W3BTWV","img_art/26.jpg","2","","","","","","","","","","","","","","","","","","","","","","","","",""
"3573","","image-button-response","94","518612","0.0-92.0-0.0","A25F4VG7W3BTWV","img_art/26.jpg","3","","","","","","","","","","","","","","","","","","","","","","","","",""
"null","","html-keyboard-response","95","519115","0.0-93.0","A25F4VG7W3BTWV","<p style=""font-size: 48px;"">+</p>","","","","","null","allTrialResponses","500","1","7","img_art/26.jpg","26","Nice  and serene scene here","Jennifer,Kelly,Makayla,Erica,Cheyenne,Mary","This picture doesn't really stand out.,0,380,20","Very subdued, but wouldn't give it a 2nd notice.,4,220,20","Reminds me of a European street, I desire to walk in this picture,28,80,20","very relaxing and easy going,22,80,20","No strong reaction but the color scheme is nice,10,200,20","I can tell it's some sort of outdoor scene. It looks very amateurish.,-9,180,20","Kelly","Very subdued, but wouldn't give it a 2nd notice.,4,220,20","Makayla","Reminds me of a European street, I desire to walk in this picture,28,80,20","Erica","very relaxing and easy going,22,80,20","4"
"18672","","survey-text","96","537793","0.0-94.0-0.0","A25F4VG7W3BTWV","","","","{""Q0"":""I don't care for it, sorry""}","","","","","","","","","","","","","","","","","","","","","","",""
"2897.7999999523163","","image-slider-response","97","540693","0.0-95.0","A25F4VG7W3BTWV","","","","","-36","","","","","","","","","","","","","","","","","","","","","",""
"2032","","image-button-response","98","545697","0.0-96.0","A25F4VG7W3BTWV","img_art/23.jpg","1","","","","","","","","","","","","","","","","","","","","","","","","",""
"655","","image-button-response","99","546358","0.0-97.0","A25F4VG7W3BTWV","img_art/23.jpg","2","","","","","","","","","","","","","","","","","","","","","","","","",""
"1684","","image-button-response","100","548044","0.0-98.0-0.0","A25F4VG7W3BTWV","img_art/23.jpg","1","","","","","","","","","","","","","","","","","","","","","","","","",""
"1025","","image-button-response","101","549071","0.0-99.0-0.0","A25F4VG7W3BTWV","img_art/23.jpg","0","","","","","","","","","","","","","","","","","","","","","","","","",""
"null","","html-keyboard-response","102","550073","0.0-100.0","A25F4VG7W3BTWV","<p style=""font-size: 48px;"">+</p>","","","","","null","allTrialResponses","1000","1","8","img_art/23.jpg","-36","I don't care for it, sorry","Melissa,Kelly,Makayla,Erica,Kaitlyn,Isabella","do not like color splatters or sharp silhouettes, feels tacky,-34,240,20","Love this. I love the white, really pops with the colors surrounding it.,44,220,20","Reminds me of disco/70's, not my favorite design,-12,80,20","Very energetic, seems like it is pulling me in,24,80,20","Interesting contrast,9,80,20","Love the line in the middle separating the two dark sides,50,280,20","Makayla","Reminds me of disco/70's, not my favorite design,-12,80,20","Kelly","Love this. I love the white, really pops with the colors surrounding it.,44,220,20","Melissa","do not like color splatters or sharp silhouettes, feels tacky,-34,240,20","4"
"15695","","survey-text","103","565773","0.0-101.0-0.0","A25F4VG7W3BTWV","","","","{""Q0"":""Serene and pretty""}","","","","","","","","","","","","","","","","","","","","","","",""
"4073.399999856949","","image-slider-response","104","569849","0.0-102.0","A25F4VG7W3BTWV","","","","","35","","","","","","","","","","","","","","","","","","","","","",""
"2651","","image-button-response","105","574863","0.0-103.0","A25F4VG7W3BTWV","img_art/21.jpg","1","","","","","","","","","","","","","","","","","","","","","","","","",""
"1265","","image-button-response","106","576132","0.0-104.0","A25F4VG7W3BTWV","img_art/21.jpg","5","","","","","","","","","","","","","","","","","","","","","","","","",""
"1593","","image-button-response","107","577728","0.0-105.0-0.0","A25F4VG7W3BTWV","img_art/21.jpg","2","","","","","","","","","","","","","","","","","","","","","","","","",""
"1205","","image-button-response","108","578936","0.0-106.0-0.0","A25F4VG7W3BTWV","img_art/21.jpg","1","","","","","","","","","","","","","","","","","","","","","","","","",""
"null","","html-keyboard-response","109","579950","0.0-107.0","A25F4VG7W3BTWV","<p style=""font-size: 48px;"">+</p>","","","","","null","allTrialResponses","1000","1","9","img_art/21.jpg","35","Serene and pretty","Melissa,Kelly,Makayla,Gabriela,Katelyn,Alexandra","feels like a harbor scene,11,240,20","It actually reminded me of a place I've been to. So I had a positive reaction to it.,22,220,20","I like the two sides meeting, like a movie scene,15,80,20","It makes me feel mellow or ""chill"". It makes me have a positive and calm mood,42,140,20","I dont like how nothing is defined and the colors dont work for me,-5,100,20","This one is nice, it reminds me of the sky,42,60,20","Alexandra","This one is nice, it reminds me of the sky,42,60,20","Makayla","I like the two sides meeting, like a movie scene,15,80,20","Kelly","It actually reminded me of a place I've been to. So I had a positive reaction to it.,22,220,20","4"
"143133","","survey-text","110","723089","0.0-108.0-0.0","A25F4VG7W3BTWV","","","","{""Q0"":""too dreary for my liking""}","","","","","","","","","","","","","","","","","","","","","","",""
"2821.4000000953674","","image-slider-response","111","725913","0.0-109.0","A25F4VG7W3BTWV","","","","","-33","","","","","","","","","","","","","","","","","","","","","",""
"4793","","image-button-response","112","730929","0.0-110.0","A25F4VG7W3BTWV","img_art/28.jpg","1","","","","","","","","","","","","","","","","","","","","","","","","",""
"1152","","image-button-response","113","732084","0.0-111.0","A25F4VG7W3BTWV","img_art/28.jpg","1","","","","","","","","","","","","","","","","","","","","","","","","",""
"3385","","image-button-response","114","735472","0.0-112.0-0.0","A25F4VG7W3BTWV","img_art/28.jpg","2","","","","","","","","","","","","","","","","","","","","","","","","",""
"2206","","image-button-response","115","737682","0.0-113.0-0.0","A25F4VG7W3BTWV","img_art/28.jpg","5","","","","","","","","","","","","","","","","","","","","","","","","",""
"null","","html-keyboard-response","116","738192","0.0-114.0","A25F4VG7W3BTWV","<p style=""font-size: 48px;"">+</p>","","","","","null","allTrialResponses","500","1","10","img_art/28.jpg","-33","too dreary for my liking","Jessica,Kelly,Makayla,Alicia,Michaela,Alexandra","I can't tell what's going on but it looks a little bit more lively at least,7,400,20","This one is too bleak, not a fan of the image or colors.,-28,220,20","The earthy colors smeared around looks like prison food tray,-17,80,20","bland busy ugly,-31,120,20","Salvador Dali called and he thinks this looks pretty good,27,260,20","Boring, looks like it belongs in a coffee shop,-20,60,20","Kelly","This one is too bleak, not a fan of the image or colors.,-28,220,20","Makayla","The earthy colors smeared around looks like prison food tray,-17,80,20","Alexandra","Boring, looks like it belongs in a coffee shop,-20,60,20","4"
"5238","","survey-text","117","743441","0.0-115.0-0.0","A25F4VG7W3BTWV","","","","{""Q0"":""our""}","","","","","","","","","","","","","","","","","","","","","","",""
"38989","","survey-text","118","782431","0.0-116.0-0.0","A25F4VG7W3BTWV","","","","{""Q0"":""Halloween maybe?""}","","","","","","","","","","","","","","","","","","","","","","",""
"3151.399999856949","","image-slider-response","119","785585","0.0-117.0","A25F4VG7W3BTWV","","","","","-21","","","","","","","","","","","","","","","","","","","","","",""
"4743","","image-button-response","120","790599","0.0-118.0","A25F4VG7W3BTWV","img_art/25.jpg","2","","","","","","","","","","","","","","","","","","","","","","","","",""
"4881","","image-button-response","121","795483","0.0-119.0","A25F4VG7W3BTWV","img_art/25.jpg","2","","","","","","","","","","","","","","","","","","","","","","","","",""
"1719","","image-button-response","122","797206","0.0-120.0-0.0","A25F4VG7W3BTWV","img_art/25.jpg","5","","","","","","","","","","","","","","","","","","","","","","","","",""
"1770","","image-button-response","123","798980","0.0-121.0-0.0","A25F4VG7W3BTWV","img_art/25.jpg","4","","","","","","","","","","","","","","","","","","","","","","","","",""
"null","","html-keyboard-response","124","800485","0.0-122.0","A25F4VG7W3BTWV","<p style=""font-size: 48px;"">+</p>","","","","","null","allTrialResponses","1500","1","11","img_art/25.jpg","-21","Halloween maybe?","Jasmine,Kelly,Makayla,Jenna,Nicole,Alexandra","I liked it as it seems unique in a way,21,340,20","I love the color. I don't know what exactly is going on but I like it.,24,220,20","It's very mystical.,5,80,20","beautiful in a primitive way,10,360,20","This painting is cool but it gives off an evil vibe,-10,20,20","This is too dark and creepy. I also hate the color,-30,60,20","Makayla","It's very mystical.,5,80,20","Alexandra","This is too dark and creepy. I also hate the color,-30,60,20","Nicole","This painting is cool but it gives off an evil vibe,-10,20,20","4"
"25782","","survey-text","125","826273","0.0-123.0-0.0","A25F4VG7W3BTWV","","","","{""Q0"":""I like this one, I like the colors and design""}","","","","","","","","","","","","","","","","","","","","","","",""
"3618.5","","image-slider-response","126","829895","0.0-124.0","A25F4VG7W3BTWV","","","","","25","","","","","","","","","","","","","","","","","","","","","",""
"3958","","image-button-response","127","834897","0.0-125.0","A25F4VG7W3BTWV","img_art/14.jpg","5","","","","","","","","","","","","","","","","","","","","","","","","",""
"1439","","image-button-response","128","836341","0.0-126.0","A25F4VG7W3BTWV","img_art/14.jpg","1","","","","","","","","","","","","","","","","","","","","","","","","",""
"4202","","image-button-response","129","840546","0.0-127.0-0.0","A25F4VG7W3BTWV","img_art/14.jpg","2","","","","","","","","","","","","","","","","","","","","","","","","",""
"4921","","image-button-response","130","845471","0.0-128.0-0.0","A25F4VG7W3BTWV","img_art/14.jpg","4","","","","","","","","","","","","","","","","","","","","","","","","",""
"null","","html-keyboard-response","131","845973","0.0-129.0","A25F4VG7W3BTWV","<p style=""font-size: 48px;"">+</p>","","","","","null","allTrialResponses","500","1","12","img_art/14.jpg","25","I like this one, I like the colors and design","Laura,Chelsea,Makayla,Danielle,Nicole,Alexandra","feels incomplete, poorly planned/executed,-34,320,20","The colors are pleasing.,29,180,20","I like that it's like a snippet of a field in the desert,21,80,20","Too much yellow in this image, i'm not a fan of art that is overly-saturated with yellow,-30,340,20","This reminds me of the Lion King somehow! Feels inspiring,30,20,20","Pretty, dainty, unique,22,60,20","Chelsea","The colors are pleasing.,29,180,20","Makayla","I like that it's like a snippet of a field in the desert,21,80,20","Nicole","This reminds me of the Lion King somehow! Feels inspiring,30,20,20","4"
"16961","","survey-text","132","862942","0.0-130.0-0.0","A25F4VG7W3BTWV","","","","{""Q0"":""Hmmm, I don't know""}","","","","","","","","","","","","","","","","","","","","","","",""
"3215.5","","image-slider-response","133","866159","0.0-131.0","A25F4VG7W3BTWV","","","","","-32","","","","","","","","","","","","","","","","","","","","","",""
"3992","","image-button-response","134","871178","0.0-132.0","A25F4VG7W3BTWV","img_art/5.jpg","1","","","","","","","","","","","","","","","","","","","","","","","","",""
"1055","","image-button-response","135","872236","0.0-133.0","A25F4VG7W3BTWV","img_art/5.jpg","1","","","","","","","","","","","","","","","","","","","","","","","","",""
"756","","image-button-response","136","872994","0.0-134.0-0.0","A25F4VG7W3BTWV","img_art/5.jpg","2","","","","","","","","","","","","","","","","","","","","","","","","",""
"1226","","image-button-response","137","874224","0.0-135.0-0.0","A25F4VG7W3BTWV","img_art/5.jpg","5","","","","","","","","","","","","","","","","","","","","","","","","",""
"null","","html-keyboard-response","138","874727","0.0-136.0","A25F4VG7W3BTWV","<p style=""font-size: 48px;"">+</p>","","","","","null","allTrialResponses","500","1","13","img_art/5.jpg","-32","Hmmm, I don't know","Courtney,Chelsea,Makayla,Alyssa,Nicole,Rachel","A rabbits head.,4,280,20","I'm not sure what is going on here.,-46,180,20","Bright and sunny,19,80,20","It has a sense of vague familiarity that i like.Like a stick starting a fire at a campsite.,30,160,20","I hate the shapes,-30,20,20","Not sure what to make of this one.,-1,80,20","Chelsea","I'm not sure what is going on here.,-46,180,20","Makayla","Bright and sunny,19,80,20","Rachel","Not sure what to make of this one.,-1,80,20","4"
"24239","","survey-text","139","898973","0.0-137.0-0.0","A25F4VG7W3BTWV","","","","{""Q0"":""Nice and serene river walk scene""}","","","","","","","","","","","","","","","","","","","","","","",""
"2989.399999856949","","image-slider-response","140","901965","0.0-138.0","A25F4VG7W3BTWV","","","","","26","","","","","","","","","","","","","","","","","","","","","",""
"null","","image-button-response","141","906979","0.0-139.0","A25F4VG7W3BTWV","img_art/19.jpg","null","","","","","","","","","","","","","","","","","","","","","","","","",""
"281","","image-button-response","142","907264","0.0-140.0","A25F4VG7W3BTWV","img_art/19.jpg","5","","","","","","","","","","","","","","","","","","","","","","","","",""
"1463","","image-button-response","143","908730","0.0-141.0-0.0","A25F4VG7W3BTWV","img_art/19.jpg","4","","","","","","","","","","","","","","","","","","","","","","","","",""
"2142","","image-button-response","144","910876","0.0-142.0-0.0","A25F4VG7W3BTWV","img_art/19.jpg","1","","","","","","","","","","","","","","","","","","","","","","","","",""
"null","","html-keyboard-response","145","911877","0.0-143.0","A25F4VG7W3BTWV","<p style=""font-size: 48px;"">+</p>","","","","","null","allTrialResponses","1000","1","14","img_art/19.jpg","26","Nice and serene river walk scene","Lauren,Chelsea,Makayla,Kayla,Savannah,Rachel","The image doesn't really invoke any emotions strongly.,0,340,20","It is too busy.,-34,180,20","Looks like hustle and bustle ,,3,80,20","Too messy and busy. Too much going on there for me.,-12,180,20","Watercolor abstract? Strange.,1,200,20","Reminds me of a busy town. Chaotic in nature.,-11,80,20","Rachel","Reminds me of a busy town. Chaotic in nature.,-11,80,20","Savannah","Watercolor abstract? Strange.,1,200,20","Chelsea","It is too busy.,-34,180,20","4"
"14237","","survey-text","146","926121","0.0-144.0-0.0","A25F4VG7W3BTWV","","","","{""Q0"":""debris on snow in the winter""}","","","","","","","","","","","","","","","","","","","","","","",""
"2669.9000000953674","","image-slider-response","147","928793","0.0-145.0","A25F4VG7W3BTWV","","","","","-6","","","","","","","","","","","","","","","","","","","","","",""
"null","","image-button-response","148","933806","0.0-146.0","A25F4VG7W3BTWV","img_art/18.jpg","null","","","","","","","","","","","","","","","","","","","","","","","","",""
"1316","","image-button-response","149","935126","0.0-147.0","A25F4VG7W3BTWV","img_art/18.jpg","2","","","","","","","","","","","","","","","","","","","","","","","","",""
"2978","","image-button-response","150","938106","0.0-148.0-0.0","A25F4VG7W3BTWV","img_art/18.jpg","3","","","","","","","","","","","","","","","","","","","","","","","","",""
"4192","","image-button-response","151","942302","0.0-149.0-0.0","A25F4VG7W3BTWV","img_art/18.jpg","4","","","","","","","","","","","","","","","","","","","","","","","","",""
"null","","html-keyboard-response","152","943804","0.0-150.0","A25F4VG7W3BTWV","<p style=""font-size: 48px;"">+</p>","","","","","null","allTrialResponses","1500","1","15","img_art/18.jpg","-6","debris on snow in the winter","Brianna,Chelsea,Katherine,Lindsey,Savannah,Rachel","Very eerie and it's spooky,11,20,20","I like the detail but I wouldn't hang this up on my wall.,14,180,20","Ok this is really badass. Like a warrior come to the last battle,50,120,20","Interesting piece - gives you more the more you look at it. I like it but wouldn't buy it.,11,400,20","Accents make this piece.,21,200,20","This one seems rather ghoulish to me.,-41,80,20","Katherine","Ok this is really badass. Like a warrior come to the last battle,50,120,20","Lindsey","Interesting piece - gives you more the more you look at it. I like it but wouldn't buy it.,11,400,20","Savannah","Accents make this piece.,21,200,20","4"
"5574","","survey-text","153","949395","0.0-151.0-0.0","A25F4VG7W3BTWV","","","","{""Q0"":""course""}","","","","","","","","","","","","","","","","","","","","","","",""
"15007","","survey-text","154","964404","0.0-152.0-0.0","A25F4VG7W3BTWV","","","","{""Q0"":""bird on sand""}","","","","","","","","","","","","","","","","","","","","","","",""
"4293.899999856949","","image-slider-response","155","968700","0.0-153.0","A25F4VG7W3BTWV","","","","","-11","","","","","","","","","","","","","","","","","","","","","",""
"4976","","image-button-response","156","973703","0.0-154.0","A25F4VG7W3BTWV","img_art/6.jpg","1","","","","","","","","","","","","","","","","","","","","","","","","",""
"741","","image-button-response","157","974446","0.0-155.0","A25F4VG7W3BTWV","img_art/6.jpg","1","","","","","","","","","","","","","","","","","","","","","","","","",""
"1624","","image-button-response","158","976073","0.0-156.0-0.0","A25F4VG7W3BTWV","img_art/6.jpg","2","","","","","","","","","","","","","","","","","","","","","","","","",""
"7591","","image-button-response","159","983667","0.0-157.0-0.0","A25F4VG7W3BTWV","img_art/6.jpg","5","","","","","","","","","","","","","","","","","","","","","","","","",""
"null","","html-keyboard-response","160","984176","0.0-158.0","A25F4VG7W3BTWV","<p style=""font-size: 48px;"">+</p>","","","","","null","allTrialResponses","500","1","16","img_art/6.jpg","-11","bird on sand","Rebecca,Jordan,Katherine,Lindsey,Savannah,Shannon","??????? fake floating leaf? headless bird,-28,100,20","This is interesting, I feel solitude, and loneliness from this.,13,20,20","This could be so many different things. I saw a bird first but then it looks like a needle going into skin,34,120,20","Simple, warm, hopeful.,12,400,20","Despite how simple it is, this piece has clear meaning.,34,200,20","I can't tell what this image is, but it's boring because of lack of color variety and nothing in it,-41,220,20","Jordan","This is interesting, I feel solitude, and loneliness from this.,13,20,20","Katherine","This could be so many different things. I saw a bird first but then it looks like a needle going into skin,34,120,20","Shannon","I can't tell what this image is, but it's boring because of lack of color variety and nothing in it,-41,220,20","4"
"24244","","survey-text","161","1008428","0.0-159.0-0.0","A25F4VG7W3BTWV","","","","{""Q0"":""Many roads, cold and windy day""}","","","","","","","","","","","","","","","","","","","","","","",""
"2833.7000000476837","","image-slider-response","162","1011265","0.0-160.0","A25F4VG7W3BTWV","","","","","-5","","","","","","","","","","","","","","","","","","","","","",""
"4920","","image-button-response","163","1016270","0.0-161.0","A25F4VG7W3BTWV","img_art/11.jpg","2","","","","","","","","","","","","","","","","","","","","","","","","",""
"1412","","image-button-response","164","1017691","0.0-162.0","A25F4VG7W3BTWV","img_art/11.jpg","5","","","","","","","","","","","","","","","","","","","","","","","","",""
"928","","image-button-response","165","1018623","0.0-163.0-0.0","A25F4VG7W3BTWV","img_art/11.jpg","4","","","","","","","","","","","","","","","","","","","","","","","","",""
"639","","image-button-response","166","1019264","0.0-164.0-0.0","A25F4VG7W3BTWV","img_art/11.jpg","3","","","","","","","","","","","","","","","","","","","","","","","","",""
"null","","html-keyboard-response","167","1019766","0.0-165.0","A25F4VG7W3BTWV","<p style=""font-size: 48px;"">+</p>","","","","","null","allTrialResponses","500","1","17","img_art/11.jpg","-5","Many roads, cold and windy day","Christina,Jordan,Katherine,Alexandria,Angela,Shannon","I like how it looks like buildings but i'm not a fan of colors,20,240,20","Oh, I love this one, it says to me that life is very busy,50,20,20","Makes me feel like my vision is breaking,19,120,20","it reminds me of music,43,80,20","I like this one very much, especially the shades of gray.,30,260,20","This looks like a bridge that has plenty of color.,10,220,20","Shannon","This looks like a bridge that has plenty of color.,10,220,20","Angela","I like this one very much, especially the shades of gray.,30,260,20","Alexandria","it reminds me of music,43,80,20","4"
"15609","","survey-text","168","1035383","0.0-166.0-0.0","A25F4VG7W3BTWV","","","","{""Q0"":""Rd and Gold""}","","","","","","","","","","","","","","","","","","","","","","",""
"3074.100000143051","","image-slider-response","169","1038459","0.0-167.0","A25F4VG7W3BTWV","","","","","-37","","","","","","","","","","","","","","","","","","","","","",""
"2275","","image-button-response","170","1043462","0.0-168.0","A25F4VG7W3BTWV","img_art/4.jpg","0","","","","","","","","","","","","","","","","","","","","","","","","",""
"710","","image-button-response","171","1044174","0.0-169.0","A25F4VG7W3BTWV","img_art/4.jpg","0","","","","","","","","","","","","","","","","","","","","","","","","",""
"4762","","image-button-response","172","1048938","0.0-170.0-0.0","A25F4VG7W3BTWV","img_art/4.jpg","2","","","","","","","","","","","","","","","","","","","","","","","","",""
"4082","","image-button-response","173","1053024","0.0-171.0-0.0","A25F4VG7W3BTWV","img_art/4.jpg","5","","","","","","","","","","","","","","","","","","","","","","","","",""
"null","","html-keyboard-response","174","1054529","0.0-172.0","A25F4VG7W3BTWV","<p style=""font-size: 48px;"">+</p>","","","","","null","allTrialResponses","1500","1","18","img_art/4.jpg","-37","Rd and Gold","Brittany,Tiffany,Kimberly,Alexandria,Angela,Shannon","Rather boring design and colors.,-21,40,20","The sickly looking colors make me feel very uncomfortable.,-35,360,20","It's ok, theres nothing that draws me away from it I guess,0,260,20","it looks like a simple finger painting, yet i liked the color choices,-12,80,20","Really like the colors, but don't like the object/squiggle in darker gold and black,4,260,20","I think that this picture is too boring in terms of color and it looks ugly.,-41,220,20","Brittany","Rather boring design and colors.,-21,40,20","Kimberly","It's ok, theres nothing that draws me away from it I guess,0,260,20","Shannon","I think that this picture is too boring in terms of color and it looks ugly.,-41,220,20","4"
"18312","","survey-text","175","1072847","0.0-173.0-0.0","A25F4VG7W3BTWV","","","","{""Q0"":""Interesting abstract""}","","","","","","","","","","","","","","","","","","","","","","",""
"2797.699999809265","","image-slider-response","176","1075647","0.0-174.0","A25F4VG7W3BTWV","","","","","9","","","","","","","","","","","","","","","","","","","","","",""
"null","","image-button-response","177","1080660","0.0-175.0","A25F4VG7W3BTWV","img_art/12.jpg","null","","","","","","","","","","","","","","","","","","","","","","","","",""
"8886","","image-button-response","178","1089549","0.0-176.0","A25F4VG7W3BTWV","img_art/12.jpg","5","","","","","","","","","","","","","","","","","","","","","","","","",""
"3450","","image-button-response","179","1093002","0.0-177.0-0.0","A25F4VG7W3BTWV","img_art/12.jpg","4","","","","","","","","","","","","","","","","","","","","","","","","",""
"3029","","image-button-response","180","1096034","0.0-178.0-0.0","A25F4VG7W3BTWV","img_art/12.jpg","3","","","","","","","","","","","","","","","","","","","","","","","","",""
"null","","html-keyboard-response","181","1096537","0.0-179.0","A25F4VG7W3BTWV","<p style=""font-size: 48px;"">+</p>","","","","","null","allTrialResponses","500","1","19","img_art/12.jpg","9","Interesting abstract","Brittany,Abigail,Kimberly,Andrea,Briana,Shannon","Too blocky and not interesting enough.,-15,40,20","Made me uncomfortable, reminded me of the 90s,-9,20,20","Just not a fan, I can't figure out why,-17,260,20","It just feels like a jigsaw puzzle,-4,240,20","Interesting colors. I really dont like modern art though,24,400,20","This image doesn't have anything going on. The top half is really ugly, I kind of like the bottom a little.,-20,220,20","Shannon","This image doesn't have anything going on. The top half is really ugly, I kind of like the bottom a little.,-20,220,20","Briana","Interesting colors. I really dont like modern art though,24,400,20","Andrea","It just feels like a jigsaw puzzle,-4,240,20","4"
"26624","","survey-text","182","1123175","0.0-180.0-0.0","A25F4VG7W3BTWV","","","","{""Q0"":""Red and green with a little blue""}","","","","","","","","","","","","","","","","","","","","","","",""
"6607.5","","image-slider-response","183","1129786","0.0-181.0","A25F4VG7W3BTWV","","","","","-27","","","","","","","","","","","","","","","","","","","","","",""
"3495","","image-button-response","184","1134804","0.0-182.0","A25F4VG7W3BTWV","img_art/2.jpg","2","","","","","","","","","","","","","","","","","","","","","","","","",""
"489","","image-button-response","185","1135299","0.0-183.0","A25F4VG7W3BTWV","img_art/2.jpg","4","","","","","","","","","","","","","","","","","","","","","","","","",""
"978","","image-button-response","186","1136280","0.0-184.0-0.0","A25F4VG7W3BTWV","img_art/2.jpg","2","","","","","","","","","","","","","","","","","","","","","","","","",""
"639","","image-button-response","187","1136922","0.0-185.0-0.0","A25F4VG7W3BTWV","img_art/2.jpg","1","","","","","","","","","","","","","","","","","","","","","","","","",""
"null","","html-keyboard-response","188","1137425","0.0-186.0","A25F4VG7W3BTWV","<p style=""font-size: 48px;"">+</p>","","","","","null","allTrialResponses","500","1","20","img_art/2.jpg","-27","Red and green with a little blue","Stephanie,Erika,Erin,Andrea,Briana,Shannon","The colors are what I like. It looks like a smiling face too.,32,300,20","Indistinct and too bright,-21,100,20","There is an odd face here that is creepy,-4,120,20","It feels like a party and Moulin Rouge.,20,240,20","Childish smiley face,-19,400,20","I like this picture a little because the colors make it look a little vibrant.,10,220,20","Briana","Childish smiley face,-19,400,20","Erin","There is an odd face here that is creepy,-4,120,20","Erika","Indistinct and too bright,-21,100,20","4"
"6684","","survey-text","189","1144121","0.0-187.0-0.0","A25F4VG7W3BTWV","","","","{""Q0"":""we""}","","","","","","","","","","","","","","","","","","","","","","",""
"25396","","survey-text","190","1169520","0.0-188.0-0.0","A25F4VG7W3BTWV","","","","{""Q0"":""Nice contrasting of colors""}","","","","","","","","","","","","","","","","","","","","","","",""
"2227.5999999046326","","image-slider-response","191","1171750","0.0-189.0","A25F4VG7W3BTWV","","","","","6","","","","","","","","","","","","","","","","","","","","","",""
"3407","","image-button-response","192","1176753","0.0-190.0","A25F4VG7W3BTWV","img_art/22.jpg","1","","","","","","","","","","","","","","","","","","","","","","","","",""
"371","","image-button-response","193","1177126","0.0-191.0","A25F4VG7W3BTWV","img_art/22.jpg","1","","","","","","","","","","","","","","","","","","","","","","","","",""
"3144","","image-button-response","194","1180272","0.0-192.0-0.0","A25F4VG7W3BTWV","img_art/22.jpg","0","","","","","","","","","","","","","","","","","","","","","","","","",""
"1181","","image-button-response","195","1181459","0.0-193.0-0.0","A25F4VG7W3BTWV","img_art/22.jpg","4","","","","","","","","","","","","","","","","","","","","","","","","",""
"null","","html-keyboard-response","196","1182460","0.0-194.0","A25F4VG7W3BTWV","<p style=""font-size: 48px;"">+</p>","","","","","null","allTrialResponses","1000","1","21","img_art/22.jpg","6","Nice contrasting of colors","Caitlin,Erika,Erin,Chloe,Briana,Katie","Looks like the kind of art I would see at the doctor's office.,-5,80,20","Beautiful forms, using color to define shape,14,100,20","Seems dated with geometic forms,-20,120,20","Still like the colors but not the most interesting composition,17,220,20","Bright colors feel warm,22,400,20","Too much red. The red/yellow/orange make me think of heat/fire, which makes me anxious.,-10,160,20","Erika","Beautiful forms, using color to define shape,14,100,20","Caitlin","Looks like the kind of art I would see at the doctor's office.,-5,80,20","Briana","Bright colors feel warm,22,400,20","4"
"26400","","survey-text","197","1208875","0.0-195.0-0.0","A25F4VG7W3BTWV","","","","{""Q0"":""Looking out over the city""}","","","","","","","","","","","","","","","","","","","","","","",""
"2489.9000000953674","","image-slider-response","198","1211367","0.0-196.0","A25F4VG7W3BTWV","","","","","-13","","","","","","","","","","","","","","","","","","","","","",""
"3801","","image-button-response","199","1216379","0.0-197.0","A25F4VG7W3BTWV","img_art/8.jpg","0","","","","","","","","","","","","","","","","","","","","","","","","",""
"1863","","image-button-response","200","1218245","0.0-198.0","A25F4VG7W3BTWV","img_art/8.jpg","2","","","","","","","","","","","","","","","","","","","","","","","","",""
"2455","","image-button-response","201","1220703","0.0-199.0-0.0","A25F4VG7W3BTWV","img_art/8.jpg","3","","","","","","","","","","","","","","","","","","","","","","","","",""
"929","","image-button-response","202","1221635","0.0-200.0-0.0","A25F4VG7W3BTWV","img_art/8.jpg","4","","","","","","","","","","","","","","","","","","","","","","","","",""
"null","","html-keyboard-response","203","1222146","0.0-201.0","A25F4VG7W3BTWV","<p style=""font-size: 48px;"">+</p>","","","","","null","allTrialResponses","500","1","22","img_art/8.jpg","-13","Looking out over the city","Caitlin,Erika,Hailey,Alexis,Briana,Grace","And I'll huff and I'll puff and I'll blow your town down!!,20,80,20","Striking, but not my taste,20,100,20","cold city controlled by evil gods,-17,200,20","Reminds me of old 80s fantasy book covers. Nostalgic,23,100,20","Its abstract and interesting,24,400,20","Like the colors & the imagery - old city, native peoples maybe.,20,180,20","Hailey","cold city controlled by evil gods,-17,200,20","Alexis","Reminds me of old 80s fantasy book covers. Nostalgic,23,100,20","Briana","Its abstract and interesting,24,400,20","4"
"49218","","survey-text","204","1271381","0.0-202.0-0.0","A25F4VG7W3BTWV","","","","{""Q0"":""Nice nature scene""}","","","","","","","","","","","","","","","","","","","","","","",""
"2567.7000000476837","","image-slider-response","205","1273951","0.0-203.0","A25F4VG7W3BTWV","","","","","6","","","","","","","","","","","","","","","","","","","","","",""
"null","","image-button-response","206","1278953","0.0-204.0","A25F4VG7W3BTWV","img_art/24.jpg","null","","","","","","","","","","","","","","","","","","","","","","","","",""
"942","","image-button-response","207","1279898","0.0-205.0","A25F4VG7W3BTWV","img_art/24.jpg","0","","","","","","","","","","","","","","","","","","","","","","","","",""
"3383","","image-button-response","208","1283284","0.0-206.0-0.0","A25F4VG7W3BTWV","img_art/24.jpg","2","","","","","","","","","","","","","","","","","","","","","","","","",""
"3291","","image-button-response","209","1286578","0.0-207.0-0.0","A25F4VG7W3BTWV","img_art/24.jpg","5","","","","","","","","","","","","","","","","","","","","","","","","",""
"null","","html-keyboard-response","210","1287081","0.0-208.0","A25F4VG7W3BTWV","<p style=""font-size: 48px;"">+</p>","","","","","null","allTrialResponses","500","1","23","img_art/24.jpg","6","Nice nature scene","Kylie,Julia,Hailey,Alexis,Briana,Anna","Forest waterfall,40,300,20","it's a nice stream, but I don't care for plain nature,-15,40,20","warm spring day after a rain. soft,20,200,20","Simple. Not too abstract. Love the different flower colors.,20,100,20","Abstract waterfall landscape. Confusing,-13,400,20","I like how it evokes the feeling of being in a forest. The colors are pretty,31,300,20","Kylie","Forest waterfall,40,300,20","Hailey","warm spring day after a rain. soft,20,200,20","Anna","I like how it evokes the feeling of being in a forest. The colors are pretty,31,300,20","4"
"22695","","survey-text","211","1309785","0.0-209.0-0.0","A25F4VG7W3BTWV","","","","{""Q0"":""Fall somewhere ""}","","","","","","","","","","","","","","","","","","","","","","",""
"3297.5","","image-slider-response","212","1313085","0.0-210.0","A25F4VG7W3BTWV","","","","","11","","","","","","","","","","","","","","","","","","","","","",""
"3335","","image-button-response","213","1318089","0.0-211.0","A25F4VG7W3BTWV","img_art/27.jpg","5","","","","","","","","","","","","","","","","","","","","","","","","",""
"441","","image-button-response","214","1318534","0.0-212.0","A25F4VG7W3BTWV","img_art/27.jpg","0","","","","","","","","","","","","","","","","","","","","","","","","",""
"575","","image-button-response","215","1319111","0.0-213.0-0.0","A25F4VG7W3BTWV","img_art/27.jpg","1","","","","","","","","","","","","","","","","","","","","","","","","",""
"533","","image-button-response","216","1319648","0.0-214.0-0.0","A25F4VG7W3BTWV","img_art/27.jpg","2","","","","","","","","","","","","","","","","","","","","","","","","",""
"null","","html-keyboard-response","217","1320665","0.0-215.0","A25F4VG7W3BTWV","<p style=""font-size: 48px;"">+</p>","","","","","null","allTrialResponses","1000","1","24","img_art/27.jpg","11","Fall somewhere ","Kylie,Amy,Hailey,Mikayla,Miranda,Anna","Soothing in the middle of some confusion,40,300,20","The colors provide a complexity to the nearly child-like sketches.,5,220,20","fruity and sweet. warm and juicy,10,200,20","It kinda reminds me of sushi.,16,300,20","I'm not a fan. It looks like something my nephews (1 and 2) would make,-8,320,20","It looks like when my little sister took magic markers to the wall.,-11,300,20","Kylie","Soothing in the middle of some confusion,40,300,20","Amy","The colors provide a complexity to the nearly child-like sketches.,5,220,20","Hailey","fruity and sweet. warm and juicy,10,200,20","4"
"13150","","survey-text","218","1333828","0.0-216.0-0.0","A25F4VG7W3BTWV","","","","{""Q0"":""Good try""}","","","","","","","","","","","","","","","","","","","","","","",""
"3092","","image-slider-response","219","1336923","0.0-217.0","A25F4VG7W3BTWV","","","","","2","","","","","","","","","","","","","","","","","","","","","",""
"4665","","image-button-response","220","1341934","0.0-218.0","A25F4VG7W3BTWV","img_art/16.jpg","2","","","","","","","","","","","","","","","","","","","","","","","","",""
"666","","image-button-response","221","1342603","0.0-219.0","A25F4VG7W3BTWV","img_art/16.jpg","2","","","","","","","","","","","","","","","","","","","","","","","","",""
"4553","","image-button-response","222","1347159","0.0-220.0-0.0","A25F4VG7W3BTWV","img_art/16.jpg","3","","","","","","","","","","","","","","","","","","","","","","","","",""
"2109","","image-button-response","223","1349271","0.0-221.0-0.0","A25F4VG7W3BTWV","img_art/16.jpg","0","","","","","","","","","","","","","","","","","","","","","","","","",""
"null","","html-keyboard-response","224","1349780","0.0-222.0","A25F4VG7W3BTWV","<p style=""font-size: 48px;"">+</p>","","","","","null","allTrialResponses","500","1","25","img_art/16.jpg","2","Good try","Kylie,Amy,Hailey,Amanda,Natalie,Kelsey","Mixed feelings. Warm and comfy yet somewhat violent. A stark contrast,0,300,20","visceral and a little disturbing.,10,220,20","cute and warm. i like the bear,15,200,20","Very modern, reminds me of bansky,43,180,20","my reaction is that the picture is creepy,-19,400,20","its disturbing! what the heck,-27,240,20","Hailey","cute and warm. i like the bear,15,200,20","Amanda","Very modern, reminds me of bansky,43,180,20","Kylie","Mixed feelings. Warm and comfy yet somewhat violent. A stark contrast,0,300,20","4"
"6946","","survey-text","225","1356742","0.0-223.0-0.0","A25F4VG7W3BTWV","","","","{""Q0"":""table""}","","","","","","","","","","","","","","","","","","","","","","",""
"455360","","survey-text","226","1812105","0.0-224.0-0.0","A25F4VG7W3BTWV","","","","{""Q0"":""Inspired by the beautiful colors of autumn ""}","","","","","","","","","","","","","","","","","","","","","","",""
"4337.399999856949","","image-slider-response","227","1816445","0.0-225.0","A25F4VG7W3BTWV","","","","","21","","","","","","","","","","","","","","","","","","","","","",""
"4026","","image-button-response","228","1821448","0.0-226.0","A25F4VG7W3BTWV","img_art/1.jpg","1","","","","","","","","","","","","","","","","","","","","","","","","",""
"1605","","image-button-response","229","1823056","0.0-227.0","A25F4VG7W3BTWV","img_art/1.jpg","2","","","","","","","","","","","","","","","","","","","","","","","","",""
"1393","","image-button-response","230","1824452","0.0-228.0-0.0","A25F4VG7W3BTWV","img_art/1.jpg","5","","","","","","","","","","","","","","","","","","","","","","","","",""
"4970","","image-button-response","231","1829426","0.0-229.0-0.0","A25F4VG7W3BTWV","img_art/1.jpg","1","","","","","","","","","","","","","","","","","","","","","","","","",""
"null","","html-keyboard-response","232","1830428","0.0-230.0","A25F4VG7W3BTWV","<p style=""font-size: 48px;"">+</p>","","","","","null","allTrialResponses","1000","1","26","img_art/1.jpg","21","Inspired by the beautiful colors of autumn ","Kylie,Leslie,Hailey,Amanda,Allison,Marissa","I don't know how I feel about this,1,300,20","The use of reds, blues, and yellows together reminds me of fire. Very interesting to look at.,40,380,20","colors that are fairly warm. its ok,8,200,20","Seems like one i previously saw in this survey,27,180,20","Messy mix of primary colors.,-10,140,20","It is beautiful, I really enjoy the colors,32,160,20","Hailey","colors that are fairly warm. its ok,8,200,20","Marissa","It is beautiful, I really enjoy the colors,32,160,20","Leslie","The use of reds, blues, and yellows together reminds me of fire. Very interesting to look at.,40,380,20","4"
"23773","","survey-text","233","1854218","0.0-231.0-0.0","A25F4VG7W3BTWV","","","","{""Q0"":""Too Negative For Me, looks like jail""}","","","","","","","","","","","","","","","","","","","","","","",""
"3327.5999999046326","","image-slider-response","234","1857548","0.0-232.0","A25F4VG7W3BTWV","","","","","-41","","","","","","","","","","","","","","","","","","","","","",""
"null","","image-button-response","235","1862551","0.0-233.0","A25F4VG7W3BTWV","img_art/29.jpg","null","","","","","","","","","","","","","","","","","","","","","","","","",""
"7035","","image-button-response","236","1869589","0.0-234.0","A25F4VG7W3BTWV","img_art/29.jpg","4","","","","","","","","","","","","","","","","","","","","","","","","",""
"1653","","image-button-response","237","1871245","0.0-235.0-0.0","A25F4VG7W3BTWV","img_art/29.jpg","3","","","","","","","","","","","","","","","","","","","","","","","","",""
"1543","","image-button-response","238","1872791","0.0-236.0-0.0","A25F4VG7W3BTWV","img_art/29.jpg","0","","","","","","","","","","","","","","","","","","","","","","","","",""
"null","","html-keyboard-response","239","1873293","0.0-237.0","A25F4VG7W3BTWV","<p style=""font-size: 48px;"">+</p>","","","","","null","allTrialResponses","500","1","27","img_art/29.jpg","-41","Too Negative For Me, looks like jail","Michelle,Leslie,Hailey,Breanna,Claire,Marissa","The texture really stands out, this is an interesting composition,6,280,20","I can relate to the frustration this evokes.,20,380,20","a hot fireplace with things to burn. warm,12,200,20","Makes me feel untidy,-9,380,20","interesting, but I wouldn't put it on my wall,8,260,20","It makes me feel as though the artist put in a lot of time and effort and then gave up,10,160,20","Claire","interesting, but I wouldn't put it on my wall,8,260,20","Breanna","Makes me feel untidy,-9,380,20","Michelle","The texture really stands out, this is an interesting composition,6,280,20","4"
"29230","","survey-text","240","1902532","0.0-238.0-0.0","A25F4VG7W3BTWV","","","","{""Q0"":""Woman sleeping""}","","","","","","","","","","","","","","","","","","","","","","",""
"2307.100000143051","","image-slider-response","241","1904842","0.0-239.0","A25F4VG7W3BTWV","","","","","15","","","","","","","","","","","","","","","","","","","","","",""
"2568","","image-button-response","242","1909854","0.0-240.0","A25F4VG7W3BTWV","img_art/9.jpg","1","","","","","","","","","","","","","","","","","","","","","","","","",""
"3322","","image-button-response","243","1913180","0.0-241.0","A25F4VG7W3BTWV","img_art/9.jpg","1","","","","","","","","","","","","","","","","","","","","","","","","",""
"7111","","image-button-response","244","1920294","0.0-242.0-0.0","A25F4VG7W3BTWV","img_art/9.jpg","4","","","","","","","","","","","","","","","","","","","","","","","","",""
"2496","","image-button-response","245","1922794","0.0-243.0-0.0","A25F4VG7W3BTWV","img_art/9.jpg","3","","","","","","","","","","","","","","","","","","","","","","","","",""
"null","","html-keyboard-response","246","1924296","0.0-244.0","A25F4VG7W3BTWV","<p style=""font-size: 48px;"">+</p>","","","","","null","allTrialResponses","1500","1","28","img_art/9.jpg","15","Woman sleeping","Michelle,Sierra,Meghan,Breanna,Claire,Jamie","Alright, I can see a reclining lady, I'm just glad to be able to tell what's in the picture,5,280,20","it looks like a lady resting. it is soothing.,4,260,20","looks like someone resting,12,220,20","It's a mix of paint splash and scribbling,-33,380,20","the colors are nice,6,260,20","Mash up of colors and designs don't really go together,-5,320,20","Sierra","it looks like a lady resting. it is soothing.,4,260,20","Claire","the colors are nice,6,260,20","Breanna","It's a mix of paint splash and scribbling,-33,380,20","4"
"25656","","survey-text","247","1949971","0.0-245.0-0.0","A25F4VG7W3BTWV","","","","{""Q0"":""Great job""}","","","","","","","","","","","","","","","","","","","","","","",""
"2889.5999999046326","","image-slider-response","248","1952863","0.0-246.0","A25F4VG7W3BTWV","","","","","-35","","","","","","","","","","","","","","","","","","","","","",""
"2340","","image-button-response","249","1957875","0.0-247.0","A25F4VG7W3BTWV","img_art/13.jpg","2","","","","","","","","","","","","","","","","","","","","","","","","",""
"1019","","image-button-response","250","1958896","0.0-248.0","A25F4VG7W3BTWV","img_art/13.jpg","2","","","","","","","","","","","","","","","","","","","","","","","","",""
"1955","","image-button-response","251","1960854","0.0-249.0-0.0","A25F4VG7W3BTWV","img_art/13.jpg","1","","","","","","","","","","","","","","","","","","","","","","","","",""
"1345","","image-button-response","252","1962201","0.0-250.0-0.0","A25F4VG7W3BTWV","img_art/13.jpg","0","","","","","","","","","","","","","","","","","","","","","","","","",""
"null","","html-keyboard-response","253","1963204","0.0-251.0","A25F4VG7W3BTWV","<p style=""font-size: 48px;"">+</p>","","","","","null","allTrialResponses","1000","1","29","img_art/13.jpg","-35","Great job","Angelica,Sierra,Mackenzie,Breanna,Claire,Molly","It's too violent looking and there's too much contrast between the white/black.,-21,280,20","the blues are soothing but the splatters are too much,-3,260,20","I enjoy the cool colors mixed together,31,20,20","Makes me feel nice and calm,18,380,20","love the colors and splatters,44,260,20","Incredible, curious.,20,340,20","Mackenzie","I enjoy the cool colors mixed together,31,20,20","Sierra","the blues are soothing but the splatters are too much,-3,260,20","Angelica","It's too violent looking and there's too much contrast between the white/black.,-21,280,20","4"
"18526","","survey-text","254","1981739","0.0-252.0-0.0","A25F4VG7W3BTWV","","","","{""Q0"":""Bold and Dark flowing design""}","","","","","","","","","","","","","","","","","","","","","","",""
"2413.899999856949","","image-slider-response","255","1984155","0.0-253.0","A25F4VG7W3BTWV","","","","","-7","","","","","","","","","","","","","","","","","","","","","",""
"2658","","image-button-response","256","1989164","0.0-254.0","A25F4VG7W3BTWV","img_art/10.jpg","2","","","","","","","","","","","","","","","","","","","","","","","","",""
"2004","","image-button-response","257","1991173","0.0-255.0","A25F4VG7W3BTWV","img_art/10.jpg","2","","","","","","","","","","","","","","","","","","","","","","","","",""
"8440","","image-button-response","258","1999615","0.0-256.0-0.0","A25F4VG7W3BTWV","img_art/10.jpg","3","","","","","","","","","","","","","","","","","","","","","","","","",""
"5494","","image-button-response","259","2005113","0.0-257.0-0.0","A25F4VG7W3BTWV","img_art/10.jpg","4","","","","","","","","","","","","","","","","","","","","","","","","",""
"null","","html-keyboard-response","260","2005618","0.0-258.0","A25F4VG7W3BTWV","<p style=""font-size: 48px;"">+</p>","","","","","null","allTrialResponses","500","1","30","img_art/10.jpg","-7","Bold and Dark flowing design","Angelica,Sierra,Mackenzie,Jacqueline,Catherine,Amber","This is odd and ugly.,-9,280,20","it just doesnt appeal to me.,-10,260,20","The design is very fluid and fun to interpret,35,20,20","Seems more harmonic with the strokes and colors.,31,300,20","Circle of life, with highs and lows, good and bad. You always weather the storm and come out on top.,40,160,20","This picture just seems depressing.,-26,200,20","Mackenzie","The design is very fluid and fun to interpret,35,20,20","Jacqueline","Seems more harmonic with the strokes and colors.,31,300,20","Catherine","Circle of life, with highs and lows, good and bad. You always weather the storm and come out on top.,40,160,20","4"
"3545","","image-button-response_instructions","261","2009173","0.0-259.0","A25F4VG7W3BTWV","","0","instructions","","","","","","","","","","","","","","","","","","","","","","","",""
"1775","","image-button-response","262","2010954","0.0-260.0","A25F4VG7W3BTWV","","0","","","","","","","","","","","","","","","","","","","","","","","","",""
