"rt","url","trial_type","trial_index","time_elapsed","internal_node_id","participant_id","stimulus","button_pressed","Name","responses","response","key_press","variableName","fixationTime","condition","trial","photo","subjectRating","subjectResponse","agentsNames","agent_1_Response","agent_2_Response","agent_3_Response","agent_4_Response","agent_5_Response","agent_6_Response","kept_1_name","kept_1_response","kept_2_name","kept_2_response","kept_3_name","kept_3_response","errorCounter"
"8960","external_page_harvard.html","external-html","0","9053","0.0-0.0","A25N802S4J344I","","","","","","","","","","","","","","","","","","","","","","","","","","",""
"2119","","image-button-response","1","11173","0.0-1.0","A25N802S4J344I","","0","","","","","","","","","","","","","","","","","","","","","","","","",""
"5927","","image-button-response","2","17105","0.0-2.0-0.0","A25N802S4J344I","","1","phone","","","","","","","","","","","","","","","","","","","","","","","",""
"5168","","survey-text","3","22275","0.0-3.0-0.0","A25N802S4J344I","","","","{""Q0"":""A25N802S4J344I""}","","","","","","","","","","","","","","","","","","","","","","",""
"9403","","image-button-response_instructions","4","31681","0.0-4.0","A25N802S4J344I","","0","instructions","","","","","","","","","","","","","","","","","","","","","","","",""
"41865","","image-button-response_instructions","5","73546","0.0-5.0","A25N802S4J344I","img_art/ins/popularity/ins1.png","0","instructions","","","","","","","","","","","","","","","","","","","","","","","",""
"14244","","image-button-response_instructions","6","87792","0.0-6.0","A25N802S4J344I","img_art/ins/popularity/ins2.png","0","instructions","","","","","","","","","","","","","","","","","","","","","","","",""
"10765","","image-button-response_instructions","7","98558","0.0-7.0","A25N802S4J344I","img_art/ins/popularity/ins2Extreme.png","0","instructions","","","","","","","","","","","","","","","","","","","","","","","",""
"28958","","image-button-response_instructions","8","127518","0.0-8.0","A25N802S4J344I","img_art/ins/popularity/ins3KEEPpop.PNG","0","instructions","","","","","","","","","","","","","","","","","","","","","","","",""
"6262","","image-button-response_instructions","9","133782","0.0-9.0","A25N802S4J344I","img_art/ins/popularity/ins3ANamepop.PNG","0","instructions","","","","","","","","","","","","","","","","","","","","","","","",""
"6647","","image-button-response_instructions","10","140430","0.0-10.0","A25N802S4J344I","img_art/ins/popularity/ins3ARatingpop.png","0","instructions","","","","","","","","","","","","","","","","","","","","","","","",""
"5545","","image-button-response_instructions","11","145976","0.0-11.0","A25N802S4J344I","img_art/ins/popularity/ins3ATextpop.png","0","instructions","","","","","","","","","","","","","","","","","","","","","","","",""
"11649","","image-button-response_instructions","12","157626","0.0-12.0","A25N802S4J344I","img_art/ins/popularity/ins3ALikespop.png","0","instructions","","","","","","","","","","","","","","","","","","","","","","","",""
"25228","","image-button-response_instructions","13","182855","0.0-13.0","A25N802S4J344I","img_art/ins/popularity/ins3KEEPpop.PNG","0","instructions","","","","","","","","","","","","","","","","","","","","","","","",""
"20980","","image-button-response_instructions","14","203837","0.0-14.0","A25N802S4J344I","img_art/ins/popularity/ins3_5RED.png","0","instructions","","","","","","","","","","","","","","","","","","","","","","","",""
"29852","","image-button-response_instructions","15","233689","0.0-15.0","A25N802S4J344I","img_art/ins/popularity/ins3KEEPpop.PNG","0","instructions","","","","","","","","","","","","","","","","","","","","","","","",""
"10185","","image-button-response_instructions","16","243875","0.0-16.0","A25N802S4J344I","img_art/ins/popularity/ins4KEEPpop.PNG","0","instructions","","","","","","","","","","","","","","","","","","","","","","","",""
"5748","","image-button-response_instructions","17","249623","0.0-17.0","A25N802S4J344I","img_art/ins/popularity/ins5KEEPpop.PNG","0","instructions","","","","","","","","","","","","","","","","","","","","","","","",""
"2474","","image-button-response_instructions","18","252097","0.0-18.0","A25N802S4J344I","","0","instructions","","","","","","","","","","","","","","","","","","","","","","","",""
"8280","","survey-text","19","260403","0.0-19.0-0.0","A25N802S4J344I","","","","{""Q0"":""but""}","","","","","","","","","","","","","","","","","","","","","","",""
"38688","","survey-text","20","299092","0.0-20.0-0.0","A25N802S4J344I","","","","{""Q0"":""I dislike the color combinations.""}","","","","","","","","","","","","","","","","","","","","","","",""
"16455.69999999972","","image-slider-response","21","315550","0.0-21.0","A25N802S4J344I","","","","","-23","","","","","","","","","","","","","","","","","","","","","",""
"null","","image-button-response","22","320557","0.0-22.0","A25N802S4J344I","img_art/ins/1.jpg","null","","","","","","","","","","","","","","","","","","","","","","","","",""
"18052","","image-button-response","23","338612","0.0-23.0","A25N802S4J344I","img_art/ins/1.jpg","2","","","","","","","","","","","","","","","","","","","","","","","","",""
"17624","","image-button-response","24","356238","0.0-24.0-0.0","A25N802S4J344I","img_art/ins/1.jpg","0","","","","","","","","","","","","","","","","","","","","","","","","",""
"4246","","image-button-response","25","360486","0.0-25.0-0.0","A25N802S4J344I","img_art/ins/1.jpg","0","","","","","","","","","","","","","","","","","","","","","","","","",""
"1027","","image-button-response","26","386316","0.0-25.1-0.1","A25N802S4J344I","img_art/ins/1.jpg","4","","","","","","","","","","","","","","","","","","","","","","","","",""
"null","","html-keyboard-response","27","387322","0.0-26.0","A25N802S4J344I","<p style=""font-size: 48px;"">+</p>","","","","","null","allTrialResponses","1000","1","-2","img_art/ins/1.jpg","-23","I dislike the color combinations.","Adam,Alex,Ben,Carl,Daniel,Jack","Seems like doodles,-20,20,20","very creative work.,36,40,20","This color reminds me of poo,-46,60,20","very calming artwork,42,80,20","It looks like a murder scene.,-48,100,20","I like the sophisticated brushwork,40,120,20","Ben","This color reminds me of poo,-46,60,20","Adam","Seems like doodles,-20,20,20","Daniel","It looks like a murder scene.,-48,100,20","2"
"39130","","survey-text","28","426460","0.0-27.0-0.0","A25N802S4J344I","","","","{""Q0"":""Interesting textures and colors""}","","","","","","","","","","","","","","","","","","","","","","",""
"6419.600000000093","","image-slider-response","29","432881","0.0-28.0","A25N802S4J344I","","","","","13","","","","","","","","","","","","","","","","","","","","","",""
"null","","image-button-response","30","437896","0.0-29.0","A25N802S4J344I","img_art/ins/2.jpg","null","","","","","","","","","","","","","","","","","","","","","","","","",""
"6492","","image-button-response","31","444389","0.0-30.0","A25N802S4J344I","img_art/ins/2.jpg","1","","","","","","","","","","","","","","","","","","","","","","","","",""
"32295","","image-button-response","32","476685","0.0-31.0-0.0","A25N802S4J344I","img_art/ins/2.jpg","3","","","","","","","","","","","","","","","","","","","","","","","","",""
"10400","","image-button-response","33","487088","0.0-32.0-0.0","A25N802S4J344I","img_art/ins/2.jpg","4","","","","","","","","","","","","","","","","","","","","","","","","",""
"null","","html-keyboard-response","34","487590","0.0-33.0","A25N802S4J344I","<p style=""font-size: 48px;"">+</p>","","","","","null","allTrialResponses","500","1","-1","img_art/ins/2.jpg","13","Interesting textures and colors","Adam,John,Ben,James,Daniel,Kyle","too much color,-18,20,20","love the texture of paint,48,160,20","meaningless painting,-45,60,20","looks too angry,-50,140,20","One of my pet peevs,-48,100,20","Idk, it is just annoying,-32,180,20","John","love the texture of paint,48,160,20","James","looks too angry,-50,140,20","Daniel","One of my pet peevs,-48,100,20","2"
"55370","","survey-text","35","542967","0.0-34.0-0.0","A25N802S4J344I","","","","{""Q0"":""the colors do a good job of conveying emotions""}","","","","","","","","","","","","","","","","","","","","","","",""
"5168.299999999814","","image-slider-response","36","548137","0.0-35.0","A25N802S4J344I","","","","","13","","","","","","","","","","","","","","","","","","","","","",""
"null","","image-button-response","37","553151","0.0-36.0","A25N802S4J344I","img_art/ins/3.jpg","null","","","","","","","","","","","","","","","","","","","","","","","","",""
"3203","","image-button-response","38","556357","0.0-37.0","A25N802S4J344I","img_art/ins/3.jpg","1","","","","","","","","","","","","","","","","","","","","","","","","",""
"1694","","image-button-response","39","558053","0.0-38.0-0.0","A25N802S4J344I","img_art/ins/3.jpg","2","","","","","","","","","","","","","","","","","","","","","","","","",""
"9694","","image-button-response","40","567749","0.0-39.0-0.0","A25N802S4J344I","img_art/ins/3.jpg","5","","","","","","","","","","","","","","","","","","","","","","","","",""
"null","","html-keyboard-response","41","569251","0.0-40.0","A25N802S4J344I","<p style=""font-size: 48px;"">+</p>","","","","","null","allTrialResponses","1500","1","0","img_art/ins/3.jpg","13","the colors do a good job of conveying emotions","Ron,John,Mike,James,Daniel,Sam","It looks depressing,-26,220,20","I like the overlapping of brushes,41,160,20","enjoy the different shades of blue,22,200,20","My worst nightmare,-42,140,20","looks like a murder room,-35,100,20","I can feel a rainy day from this painting,18,240,20","John","I like the overlapping of brushes,41,160,20","Mike","enjoy the different shades of blue,22,200,20","Sam","I can feel a rainy day from this painting,18,240,20","2"
"8614","","image-button-response_instructions","42","577873","0.0-41.0","A25N802S4J344I","","0","instructions","","","","","","","","","","","","","","","","","","","","","","","",""
"43837","","survey-likert","43","621712","0.0-42.0-0.0","A25N802S4J344I","","","","{""Q0"":"""",""Q1"":"""",""Q2"":""""}","","","","","","","","","","","","","","","","","","","","","","",""
"10023","","survey-likert","44","637130","0.0-42.1-0.1","A25N802S4J344I","","","","{""Q0"":"""",""Q1"":0,""Q2"":1}","","","","","","","","","","","","","","","","","","","","","","",""
"5933","","survey-text","45","643067","0.0-43.0-0.0","A25N802S4J344I","","","","{""Q0"":""rock""}","","","","","","","","","","","","","","","","","","","","","","",""
"57583","","survey-text","46","700651","0.0-44.0-0.0","A25N802S4J344I","","","","{""Q0"":""this needs colors to get attention""}","","","","","","","","","","","","","","","","","","","","","","",""
"22014.100000000093","","image-slider-response","47","722667","0.0-45.0","A25N802S4J344I","","","","","-3","","","","","","","","","","","","","","","","","","","","","",""
"null","","image-button-response","48","727694","0.0-46.0","A25N802S4J344I","img_art/10.jpg","null","","","","","","","","","","","","","","","","","","","","","","","","",""
"13194","","image-button-response","49","740890","0.0-47.0","A25N802S4J344I","img_art/10.jpg","3","","","","","","","","","","","","","","","","","","","","","","","","",""
"2432","","image-button-response","50","743324","0.0-48.0-0.0","A25N802S4J344I","img_art/10.jpg","4","","","","","","","","","","","","","","","","","","","","","","","","",""
"3272","","image-button-response","51","746598","0.0-49.0-0.0","A25N802S4J344I","img_art/10.jpg","5","","","","","","","","","","","","","","","","","","","","","","","","",""
"null","","html-keyboard-response","52","747599","0.0-50.0","A25N802S4J344I","<p style=""font-size: 48px;"">+</p>","","","","","null","allTrialResponses","1000","1","1","img_art/10.jpg","-3","this needs colors to get attention","David,Mark,Alexis,Joseph,Jacob,Shawn","I can't really tell what this is suppose to represent, but overall I don't like the design.,-20,340,20","Kraken, and I love it.,39,80,20","It looks like a sea monster overtaking a ship,21,140,20","The loop type thing reminds me of interconnectedness and life and hope.,12,220,20","I feel like this has a cool concept behind it.,11,340,20","Don't like the colorblock but the lines are nice,-20,100,20","Joseph","The loop type thing reminds me of interconnectedness and life and hope.,12,220,20","Jacob","I feel like this has a cool concept behind it.,11,340,20","Shawn","Don't like the colorblock but the lines are nice,-20,100,20","3"
"33174","","survey-text","53","780781","0.0-51.0-0.0","A25N802S4J344I","","","","{""Q0"":""looks like a cityscape at night""}","","","","","","","","","","","","","","","","","","","","","","",""
"5790.200000000186","","image-slider-response","54","786572","0.0-52.0","A25N802S4J344I","","","","","23","","","","","","","","","","","","","","","","","","","","","",""
"null","","image-button-response","55","791581","0.0-53.0","A25N802S4J344I","img_art/11.jpg","null","","","","","","","","","","","","","","","","","","","","","","","","",""
"3747","","image-button-response","56","795331","0.0-54.0","A25N802S4J344I","img_art/11.jpg","1","","","","","","","","","","","","","","","","","","","","","","","","",""
"11212","","image-button-response","57","806545","0.0-55.0-0.0","A25N802S4J344I","img_art/11.jpg","4","","","","","","","","","","","","","","","","","","","","","","","","",""
"8364","","image-button-response","58","814910","0.0-56.0-0.0","A25N802S4J344I","img_art/11.jpg","2","","","","","","","","","","","","","","","","","","","","","","","","",""
"null","","html-keyboard-response","59","815912","0.0-57.0","A25N802S4J344I","<p style=""font-size: 48px;"">+</p>","","","","","null","allTrialResponses","1000","1","2","img_art/11.jpg","23","looks like a cityscape at night","Spencer,Andrew,Nathan,Joseph,Jacob,Shawn","Even with the colors, it is dreary to me,-32,120,20","It's a really cool painting, but it reminds me of bad traffic,-20,160,20","Reminds me of some of post-apocalyptic view of street lights or maybe a city,30,200,20","I like that it could be train tracks, or telephone wires, etc. It's always a means of getting from a to b.,15,220,20","This looks cool, and definitely comes to life in a way,36,340,20","Like the movement but not the background colors.,21,100,20","Andrew","It's a really cool painting, but it reminds me of bad traffic,-20,160,20","Jacob","This looks cool, and definitely comes to life in a way,36,340,20","Nathan","Reminds me of some of post-apocalyptic view of street lights or maybe a city,30,200,20","3"
"53165","","survey-text","60","869084","0.0-58.0-0.0","A25N802S4J344I","","","","{""Q0"":""very textural and interesting colors""}","","","","","","","","","","","","","","","","","","","","","","",""
"7818.199999999721","","image-slider-response","61","876904","0.0-59.0","A25N802S4J344I","","","","","-5","","","","","","","","","","","","","","","","","","","","","",""
"null","","image-button-response","62","881908","0.0-60.0","A25N802S4J344I","img_art/7.jpg","null","","","","","","","","","","","","","","","","","","","","","","","","",""
"11119","","image-button-response","63","893029","0.0-61.0","A25N802S4J344I","img_art/7.jpg","4","","","","","","","","","","","","","","","","","","","","","","","","",""
"2518","","image-button-response","64","895549","0.0-62.0-0.0","A25N802S4J344I","img_art/7.jpg","3","","","","","","","","","","","","","","","","","","","","","","","","",""
"5151","","image-button-response","65","900702","0.0-63.0-0.0","A25N802S4J344I","img_art/7.jpg","1","","","","","","","","","","","","","","","","","","","","","","","","",""
"null","","html-keyboard-response","66","901704","0.0-64.0","A25N802S4J344I","<p style=""font-size: 48px;"">+</p>","","","","","null","allTrialResponses","1000","1","3","img_art/7.jpg","-5","very textural and interesting colors","Dalton,Andrew,Nathan,Corey,Jacob,Charles","i dont like it. it looks like rocks,-40,300,20","It makes me think of new archaeology discoveries,15,160,20","I don't like this kind of color scheme or look they went for,-50,200,20","looks like a close up of irritated skin under a microscope,-49,260,20","Looks like a natural texture, reminds me of rocks.,0,340,20","Looks like a bad picture of a beach,-21,100,20","Jacob","Looks like a natural texture, reminds me of rocks.,0,340,20","Corey","looks like a close up of irritated skin under a microscope,-49,260,20","Andrew","It makes me think of new archaeology discoveries,15,160,20","3"
"46860","","survey-text","67","948572","0.0-65.0-0.0","A25N802S4J344I","","","","{""Q0"":""abstract women on a couch sleeping""}","","","","","","","","","","","","","","","","","","","","","","",""
"6158.100000000093","","image-slider-response","68","954732","0.0-66.0","A25N802S4J344I","","","","","5","","","","","","","","","","","","","","","","","","","","","",""
"null","","image-button-response","69","959734","0.0-67.0","A25N802S4J344I","img_art/9.jpg","null","","","","","","","","","","","","","","","","","","","","","","","","",""
"14569","","image-button-response","70","974306","0.0-68.0","A25N802S4J344I","img_art/9.jpg","3","","","","","","","","","","","","","","","","","","","","","","","","",""
"17806","","image-button-response","71","992114","0.0-69.0-0.0","A25N802S4J344I","img_art/9.jpg","4","","","","","","","","","","","","","","","","","","","","","","","","",""
"4384","","image-button-response","72","996500","0.0-70.0-0.0","A25N802S4J344I","img_art/9.jpg","1","","","","","","","","","","","","","","","","","","","","","","","","",""
"null","","html-keyboard-response","73","998015","0.0-71.0","A25N802S4J344I","<p style=""font-size: 48px;"">+</p>","","","","","null","allTrialResponses","1500","1","4","img_art/9.jpg","5","abstract women on a couch sleeping","Travis,Andrew,Noah,Corey,Jacob,Carlos","Stuipid looking...dumb,-48,260,20","The peacock theme gives me negative connotations of my ex-sister-in-law,-10,160,20","while I don't dispute the art, it feels childish,-20,260,20","keeps me interested. like the colors,17,260,20","So I don't really like this style but it looks somewhat okay,3,340,20","Pleasant in all ways.,27,80,20","Corey","keeps me interested. like the colors,17,260,20","Jacob","So I don't really like this style but it looks somewhat okay,3,340,20","Andrew","The peacock theme gives me negative connotations of my ex-sister-in-law,-10,160,20","3"
"48369","","survey-text","74","1046391","0.0-72.0-0.0","A25N802S4J344I","","","","{""Q0"":""depressing colors and no real point of view""}","","","","","","","","","","","","","","","","","","","","","","",""
"6120.199999999721","","image-slider-response","75","1052513","0.0-73.0","A25N802S4J344I","","","","","-20","","","","","","","","","","","","","","","","","","","","","",""
"null","","image-button-response","76","1057520","0.0-74.0","A25N802S4J344I","img_art/26.jpg","null","","","","","","","","","","","","","","","","","","","","","","","","",""
"11912","","image-button-response","77","1069435","0.0-75.0","A25N802S4J344I","img_art/26.jpg","3","","","","","","","","","","","","","","","","","","","","","","","","",""
"7547","","image-button-response","78","1076985","0.0-76.0-0.0","A25N802S4J344I","img_art/26.jpg","4","","","","","","","","","","","","","","","","","","","","","","","","",""
"14316","","image-button-response","79","1091302","0.0-77.0-0.0","A25N802S4J344I","img_art/26.jpg","2","","","","","","","","","","","","","","","","","","","","","","","","",""
"null","","html-keyboard-response","80","1092814","0.0-78.0","A25N802S4J344I","<p style=""font-size: 48px;"">+</p>","","","","","null","allTrialResponses","1500","1","5","img_art/26.jpg","-20","depressing colors and no real point of view","Thomas,Andrew,Juan,Corey,Jacob,Angel","It feels almost unfinished, but I like the color palette,9,220,20","Makes me want to walk down a cool street,20,160,20","Something I'd see in a thrift store. It looks like not much effort was used to paint this.,9,260,20","its boring and i dont like the color palette,3,260,20","It doesn't look so vibrant, I'm not sure what feelings they were trying to capture,-41,340,20","This piece feels pretty chill like it's just a normal day in the city.,10,180,20","Corey","its boring and i dont like the color palette,3,260,20","Jacob","It doesn't look so vibrant, I'm not sure what feelings they were trying to capture,-41,340,20","Juan","Something I'd see in a thrift store. It looks like not much effort was used to paint this.,9,260,20","3"
"5491","","survey-text","81","1098316","0.0-79.0-0.0","A25N802S4J344I","","","","{""Q0"":""sky""}","","","","","","","","","","","","","","","","","","","","","","",""
"28826","","survey-text","82","1127144","0.0-80.0-0.0","A25N802S4J344I","","","","{""Q0"":""pointless and ugly""}","","","","","","","","","","","","","","","","","","","","","","",""
"6696.299999999814","","image-slider-response","83","1133842","0.0-81.0","A25N802S4J344I","","","","","-41","","","","","","","","","","","","","","","","","","","","","",""
"3340","","image-button-response","84","1138844","0.0-82.0","A25N802S4J344I","img_art/3.jpg","0","","","","","","","","","","","","","","","","","","","","","","","","",""
"2608","","image-button-response","85","1141454","0.0-83.0","A25N802S4J344I","img_art/3.jpg","0","","","","","","","","","","","","","","","","","","","","","","","","",""
"8061","","image-button-response","86","1149518","0.0-84.0-0.0","A25N802S4J344I","img_art/3.jpg","2","","","","","","","","","","","","","","","","","","","","","","","","",""
"8594","","image-button-response","87","1158114","0.0-85.0-0.0","A25N802S4J344I","img_art/3.jpg","4","","","","","","","","","","","","","","","","","","","","","","","","",""
"null","","html-keyboard-response","88","1159116","0.0-86.0","A25N802S4J344I","<p style=""font-size: 48px;"">+</p>","","","","","null","allTrialResponses","1000","1","6","img_art/3.jpg","-41","pointless and ugly","Justin,John,Juan,Corey,Jacob,Christopher","I don't care for art that looks like it was just scribbled.,-19,280,20","Looks like someone spilled ketchup and forgot to clean it up,-30,120,20","It makes me think of just an angry scribble. There's no beauty to it for me.,-50,260,20","seems distressing. a blood scene,-3,260,20","Don't get the scribbles.,-13,340,20","the red is impactful but the work overall doesn't say anything to me,-8,160,20","Justin","I don't care for art that looks like it was just scribbled.,-19,280,20","Juan","It makes me think of just an angry scribble. There's no beauty to it for me.,-50,260,20","Jacob","Don't get the scribbles.,-13,340,20","3"
"33535","","survey-text","89","1192657","0.0-87.0-0.0","A25N802S4J344I","","","","{""Q0"":""eye catching colors and shapes""}","","","","","","","","","","","","","","","","","","","","","","",""
"4192.199999999721","","image-slider-response","90","1196851","0.0-88.0","A25N802S4J344I","","","","","23","","","","","","","","","","","","","","","","","","","","","",""
"3611","","image-button-response","91","1201855","0.0-89.0","A25N802S4J344I","img_art/5.jpg","0","","","","","","","","","","","","","","","","","","","","","","","","",""
"1324","","image-button-response","92","1203182","0.0-90.0","A25N802S4J344I","img_art/5.jpg","0","","","","","","","","","","","","","","","","","","","","","","","","",""
"12029","","image-button-response","93","1215212","0.0-91.0-0.0","A25N802S4J344I","img_art/5.jpg","3","","","","","","","","","","","","","","","","","","","","","","","","",""
"6403","","image-button-response","94","1221618","0.0-92.0-0.0","A25N802S4J344I","img_art/5.jpg","4","","","","","","","","","","","","","","","","","","","","","","","","",""
"null","","html-keyboard-response","95","1222120","0.0-93.0","A25N802S4J344I","<p style=""font-size: 48px;"">+</p>","","","","","null","allTrialResponses","500","1","7","img_art/5.jpg","23","eye catching colors and shapes","Justin,Christian,Juan,Shane,Jacob,Robert","Although it's very simple, there's something about the colors that really draws the eye.,11,280,20","sorry not my style,-37,140,20","The yellow is garish and the picture doesn't look liked anything.,-49,260,20","Seems clean and neat,11,80,20","Don't really know the point of this one.,-11,340,20","This did not do a thing for me.,-50,360,20","Justin","Although it's very simple, there's something about the colors that really draws the eye.,11,280,20","Shane","Seems clean and neat,11,80,20","Jacob","Don't really know the point of this one.,-11,340,20","3"
"49051","","survey-text","96","1271178","0.0-94.0-0.0","A25N802S4J344I","","","","{""Q0"":""interesting abstract city scape next to water""}","","","","","","","","","","","","","","","","","","","","","","",""
"5482","","image-slider-response","97","1276661","0.0-95.0","A25N802S4J344I","","","","","17","","","","","","","","","","","","","","","","","","","","","",""
"null","","image-button-response","98","1281664","0.0-96.0","A25N802S4J344I","img_art/19.jpg","null","","","","","","","","","","","","","","","","","","","","","","","","",""
"8146","","image-button-response","99","1289812","0.0-97.0","A25N802S4J344I","img_art/19.jpg","3","","","","","","","","","","","","","","","","","","","","","","","","",""
"7018","","image-button-response","100","1296832","0.0-98.0-0.0","A25N802S4J344I","img_art/19.jpg","4","","","","","","","","","","","","","","","","","","","","","","","","",""
"4692","","image-button-response","101","1301525","0.0-99.0-0.0","A25N802S4J344I","img_art/19.jpg","5","","","","","","","","","","","","","","","","","","","","","","","","",""
"null","","html-keyboard-response","102","1303031","0.0-100.0","A25N802S4J344I","<p style=""font-size: 48px;"">+</p>","","","","","null","allTrialResponses","1500","1","8","img_art/19.jpg","17","interesting abstract city scape next to water","Justin,Kevin,Jason,Shane,Jacob,Patrick","It looks too much of a rough sketch. Don't really enjoy looking at it.,-9,280,20","Thats a lazy town,-8,320,20","The picture contains a lot of brown and weird drips,-4,20,20","A day in a small city,45,80,20","Vibrant and colorful,13,340,20","I like the vibrant color blocks,13,280,20","Shane","A day in a small city,45,80,20","Jacob","Vibrant and colorful,13,340,20","Patrick","I like the vibrant color blocks,13,280,20","3"
"32721","","survey-text","103","1335759","0.0-101.0-0.0","A25N802S4J344I","","","","{""Q0"":""cannot discern the point of this""}","","","","","","","","","","","","","","","","","","","","","","",""
"6902.4000000003725","","image-slider-response","104","1342663","0.0-102.0","A25N802S4J344I","","","","","-25","","","","","","","","","","","","","","","","","","","","","",""
"null","","image-button-response","105","1347666","0.0-103.0","A25N802S4J344I","img_art/15.jpg","null","","","","","","","","","","","","","","","","","","","","","","","","",""
"4510","","image-button-response","106","1352179","0.0-104.0","A25N802S4J344I","img_art/15.jpg","3","","","","","","","","","","","","","","","","","","","","","","","","",""
"5781","","image-button-response","107","1357963","0.0-105.0-0.0","A25N802S4J344I","img_art/15.jpg","4","","","","","","","","","","","","","","","","","","","","","","","","",""
"2125","","image-button-response","108","1360091","0.0-106.0-0.0","A25N802S4J344I","img_art/15.jpg","5","","","","","","","","","","","","","","","","","","","","","","","","",""
"null","","html-keyboard-response","109","1361101","0.0-107.0","A25N802S4J344I","<p style=""font-size: 48px;"">+</p>","","","","","null","allTrialResponses","1000","1","9","img_art/15.jpg","-25","cannot discern the point of this","Colton,Evan,Gregory,Shane,Jacob,Patrick","it's alright but a little cluttered,14,220,20","I am reminded of spring flowers swaying in the dark night's breeze,9,140,20","Black and blue is my favorite color combination,35,220,20","Too intense with the black dotting,-22,80,20","I think it's trying to execute a cool idea, but unfortunately it doesn't appeal,5,340,20","I don't like the black dots,-19,280,20","Shane","Too intense with the black dotting,-22,80,20","Jacob","I think it's trying to execute a cool idea, but unfortunately it doesn't appeal,5,340,20","Patrick","I don't like the black dots,-19,280,20","3"
"57818","","survey-text","110","1418924","0.0-108.0-0.0","A25N802S4J344I","","","","{""Q0"":""nice color progression, projects depth and texture""}","","","","","","","","","","","","","","","","","","","","","","",""
"4861","","image-slider-response","111","1423787","0.0-109.0","A25N802S4J344I","","","","","26","","","","","","","","","","","","","","","","","","","","","",""
"null","","image-button-response","112","1428789","0.0-110.0","A25N802S4J344I","img_art/13.jpg","null","","","","","","","","","","","","","","","","","","","","","","","","",""
"8707","","image-button-response","113","1437498","0.0-111.0","A25N802S4J344I","img_art/13.jpg","2","","","","","","","","","","","","","","","","","","","","","","","","",""
"3200","","image-button-response","114","1440699","0.0-112.0-0.0","A25N802S4J344I","img_art/13.jpg","1","","","","","","","","","","","","","","","","","","","","","","","","",""
"4406","","image-button-response","115","1445108","0.0-113.0-0.0","A25N802S4J344I","img_art/13.jpg","4","","","","","","","","","","","","","","","","","","","","","","","","",""
"null","","html-keyboard-response","116","1446615","0.0-114.0","A25N802S4J344I","<p style=""font-size: 48px;"">+</p>","","","","","null","allTrialResponses","1500","1","10","img_art/13.jpg","26","nice color progression, projects depth and texture","Logan,Aaron,Devin,Shane,Jacob,Patrick","so simple and stupid this looks like what I did to my cousins wall when we repainted it for her 13th bday,0,360,20","It reminds me of a window on a rainy day.,40,20,20","Really love the colors,11,380,20","Rain drops on a window,35,80,20","The paint splatter idea is kind of overused but I like how it brings the piece together,16,340,20","I love the different blue shades,31,280,20","Devin","Really love the colors,11,380,20","Aaron","It reminds me of a window on a rainy day.,40,20,20","Jacob","The paint splatter idea is kind of overused but I like how it brings the piece together,16,340,20","3"
"4509","","survey-text","117","1451138","0.0-115.0-0.0","A25N802S4J344I","","","","{""Q0"":""our""}","","","","","","","","","","","","","","","","","","","","","","",""
"39863","","survey-text","118","1491003","0.0-116.0-0.0","A25N802S4J344I","","","","{""Q0"":""interesting colors but seems unfinished""}","","","","","","","","","","","","","","","","","","","","","","",""
"6742.200000000186","","image-slider-response","119","1497747","0.0-117.0","A25N802S4J344I","","","","","-3","","","","","","","","","","","","","","","","","","","","","",""
"null","","image-button-response","120","1502750","0.0-118.0","A25N802S4J344I","img_art/14.jpg","null","","","","","","","","","","","","","","","","","","","","","","","","",""
"3905","","image-button-response","121","1506657","0.0-119.0","A25N802S4J344I","img_art/14.jpg","2","","","","","","","","","","","","","","","","","","","","","","","","",""
"29232","","image-button-response","122","1535891","0.0-120.0-0.0","A25N802S4J344I","img_art/14.jpg","0","","","","","","","","","","","","","","","","","","","","","","","","",""
"4752","","image-button-response","123","1540645","0.0-121.0-0.0","A25N802S4J344I","img_art/14.jpg","4","","","","","","","","","","","","","","","","","","","","","","","","",""
"null","","html-keyboard-response","124","1542156","0.0-122.0","A25N802S4J344I","<p style=""font-size: 48px;"">+</p>","","","","","null","allTrialResponses","1500","1","11","img_art/14.jpg","-3","interesting colors but seems unfinished","Alejandro,Aaron,Devin,Garrett,Jacob,Dylan","It looks like a tree but the bleeding water colors lack borders and makes it hard to appreciate the message.,-41,80,20","It reminds me of a tree in the desert.,15,20,20","It looks nice colorwise but detail is lacking,18,380,20","I like this picture because it looks like a tree and the colors used look cool.,20,180,20","I kind of like it!,6,340,20","Pretty, dainty, unique,22,40,20","Devin","It looks nice colorwise but detail is lacking,18,380,20","Alejandro","It looks like a tree but the bleeding water colors lack borders and makes it hard to appreciate the message.,-41,80,20","Jacob","I kind of like it!,6,340,20","3"
"21920","","survey-text","125","1564085","0.0-123.0-0.0","A25N802S4J344I","","","","{""Q0"":""depressing color palette""}","","","","","","","","","","","","","","","","","","","","","","",""
"21304.19999999972","","image-slider-response","126","1585390","0.0-124.0","A25N802S4J344I","","","","","-13","","","","","","","","","","","","","","","","","","","","","",""
"null","","image-button-response","127","1590393","0.0-125.0","A25N802S4J344I","img_art/28.jpg","null","","","","","","","","","","","","","","","","","","","","","","","","",""
"1502","","image-button-response","128","1591897","0.0-126.0","A25N802S4J344I","img_art/28.jpg","2","","","","","","","","","","","","","","","","","","","","","","","","",""
"13947","","image-button-response","129","1605845","0.0-127.0-0.0","A25N802S4J344I","img_art/28.jpg","5","","","","","","","","","","","","","","","","","","","","","","","","",""
"8716","","image-button-response","130","1614562","0.0-128.0-0.0","A25N802S4J344I","img_art/28.jpg","4","","","","","","","","","","","","","","","","","","","","","","","","",""
"null","","html-keyboard-response","131","1615065","0.0-129.0","A25N802S4J344I","<p style=""font-size: 48px;"">+</p>","","","","","null","allTrialResponses","500","1","12","img_art/28.jpg","-13","depressing color palette","Alejandro,Sean,Devin,Hunter,Jacob,Blake","I like the flow and abstract nature of what seems to be humans,40,80,20","it looks alright,-1,40,20","It is a bit drab,-10,380,20","reminds me of kandinsky,14,240,20","I can't tell what's going on but it looks a little bit more lively at least,7,340,20","an old woman in a wheelchair. sad,-35,280,20","Devin","It is a bit drab,-10,380,20","Blake","an old woman in a wheelchair. sad,-35,280,20","Jacob","I can't tell what's going on but it looks a little bit more lively at least,7,340,20","3"
"55261","","survey-text","132","1670334","0.0-130.0-0.0","A25N802S4J344I","","","","{""Q0"":""the blurred shapes work against each other""}","","","","","","","","","","","","","","","","","","","","","","",""
"5296.300000000279","","image-slider-response","133","1675632","0.0-131.0","A25N802S4J344I","","","","","-25","","","","","","","","","","","","","","","","","","","","","",""
"null","","image-button-response","134","1680635","0.0-132.0","A25N802S4J344I","img_art/22.jpg","null","","","","","","","","","","","","","","","","","","","","","","","","",""
"10042","","image-button-response","135","1690678","0.0-133.0","A25N802S4J344I","img_art/22.jpg","1","","","","","","","","","","","","","","","","","","","","","","","","",""
"4383","","image-button-response","136","1695064","0.0-134.0-0.0","A25N802S4J344I","img_art/22.jpg","0","","","","","","","","","","","","","","","","","","","","","","","","",""
"10244","","image-button-response","137","1705310","0.0-135.0-0.0","A25N802S4J344I","img_art/22.jpg","4","","","","","","","","","","","","","","","","","","","","","","","","",""
"null","","html-keyboard-response","138","1705818","0.0-136.0","A25N802S4J344I","<p style=""font-size: 48px;"">+</p>","","","","","null","allTrialResponses","500","1","13","img_art/22.jpg","-25","the blurred shapes work against each other","Devon,Cameron,Devin,Samuel,Jacob,Blake","This represents the hopes in my life.,21,400,20","Like this one, like a sunset,30,60,20","I really like the colors here,3,380,20","ball of light in 90s,8,400,20","I like the mixing of the primary colors.,8,340,20","a lost balloon in outer space,12,280,20","Cameron","Like this one, like a sunset,30,60,20","Devon","This represents the hopes in my life.,21,400,20","Jacob","I like the mixing of the primary colors.,8,340,20","3"
"61441","","survey-text","139","1767268","0.0-137.0-0.0","A25N802S4J344I","","","","{""Q0"":""interesting use of the colors eye catching""}","","","","","","","","","","","","","","","","","","","","","","",""
"6266.100000000559","","image-slider-response","140","1773535","0.0-138.0","A25N802S4J344I","","","","","9","","","","","","","","","","","","","","","","","","","","","",""
"null","","image-button-response","141","1778538","0.0-139.0","A25N802S4J344I","img_art/4.jpg","null","","","","","","","","","","","","","","","","","","","","","","","","",""
"11002","","image-button-response","142","1789542","0.0-140.0","A25N802S4J344I","img_art/4.jpg","5","","","","","","","","","","","","","","","","","","","","","","","","",""
"3492","","image-button-response","143","1793035","0.0-141.0-0.0","A25N802S4J344I","img_art/4.jpg","0","","","","","","","","","","","","","","","","","","","","","","","","",""
"21297","","image-button-response","144","1814335","0.0-142.0-0.0","A25N802S4J344I","img_art/4.jpg","3","","","","","","","","","","","","","","","","","","","","","","","","",""
"null","","html-keyboard-response","145","1814838","0.0-143.0","A25N802S4J344I","<p style=""font-size: 48px;"">+</p>","","","","","null","allTrialResponses","500","1","14","img_art/4.jpg","9","interesting use of the colors eye catching","Devon,Cameron,Bryce,Paul,Jacob,Seth","heart symbol - this tells a story of hidden love,30,400,20","Looks like the roomba got into dog poop,-30,60,20","Not very interesting to look at.,-34,20,20","The dark yellow color makes me think of mustard, which I dislike,-27,300,20","Looks like they just smothered on some paint and called it a day.,-17,340,20","Odd but intriguing. I feel emotion from this. Like a woman bent over carrying these emotions on her back.,33,60,20","Seth","Odd but intriguing. I feel emotion from this. Like a woman bent over carrying these emotions on her back.,33,60,20","Devon","heart symbol - this tells a story of hidden love,30,400,20","Paul","The dark yellow color makes me think of mustard, which I dislike,-27,300,20","3"
"58342","","survey-text","146","1873187","0.0-144.0-0.0","A25N802S4J344I","","","","{""Q0"":""interesting progression of shapes and colors""}","","","","","","","","","","","","","","","","","","","","","","",""
"5927.9000000003725","","image-slider-response","147","1879116","0.0-145.0","A25N802S4J344I","","","","","25","","","","","","","","","","","","","","","","","","","","","",""
"null","","image-button-response","148","1884124","0.0-146.0","A25N802S4J344I","img_art/12.jpg","null","","","","","","","","","","","","","","","","","","","","","","","","",""
"8967","","image-button-response","149","1893095","0.0-147.0","A25N802S4J344I","img_art/12.jpg","3","","","","","","","","","","","","","","","","","","","","","","","","",""
"5090","","image-button-response","150","1898187","0.0-148.0-0.0","A25N802S4J344I","img_art/12.jpg","5","","","","","","","","","","","","","","","","","","","","","","","","",""
"15376","","image-button-response","151","1913564","0.0-149.0-0.0","A25N802S4J344I","img_art/12.jpg","1","","","","","","","","","","","","","","","","","","","","","","","","",""
"null","","html-keyboard-response","152","1914080","0.0-150.0","A25N802S4J344I","<p style=""font-size: 48px;"">+</p>","","","","","null","allTrialResponses","500","1","15","img_art/12.jpg","25","interesting progression of shapes and colors","Devon,Isaac,Dustin,Paul,Steven,Seth","too much - just overcrowded,-20,400,20","I like the gradient of little color on the top to colorful on the bottom.,24,280,20","Squares are rigid. I'm ambivalent.,1,20,20","Reminds me of collages we made in elementary school. I like the contrast of the colors from top to bottom,43,300,20","not my kind of thing,1,160,20","This is beautiful. It looks like 1,000 different sunrises and sunsets.,44,60,20","Paul","Reminds me of collages we made in elementary school. I like the contrast of the colors from top to bottom,43,300,20","Seth","This is beautiful. It looks like 1,000 different sunrises and sunsets.,44,60,20","Isaac","I like the gradient of little color on the top to colorful on the bottom.,24,280,20","3"
"6614","","survey-text","153","1920708","0.0-151.0-0.0","A25N802S4J344I","","","","{""Q0"":""course""}","","","","","","","","","","","","","","","","","","","","","","",""
"32568","","survey-text","154","1953278","0.0-152.0-0.0","A25N802S4J344I","","","","{""Q0"":""a bit ominous but interesting""}","","","","","","","","","","","","","","","","","","","","","","",""
"6196.5","","image-slider-response","155","1959476","0.0-153.0","A25N802S4J344I","","","","","16","","","","","","","","","","","","","","","","","","","","","",""
"null","","image-button-response","156","1964490","0.0-154.0","A25N802S4J344I","img_art/8.jpg","null","","","","","","","","","","","","","","","","","","","","","","","","",""
"352","","image-button-response","157","1964844","0.0-155.0","A25N802S4J344I","img_art/8.jpg","0","","","","","","","","","","","","","","","","","","","","","","","","",""
"14776","","image-button-response","158","1979622","0.0-156.0-0.0","A25N802S4J344I","img_art/8.jpg","4","","","","","","","","","","","","","","","","","","","","","","","","",""
"19738","","image-button-response","159","1999362","0.0-157.0-0.0","A25N802S4J344I","img_art/8.jpg","2","","","","","","","","","","","","","","","","","","","","","","","","",""
"null","","html-keyboard-response","160","1999863","0.0-158.0","A25N802S4J344I","<p style=""font-size: 48px;"">+</p>","","","","","null","allTrialResponses","500","1","16","img_art/8.jpg","16","a bit ominous but interesting","Jeffrey,Isaac,Ryan,Paul,Grant,Seth","Very busy, I want to look at it and investigate,23,40,20","It looks like it took a lot of time to complete.,34,280,20","I love architectural paintings,46,380,20","The faces in the upper left show agony and contrast with the geometric shapes too much,-31,300,20","The stylized faces remind me of German expressionism in a very good way.,40,200,20","I don't care for the piece, but I appreciate the talent that it took to create it.,22,60,20","Jeffrey","Very busy, I want to look at it and investigate,23,40,20","Grant","The stylized faces remind me of German expressionism in a very good way.,40,200,20","Ryan","I love architectural paintings,46,380,20","3"
"65986","","survey-text","161","2065858","0.0-159.0-0.0","A25N802S4J344I","","","","{""Q0"":""this draws you in and holds attention""}","","","","","","","","","","","","","","","","","","","","","","",""
"5527.699999999255","","image-slider-response","162","2071387","0.0-160.0","A25N802S4J344I","","","","","24","","","","","","","","","","","","","","","","","","","","","",""
"4223","","image-button-response","163","2076396","0.0-161.0","A25N802S4J344I","img_art/18.jpg","0","","","","","","","","","","","","","","","","","","","","","","","","",""
"1671","","image-button-response","164","2078069","0.0-162.0","A25N802S4J344I","img_art/18.jpg","0","","","","","","","","","","","","","","","","","","","","","","","","",""
"14229","","image-button-response","165","2092299","0.0-163.0-0.0","A25N802S4J344I","img_art/18.jpg","4","","","","","","","","","","","","","","","","","","","","","","","","",""
"20467","","image-button-response","166","2112769","0.0-164.0-0.0","A25N802S4J344I","img_art/18.jpg","1","","","","","","","","","","","","","","","","","","","","","","","","",""
"null","","html-keyboard-response","167","2114272","0.0-165.0","A25N802S4J344I","<p style=""font-size: 48px;"">+</p>","","","","","null","allTrialResponses","1500","1","17","img_art/18.jpg","24","this draws you in and holds attention","Jeffrey,Bryan,Ryan,Taylor,Grant,Luke","Makes me to look at it and investigate what it is about and what is going on,17,40,20","First saw sailing ship in bad weather but then saw woman in upper left - not sure what I'm seeing.,21,400,20","Too political, not my cup of tea,-50,380,20","Bad guys are after the good guy.,-10,200,20","This is a very energetic painting, and brings to mind scenes of battle.,50,200,20","the harsh lines with the smooth lines makes me think of wild animals,20,20,20","Jeffrey","Makes me to look at it and investigate what it is about and what is going on,17,40,20","Grant","This is a very energetic painting, and brings to mind scenes of battle.,50,200,20","Bryan","First saw sailing ship in bad weather but then saw woman in upper left - not sure what I'm seeing.,21,400,20","3"
"35756","","survey-text","168","2150036","0.0-166.0-0.0","A25N802S4J344I","","","","{""Q0"":""can't begin to understand this""}","","","","","","","","","","","","","","","","","","","","","","",""
"6198.4000000003725","","image-slider-response","169","2156236","0.0-167.0","A25N802S4J344I","","","","","-37","","","","","","","","","","","","","","","","","","","","","",""
"null","","image-button-response","170","2161238","0.0-168.0","A25N802S4J344I","img_art/27.jpg","null","","","","","","","","","","","","","","","","","","","","","","","","",""
"5640","","image-button-response","171","2166880","0.0-169.0","A25N802S4J344I","img_art/27.jpg","1","","","","","","","","","","","","","","","","","","","","","","","","",""
"16266","","image-button-response","172","2183148","0.0-170.0-0.0","A25N802S4J344I","img_art/27.jpg","4","","","","","","","","","","","","","","","","","","","","","","","","",""
"10368","","image-button-response","173","2193518","0.0-171.0-0.0","A25N802S4J344I","img_art/27.jpg","3","","","","","","","","","","","","","","","","","","","","","","","","",""
"null","","html-keyboard-response","174","2194029","0.0-172.0","A25N802S4J344I","<p style=""font-size: 48px;"">+</p>","","","","","null","allTrialResponses","500","1","18","img_art/27.jpg","-37","can't begin to understand this","Jeffrey,Bryan,Marcus,Michael,Grant,Brett","I like the pictures but it is a lot of going on,10,40,20","Not fond of the bad pencil drawing mixed with the drab colors.,-21,400,20","It's okay. Not really interesting to me.,-10,60,20","Anyone could do that.,-31,140,20","This feels like I'm looking at a child's scribbles.,-27,200,20","Soothing in the middle of some confusion,40,360,20","Bryan","Not fond of the bad pencil drawing mixed with the drab colors.,-21,400,20","Grant","This feels like I'm looking at a child's scribbles.,-27,200,20","Michael","Anyone could do that.,-31,140,20","3"
"27072","","survey-text","175","2221109","0.0-173.0-0.0","A25N802S4J344I","","","","{""Q0"":""the color use conveys a lot""}","","","","","","","","","","","","","","","","","","","","","","",""
"4490.4000000003725","","image-slider-response","176","2225601","0.0-174.0","A25N802S4J344I","","","","","23","","","","","","","","","","","","","","","","","","","","","",""
"4377","","image-button-response","177","2230604","0.0-175.0","A25N802S4J344I","img_art/21.jpg","0","","","","","","","","","","","","","","","","","","","","","","","","",""
"1064","","image-button-response","178","2231670","0.0-176.0","A25N802S4J344I","img_art/21.jpg","0","","","","","","","","","","","","","","","","","","","","","","","","",""
"4774","","image-button-response","179","2236446","0.0-177.0-0.0","A25N802S4J344I","img_art/21.jpg","1","","","","","","","","","","","","","","","","","","","","","","","","",""
"20261","","image-button-response","180","2256708","0.0-178.0-0.0","A25N802S4J344I","img_art/21.jpg","4","","","","","","","","","","","","","","","","","","","","","","","","",""
"null","","html-keyboard-response","181","2258211","0.0-179.0","A25N802S4J344I","<p style=""font-size: 48px;"">+</p>","","","","","null","allTrialResponses","1500","1","19","img_art/21.jpg","23","the color use conveys a lot","Adam,Bryan,Jorge,Michael,Grant,Brendan","I like color mix here,15,40,20","Like the colors, the cloudy, airy effects. Nice.,46,400,20","mythical between good and evil,16,180,20","What's the point?,-30,140,20","The colors make me think of a perilous scene at sea, and are pretty interesting.,15,200,20","looks like a sea during some war,27,340,20","Adam","I like color mix here,15,40,20","Bryan","Like the colors, the cloudy, airy effects. Nice.,46,400,20","Grant","The colors make me think of a perilous scene at sea, and are pretty interesting.,15,200,20","3"
"54620","","survey-text","182","2312839","0.0-180.0-0.0","A25N802S4J344I","","","","{""Q0"":""too jumbled and confused""}","","","","","","","","","","","","","","","","","","","","","","",""
"5350.199999999255","","image-slider-response","183","2318191","0.0-181.0","A25N802S4J344I","","","","","-17","","","","","","","","","","","","","","","","","","","","","",""
"null","","image-button-response","184","2323196","0.0-182.0","A25N802S4J344I","img_art/1.jpg","null","","","","","","","","","","","","","","","","","","","","","","","","",""
"5569","","image-button-response","185","2328767","0.0-183.0","A25N802S4J344I","img_art/1.jpg","3","","","","","","","","","","","","","","","","","","","","","","","","",""
"12749","","image-button-response","186","2341517","0.0-184.0-0.0","A25N802S4J344I","img_art/1.jpg","0","","","","","","","","","","","","","","","","","","","","","","","","",""
"5949","","image-button-response","187","2347469","0.0-185.0-0.0","A25N802S4J344I","img_art/1.jpg","2","","","","","","","","","","","","","","","","","","","","","","","","",""
"null","","html-keyboard-response","188","2348981","0.0-186.0","A25N802S4J344I","<p style=""font-size: 48px;"">+</p>","","","","","null","allTrialResponses","1500","1","20","img_art/1.jpg","-17","too jumbled and confused","Adam,Bryan,Lucas,Elijah,Grant,Timothy","Messy mix of primary colors.,-10,40,20","Again, like the colors & abstractness.,29,400,20","The colors match and create a nice artistic disorder.,20,380,20","Makes me feel confused,-6,80,20","The use of reds, blues, and yellows together reminds me of fire. Very interesting to look at.,40,200,20","This one has a pleasent energy,15,240,20","Elijah","Makes me feel confused,-6,80,20","Adam","Messy mix of primary colors.,-10,40,20","Lucas","The colors match and create a nice artistic disorder.,20,380,20","3"
"7276","","survey-text","189","2356273","0.0-187.0-0.0","A25N802S4J344I","","","","{""Q0"":""we""}","","","","","","","","","","","","","","","","","","","","","","",""
"56920","","survey-text","190","2413195","0.0-188.0-0.0","A25N802S4J344I","","","","{""Q0"":""vibrant colors, stream from above""}","","","","","","","","","","","","","","","","","","","","","","",""
"3978.300000000745","","image-slider-response","191","2417174","0.0-189.0","A25N802S4J344I","","","","","12","","","","","","","","","","","","","","","","","","","","","",""
"3162","","image-button-response","192","2422177","0.0-190.0","A25N802S4J344I","img_art/24.jpg","0","","","","","","","","","","","","","","","","","","","","","","","","",""
"625","","image-button-response","193","2422804","0.0-191.0","A25N802S4J344I","img_art/24.jpg","0","","","","","","","","","","","","","","","","","","","","","","","","",""
"12587","","image-button-response","194","2435393","0.0-192.0-0.0","A25N802S4J344I","img_art/24.jpg","2","","","","","","","","","","","","","","","","","","","","","","","","",""
"10934","","image-button-response","195","2446329","0.0-193.0-0.0","A25N802S4J344I","img_art/24.jpg","5","","","","","","","","","","","","","","","","","","","","","","","","",""
"null","","html-keyboard-response","196","2447831","0.0-194.0","A25N802S4J344I","<p style=""font-size: 48px;"">+</p>","","","","","null","allTrialResponses","1500","1","21","img_art/24.jpg","12","vibrant colors, stream from above","Adam,Zachary,Lucas,Elijah,Chase,Alex","I appreciate the earth tones. Soothing.,5,40,20","Looks like a beautiful stream rolling through terrain of rocks and flowers.,43,400,20","Extraordinary and unusual.,30,380,20","Like it, nice attention to details,31,80,20","This one isn't that abstract. It clearly looks like a waterfall.,31,120,20","Looks like a waterfall or a brook, the colors are very nice,15,100,20","Adam","I appreciate the earth tones. Soothing.,5,40,20","Lucas","Extraordinary and unusual.,30,380,20","Alex","Looks like a waterfall or a brook, the colors are very nice,15,100,20","3"
"41986","","survey-text","197","2489826","0.0-195.0-0.0","A25N802S4J344I","","","","{""Q0"":""interesting color scheme but too abstract for me""}","","","","","","","","","","","","","","","","","","","","","","",""
"5904.200000000186","","image-slider-response","198","2495732","0.0-196.0","A25N802S4J344I","","","","","-8","","","","","","","","","","","","","","","","","","","","","",""
"null","","image-button-response","199","2500734","0.0-197.0","A25N802S4J344I","img_art/23.jpg","null","","","","","","","","","","","","","","","","","","","","","","","","",""
"17415","","image-button-response","200","2518152","0.0-198.0","A25N802S4J344I","img_art/23.jpg","5","","","","","","","","","","","","","","","","","","","","","","","","",""
"8976","","image-button-response","201","2527130","0.0-199.0-0.0","A25N802S4J344I","img_art/23.jpg","0","","","","","","","","","","","","","","","","","","","","","","","","",""
"6196","","image-button-response","202","2533328","0.0-200.0-0.0","A25N802S4J344I","img_art/23.jpg","2","","","","","","","","","","","","","","","","","","","","","","","","",""
"null","","html-keyboard-response","203","2533830","0.0-201.0","A25N802S4J344I","<p style=""font-size: 48px;"">+</p>","","","","","null","allTrialResponses","500","1","22","img_art/23.jpg","-8","interesting color scheme but too abstract for me","Adam,Peter,Lucas,Kenneth,Adrian,Alex","I like the color contrast, though I'm unable to tell what the white shapes are.,25,40,20","Reminds me of disco/70's, not my favorite design,-12,320,20","Shocked, beautiful.,20,380,20","Love this. I love the white, really pops with the colors surrounding it.,44,300,20","Too much contrasting colors together. I hate it.,-50,60,20","This is nice, the colorful background is fun and the white looks like dancing figures,5,100,20","Alex","This is nice, the colorful background is fun and the white looks like dancing figures,5,100,20","Adam","I like the color contrast, though I'm unable to tell what the white shapes are.,25,40,20","Lucas","Shocked, beautiful.,20,380,20","3"
"38987","","survey-text","204","2572825","0.0-202.0-0.0","A25N802S4J344I","","","","{""Q0"":""the black and orange demand attention""}","","","","","","","","","","","","","","","","","","","","","","",""
"3754.2999999998137","","image-slider-response","205","2576581","0.0-203.0","A25N802S4J344I","","","","","13","","","","","","","","","","","","","","","","","","","","","",""
"null","","image-button-response","206","2581583","0.0-204.0","A25N802S4J344I","img_art/6.jpg","null","","","","","","","","","","","","","","","","","","","","","","","","",""
"3581","","image-button-response","207","2585167","0.0-205.0","A25N802S4J344I","img_art/6.jpg","3","","","","","","","","","","","","","","","","","","","","","","","","",""
"3809","","image-button-response","208","2588977","0.0-206.0-0.0","A25N802S4J344I","img_art/6.jpg","4","","","","","","","","","","","","","","","","","","","","","","","","",""
"21916","","image-button-response","209","2610895","0.0-207.0-0.0","A25N802S4J344I","img_art/6.jpg","1","","","","","","","","","","","","","","","","","","","","","","","","",""
"null","","html-keyboard-response","210","2612404","0.0-208.0","A25N802S4J344I","<p style=""font-size: 48px;"">+</p>","","","","","null","allTrialResponses","1500","1","23","img_art/6.jpg","13","the black and orange demand attention","Adam,Tanner,Lucas,Edward,Mitchell,Alex","Simple desert scene.,5,40,20","loneliness, fragile, forever alone, a girl who's been there for eternity, only think tracking time is the length of her hair,9,180,20","Nothing special.,-20,380,20","It looks like a bird looking away,32,60,20","Looking, searching at the same time being content.,30,180,20","Definitely belongs at a doctor's office, I think it's a crow or a tree?,-3,100,20","Edward","It looks like a bird looking away,32,60,20","Mitchell","Looking, searching at the same time being content.,30,180,20","Tanner","loneliness, fragile, forever alone, a girl who's been there for eternity, only think tracking time is the length of her hair,9,180,20","3"
"52961","","survey-text","211","2665375","0.0-209.0-0.0","A25N802S4J344I","","","","{""Q0"":""depressing colors with haphazard strokes""}","","","","","","","","","","","","","","","","","","","","","","",""
"7440.200000000186","","image-slider-response","212","2672816","0.0-210.0","A25N802S4J344I","","","","","-23","","","","","","","","","","","","","","","","","","","","","",""
"null","","image-button-response","213","2677824","0.0-211.0","A25N802S4J344I","img_art/30.jpg","null","","","","","","","","","","","","","","","","","","","","","","","","",""
"17149","","image-button-response","214","2694975","0.0-212.0","A25N802S4J344I","img_art/30.jpg","5","","","","","","","","","","","","","","","","","","","","","","","","",""
"5336","","image-button-response","215","2700313","0.0-213.0-0.0","A25N802S4J344I","img_art/30.jpg","1","","","","","","","","","","","","","","","","","","","","","","","","",""
"2032","","image-button-response","216","2702346","0.0-214.0-0.0","A25N802S4J344I","img_art/30.jpg","0","","","","","","","","","","","","","","","","","","","","","","","","",""
"null","","html-keyboard-response","217","2703347","0.0-215.0","A25N802S4J344I","<p style=""font-size: 48px;"">+</p>","","","","","null","allTrialResponses","1000","1","24","img_art/30.jpg","-23","depressing colors with haphazard strokes","Trevor,Tanner,James,Edward,Mitchell,Anthony","it looks like some thing I could make it my garage,-18,280,20","makes me think of a tunnel filled with graffiti,19,180,20","I like the fact that it's a painting.,21,380,20","My son made me a painting that looked like this,26,60,20","connection, Everything is connected even in contrast.,42,180,20","The color scheme used in this piece is very ugly.,-50,200,20","Anthony","The color scheme used in this piece is very ugly.,-50,200,20","Tanner","makes me think of a tunnel filled with graffiti,19,180,20","Trevor","it looks like some thing I could make it my garage,-18,280,20","3"
"48733","","survey-text","218","2752090","0.0-216.0-0.0","A25N802S4J344I","","","","{""Q0"":""interesting use of colors and lines""}","","","","","","","","","","","","","","","","","","","","","","",""
"4038.2999999998137","","image-slider-response","219","2756130","0.0-217.0","A25N802S4J344I","","","","","20","","","","","","","","","","","","","","","","","","","","","",""
"null","","image-button-response","220","2761143","0.0-218.0","A25N802S4J344I","img_art/17.jpg","null","","","","","","","","","","","","","","","","","","","","","","","","",""
"4622","","image-button-response","221","2765768","0.0-219.0","A25N802S4J344I","img_art/17.jpg","2","","","","","","","","","","","","","","","","","","","","","","","","",""
"7980","","image-button-response","222","2773750","0.0-220.0-0.0","A25N802S4J344I","img_art/17.jpg","5","","","","","","","","","","","","","","","","","","","","","","","","",""
"4673","","image-button-response","223","2778426","0.0-221.0-0.0","A25N802S4J344I","img_art/17.jpg","3","","","","","","","","","","","","","","","","","","","","","","","","",""
"null","","html-keyboard-response","224","2778928","0.0-222.0","A25N802S4J344I","<p style=""font-size: 48px;"">+</p>","","","","","null","allTrialResponses","500","1","25","img_art/17.jpg","20","interesting use of colors and lines","Trevor,Tanner,Cody,Jesus,Caleb,Anthony","I like how it looks like a tree. The colors are too muted though,12,280,20","calm, tranquil, happy,50,180,20","Love the colors and the movement,46,180,20","Very fun textures,32,100,20","Not even abstract to me, very clear meaning.,44,40,20","Very elegant, this design reminds me of trees,31,200,20","Cody","Love the colors and the movement,46,180,20","Anthony","Very elegant, this design reminds me of trees,31,200,20","Jesus","Very fun textures,32,100,20","3"
"5855","","survey-text","225","2784799","0.0-223.0-0.0","A25N802S4J344I","","","","{""Q0"":""table""}","","","","","","","","","","","","","","","","","","","","","","",""
"46697","","survey-text","226","2831497","0.0-224.0-0.0","A25N802S4J344I","","","","{""Q0"":""dislike the colors and figures""}","","","","","","","","","","","","","","","","","","","","","","",""
"5552.200000000186","","image-slider-response","227","2837051","0.0-225.0","A25N802S4J344I","","","","","-25","","","","","","","","","","","","","","","","","","","","","",""
"4636","","image-button-response","228","2842062","0.0-226.0","A25N802S4J344I","img_art/16.jpg","2","","","","","","","","","","","","","","","","","","","","","","","","",""
"699","","image-button-response","229","2842763","0.0-227.0","A25N802S4J344I","img_art/16.jpg","2","","","","","","","","","","","","","","","","","","","","","","","","",""
"4009","","image-button-response","230","2846773","0.0-228.0-0.0","A25N802S4J344I","img_art/16.jpg","4","","","","","","","","","","","","","","","","","","","","","","","","",""
"1956","","image-button-response","231","2848732","0.0-229.0-0.0","A25N802S4J344I","img_art/16.jpg","5","","","","","","","","","","","","","","","","","","","","","","","","",""
"null","","html-keyboard-response","232","2849233","0.0-230.0","A25N802S4J344I","<p style=""font-size: 48px;"">+</p>","","","","","null","allTrialResponses","500","1","26","img_art/16.jpg","-25","dislike the colors and figures","Kyle,Miguel,Cody,Jesus,Nicholas,Anthony","I like it because it's quite different from the rest,23,340,20","Very cool abstraction.,19,160,20","Kind of creepyyyyyy,-41,180,20","I like the mixture of images,23,100,20","Creepy teddybear,-50,240,20","Very creepy, it makes me feel uneasy,-31,200,20","Cody","Kind of creepyyyyyy,-41,180,20","Nicholas","Creepy teddybear,-50,240,20","Anthony","Very creepy, it makes me feel uneasy,-31,200,20","3"
"37892","","survey-text","233","2887135","0.0-231.0-0.0","A25N802S4J344I","","","","{""Q0"":""interesting color but creepy subject""}","","","","","","","","","","","","","","","","","","","","","","",""
"4024.399999999441","","image-slider-response","234","2891161","0.0-232.0","A25N802S4J344I","","","","","-7","","","","","","","","","","","","","","","","","","","","","",""
"3124","","image-button-response","235","2896163","0.0-233.0","A25N802S4J344I","img_art/25.jpg","0","","","","","","","","","","","","","","","","","","","","","","","","",""
"625","","image-button-response","236","2896790","0.0-234.0","A25N802S4J344I","img_art/25.jpg","0","","","","","","","","","","","","","","","","","","","","","","","","",""
"8439","","image-button-response","237","2905230","0.0-235.0-0.0","A25N802S4J344I","img_art/25.jpg","4","","","","","","","","","","","","","","","","","","","","","","","","",""
"4998","","image-button-response","238","2910231","0.0-236.0-0.0","A25N802S4J344I","img_art/25.jpg","5","","","","","","","","","","","","","","","","","","","","","","","","",""
"null","","html-keyboard-response","239","2911732","0.0-237.0","A25N802S4J344I","<p style=""font-size: 48px;"">+</p>","","","","","null","allTrialResponses","1500","1","27","img_art/25.jpg","-7","interesting color but creepy subject","Daniel,Luis,Cody,Malik,Nicholas,Anthony","Beautiful color with an interesting otherworldly figure,29,320,20","New life, rising from your personal battles,50,400,20","Like the colors and the figure,30,180,20","Very cryptic and ancient,36,40,20","It is interesting but too creapy for me,-29,240,20","Spooky, but in a good way. I like the green and black color palette.,42,200,20","Daniel","Beautiful color with an interesting otherworldly figure,29,320,20","Nicholas","It is interesting but too creapy for me,-29,240,20","Anthony","Spooky, but in a good way. I like the green and black color palette.,42,200,20","3"
"40661","","survey-text","240","2952402","0.0-238.0-0.0","A25N802S4J344I","","","","{""Q0"":""interesting colors but a little intense""}","","","","","","","","","","","","","","","","","","","","","","",""
"3500.100000000559","","image-slider-response","241","2955904","0.0-239.0","A25N802S4J344I","","","","","7","","","","","","","","","","","","","","","","","","","","","",""
"4977","","image-button-response","242","2960906","0.0-240.0","A25N802S4J344I","img_art/20.jpg","1","","","","","","","","","","","","","","","","","","","","","","","","",""
"11226","","image-button-response","243","2972134","0.0-241.0","A25N802S4J344I","img_art/20.jpg","4","","","","","","","","","","","","","","","","","","","","","","","","",""
"16005","","image-button-response","244","2988142","0.0-242.0-0.0","A25N802S4J344I","img_art/20.jpg","2","","","","","","","","","","","","","","","","","","","","","","","","",""
"7717","","image-button-response","245","2995862","0.0-243.0-0.0","A25N802S4J344I","img_art/20.jpg","1","","","","","","","","","","","","","","","","","","","","","","","","",""
"null","","html-keyboard-response","246","2996866","0.0-244.0","A25N802S4J344I","<p style=""font-size: 48px;"">+</p>","","","","","null","allTrialResponses","1000","1","28","img_art/20.jpg","7","interesting colors but a little intense","Daniel,Eric,Vincent,Cole,Nicholas,Anthony","Fails to capture what similar styles do,-12,320,20","I love the color choice.,25,100,20","I love the colors and coukd spend alot of time with the picture,33,360,20","Someone trying to be dali,-15,200,20","Use of white on foreground is too big and steals eyes away from rest of painting,2,240,20","Neutral, this piece doesn't strike me as particularly bad or good,0,200,20","Nicholas","Use of white on foreground is too big and steals eyes away from rest of painting,2,240,20","Vincent","I love the colors and coukd spend alot of time with the picture,33,360,20","Eric","I love the color choice.,25,100,20","3"
"22875","","survey-text","247","3019752","0.0-245.0-0.0","A25N802S4J344I","","","","{""Q0"":""too jumbled with no point""}","","","","","","","","","","","","","","","","","","","","","","",""
"4538.0999999996275","","image-slider-response","248","3024292","0.0-246.0","A25N802S4J344I","","","","","-22","","","","","","","","","","","","","","","","","","","","","",""
"null","","image-button-response","249","3029294","0.0-247.0","A25N802S4J344I","img_art/2.jpg","null","","","","","","","","","","","","","","","","","","","","","","","","",""
"11989","","image-button-response","250","3041286","0.0-248.0","A25N802S4J344I","img_art/2.jpg","5","","","","","","","","","","","","","","","","","","","","","","","","",""
"7734","","image-button-response","251","3049022","0.0-249.0-0.0","A25N802S4J344I","img_art/2.jpg","0","","","","","","","","","","","","","","","","","","","","","","","","",""
"4952","","image-button-response","252","3053976","0.0-250.0-0.0","A25N802S4J344I","img_art/2.jpg","1","","","","","","","","","","","","","","","","","","","","","","","","",""
"null","","html-keyboard-response","253","3054477","0.0-251.0","A25N802S4J344I","<p style=""font-size: 48px;"">+</p>","","","","","null","allTrialResponses","500","1","29","img_art/2.jpg","-22","too jumbled with no point","Matthew,Eric,Vincent,Derek,Nicholas,Ian","I think I can make out a face in there.,25,120,20","I like the color, but I feel like I see a creepy face which I dislike.,-5,100,20","This reminds me of a peaceful day out alone shopping and spending some me time,41,360,20","Not my favorite but I can see this being hung in a art museum,25,360,20","Cute and happy,22,240,20","I don't really like this but at the same time it's cute. It looks like a little monster kid.,-9,260,20","Ian","I don't really like this but at the same time it's cute. It looks like a little monster kid.,-9,260,20","Matthew","I think I can make out a face in there.,25,120,20","Eric","I like the color, but I feel like I see a creepy face which I dislike.,-5,100,20","3"
"28902","","survey-text","254","3083389","0.0-252.0-0.0","A25N802S4J344I","","","","{""Q0"":""depressing colors but interesting texture""}","","","","","","","","","","","","","","","","","","","","","","",""
"3968.199999999255","","image-slider-response","255","3087358","0.0-253.0","A25N802S4J344I","","","","","-7","","","","","","","","","","","","","","","","","","","","","",""
"null","","image-button-response","256","3092371","0.0-254.0","A25N802S4J344I","img_art/29.jpg","null","","","","","","","","","","","","","","","","","","","","","","","","",""
"10837","","image-button-response","257","3103211","0.0-255.0","A25N802S4J344I","img_art/29.jpg","4","","","","","","","","","","","","","","","","","","","","","","","","",""
"5460","","image-button-response","258","3108673","0.0-256.0-0.0","A25N802S4J344I","img_art/29.jpg","3","","","","","","","","","","","","","","","","","","","","","","","","",""
"26928","","image-button-response","259","3135603","0.0-257.0-0.0","A25N802S4J344I","img_art/29.jpg","5","","","","","","","","","","","","","","","","","","","","","","","","",""
"null","","html-keyboard-response","260","3136605","0.0-258.0","A25N802S4J344I","<p style=""font-size: 48px;"">+</p>","","","","","null","allTrialResponses","1000","1","30","img_art/29.jpg","-7","depressing colors but interesting texture","Matthew,Eric,Victor,Scott,Antonio,Ian","It that an actual PAINTBUSH! Love it.,50,120,20","I like that the colors are toned down even though they're everywhere.,5,100,20","I like the colors but it looks very amateur,1,340,20","feels random and not thoughtout,-37,20,20","Depressing and with that big red x on it just makes me not like it.,-33,220,20","This feels chaotic and I like the energy that it gives off.,21,260,20","Antonio","Depressing and with that big red x on it just makes me not like it.,-33,220,20","Scott","feels random and not thoughtout,-37,20,20","Ian","This feels chaotic and I like the energy that it gives off.,21,260,20","3"
"6005","","image-button-response_instructions","261","3142621","0.0-259.0","A25N802S4J344I","","0","instructions","","","","","","","","","","","","","","","","","","","","","","","",""
"1639","","image-button-response","262","3144265","0.0-260.0","A25N802S4J344I","","0","","","","","","","","","","","","","","","","","","","","","","","","",""
