"rt","url","trial_type","trial_index","time_elapsed","internal_node_id","participant_id","stimulus","button_pressed","Name","responses","response","key_press","variableName","fixationTime","condition","trial","photo","subjectRating","subjectResponse","agentsNames","agent_1_Response","agent_2_Response","agent_3_Response","agent_4_Response","agent_5_Response","agent_6_Response","kept_1_name","kept_1_response","kept_2_name","kept_2_response","kept_3_name","kept_3_response","errorCounter"
"12723","external_page_harvard.html","external-html","0","13287","0.0-0.0","A25Q1FKANAEYNH","","","","","","","","","","","","","","","","","","","","","","","","","","",""
"1388","","image-button-response","1","14677","0.0-1.0","A25Q1FKANAEYNH","","0","","","","","","","","","","","","","","","","","","","","","","","","",""
"1977","","image-button-response","2","16661","0.0-2.0-0.0","A25Q1FKANAEYNH","","1","phone","","","","","","","","","","","","","","","","","","","","","","","",""
"10269","","survey-text","3","26933","0.0-3.0-0.0","A25Q1FKANAEYNH","","","","{""Q0"":""A25Q1FKANAEYNH""}","","","","","","","","","","","","","","","","","","","","","","",""
"4053","","image-button-response_instructions","4","30989","0.0-4.0","A25Q1FKANAEYNH","","0","instructions","","","","","","","","","","","","","","","","","","","","","","","",""
"7229","","image-button-response_instructions","5","38221","0.0-5.0","A25Q1FKANAEYNH","img_art/ins/popularity/ins1.png","0","instructions","","","","","","","","","","","","","","","","","","","","","","","",""
"3062","","image-button-response_instructions","6","41284","0.0-6.0","A25Q1FKANAEYNH","img_art/ins/popularity/ins2.png","0","instructions","","","","","","","","","","","","","","","","","","","","","","","",""
"2439","","image-button-response_instructions","7","43725","0.0-7.0","A25Q1FKANAEYNH","img_art/ins/popularity/ins2Extreme.png","0","instructions","","","","","","","","","","","","","","","","","","","","","","","",""
"4526","","image-button-response_instructions","8","48253","0.0-8.0","A25Q1FKANAEYNH","img_art/ins/popularity/ins3KEEPpop.PNG","0","instructions","","","","","","","","","","","","","","","","","","","","","","","",""
"3340","","image-button-response_instructions","9","51596","0.0-9.0","A25Q1FKANAEYNH","img_art/ins/popularity/ins3ANamepop.PNG","0","instructions","","","","","","","","","","","","","","","","","","","","","","","",""
"3326","","image-button-response_instructions","10","54924","0.0-10.0","A25Q1FKANAEYNH","img_art/ins/popularity/ins3ARatingpop.png","0","instructions","","","","","","","","","","","","","","","","","","","","","","","",""
"3678","","image-button-response_instructions","11","58604","0.0-11.0","A25Q1FKANAEYNH","img_art/ins/popularity/ins3ATextpop.png","0","instructions","","","","","","","","","","","","","","","","","","","","","","","",""
"4751","","image-button-response_instructions","12","63356","0.0-12.0","A25Q1FKANAEYNH","img_art/ins/popularity/ins3ALikespop.png","0","instructions","","","","","","","","","","","","","","","","","","","","","","","",""
"1302","","image-button-response_instructions","13","64660","0.0-13.0","A25Q1FKANAEYNH","img_art/ins/popularity/ins3KEEPpop.PNG","0","instructions","","","","","","","","","","","","","","","","","","","","","","","",""
"1510","","image-button-response_instructions","14","66172","0.0-14.0","A25Q1FKANAEYNH","img_art/ins/popularity/ins3_5RED.png","0","instructions","","","","","","","","","","","","","","","","","","","","","","","",""
"7982","","image-button-response_instructions","15","74156","0.0-15.0","A25Q1FKANAEYNH","img_art/ins/popularity/ins3KEEPpop.PNG","0","instructions","","","","","","","","","","","","","","","","","","","","","","","",""
"39015","","image-button-response_instructions","16","113172","0.0-16.0","A25Q1FKANAEYNH","img_art/ins/popularity/ins4KEEPpop.PNG","0","instructions","","","","","","","","","","","","","","","","","","","","","","","",""
"1663","","image-button-response_instructions","17","114836","0.0-17.0","A25Q1FKANAEYNH","img_art/ins/popularity/ins5KEEPpop.PNG","0","instructions","","","","","","","","","","","","","","","","","","","","","","","",""
"1038","","image-button-response_instructions","18","115877","0.0-18.0","A25Q1FKANAEYNH","","0","instructions","","","","","","","","","","","","","","","","","","","","","","","",""
"9442","","survey-text","19","125372","0.0-19.0-0.0","A25Q1FKANAEYNH","","","","{""Q0"":""but""}","","","","","","","","","","","","","","","","","","","","","","",""
"7166","","survey-text","20","132540","0.0-20.0-0.0","A25Q1FKANAEYNH","","","","{""Q0"":""looks like a mess""}","","","","","","","","","","","","","","","","","","","","","","",""
"8312.89999999851","","image-slider-response","21","140868","0.0-21.0","A25Q1FKANAEYNH","","","","","-50","","","","","","","","","","","","","","","","","","","","","",""
"null","","image-button-response","22","145874","0.0-22.0","A25Q1FKANAEYNH","img_art/ins/1.jpg","null","","","","","","","","","","","","","","","","","","","","","","","","",""
"10441","","image-button-response","23","156318","0.0-23.0","A25Q1FKANAEYNH","img_art/ins/1.jpg","4","","","","","","","","","","","","","","","","","","","","","","","","",""
"4164","","image-button-response","24","160485","0.0-24.0-0.0","A25Q1FKANAEYNH","img_art/ins/1.jpg","2","","","","","","","","","","","","","","","","","","","","","","","","",""
"3804","","image-button-response","25","164293","0.0-25.0-0.0","A25Q1FKANAEYNH","img_art/ins/1.jpg","0","","","","","","","","","","","","","","","","","","","","","","","","",""
"null","","html-keyboard-response","26","165296","0.0-26.0","A25Q1FKANAEYNH","<p style=""font-size: 48px;"">+</p>","","","","","null","allTrialResponses","1000","1","-2","img_art/ins/1.jpg","-50","looks like a mess","Adam,Alex,Ben,Carl,Daniel,Jack","Seems like doodles,-20,20,20","very creative work.,36,40,20","This color reminds me of poo,-46,60,20","very calming artwork,42,80,20","It looks like a murder scene.,-48,100,20","I like the sophisticated brushwork,40,120,20","Daniel","It looks like a murder scene.,-48,100,20","Ben","This color reminds me of poo,-46,60,20","Adam","Seems like doodles,-20,20,20","0"
"12949","","survey-text","27","178251","0.0-27.0-0.0","A25Q1FKANAEYNH","","","","{""Q0"":""I don't see what's special ""}","","","","","","","","","","","","","","","","","","","","","","",""
"3598.10000000149","","image-slider-response","28","181852","0.0-28.0","A25Q1FKANAEYNH","","","","","-50","","","","","","","","","","","","","","","","","","","","","",""
"3845","","image-button-response","29","186855","0.0-29.0","A25Q1FKANAEYNH","img_art/ins/2.jpg","3","","","","","","","","","","","","","","","","","","","","","","","","",""
"1339","","image-button-response","30","188197","0.0-30.0","A25Q1FKANAEYNH","img_art/ins/2.jpg","3","","","","","","","","","","","","","","","","","","","","","","","","",""
"565","","image-button-response","31","188764","0.0-31.0-0.0","A25Q1FKANAEYNH","img_art/ins/2.jpg","4","","","","","","","","","","","","","","","","","","","","","","","","",""
"1205","","image-button-response","32","189972","0.0-32.0-0.0","A25Q1FKANAEYNH","img_art/ins/2.jpg","2","","","","","","","","","","","","","","","","","","","","","","","","",""
"null","","html-keyboard-response","33","190473","0.0-33.0","A25Q1FKANAEYNH","<p style=""font-size: 48px;"">+</p>","","","","","null","allTrialResponses","500","1","-1","img_art/ins/2.jpg","-50","I don't see what's special ","Adam,John,Ben,James,Daniel,Kyle","too much color,-18,20,20","love the texture of paint,48,160,20","meaningless painting,-45,60,20","looks too angry,-50,140,20","One of my pet peevs,-48,100,20","Idk, it is just annoying,-32,180,20","James","looks too angry,-50,140,20","Daniel","One of my pet peevs,-48,100,20","Ben","meaningless painting,-45,60,20","0"
"10236","","survey-text","34","200716","0.0-34.0-0.0","A25Q1FKANAEYNH","","","","{""Q0"":""oooopss I spill the paint""}","","","","","","","","","","","","","","","","","","","","","","",""
"3565.39999999851","","image-slider-response","35","204284","0.0-35.0","A25Q1FKANAEYNH","","","","","-50","","","","","","","","","","","","","","","","","","","","","",""
"2829","","image-button-response","36","209287","0.0-36.0","A25Q1FKANAEYNH","img_art/ins/3.jpg","3","","","","","","","","","","","","","","","","","","","","","","","","",""
"3154","","image-button-response","37","212444","0.0-37.0","A25Q1FKANAEYNH","img_art/ins/3.jpg","4","","","","","","","","","","","","","","","","","","","","","","","","",""
"2581","","image-button-response","38","215028","0.0-38.0-0.0","A25Q1FKANAEYNH","img_art/ins/3.jpg","2","","","","","","","","","","","","","","","","","","","","","","","","",""
"2221","","image-button-response","39","217252","0.0-39.0-0.0","A25Q1FKANAEYNH","img_art/ins/3.jpg","3","","","","","","","","","","","","","","","","","","","","","","","","",""
"null","","html-keyboard-response","40","218254","0.0-40.0","A25Q1FKANAEYNH","<p style=""font-size: 48px;"">+</p>","","","","","null","allTrialResponses","1000","1","0","img_art/ins/3.jpg","-50","oooopss I spill the paint","Mike,Ron,Ben,James,Daniel,Sam","enjoy the different shades of blue,22,200,20","It looks depressing,-26,220,20","This thing gives me anxiety,-41,60,20","My worst nightmare,-42,140,20","looks like a murder room,-35,100,20","I can feel a rainy day from this painting,18,240,20","Daniel","looks like a murder room,-35,100,20","Ben","This thing gives me anxiety,-41,60,20","James","My worst nightmare,-42,140,20","0"
"4960","","image-button-response_instructions","41","223220","0.0-41.0","A25Q1FKANAEYNH","","0","instructions","","","","","","","","","","","","","","","","","","","","","","","",""
"17797","","survey-likert","42","241020","0.0-42.0-0.0","A25Q1FKANAEYNH","","","","{""Q0"":"""",""Q1"":0,""Q2"":1}","","","","","","","","","","","","","","","","","","","","","","",""
"8473","","survey-text","43","249500","0.0-43.0-0.0","A25Q1FKANAEYNH","","","","{""Q0"":""rock""}","","","","","","","","","","","","","","","","","","","","","","",""
"17741","","survey-text","44","267243","0.0-44.0-0.0","A25Q1FKANAEYNH","","","","{""Q0"":""looks like someone spilled the paint""}","","","","","","","","","","","","","","","","","","","","","","",""
"3710","","image-slider-response","45","270955","0.0-45.0","A25Q1FKANAEYNH","","","","","-42","","","","","","","","","","","","","","","","","","","","","",""
"3293","","image-button-response","46","275991","0.0-46.0","A25Q1FKANAEYNH","img_art/1.jpg","5","","","","","","","","","","","","","","","","","","","","","","","","",""
"627","","image-button-response","47","276620","0.0-47.0","A25Q1FKANAEYNH","img_art/1.jpg","1","","","","","","","","","","","","","","","","","","","","","","","","",""
"854","","image-button-response","48","277476","0.0-48.0-0.0","A25Q1FKANAEYNH","img_art/1.jpg","0","","","","","","","","","","","","","","","","","","","","","","","","",""
"3278","","image-button-response","49","280756","0.0-49.0-0.0","A25Q1FKANAEYNH","img_art/1.jpg","5","","","","","","","","","","","","","","","","","","","","","","","","",""
"null","","html-keyboard-response","50","281259","0.0-50.0","A25Q1FKANAEYNH","<p style=""font-size: 48px;"">+</p>","","","","","null","allTrialResponses","500","1","1","img_art/1.jpg","-42","looks like someone spilled the paint","Miguel,Carlos,Gabriel,Logan,Grant,Patrick","Doesn't represent anything in particular.,-47,160,20","Colors are pleasant, but feels incredibly generic.,9,80,20","this ones alright,10,160,20","looks like an earlier painting. I wish I gave it -20 but oh well,21,360,20","The use of reds, blues, and yellows together reminds me of fire. Very interesting to look at.,40,200,20","I feel uneasy looking at this,-41,280,20","Carlos","Colors are pleasant, but feels incredibly generic.,9,80,20","Miguel","Doesn't represent anything in particular.,-47,160,20","Patrick","I feel uneasy looking at this,-41,280,20","0"
"22668","","survey-text","51","303932","0.0-51.0-0.0","A25Q1FKANAEYNH","","","","{""Q0"":""beautiful child art""}","","","","","","","","","","","","","","","","","","","","","","",""
"4549.5","","image-slider-response","52","308484","0.0-52.0","A25Q1FKANAEYNH","","","","","5","","","","","","","","","","","","","","","","","","","","","",""
"null","","image-button-response","53","313487","0.0-53.0","A25Q1FKANAEYNH","img_art/27.jpg","null","","","","","","","","","","","","","","","","","","","","","","","","",""
"2162","","image-button-response","54","315652","0.0-54.0","A25Q1FKANAEYNH","img_art/27.jpg","0","","","","","","","","","","","","","","","","","","","","","","","","",""
"3230","","image-button-response","55","318884","0.0-55.0-0.0","A25Q1FKANAEYNH","img_art/27.jpg","1","","","","","","","","","","","","","","","","","","","","","","","","",""
"1533","","image-button-response","56","320421","0.0-56.0-0.0","A25Q1FKANAEYNH","img_art/27.jpg","5","","","","","","","","","","","","","","","","","","","","","","","","",""
"null","","html-keyboard-response","57","321423","0.0-57.0","A25Q1FKANAEYNH","<p style=""font-size: 48px;"">+</p>","","","","","null","allTrialResponses","1000","1","2","img_art/27.jpg","5","beautiful child art","Miguel,Carlos,Robert,Taylor,Peter,Patrick","Adult contemporary painting with child.,-33,160,20","The green lines disrupt the image in an unpleasant and hurried way.,-30,80,20","The black sketchy over the colors doesn't fit.,-4,360,20","Looks like a child added his own interpretation with a black marker.,-5,200,20","Calming sky , relaxing,23,320,20","Not cohesive design,-31,280,20","Miguel","Adult contemporary painting with child.,-33,160,20","Carlos","The green lines disrupt the image in an unpleasant and hurried way.,-30,80,20","Patrick","Not cohesive design,-31,280,20","0"
"18471","","survey-text","58","339900","0.0-58.0-0.0","A25Q1FKANAEYNH","","","","{""Q0"":""my child drew this for me""}","","","","","","","","","","","","","","","","","","","","","","",""
"9605.39999999851","","image-slider-response","59","349508","0.0-59.0","A25Q1FKANAEYNH","","","","","6","","","","","","","","","","","","","","","","","","","","","",""
"4973","","image-button-response","60","354511","0.0-60.0","A25Q1FKANAEYNH","img_art/3.jpg","3","","","","","","","","","","","","","","","","","","","","","","","","",""
"8515","","image-button-response","61","363028","0.0-61.0","A25Q1FKANAEYNH","img_art/3.jpg","5","","","","","","","","","","","","","","","","","","","","","","","","",""
"2037","","image-button-response","62","365068","0.0-62.0-0.0","A25Q1FKANAEYNH","img_art/3.jpg","0","","","","","","","","","","","","","","","","","","","","","","","","",""
"2045","","image-button-response","63","367116","0.0-63.0-0.0","A25Q1FKANAEYNH","img_art/3.jpg","3","","","","","","","","","","","","","","","","","","","","","","","","",""
"null","","html-keyboard-response","64","368119","0.0-64.0","A25Q1FKANAEYNH","<p style=""font-size: 48px;"">+</p>","","","","","null","allTrialResponses","1000","1","3","img_art/3.jpg","6","my child drew this for me","Miguel,Carlos,Lucas,Dustin,Mason,Patrick","Unfocused and rushed.,-28,160,20","The composition keeps the eye moving, the colors are satisfying.,31,80,20","Mysterious, remarkable.,30,380,20","Messy. Looks like a children's drawing being passed off as expensive art. Too much red.,-50,20,20","scribbles in red. 2 minute piece.,-30,100,20","Random use of red and looks scary,-50,280,20","Patrick","Random use of red and looks scary,-50,280,20","Miguel","Unfocused and rushed.,-28,160,20","Dustin","Messy. Looks like a children's drawing being passed off as expensive art. Too much red.,-50,20,20","0"
"13591","","survey-text","65","381715","0.0-65.0-0.0","A25Q1FKANAEYNH","","","","{""Q0"":""looks like my morning""}","","","","","","","","","","","","","","","","","","","","","","",""
"3813.6999999955297","","image-slider-response","66","385532","0.0-66.0","A25Q1FKANAEYNH","","","","","2","","","","","","","","","","","","","","","","","","","","","",""
"null","","image-button-response","67","390535","0.0-67.0","A25Q1FKANAEYNH","img_art/26.jpg","null","","","","","","","","","","","","","","","","","","","","","","","","",""
"171","","image-button-response","68","390708","0.0-68.0","A25Q1FKANAEYNH","img_art/26.jpg","0","","","","","","","","","","","","","","","","","","","","","","","","",""
"10685","","image-button-response","69","401396","0.0-69.0-0.0","A25Q1FKANAEYNH","img_art/26.jpg","3","","","","","","","","","","","","","","","","","","","","","","","","",""
"1149","","image-button-response","70","402548","0.0-70.0-0.0","A25Q1FKANAEYNH","img_art/26.jpg","0","","","","","","","","","","","","","","","","","","","","","","","","",""
"846","","image-button-response","71","407189","0.0-70.1-0.1","A25Q1FKANAEYNH","img_art/26.jpg","5","","","","","","","","","","","","","","","","","","","","","","","","",""
"null","","html-keyboard-response","72","408192","0.0-71.0","A25Q1FKANAEYNH","<p style=""font-size: 48px;"">+</p>","","","","","null","allTrialResponses","1000","1","4","img_art/26.jpg","2","looks like my morning","Miguel,Nicholas,Matthew,Dustin,Jeremy,Patrick","Murky, messy, kid like.,-45,160,20","I like the colors and trees. Seems cheap vintage retail store art but i love it anyways,50,240,20","Telented watercolor artist or second grader.,18,120,20","Reminds me of watercolor. Muted tones and blurry soft brush strokes. Calm to me.,1,20,20","somewhat happy, like being outside on a nice day,30,60,20","I can somewhat city a city in this drawing,11,280,20","Miguel","Murky, messy, kid like.,-45,160,20","Dustin","Reminds me of watercolor. Muted tones and blurry soft brush strokes. Calm to me.,1,20,20","Patrick","I can somewhat city a city in this drawing,11,280,20","2"
"29232","","survey-text","73","437428","0.0-72.0-0.0","A25Q1FKANAEYNH","","","","{""Q0"":""what is this?""}","","","","","","","","","","","","","","","","","","","","","","",""
"4573.80000000447","","image-slider-response","74","442004","0.0-73.0","A25Q1FKANAEYNH","","","","","-21","","","","","","","","","","","","","","","","","","","","","",""
"4461","","image-button-response","75","447006","0.0-74.0","A25Q1FKANAEYNH","img_art/4.jpg","0","","","","","","","","","","","","","","","","","","","","","","","","",""
"524","","image-button-response","76","447533","0.0-75.0","A25Q1FKANAEYNH","img_art/4.jpg","3","","","","","","","","","","","","","","","","","","","","","","","","",""
"782","","image-button-response","77","448317","0.0-76.0-0.0","A25Q1FKANAEYNH","img_art/4.jpg","5","","","","","","","","","","","","","","","","","","","","","","","","",""
"2404","","image-button-response","78","450724","0.0-77.0-0.0","A25Q1FKANAEYNH","img_art/4.jpg","1","","","","","","","","","","","","","","","","","","","","","","","","",""
"null","","html-keyboard-response","79","451726","0.0-78.0","A25Q1FKANAEYNH","<p style=""font-size: 48px;"">+</p>","","","","","null","allTrialResponses","1000","1","5","img_art/4.jpg","-21","what is this?","Miguel,Tanner,Vincent,Dustin,Devon,Patrick","I don't like murky colors.,-40,160,20","stresses me out, uncomfortable,-18,180,20","I like it not sure much of how I feel about it,7,360,20","Warm colors, but too random. I feel like I'm seeing something mangled. It is unpleasant.,-30,20,20","heart symbol - this tells a story of hidden love,30,400,20","Random swirls again,-30,280,20","Dustin","Warm colors, but too random. I feel like I'm seeing something mangled. It is unpleasant.,-30,20,20","Patrick","Random swirls again,-30,280,20","Tanner","stresses me out, uncomfortable,-18,180,20","2"
"6356","","survey-text","80","458092","0.0-79.0-0.0","A25Q1FKANAEYNH","","","","{""Q0"":""sky""}","","","","","","","","","","","","","","","","","","","","","","",""
"10750","","survey-text","81","468844","0.0-80.0-0.0","A25Q1FKANAEYNH","","","","{""Q0"":""my world in a painting""}","","","","","","","","","","","","","","","","","","","","","","",""
"6013.4000000059605","","image-slider-response","82","474860","0.0-81.0","A25Q1FKANAEYNH","","","","","21","","","","","","","","","","","","","","","","","","","","","",""
"4853","","image-button-response","83","479863","0.0-82.0","A25Q1FKANAEYNH","img_art/21.jpg","4","","","","","","","","","","","","","","","","","","","","","","","","",""
"1594","","image-button-response","84","481460","0.0-83.0","A25Q1FKANAEYNH","img_art/21.jpg","5","","","","","","","","","","","","","","","","","","","","","","","","",""
"1381","","image-button-response","85","482844","0.0-84.0-0.0","A25Q1FKANAEYNH","img_art/21.jpg","4","","","","","","","","","","","","","","","","","","","","","","","","",""
"3350","","image-button-response","86","486196","0.0-85.0-0.0","A25Q1FKANAEYNH","img_art/21.jpg","1","","","","","","","","","","","","","","","","","","","","","","","","",""
"null","","html-keyboard-response","87","486698","0.0-86.0","A25Q1FKANAEYNH","<p style=""font-size: 48px;"">+</p>","","","","","null","allTrialResponses","500","1","6","img_art/21.jpg","21","my world in a painting","Garrett,Tanner,Richard,Dustin,Malik,Patrick","I like the sky a little bit the way the colors look for the sky, the cliff side looks a little weird though.,10,180,20","calm, ship at sea, sunset,16,180,20","setting sun sky? nice colors and blending,14,340,20","Immediately a positive response! I like the muted colors. the blurriness calms me. It's serene,40,20,20","Indistinct, but beautiful hues,10,40,20","It looks confusing,-21,280,20","Patrick","It looks confusing,-21,280,20","Malik","Indistinct, but beautiful hues,10,40,20","Tanner","calm, ship at sea, sunset,16,180,20","2"
"15924","","survey-text","88","502627","0.0-87.0-0.0","A25Q1FKANAEYNH","","","","{""Q0"":""I'm hungry now""}","","","","","","","","","","","","","","","","","","","","","","",""
"4365.80000000447","","image-slider-response","89","506995","0.0-88.0","A25Q1FKANAEYNH","","","","","-14","","","","","","","","","","","","","","","","","","","","","",""
"null","","image-button-response","90","511999","0.0-89.0","A25Q1FKANAEYNH","img_art/23.jpg","null","","","","","","","","","","","","","","","","","","","","","","","","",""
"1170","","image-button-response","91","513172","0.0-90.0","A25Q1FKANAEYNH","img_art/23.jpg","5","","","","","","","","","","","","","","","","","","","","","","","","",""
"1550","","image-button-response","92","514724","0.0-91.0-0.0","A25Q1FKANAEYNH","img_art/23.jpg","2","","","","","","","","","","","","","","","","","","","","","","","","",""
"333","","image-button-response","93","515059","0.0-92.0-0.0","A25Q1FKANAEYNH","img_art/23.jpg","1","","","","","","","","","","","","","","","","","","","","","","","","",""
"null","","html-keyboard-response","94","516561","0.0-93.0","A25Q1FKANAEYNH","<p style=""font-size: 48px;"">+</p>","","","","","null","allTrialResponses","1500","1","7","img_art/23.jpg","-14","I'm hungry now","Blake,Tanner,Jason,Derek,Malik,Patrick","cold and dark feeling,-27,280,20","fsiries, happy, spiritual,16,180,20","Interesting contrast,9,20,20","Very colorful and wild. It's cool and I like it,32,360,20","Very intense and unique,3,40,20","Beautiful color scheme,21,280,20","Patrick","Beautiful color scheme,21,280,20","Jason","Interesting contrast,9,20,20","Tanner","fsiries, happy, spiritual,16,180,20","2"
"15605","","survey-text","95","532171","0.0-94.0-0.0","A25Q1FKANAEYNH","","","","{""Q0"":""ship wreck""}","","","","","","","","","","","","","","","","","","","","","","",""
"3598","","image-slider-response","96","535771","0.0-95.0","A25Q1FKANAEYNH","","","","","10","","","","","","","","","","","","","","","","","","","","","",""
"null","","image-button-response","97","540774","0.0-96.0","A25Q1FKANAEYNH","img_art/10.jpg","null","","","","","","","","","","","","","","","","","","","","","","","","",""
"9306","","image-button-response","98","550083","0.0-97.0","A25Q1FKANAEYNH","img_art/10.jpg","0","","","","","","","","","","","","","","","","","","","","","","","","",""
"1206","","image-button-response","99","551292","0.0-98.0-0.0","A25Q1FKANAEYNH","img_art/10.jpg","4","","","","","","","","","","","","","","","","","","","","","","","","",""
"2325","","image-button-response","100","553619","0.0-99.0-0.0","A25Q1FKANAEYNH","img_art/10.jpg","0","","","","","","","","","","","","","","","","","","","","","","","","",""
"670","","image-button-response","101","556941","0.0-99.1-0.1","A25Q1FKANAEYNH","img_art/10.jpg","5","","","","","","","","","","","","","","","","","","","","","","","","",""
"null","","html-keyboard-response","102","557444","0.0-100.0","A25Q1FKANAEYNH","<p style=""font-size: 48px;"">+</p>","","","","","null","allTrialResponses","500","1","8","img_art/10.jpg","10","ship wreck","Angel,Tanner,Jason,Kenneth,Stephen,Patrick","This piece makes me think of music. The music is dark; I like dark music so it edges toward good.,10,180,20","music, serenity, love,33,180,20","Picture looks smudged,-7,20,20","I cant tell what this is supposed to be, but I enjoy the simplicity of it.,28,300,20","Very nice painting, would like it more with different color choice.,6,140,20","I don't like the colors,-20,280,20","Angel","This piece makes me think of music. The music is dark; I like dark music so it edges toward good.,10,180,20","Stephen","Very nice painting, would like it more with different color choice.,6,140,20","Patrick","I don't like the colors,-20,280,20","4"
"53971","","survey-text","103","611419","0.0-101.0-0.0","A25Q1FKANAEYNH","","","","{""Q0"":""the world in the eyes of a dog""}","","","","","","","","","","","","","","","","","","","","","","",""
"3309.60000000149","","image-slider-response","104","614731","0.0-102.0","A25Q1FKANAEYNH","","","","","50","","","","","","","","","","","","","","","","","","","","","",""
"4661","","image-button-response","105","619735","0.0-103.0","A25Q1FKANAEYNH","img_art/28.jpg","4","","","","","","","","","","","","","","","","","","","","","","","","",""
"691","","image-button-response","106","620428","0.0-104.0","A25Q1FKANAEYNH","img_art/28.jpg","4","","","","","","","","","","","","","","","","","","","","","","","","",""
"1318","","image-button-response","107","621748","0.0-105.0-0.0","A25Q1FKANAEYNH","img_art/28.jpg","1","","","","","","","","","","","","","","","","","","","","","","","","",""
"645","","image-button-response","108","622397","0.0-106.0-0.0","A25Q1FKANAEYNH","img_art/28.jpg","2","","","","","","","","","","","","","","","","","","","","","","","","",""
"null","","html-keyboard-response","109","623900","0.0-107.0","A25Q1FKANAEYNH","<p style=""font-size: 48px;"">+</p>","","","","","null","allTrialResponses","1500","1","9","img_art/28.jpg","50","the world in the eyes of a dog","Angel,Jacob,Seth,William,Stephen,Patrick","My immediate reaction was to think of smog. It recalls choking on dirty air.,-20,180,20","I can't tell what's going on but it looks a little bit more lively at least,7,340,20","I think this piece is interesting. I love the faces drawn into it.,29,60,20","drab and dreary,-21,380,20","Good use of shapes.,7,140,20","This swirly drawing i snot my type I get confused and dizzy,-20,280,20","Stephen","Good use of shapes.,7,140,20","Jacob","I can't tell what's going on but it looks a little bit more lively at least,7,340,20","Seth","I think this piece is interesting. I love the faces drawn into it.,29,60,20","4"
"9784","","survey-text","110","633707","0.0-108.0-0.0","A25Q1FKANAEYNH","","","","{""Q0"":""city life""}","","","","","","","","","","","","","","","","","","","","","","",""
"4925.89999999851","","image-slider-response","111","638635","0.0-109.0","A25Q1FKANAEYNH","","","","","-25","","","","","","","","","","","","","","","","","","","","","",""
"4086","","image-button-response","112","643639","0.0-110.0","A25Q1FKANAEYNH","img_art/11.jpg","2","","","","","","","","","","","","","","","","","","","","","","","","",""
"3547","","image-button-response","113","647188","0.0-111.0","A25Q1FKANAEYNH","img_art/11.jpg","1","","","","","","","","","","","","","","","","","","","","","","","","",""
"1398","","image-button-response","114","648588","0.0-112.0-0.0","A25Q1FKANAEYNH","img_art/11.jpg","5","","","","","","","","","","","","","","","","","","","","","","","","",""
"741","","image-button-response","115","649332","0.0-113.0-0.0","A25Q1FKANAEYNH","img_art/11.jpg","2","","","","","","","","","","","","","","","","","","","","","","","","",""
"null","","html-keyboard-response","116","650333","0.0-114.0","A25Q1FKANAEYNH","<p style=""font-size: 48px;"">+</p>","","","","","null","allTrialResponses","1000","1","10","img_art/11.jpg","-25","city life","Juan,Jacob,Seth,Brendan,Stephen,Colton","It makes me think of a rainy day and I like the colors. Also like the wavy lines.,22,260,20","This looks cool, and definitely comes to life in a way,36,340,20","It makes my head feel dizzy. So I rated it lower.,-25,60,20","i dont understand this painting,-1,340,20","Very good use of colors,44,140,20","the wavy lines are nice and pleasing,13,220,20","Jacob","This looks cool, and definitely comes to life in a way,36,340,20","Colton","the wavy lines are nice and pleasing,13,220,20","Seth","It makes my head feel dizzy. So I rated it lower.,-25,60,20","4"
"6500","","survey-text","117","656843","0.0-115.0-0.0","A25Q1FKANAEYNH","","","","{""Q0"":""our""}","","","","","","","","","","","","","","","","","","","","","","",""
"4022","","survey-text","118","660867","0.0-116.0-0.0","A25Q1FKANAEYNH","","","","{""Q0"":""oooopss I spill the paint""}","","","","","","","","","","","","","","","","","","","","","","",""
"4053.7999999970198","","image-slider-response","119","664923","0.0-117.0","A25Q1FKANAEYNH","","","","","-22","","","","","","","","","","","","","","","","","","","","","",""
"4493","","image-button-response","120","669927","0.0-118.0","A25Q1FKANAEYNH","img_art/13.jpg","5","","","","","","","","","","","","","","","","","","","","","","","","",""
"331","","image-button-response","121","670260","0.0-119.0","A25Q1FKANAEYNH","img_art/13.jpg","4","","","","","","","","","","","","","","","","","","","","","","","","",""
"989","","image-button-response","122","671252","0.0-120.0-0.0","A25Q1FKANAEYNH","img_art/13.jpg","1","","","","","","","","","","","","","","","","","","","","","","","","",""
"581","","image-button-response","123","671836","0.0-121.0-0.0","A25Q1FKANAEYNH","img_art/13.jpg","0","","","","","","","","","","","","","","","","","","","","","","","","",""
"null","","html-keyboard-response","124","672838","0.0-122.0","A25Q1FKANAEYNH","<p style=""font-size: 48px;"">+</p>","","","","","null","allTrialResponses","1000","1","11","img_art/13.jpg","-22","oooopss I spill the paint","David,Jacob,Seth,James,Trevor,Colton","I like the color coordination between the foreground and background.,10,340,20","The paint splatter idea is kind of overused but I like how it brings the piece together,16,340,20","I really loved the color contrast. Having the white stripe in the center makes the it appear 3D.,11,60,20","This is a very cool painting, something an art teacher or professor would own.,22,380,20","i like the colors but it looks like something that would hang in a hotel,18,280,20","love the colors and splatters,44,220,20","Trevor","i like the colors but it looks like something that would hang in a hotel,18,280,20","Jacob","The paint splatter idea is kind of overused but I like how it brings the piece together,16,340,20","David","I like the color coordination between the foreground and background.,10,340,20","4"
"14984","","survey-text","125","687827","0.0-123.0-0.0","A25Q1FKANAEYNH","","","","{""Q0"":""life of a modern man""}","","","","","","","","","","","","","","","","","","","","","","",""
"3630","","image-slider-response","126","691460","0.0-124.0","A25Q1FKANAEYNH","","","","","30","","","","","","","","","","","","","","","","","","","","","",""
"2651","","image-button-response","127","696465","0.0-125.0","A25Q1FKANAEYNH","img_art/20.jpg","4","","","","","","","","","","","","","","","","","","","","","","","","",""
"3513","","image-button-response","128","699980","0.0-126.0","A25Q1FKANAEYNH","img_art/20.jpg","1","","","","","","","","","","","","","","","","","","","","","","","","",""
"726","","image-button-response","129","700708","0.0-127.0-0.0","A25Q1FKANAEYNH","img_art/20.jpg","2","","","","","","","","","","","","","","","","","","","","","","","","",""
"1029","","image-button-response","130","701740","0.0-128.0-0.0","A25Q1FKANAEYNH","img_art/20.jpg","5","","","","","","","","","","","","","","","","","","","","","","","","",""
"null","","html-keyboard-response","131","702243","0.0-129.0","A25Q1FKANAEYNH","<p style=""font-size: 48px;"">+</p>","","","","","null","allTrialResponses","500","1","12","img_art/20.jpg","30","life of a modern man","David,Jacob,Jesse,Jeffrey,Trevor,Steven","I like how the image is depicting a scene.,10,340,20","It looks painted really nicely.,5,340,20","I do at least like the dark colors blending,6,80,20","looks like an auto accident,-30,40,20","it looks like a piccasso knock off,-23,280,20","It's okay, I see what looks like a truck laying on it's side. Meh,10,160,20","Jacob","It looks painted really nicely.,5,340,20","Jesse","I do at least like the dark colors blending,6,80,20","Steven","It's okay, I see what looks like a truck laying on it's side. Meh,10,160,20","4"
"10027","","survey-text","132","712275","0.0-130.0-0.0","A25Q1FKANAEYNH","","","","{""Q0"":""Life""}","","","","","","","","","","","","","","","","","","","","","","",""
"8701","","survey-text","133","725403","0.0-130.1-0.1","A25Q1FKANAEYNH","","","","{""Q0"":""Life in a painting""}","","","","","","","","","","","","","","","","","","","","","","",""
"3574","","image-slider-response","134","728979","0.0-131.0","A25Q1FKANAEYNH","","","","","40","","","","","","","","","","","","","","","","","","","","","",""
"null","","image-button-response","135","733983","0.0-132.0","A25Q1FKANAEYNH","img_art/8.jpg","null","","","","","","","","","","","","","","","","","","","","","","","","",""
"1131","","image-button-response","136","735116","0.0-133.0","A25Q1FKANAEYNH","img_art/8.jpg","4","","","","","","","","","","","","","","","","","","","","","","","","",""
"549","","image-button-response","137","735668","0.0-134.0-0.0","A25Q1FKANAEYNH","img_art/8.jpg","5","","","","","","","","","","","","","","","","","","","","","","","","",""
"1005","","image-button-response","138","736676","0.0-135.0-0.0","A25Q1FKANAEYNH","img_art/8.jpg","3","","","","","","","","","","","","","","","","","","","","","","","","",""
"null","","html-keyboard-response","139","738179","0.0-136.0","A25Q1FKANAEYNH","<p style=""font-size: 48px;"">+</p>","","","","","null","allTrialResponses","1500","1","13","img_art/8.jpg","40","Life in a painting","Cody,Jacob,Jesse,Bryce,Anthony,Steven","Love the colors & block-style,50,180,20","Very cool! I like this piece,9,340,20","I like the definition and the strong lines. It makes me think of someone watching over the world,24,80,20","Its kinda like an optical illusion.,22,20,20","Not my favorite but has an interesting concept,32,200,20","very nice, i love what's going on here,21,160,20","Anthony","Not my favorite but has an interesting concept,32,200,20","Steven","very nice, i love what's going on here,21,160,20","Bryce","Its kinda like an optical illusion.,22,20,20","4"
"12837","","survey-text","140","751027","0.0-137.0-0.0","A25Q1FKANAEYNH","","","","{""Q0"":""would you buy this""}","","","","","","","","","","","","","","","","","","","","","","",""
"2326.10000000149","","image-slider-response","141","753355","0.0-138.0","A25Q1FKANAEYNH","","","","","-23","","","","","","","","","","","","","","","","","","","","","",""
"null","","image-button-response","142","758358","0.0-139.0","A25Q1FKANAEYNH","img_art/22.jpg","null","","","","","","","","","","","","","","","","","","","","","","","","",""
"3812","","image-button-response","143","762172","0.0-140.0","A25Q1FKANAEYNH","img_art/22.jpg","3","","","","","","","","","","","","","","","","","","","","","","","","",""
"565","","image-button-response","144","762740","0.0-141.0-0.0","A25Q1FKANAEYNH","img_art/22.jpg","5","","","","","","","","","","","","","","","","","","","","","","","","",""
"781","","image-button-response","145","763525","0.0-142.0-0.0","A25Q1FKANAEYNH","img_art/22.jpg","4","","","","","","","","","","","","","","","","","","","","","","","","",""
"null","","html-keyboard-response","146","765027","0.0-143.0","A25Q1FKANAEYNH","<p style=""font-size: 48px;"">+</p>","","","","","null","allTrialResponses","1500","1","14","img_art/22.jpg","-23","would you buy this","Benjamin,Mitchell,Spencer,Bryce,Anthony,Steven","Colors are bright and cheerful.,5,260,20","Scary monsters lurking causing confusion.,-40,180,20","Pretty colors but too blocky for me,-19,120,20","So colorful i love it!,22,20,20","Colors are subdued yet vibrant,30,200,20","not a fan of this, it's boring,1,160,20","Bryce","So colorful i love it!,22,20,20","Steven","not a fan of this, it's boring,1,160,20","Anthony","Colors are subdued yet vibrant,30,200,20","4"
"10843","","survey-text","147","775876","0.0-144.0-0.0","A25Q1FKANAEYNH","","","","{""Q0"":""modern knights""}","","","","","","","","","","","","","","","","","","","","","","",""
"2347.7999999970198","","image-slider-response","148","778228","0.0-145.0","A25Q1FKANAEYNH","","","","","20","","","","","","","","","","","","","","","","","","","","","",""
"null","","image-button-response","149","783231","0.0-146.0","A25Q1FKANAEYNH","img_art/18.jpg","null","","","","","","","","","","","","","","","","","","","","","","","","",""
"667","","image-button-response","150","783900","0.0-147.0","A25Q1FKANAEYNH","img_art/18.jpg","1","","","","","","","","","","","","","","","","","","","","","","","","",""
"962","","image-button-response","151","784868","0.0-148.0-0.0","A25Q1FKANAEYNH","img_art/18.jpg","4","","","","","","","","","","","","","","","","","","","","","","","","",""
"4581","","image-button-response","152","789453","0.0-149.0-0.0","A25Q1FKANAEYNH","img_art/18.jpg","4","","","","","","","","","","","","","","","","","","","","","","","","",""
"614","","image-button-response","153","793380","0.0-149.1-0.1","A25Q1FKANAEYNH","img_art/18.jpg","5","","","","","","","","","","","","","","","","","","","","","","","","",""
"null","","html-keyboard-response","154","794383","0.0-150.0","A25Q1FKANAEYNH","<p style=""font-size: 48px;"">+</p>","","","","","null","allTrialResponses","1000","1","15","img_art/18.jpg","20","modern knights","Adam,Caleb,Ian,Bryce,Anthony,Steven","Colors are okay. Reminds me of cavalry.,10,40,20","Accents make this piece.,21,40,20","This one raises some questions, there could be some sort of fight or battle going on.,11,260,20","Kinda boring. Not my favorite,-34,20,20","I have no strong feelings about this image,1,200,20","Oh heck yes! I see two warriors riding down from valhalla, awesome painting,50,160,20","Caleb","Accents make this piece.,21,40,20","Anthony","I have no strong feelings about this image,1,200,20","Steven","Oh heck yes! I see two warriors riding down from valhalla, awesome painting,50,160,20","6"
"8737","","survey-text","155","803132","0.0-151.0-0.0","A25Q1FKANAEYNH","","","","{""Q0"":""course""}","","","","","","","","","","","","","","","","","","","","","","",""
"12501","","survey-text","156","815635","0.0-152.0-0.0","A25Q1FKANAEYNH","","","","{""Q0"":""this child has problems""}","","","","","","","","","","","","","","","","","","","","","","",""
"3917.6999999955297","","image-slider-response","157","819555","0.0-153.0","A25Q1FKANAEYNH","","","","","-32","","","","","","","","","","","","","","","","","","","","","",""
"null","","image-button-response","158","824559","0.0-154.0","A25Q1FKANAEYNH","img_art/16.jpg","null","","","","","","","","","","","","","","","","","","","","","","","","",""
"2011","","image-button-response","159","826573","0.0-155.0","A25Q1FKANAEYNH","img_art/16.jpg","3","","","","","","","","","","","","","","","","","","","","","","","","",""
"515","","image-button-response","160","827092","0.0-156.0-0.0","A25Q1FKANAEYNH","img_art/16.jpg","4","","","","","","","","","","","","","","","","","","","","","","","","",""
"861","","image-button-response","161","827956","0.0-157.0-0.0","A25Q1FKANAEYNH","img_art/16.jpg","2","","","","","","","","","","","","","","","","","","","","","","","","",""
"null","","html-keyboard-response","162","828958","0.0-158.0","A25Q1FKANAEYNH","<p style=""font-size: 48px;"">+</p>","","","","","null","allTrialResponses","1000","1","16","img_art/16.jpg","-32","this child has problems","Joseph,Caleb,Eric,Dylan,Anthony,Steven","Looks upsetting. Like it's actually graphic violence but you can't tell.,-24,220,20","A strange collage made by a child. Do not like the colored face of the bear.,-29,40,20","This piece is unusual but unique.,5,100,20","This is weird and creepy.,-40,40,20","Very creepy, it makes me feel uneasy,-31,200,20","Not interested at all,-15,160,20","Dylan","This is weird and creepy.,-40,40,20","Anthony","Very creepy, it makes me feel uneasy,-31,200,20","Eric","This piece is unusual but unique.,5,100,20","6"
"16270","","survey-text","163","845235","0.0-159.0-0.0","A25Q1FKANAEYNH","","","","{""Q0"":""I need a minute""}","","","","","","","","","","","","","","","","","","","","","","",""
"3861.89999999851","","image-slider-response","164","849099","0.0-160.0","A25Q1FKANAEYNH","","","","","-45","","","","","","","","","","","","","","","","","","","","","",""
"null","","image-button-response","165","854103","0.0-161.0","A25Q1FKANAEYNH","img_art/5.jpg","null","","","","","","","","","","","","","","","","","","","","","","","","",""
"826","","image-button-response","166","854932","0.0-162.0","A25Q1FKANAEYNH","img_art/5.jpg","3","","","","","","","","","","","","","","","","","","","","","","","","",""
"829","","image-button-response","167","855764","0.0-163.0-0.0","A25Q1FKANAEYNH","img_art/5.jpg","0","","","","","","","","","","","","","","","","","","","","","","","","",""
"1557","","image-button-response","168","857324","0.0-164.0-0.0","A25Q1FKANAEYNH","img_art/5.jpg","2","","","","","","","","","","","","","","","","","","","","","","","","",""
"null","","html-keyboard-response","169","858326","0.0-165.0","A25Q1FKANAEYNH","<p style=""font-size: 48px;"">+</p>","","","","","null","allTrialResponses","1000","1","17","img_art/5.jpg","-45","I need a minute","Aaron,Victor,Eric,Dylan,Anthony,Mark","It's kind of boring.,-20,20,20","I like these colors together and the tiny splatters, but what is this?,7,340,20","I'm reminded of a volcano with weird colors.,-5,100,20","This looks like a twelve year old did it,-40,40,20","This piece doesn't really stand out.,0,200,20","Perfume bottle, reminds of fancy nights out.,11,80,20","Dylan","This looks like a twelve year old did it,-40,40,20","Aaron","It's kind of boring.,-20,20,20","Eric","I'm reminded of a volcano with weird colors.,-5,100,20","6"
"26551","","survey-text","170","884884","0.0-166.0-0.0","A25Q1FKANAEYNH","","","","{""Q0"":""lost for words""}","","","","","","","","","","","","","","","","","","","","","","",""
"3389.89999999851","","image-slider-response","171","888276","0.0-167.0","A25Q1FKANAEYNH","","","","","28","","","","","","","","","","","","","","","","","","","","","",""
"null","","image-button-response","172","893279","0.0-168.0","A25Q1FKANAEYNH","img_art/9.jpg","null","","","","","","","","","","","","","","","","","","","","","","","","",""
"3250","","image-button-response","173","896532","0.0-169.0","A25Q1FKANAEYNH","img_art/9.jpg","2","","","","","","","","","","","","","","","","","","","","","","","","",""
"1029","","image-button-response","174","897564","0.0-170.0-0.0","A25Q1FKANAEYNH","img_art/9.jpg","4","","","","","","","","","","","","","","","","","","","","","","","","",""
"917","","image-button-response","175","898484","0.0-171.0-0.0","A25Q1FKANAEYNH","img_art/9.jpg","5","","","","","","","","","","","","","","","","","","","","","","","","",""
"null","","html-keyboard-response","176","899986","0.0-172.0","A25Q1FKANAEYNH","<p style=""font-size: 48px;"">+</p>","","","","","null","allTrialResponses","1500","1","18","img_art/9.jpg","28","lost for words","Aaron,Isaiah,Eric,Dylan,Justin,Jared","It looks like a child's crayon drawing.,-10,20,20","The piece of art makes me happy, it reminds me of a lively carnival.,15,300,20","I see some of my favorite colors which I like, but I don't like what's portrayed.,35,100,20","This picture is too busy and ugly,-20,40,20","It reminds me of an illustration for a fairy tale.,19,280,20","it looks like a lady resting. it is soothing.,4,400,20","Eric","I see some of my favorite colors which I like, but I don't like what's portrayed.,35,100,20","Justin","It reminds me of an illustration for a fairy tale.,19,280,20","Jared","it looks like a lady resting. it is soothing.,4,400,20","6"
"20331","","survey-text","177","920324","0.0-173.0-0.0","A25Q1FKANAEYNH","","","","{""Q0"":""my life""}","","","","","","","","","","","","","","","","","","","","","","",""
"4605.60000000149","","image-slider-response","178","924931","0.0-174.0","A25Q1FKANAEYNH","","","","","6","","","","","","","","","","","","","","","","","","","","","",""
"null","","image-button-response","179","929935","0.0-175.0","A25Q1FKANAEYNH","img_art/14.jpg","null","","","","","","","","","","","","","","","","","","","","","","","","",""
"491","","image-button-response","180","930428","0.0-176.0","A25Q1FKANAEYNH","img_art/14.jpg","3","","","","","","","","","","","","","","","","","","","","","","","","",""
"2093","","image-button-response","181","932524","0.0-177.0-0.0","A25Q1FKANAEYNH","img_art/14.jpg","0","","","","","","","","","","","","","","","","","","","","","","","","",""
"1877","","image-button-response","182","934404","0.0-178.0-0.0","A25Q1FKANAEYNH","img_art/14.jpg","4","","","","","","","","","","","","","","","","","","","","","","","","",""
"null","","html-keyboard-response","183","935906","0.0-179.0","A25Q1FKANAEYNH","<p style=""font-size: 48px;"">+</p>","","","","","null","allTrialResponses","1500","1","19","img_art/14.jpg","6","my life","Alex,Timothy,Eric,Ethan,Justin,Jared","Too abstract with annoying little details. Just draw a regular tree already,-6,100,20","Something about the cahotic imagery makes me uncomfortable,-15,240,20","I'm imagining a flower bouquet with pretty colors which I like.,35,100,20","I like the layers of color in this piece. The circles and lines are interesting.,29,120,20","The colors are good and the design is intriguing.,15,280,20","it put me on edge.,-11,400,20","Ethan","I like the layers of color in this piece. The circles and lines are interesting.,29,120,20","Alex","Too abstract with annoying little details. Just draw a regular tree already,-6,100,20","Justin","The colors are good and the design is intriguing.,15,280,20","6"
"18258","","survey-text","184","954171","0.0-180.0-0.0","A25Q1FKANAEYNH","","","","{""Q0"":""Message from outter space""}","","","","","","","","","","","","","","","","","","","","","","",""
"6292.79999999702","","image-slider-response","185","960466","0.0-181.0","A25Q1FKANAEYNH","","","","","32","","","","","","","","","","","","","","","","","","","","","",""
"null","","image-button-response","186","965471","0.0-182.0","A25Q1FKANAEYNH","img_art/25.jpg","null","","","","","","","","","","","","","","","","","","","","","","","","",""
"5834","","image-button-response","187","971307","0.0-183.0","A25Q1FKANAEYNH","img_art/25.jpg","1","","","","","","","","","","","","","","","","","","","","","","","","",""
"765","","image-button-response","188","972075","0.0-184.0-0.0","A25Q1FKANAEYNH","img_art/25.jpg","5","","","","","","","","","","","","","","","","","","","","","","","","",""
"3349","","image-button-response","189","975427","0.0-185.0-0.0","A25Q1FKANAEYNH","img_art/25.jpg","4","","","","","","","","","","","","","","","","","","","","","","","","",""
"null","","html-keyboard-response","190","975930","0.0-186.0","A25Q1FKANAEYNH","<p style=""font-size: 48px;"">+</p>","","","","","null","allTrialResponses","500","1","20","img_art/25.jpg","32","Message from outter space","Alex,Dalton,Devin,Ethan,Justin,Shane","I can get behind this but only because I like the green. it reminds me of a graveyard,11,100,20","This reminds me of royalty and servants.,32,300,20","It looks a bit strange to me, neck too long,-19,380,20","The artist was daring to create this. Don't love the green and black combo though.,9,120,20","It's a rather intriguing design,12,280,20","I love the green and the figure is black but the green makes it pop,29,80,20","Dalton","This reminds me of royalty and servants.,32,300,20","Shane","I love the green and the figure is black but the green makes it pop,29,80,20","Justin","It's a rather intriguing design,12,280,20","6"
"3131","","survey-text","191","979074","0.0-187.0-0.0","A25Q1FKANAEYNH","","","","{""Q0"":""we""}","","","","","","","","","","","","","","","","","","","","","","",""
"11950","","survey-text","192","991027","0.0-188.0-0.0","A25Q1FKANAEYNH","","","","{""Q0"":""beautiful art""}","","","","","","","","","","","","","","","","","","","","","","",""
"5821.89999999851","","image-slider-response","193","996851","0.0-189.0","A25Q1FKANAEYNH","","","","","39","","","","","","","","","","","","","","","","","","","","","",""
"null","","image-button-response","194","1001854","0.0-190.0","A25Q1FKANAEYNH","img_art/29.jpg","null","","","","","","","","","","","","","","","","","","","","","","","","",""
"963","","image-button-response","195","1002819","0.0-191.0","A25Q1FKANAEYNH","img_art/29.jpg","5","","","","","","","","","","","","","","","","","","","","","","","","",""
"2334","","image-button-response","196","1005155","0.0-192.0-0.0","A25Q1FKANAEYNH","img_art/29.jpg","2","","","","","","","","","","","","","","","","","","","","","","","","",""
"1109","","image-button-response","197","1006267","0.0-193.0-0.0","A25Q1FKANAEYNH","img_art/29.jpg","0","","","","","","","","","","","","","","","","","","","","","","","","",""
"null","","html-keyboard-response","198","1007768","0.0-194.0","A25Q1FKANAEYNH","<p style=""font-size: 48px;"">+</p>","","","","","null","allTrialResponses","1500","1","21","img_art/29.jpg","39","beautiful art","Paul,Dalton,Hunter,Shawn,Justin,Shane","There's too much black and it looks sloppy,-35,300,20","i dont know how it makes me feel.,1,300,20","abrasive and grotesque textures,-36,240,20","Looks muddy and sticky,-31,100,20","It looks likes there's a lot going on, but they don't fit together.,2,280,20","Darkness and torment,-50,80,20","Shane","Darkness and torment,-50,80,20","Hunter","abrasive and grotesque textures,-36,240,20","Paul","There's too much black and it looks sloppy,-35,300,20","6"
"28813","","survey-text","199","1036587","0.0-195.0-0.0","A25Q1FKANAEYNH","","","","{""Q0"":""when you do drugs""}","","","","","","","","","","","","","","","","","","","","","","",""
"3460.89999999851","","image-slider-response","200","1040051","0.0-196.0","A25Q1FKANAEYNH","","","","","21","","","","","","","","","","","","","","","","","","","","","",""
"null","","image-button-response","201","1045056","0.0-197.0","A25Q1FKANAEYNH","img_art/17.jpg","null","","","","","","","","","","","","","","","","","","","","","","","","",""
"1265","","image-button-response","202","1046324","0.0-198.0","A25Q1FKANAEYNH","img_art/17.jpg","4","","","","","","","","","","","","","","","","","","","","","","","","",""
"589","","image-button-response","203","1046916","0.0-199.0-0.0","A25Q1FKANAEYNH","img_art/17.jpg","5","","","","","","","","","","","","","","","","","","","","","","","","",""
"933","","image-button-response","204","1047852","0.0-200.0-0.0","A25Q1FKANAEYNH","img_art/17.jpg","2","","","","","","","","","","","","","","","","","","","","","","","","",""
"null","","html-keyboard-response","205","1048855","0.0-201.0","A25Q1FKANAEYNH","<p style=""font-size: 48px;"">+</p>","","","","","null","allTrialResponses","1000","1","22","img_art/17.jpg","21","when you do drugs","Paul,Brian,Hunter,Elijah,Jesus,Shane","The colors remind me of a sunset and give a bittersweet feeling. It looks unfinished but not terrible.,6,300,20","I'm not into paintings of trees,-18,380,20","impressive attention to subtleties,15,240,20","Very cool, makes me feel calm,43,80,20","Very fun textures,32,100,20","Pleasant fall to winter day,22,80,20","Jesus","Very fun textures,32,100,20","Shane","Pleasant fall to winter day,22,80,20","Hunter","impressive attention to subtleties,15,240,20","6"
"30940","","survey-text","206","1079803","0.0-202.0-0.0","A25Q1FKANAEYNH","","","","{""Q0"":""microscopic world""}","","","","","","","","","","","","","","","","","","","","","","",""
"3589.39999999851","","image-slider-response","207","1083394","0.0-203.0","A25Q1FKANAEYNH","","","","","12","","","","","","","","","","","","","","","","","","","","","",""
"null","","image-button-response","208","1088398","0.0-204.0","A25Q1FKANAEYNH","img_art/7.jpg","null","","","","","","","","","","","","","","","","","","","","","","","","",""
"1514","","image-button-response","209","1089915","0.0-205.0","A25Q1FKANAEYNH","img_art/7.jpg","4","","","","","","","","","","","","","","","","","","","","","","","","",""
"1613","","image-button-response","210","1091531","0.0-206.0-0.0","A25Q1FKANAEYNH","img_art/7.jpg","0","","","","","","","","","","","","","","","","","","","","","","","","",""
"1966","","image-button-response","211","1093502","0.0-207.0-0.0","A25Q1FKANAEYNH","img_art/7.jpg","5","","","","","","","","","","","","","","","","","","","","","","","","",""
"null","","html-keyboard-response","212","1094508","0.0-208.0","A25Q1FKANAEYNH","<p style=""font-size: 48px;"">+</p>","","","","","null","allTrialResponses","1000","1","23","img_art/7.jpg","12","microscopic world","Cole,Brandon,Hunter,Bradley,Jesus,Shane","Are these ancient cave paintings?,-7,200,20","Looks like bad wallpaper,-29,320,20","textures are engaging,8,240,20","Is this cookie dough?  Yum!,-10,300,20","Is simple in color and texture,11,100,20","Dessert like almost like dry land,4,80,20","Jesus","Is simple in color and texture,11,100,20","Cole","Are these ancient cave paintings?,-7,200,20","Shane","Dessert like almost like dry land,4,80,20","6"
"12517","","survey-text","213","1107035","0.0-209.0-0.0","A25Q1FKANAEYNH","","","","{""Q0"":""someone kitchen""}","","","","","","","","","","","","","","","","","","","","","","",""
"5725.5","","image-slider-response","214","1112762","0.0-210.0","A25Q1FKANAEYNH","","","","","21","","","","","","","","","","","","","","","","","","","","","",""
"null","","image-button-response","215","1117766","0.0-211.0","A25Q1FKANAEYNH","img_art/19.jpg","null","","","","","","","","","","","","","","","","","","","","","","","","",""
"1458","","image-button-response","216","1119227","0.0-212.0","A25Q1FKANAEYNH","img_art/19.jpg","0","","","","","","","","","","","","","","","","","","","","","","","","",""
"1446","","image-button-response","217","1120675","0.0-213.0-0.0","A25Q1FKANAEYNH","img_art/19.jpg","5","","","","","","","","","","","","","","","","","","","","","","","","",""
"1565","","image-button-response","218","1122243","0.0-214.0-0.0","A25Q1FKANAEYNH","img_art/19.jpg","2","","","","","","","","","","","","","","","","","","","","","","","","",""
"null","","html-keyboard-response","219","1122744","0.0-215.0","A25Q1FKANAEYNH","<p style=""font-size: 48px;"">+</p>","","","","","null","allTrialResponses","500","1","24","img_art/19.jpg","21","someone kitchen","Cole,Michael,Cameron,Sean,Jesus,Shane","Its simple and the colors i like. It reminds me of chagall,34,200,20","Loks like an amature did it, Not pleasing.,-45,140,20","Snowy winter scene,25,60,20","the picture gave me anxiety,-38,40,20","Shapes give it a feeling of being crowded,-18,100,20","A day in a small city,45,80,20","Cole","Its simple and the colors i like. It reminds me of chagall,34,200,20","Shane","A day in a small city,45,80,20","Cameron","Snowy winter scene,25,60,20","6"
"12515","","survey-text","220","1135266","0.0-216.0-0.0","A25Q1FKANAEYNH","","","","{""Q0"":""a lost soul""}","","","","","","","","","","","","","","","","","","","","","","",""
"5501.29999999702","","image-slider-response","221","1140771","0.0-217.0","A25Q1FKANAEYNH","","","","","16","","","","","","","","","","","","","","","","","","","","","",""
"null","","image-button-response","222","1145776","0.0-218.0","A25Q1FKANAEYNH","img_art/30.jpg","null","","","","","","","","","","","","","","","","","","","","","","","","",""
"458","","image-button-response","223","1146236","0.0-219.0","A25Q1FKANAEYNH","img_art/30.jpg","4","","","","","","","","","","","","","","","","","","","","","","","","",""
"1157","","image-button-response","224","1147396","0.0-220.0-0.0","A25Q1FKANAEYNH","img_art/30.jpg","2","","","","","","","","","","","","","","","","","","","","","","","","",""
"49037","","image-button-response","225","1196435","0.0-221.0-0.0","A25Q1FKANAEYNH","img_art/30.jpg","0","","","","","","","","","","","","","","","","","","","","","","","","",""
"null","","html-keyboard-response","226","1197937","0.0-222.0","A25Q1FKANAEYNH","<p style=""font-size: 48px;"">+</p>","","","","","null","allTrialResponses","1500","1","25","img_art/30.jpg","16","a lost soul","Cole,John,Cameron,Kyle,Connor,Shane","Its ugly. Too simple,-23,200,20","ugly nasty colors,-10,120,20","Like the color and style,31,60,20","Pretty neutral about this one,0,340,20","Layers are interesting,22,240,20","I like the back but the red lines in the front distress me,-7,80,20","Connor","Layers are interesting,22,240,20","Cameron","Like the color and style,31,60,20","Cole","Its ugly. Too simple,-23,200,20","6"
"6989","","survey-text","227","1204938","0.0-223.0-0.0","A25Q1FKANAEYNH","","","","{""Q0"":""table""}","","","","","","","","","","","","","","","","","","","","","","",""
"23654","","survey-text","228","1228594","0.0-224.0-0.0","A25Q1FKANAEYNH","","","","{""Q0"":""waterfall in the rainforest ""}","","","","","","","","","","","","","","","","","","","","","","",""
"6469.5","","image-slider-response","229","1235066","0.0-225.0","A25Q1FKANAEYNH","","","","","25","","","","","","","","","","","","","","","","","","","","","",""
"null","","image-button-response","230","1240070","0.0-226.0","A25Q1FKANAEYNH","img_art/24.jpg","null","","","","","","","","","","","","","","","","","","","","","","","","",""
"570","","image-button-response","231","1240643","0.0-227.0","A25Q1FKANAEYNH","img_art/24.jpg","1","","","","","","","","","","","","","","","","","","","","","","","","",""
"942","","image-button-response","232","1241587","0.0-228.0-0.0","A25Q1FKANAEYNH","img_art/24.jpg","3","","","","","","","","","","","","","","","","","","","","","","","","",""
"510","","image-button-response","233","1242099","0.0-229.0-0.0","A25Q1FKANAEYNH","img_art/24.jpg","5","","","","","","","","","","","","","","","","","","","","","","","","",""
"null","","html-keyboard-response","234","1243604","0.0-230.0","A25Q1FKANAEYNH","<p style=""font-size: 48px;"">+</p>","","","","","null","allTrialResponses","1500","1","26","img_art/24.jpg","25","waterfall in the rainforest ","Cole,Jorge,Cameron,Jack,Connor,Jose","Abstract waterfall landscape. Confusing,-13,200,20","Interested in visiting this place,18,180,20","Mountain stream pineapple texture?,30,60,20","colors are a bit cramped together. really unique take on a waterfall though.,32,320,20","Too literal, not abstract,-29,240,20","The combination of nature / realism with abstract colors is unique.,39,200,20","Jorge","Interested in visiting this place,18,180,20","Jack","colors are a bit cramped together. really unique take on a waterfall though.,32,320,20","Jose","The combination of nature / realism with abstract colors is unique.,39,200,20","6"
"15806","","survey-text","235","1259419","0.0-231.0-0.0","A25Q1FKANAEYNH","","","","{""Q0"":""fish eggs caviar ""}","","","","","","","","","","","","","","","","","","","","","","",""
"3397.6999999955297","","image-slider-response","236","1262819","0.0-232.0","A25Q1FKANAEYNH","","","","","-33","","","","","","","","","","","","","","","","","","","","","",""
"null","","image-button-response","237","1267822","0.0-233.0","A25Q1FKANAEYNH","img_art/15.jpg","null","","","","","","","","","","","","","","","","","","","","","","","","",""
"3186","","image-button-response","238","1271012","0.0-234.0","A25Q1FKANAEYNH","img_art/15.jpg","5","","","","","","","","","","","","","","","","","","","","","","","","",""
"2268","","image-button-response","239","1273284","0.0-235.0-0.0","A25Q1FKANAEYNH","img_art/15.jpg","3","","","","","","","","","","","","","","","","","","","","","","","","",""
"2156","","image-button-response","240","1275444","0.0-236.0-0.0","A25Q1FKANAEYNH","img_art/15.jpg","2","","","","","","","","","","","","","","","","","","","","","","","","",""
"null","","html-keyboard-response","241","1276947","0.0-237.0","A25Q1FKANAEYNH","<p style=""font-size: 48px;"">+</p>","","","","","null","allTrialResponses","1500","1","27","img_art/15.jpg","-33","fish eggs caviar ","Alejandro,Jorge,Jake,Jack,Brett,Jose","The blotted black spots create a nice contrast between the brush strokes within the center and sides. I like it.,41,80,20","interested in this transformation,20,180,20","This looks odd and was not well executed.,-3,360,20","interesting technique. the blue is very pretty,18,320,20","I don't know how I feel about this,31,360,20","black dots too ant-like,-25,200,20","Jose","black dots too ant-like,-25,200,20","Jack","interesting technique. the blue is very pretty,18,320,20","Jake","This looks odd and was not well executed.,-3,360,20","6"
"10288","","survey-text","242","1287243","0.0-238.0-0.0","A25Q1FKANAEYNH","","","","{""Q0"":""what is this suppose to be""}","","","","","","","","","","","","","","","","","","","","","","",""
"3853.2000000029802","","image-slider-response","243","1291098","0.0-239.0","A25Q1FKANAEYNH","","","","","-47","","","","","","","","","","","","","","","","","","","","","",""
"null","","image-button-response","244","1296102","0.0-240.0","A25Q1FKANAEYNH","img_art/12.jpg","null","","","","","","","","","","","","","","","","","","","","","","","","",""
"14986","","image-button-response","245","1311091","0.0-241.0","A25Q1FKANAEYNH","img_art/12.jpg","3","","","","","","","","","","","","","","","","","","","","","","","","",""
"1493","","image-button-response","246","1312588","0.0-242.0-0.0","A25Q1FKANAEYNH","img_art/12.jpg","5","","","","","","","","","","","","","","","","","","","","","","","","",""
"412","","image-button-response","247","1313003","0.0-243.0-0.0","A25Q1FKANAEYNH","img_art/12.jpg","4","","","","","","","","","","","","","","","","","","","","","","","","",""
"null","","html-keyboard-response","248","1313506","0.0-244.0","A25Q1FKANAEYNH","<p style=""font-size: 48px;"">+</p>","","","","","null","allTrialResponses","500","1","28","img_art/12.jpg","-47","what is this suppose to be","Alexander,Charles,Jake,Jack,Antonio,Jose","Ugly color combinations, no focus.,-25,120,20","Just not a fan, I can't figure out why,-17,100,20","It's strange looking and unappealing.,-4,360,20","interesting, but feels like someone cut up a picture and pasted it together wrong. want to see the original,15,320,20","I like the colors in both sections, brights compared to neutrals. Each block has a different view. I think of the future,11,220,20","Not sure why but this is my favorite. I'd put it on my wall,50,200,20","Jack","interesting, but feels like someone cut up a picture and pasted it together wrong. want to see the original,15,320,20","Jose","Not sure why but this is my favorite. I'd put it on my wall,50,200,20","Antonio","I like the colors in both sections, brights compared to neutrals. Each block has a different view. I think of the future,11,220,20","6"
"23199","","survey-text","249","1336714","0.0-245.0-0.0","A25Q1FKANAEYNH","","","","{""Q0"":""jalepeno for the guacamole""}","","","","","","","","","","","","","","","","","","","","","","",""
"2893.5999999940395","","image-slider-response","250","1339610","0.0-246.0","A25Q1FKANAEYNH","","","","","-40","","","","","","","","","","","","","","","","","","","","","",""
"null","","image-button-response","251","1344614","0.0-247.0","A25Q1FKANAEYNH","img_art/6.jpg","null","","","","","","","","","","","","","","","","","","","","","","","","",""
"1202","","image-button-response","252","1345819","0.0-248.0","A25Q1FKANAEYNH","img_art/6.jpg","5","","","","","","","","","","","","","","","","","","","","","","","","",""
"972","","image-button-response","253","1346794","0.0-249.0-0.0","A25Q1FKANAEYNH","img_art/6.jpg","1","","","","","","","","","","","","","","","","","","","","","","","","",""
"2710","","image-button-response","254","1349507","0.0-250.0-0.0","A25Q1FKANAEYNH","img_art/6.jpg","0","","","","","","","","","","","","","","","","","","","","","","","","",""
"null","","html-keyboard-response","255","1350508","0.0-251.0","A25Q1FKANAEYNH","<p style=""font-size: 48px;"">+</p>","","","","","null","allTrialResponses","1000","1","29","img_art/6.jpg","-40","jalepeno for the guacamole","Marcus,Dakota,Andrew,Jack,Antonio,Jose","I like the orange color, and I don't know why but I like this piece.,22,60,20","graceful and light,35,280,20","Reminds me of my friend's bird,21,160,20","I like the bottom half, but not the top,-7,320,20","Lonely and kinda sad,-25,220,20","This could be so many different things. I saw a bird first but then it looks like a needle going into skin,34,200,20","Jose","This could be so many different things. I saw a bird first but then it looks like a needle going into skin,34,200,20","Dakota","graceful and light,35,280,20","Marcus","I like the orange color, and I don't know why but I like this piece.,22,60,20","6"
"21493","","survey-text","256","1372010","0.0-252.0-0.0","A25Q1FKANAEYNH","","","","{""Q0"":""this makes me stress""}","","","","","","","","","","","","","","","","","","","","","","",""
"2639.39999999851","","image-slider-response","257","1374653","0.0-253.0","A25Q1FKANAEYNH","","","","","-44","","","","","","","","","","","","","","","","","","","","","",""
"null","","image-button-response","258","1379659","0.0-254.0","A25Q1FKANAEYNH","img_art/2.jpg","null","","","","","","","","","","","","","","","","","","","","","","","","",""
"925","","image-button-response","259","1380587","0.0-255.0","A25Q1FKANAEYNH","img_art/2.jpg","1","","","","","","","","","","","","","","","","","","","","","","","","",""
"998","","image-button-response","260","1381587","0.0-256.0-0.0","A25Q1FKANAEYNH","img_art/2.jpg","5","","","","","","","","","","","","","","","","","","","","","","","","",""
"3605","","image-button-response","261","1385195","0.0-257.0-0.0","A25Q1FKANAEYNH","img_art/2.jpg","3","","","","","","","","","","","","","","","","","","","","","","","","",""
"null","","html-keyboard-response","262","1386698","0.0-258.0","A25Q1FKANAEYNH","<p style=""font-size: 48px;"">+</p>","","","","","null","allTrialResponses","1500","1","30","img_art/2.jpg","-44","this makes me stress","Marcus,Dakota,Christian,Tyler,Bryan,Jose","Only like the blues and teals in this. The rest is unappealing.,-15,60,20","active and kinetic- simplified,14,280,20","do not understand,-21,140,20","Grim and overwhelming,-6,320,20","Like the colors but reminds me of a kids show done in cubism.,0,400,20","The color combo is kind of ugly but there's something charming about it still,17,200,20","Dakota","active and kinetic- simplified,14,280,20","Jose","The color combo is kind of ugly but there's something charming about it still,17,200,20","Tyler","Grim and overwhelming,-6,320,20","6"
"3409","","image-button-response_instructions","263","1390114","0.0-259.0","A25Q1FKANAEYNH","","0","instructions","","","","","","","","","","","","","","","","","","","","","","","",""
"1408","","image-button-response","264","1391530","0.0-260.0","A25Q1FKANAEYNH","","0","","","","","","","","","","","","","","","","","","","","","","","","",""
