"rt","url","trial_type","trial_index","time_elapsed","internal_node_id","participant_id","stimulus","button_pressed","Name","responses","response","key_press","variableName","fixationTime","condition","trial","photo","subjectRating","subjectResponse","agentsNames","agent_1_Response","agent_2_Response","agent_3_Response","agent_4_Response","agent_5_Response","agent_6_Response","kept_1_name","kept_1_response","kept_2_name","kept_2_response","kept_3_name","kept_3_response","errorCounter"
"391611","external_page_harvard.html","external-html","0","391711","0.0-0.0","A25X755IRWK2U5","","","","","","","","","","","","","","","","","","","","","","","","","","",""
"1666","","image-button-response","1","393379","0.0-1.0","A25X755IRWK2U5","","1","","","","","","","","","","","","","","","","","","","","","","","","",""
"2240","","image-button-response","2","395627","0.0-2.0-0.0","A25X755IRWK2U5","","1","phone","","","","","","","","","","","","","","","","","","","","","","","",""
"5482","","survey-text","3","401111","0.0-3.0-0.0","A25X755IRWK2U5","","","","{""Q0"":""A25X755IRWK2U5""}","","","","","","","","","","","","","","","","","","","","","","",""
"7524","","image-button-response_instructions","4","408637","0.0-4.0","A25X755IRWK2U5","","0","instructions","","","","","","","","","","","","","","","","","","","","","","","",""
"10208","","image-button-response_instructions","5","418846","0.0-5.0","A25X755IRWK2U5","img_art/ins/popularity/ins1.png","0","instructions","","","","","","","","","","","","","","","","","","","","","","","",""
"2663","","image-button-response_instructions","6","421510","0.0-6.0","A25X755IRWK2U5","img_art/ins/popularity/ins2.png","0","instructions","","","","","","","","","","","","","","","","","","","","","","","",""
"6803","","image-button-response_instructions","7","428315","0.0-7.0","A25X755IRWK2U5","img_art/ins/popularity/ins2Extreme.png","0","instructions","","","","","","","","","","","","","","","","","","","","","","","",""
"6501","","image-button-response_instructions","8","434817","0.0-8.0","A25X755IRWK2U5","img_art/ins/popularity/ins3KEEPpop.PNG","0","instructions","","","","","","","","","","","","","","","","","","","","","","","",""
"5393","","image-button-response_instructions","9","440211","0.0-9.0","A25X755IRWK2U5","img_art/ins/popularity/ins3ANamepop.PNG","0","instructions","","","","","","","","","","","","","","","","","","","","","","","",""
"2885","","image-button-response_instructions","10","443097","0.0-10.0","A25X755IRWK2U5","img_art/ins/popularity/ins3ARatingpop.png","0","instructions","","","","","","","","","","","","","","","","","","","","","","","",""
"2337","","image-button-response_instructions","11","445435","0.0-11.0","A25X755IRWK2U5","img_art/ins/popularity/ins3ATextpop.png","0","instructions","","","","","","","","","","","","","","","","","","","","","","","",""
"6831","","image-button-response_instructions","12","452267","0.0-12.0","A25X755IRWK2U5","img_art/ins/popularity/ins3ALikespop.png","0","instructions","","","","","","","","","","","","","","","","","","","","","","","",""
"12900","","image-button-response_instructions","13","465169","0.0-13.0","A25X755IRWK2U5","img_art/ins/popularity/ins3KEEPpop.PNG","0","instructions","","","","","","","","","","","","","","","","","","","","","","","",""
"10113","","image-button-response_instructions","14","475283","0.0-14.0","A25X755IRWK2U5","img_art/ins/popularity/ins3_5RED.png","0","instructions","","","","","","","","","","","","","","","","","","","","","","","",""
"5882","","image-button-response_instructions","15","481167","0.0-15.0","A25X755IRWK2U5","img_art/ins/popularity/ins3KEEPpop.PNG","0","instructions","","","","","","","","","","","","","","","","","","","","","","","",""
"11607","","image-button-response_instructions","16","492774","0.0-16.0","A25X755IRWK2U5","img_art/ins/popularity/ins4KEEPpop.PNG","0","instructions","","","","","","","","","","","","","","","","","","","","","","","",""
"2899","","image-button-response_instructions","17","495675","0.0-17.0","A25X755IRWK2U5","img_art/ins/popularity/ins5KEEPpop.PNG","0","instructions","","","","","","","","","","","","","","","","","","","","","","","",""
"1939","","image-button-response_instructions","18","497615","0.0-18.0","A25X755IRWK2U5","","0","instructions","","","","","","","","","","","","","","","","","","","","","","","",""
"5203","","survey-text","19","502850","0.0-19.0-0.0","A25X755IRWK2U5","","","","{""Q0"":""but""}","","","","","","","","","","","","","","","","","","","","","","",""
"7163","","survey-text","20","510015","0.0-20.0-0.0","A25X755IRWK2U5","","","","{""Q0"":""I do not like it at all""}","","","","","","","","","","","","","","","","","","","","","","",""
"5243.29999999702","","image-slider-response","21","515261","0.0-21.0","A25X755IRWK2U5","","","","","-29","","","","","","","","","","","","","","","","","","","","","",""
"null","","image-button-response","22","520271","0.0-22.0","A25X755IRWK2U5","img_art/ins/1.jpg","null","","","","","","","","","","","","","","","","","","","","","","","","",""
"1033","","image-button-response","23","521307","0.0-23.0","A25X755IRWK2U5","img_art/ins/1.jpg","1","","","","","","","","","","","","","","","","","","","","","","","","",""
"3386","","image-button-response","24","524695","0.0-24.0-0.0","A25X755IRWK2U5","img_art/ins/1.jpg","2","","","","","","","","","","","","","","","","","","","","","","","","",""
"5331","","image-button-response","25","530029","0.0-25.0-0.0","A25X755IRWK2U5","img_art/ins/1.jpg","3","","","","","","","","","","","","","","","","","","","","","","","","",""
"null","","html-keyboard-response","26","530532","0.0-26.0","A25X755IRWK2U5","<p style=""font-size: 48px;"">+</p>","","","","","null","allTrialResponses","500","1","-2","img_art/ins/1.jpg","-29","I do not like it at all","Allison,Ashley,Beth,Dora,Erika,Jen","looks like a lot of things going on in the mist,20,20,20","I just don't get why these type of art would be popular,-32,40,20","This color reminds me of poo,-46,60,20","looks like what my niece in 3rd grade did this afternoon,-50,80,20","I like the sophisticated brushwork,40,100,20","It reminds me of a candy land dream I had,36,120,20","Ashley","I just don't get why these type of art would be popular,-32,40,20","Beth","This color reminds me of poo,-46,60,20","Dora","looks like what my niece in 3rd grade did this afternoon,-50,80,20","0"
"67640","","survey-text","27","598177","0.0-27.0-0.0","A25X755IRWK2U5","","","","{""Q0"":""I like this one.  The colors are attractive.""}","","","","","","","","","","","","","","","","","","","","","","",""
"5802.19999999553","","image-slider-response","28","603981","0.0-28.0","A25X755IRWK2U5","","","","","37","","","","","","","","","","","","","","","","","","","","","",""
"null","","image-button-response","29","608991","0.0-29.0","A25X755IRWK2U5","img_art/ins/2.jpg","null","","","","","","","","","","","","","","","","","","","","","","","","",""
"3574","","image-button-response","30","612569","0.0-30.0","A25X755IRWK2U5","img_art/ins/2.jpg","4","","","","","","","","","","","","","","","","","","","","","","","","",""
"3027","","image-button-response","31","615599","0.0-31.0-0.0","A25X755IRWK2U5","img_art/ins/2.jpg","1","","","","","","","","","","","","","","","","","","","","","","","","",""
"1294","","image-button-response","32","616895","0.0-32.0-0.0","A25X755IRWK2U5","img_art/ins/2.jpg","5","","","","","","","","","","","","","","","","","","","","","","","","",""
"null","","html-keyboard-response","33","617905","0.0-33.0","A25X755IRWK2U5","<p style=""font-size: 48px;"">+</p>","","","","","null","allTrialResponses","1000","1","-1","img_art/ins/2.jpg","37","I like this one.  The colors are attractive.","Jenna,Ashley,Beth,Dora,Kara,Katie","One of my pet peevs,-48,140,20","Idk, it is just annoying,-32,40,20","meaningless painting,-45,60,20","looks too angry,-50,80,20","I like the blocks of color arrangements,30,160,20","too much color!,-28,180,20","Kara","I like the blocks of color arrangements,30,160,20","Ashley","Idk, it is just annoying,-32,40,20","Katie","too much color!,-28,180,20","0"
"7342","","survey-text","34","625256","0.0-34.0-0.0","A25X755IRWK2U5","","","","{""Q0"":""Like a snow storm""}","","","","","","","","","","","","","","","","","","","","","","",""
"3251.7000000029802","","image-slider-response","35","628510","0.0-35.0","A25X755IRWK2U5","","","","","15","","","","","","","","","","","","","","","","","","","","","",""
"null","","image-button-response","36","633526","0.0-36.0","A25X755IRWK2U5","img_art/ins/3.jpg","null","","","","","","","","","","","","","","","","","","","","","","","","",""
"1723","","image-button-response","37","635251","0.0-37.0","A25X755IRWK2U5","img_art/ins/3.jpg","4","","","","","","","","","","","","","","","","","","","","","","","","",""
"2312","","image-button-response","38","637565","0.0-38.0-0.0","A25X755IRWK2U5","img_art/ins/3.jpg","3","","","","","","","","","","","","","","","","","","","","","","","","",""
"622","","image-button-response","39","638189","0.0-39.0-0.0","A25X755IRWK2U5","img_art/ins/3.jpg","0","","","","","","","","","","","","","","","","","","","","","","","","",""
"null","","html-keyboard-response","40","639199","0.0-40.0","A25X755IRWK2U5","<p style=""font-size: 48px;"">+</p>","","","","","null","allTrialResponses","1000","1","0","img_art/ins/3.jpg","15","Like a snow storm","Mary,Ashley,Rose,Leslie,Kara,Katie","I like the overlapping of brushes,41,220,20","It looks like a playground for bats,-36,40,20","My daily routine, it's depressing,-20,240,20","It's an alright work,15,200,20","calming blue is very nice,36,160,20","It looks depressing,-26,180,20","Kara","calming blue is very nice,36,160,20","Leslie","It's an alright work,15,200,20","Mary","I like the overlapping of brushes,41,220,20","0"
"5873","","image-button-response_instructions","41","645079","0.0-41.0","A25X755IRWK2U5","","0","instructions","","","","","","","","","","","","","","","","","","","","","","","",""
"14377","","survey-likert","42","659457","0.0-42.0-0.0","A25X755IRWK2U5","","","","{""Q0"":"""",""Q1"":0,""Q2"":1}","","","","","","","","","","","","","","","","","","","","","","",""
"4580","","survey-text","43","664043","0.0-43.0-0.0","A25X755IRWK2U5","","","","{""Q0"":""rock""}","","","","","","","","","","","","","","","","","","","","","","",""
"11907","","survey-text","44","675951","0.0-44.0-0.0","A25X755IRWK2U5","","","","{""Q0"":""Just feels messy""}","","","","","","","","","","","","","","","","","","","","","","",""
"2752.1999999955297","","image-slider-response","45","678705","0.0-45.0","A25X755IRWK2U5","","","","","-13","","","","","","","","","","","","","","","","","","","","","",""
"null","","image-button-response","46","683730","0.0-46.0","A25X755IRWK2U5","img_art/19.jpg","null","","","","","","","","","","","","","","","","","","","","","","","","",""
"2011","","image-button-response","47","685744","0.0-47.0","A25X755IRWK2U5","img_art/19.jpg","4","","","","","","","","","","","","","","","","","","","","","","","","",""
"3690","","image-button-response","48","689436","0.0-48.0-0.0","A25X755IRWK2U5","img_art/19.jpg","5","","","","","","","","","","","","","","","","","","","","","","","","",""
"1502","","image-button-response","49","690941","0.0-49.0-0.0","A25X755IRWK2U5","img_art/19.jpg","2","","","","","","","","","","","","","","","","","","","","","","","","",""
"null","","html-keyboard-response","50","692460","0.0-50.0","A25X755IRWK2U5","<p style=""font-size: 48px;"">+</p>","","","","","null","allTrialResponses","1500","1","1","img_art/19.jpg","-13","Just feels messy","Taylor,Meghan,Grace,Breanna,Caroline,Haley","It reminds me of sitting at a cafe on the side of a river.,45,340,20","looks like a shopping center,20,220,20","Looks like a child's rendering of a city street but not too sure.,0,180,20","The details are amazing,36,380,20","Chaotic. Too much going on in the picture,14,100,20","I like this as a whole, but the longer I look at it, the less it pleases me,-10,220,20","Caroline","Chaotic. Too much going on in the picture,14,100,20","Haley","I like this as a whole, but the longer I look at it, the less it pleases me,-10,220,20","Grace","Looks like a child's rendering of a city street but not too sure.,0,180,20","0"
"11359","","survey-text","51","703825","0.0-51.0-0.0","A25X755IRWK2U5","","","","{""Q0"":""Love the color but kinda strange""}","","","","","","","","","","","","","","","","","","","","","","",""
"3420.10000000149","","image-slider-response","52","707247","0.0-52.0","A25X755IRWK2U5","","","","","12","","","","","","","","","","","","","","","","","","","","","",""
"4094","","image-button-response","53","712256","0.0-53.0","A25X755IRWK2U5","img_art/25.jpg","0","","","","","","","","","","","","","","","","","","","","","","","","",""
"1777","","image-button-response","54","714037","0.0-54.0","A25X755IRWK2U5","img_art/25.jpg","1","","","","","","","","","","","","","","","","","","","","","","","","",""
"3070","","image-button-response","55","717109","0.0-55.0-0.0","A25X755IRWK2U5","img_art/25.jpg","5","","","","","","","","","","","","","","","","","","","","","","","","",""
"3881","","image-button-response","56","720993","0.0-56.0-0.0","A25X755IRWK2U5","img_art/25.jpg","2","","","","","","","","","","","","","","","","","","","","","","","","",""
"null","","html-keyboard-response","57","722006","0.0-57.0","A25X755IRWK2U5","<p style=""font-size: 48px;"">+</p>","","","","","null","allTrialResponses","1000","1","2","img_art/25.jpg","12","Love the color but kinda strange","Olivia,Gabrielle,Grace,Erica,Caroline,Haley","reminds me of burning man,18,40,20","interesting pattern and color choice, kind of unusual,2,160,20","Scary. Something out of a Stephen King book/movie.,-31,180,20","reminds me of a demon,-25,80,20","Makes me think of Baphomet, As above so below and is scary,-50,100,20","I like the design but the brightness of the color feels almost blinding to me.,-3,220,20","Gabrielle","interesting pattern and color choice, kind of unusual,2,160,20","Haley","I like the design but the brightness of the color feels almost blinding to me.,-3,220,20","Grace","Scary. Something out of a Stephen King book/movie.,-31,180,20","0"
"11117","","survey-text","58","733130","0.0-58.0-0.0","A25X755IRWK2U5","","","","{""Q0"":""Colors are attractive""}","","","","","","","","","","","","","","","","","","","","","","",""
"2778.10000000149","","image-slider-response","59","735910","0.0-59.0","A25X755IRWK2U5","","","","","9","","","","","","","","","","","","","","","","","","","","","",""
"4353","","image-button-response","60","740935","0.0-60.0","A25X755IRWK2U5","img_art/21.jpg","0","","","","","","","","","","","","","","","","","","","","","","","","",""
"1726","","image-button-response","61","742662","0.0-61.0","A25X755IRWK2U5","img_art/21.jpg","0","","","","","","","","","","","","","","","","","","","","","","","","",""
"1571","","image-button-response","62","744234","0.0-62.0-0.0","A25X755IRWK2U5","img_art/21.jpg","1","","","","","","","","","","","","","","","","","","","","","","","","",""
"2935","","image-button-response","63","747171","0.0-63.0-0.0","A25X755IRWK2U5","img_art/21.jpg","0","","","","","","","","","","","","","","","","","","","","","","","","",""
"1693","","image-button-response","64","752751","0.0-63.1-0.1","A25X755IRWK2U5","img_art/21.jpg","2","","","","","","","","","","","","","","","","","","","","","","","","",""
"null","","html-keyboard-response","65","754252","0.0-64.0","A25X755IRWK2U5","<p style=""font-size: 48px;"">+</p>","","","","","null","allTrialResponses","1500","1","3","img_art/21.jpg","9","Colors are attractive","Melissa,Gabrielle,Grace,Rachel,Laura,Haley","feels like a harbor scene,11,240,20","setting sun sky? nice colors and blending,14,160,20","Like the colors, the cloudy, airy effects. Nice.,46,180,20","Looks like a body of water during a sunset. I like this piece.,21,80,20","a serene, calm and eloquent storm,9,320,20","Again, I love the use of color,50,220,20","Melissa","feels like a harbor scene,11,240,20","Gabrielle","setting sun sky? nice colors and blending,14,160,20","Grace","Like the colors, the cloudy, airy effects. Nice.,46,180,20","2"
"16071","","survey-text","66","770334","0.0-65.0-0.0","A25X755IRWK2U5","","","","{""Q0"":""A little on the aggressive side for me""}","","","","","","","","","","","","","","","","","","","","","","",""
"3313.2999999970198","","image-slider-response","67","773647","0.0-66.0","A25X755IRWK2U5","","","","","-15","","","","","","","","","","","","","","","","","","","","","",""
"null","","image-button-response","68","778659","0.0-67.0","A25X755IRWK2U5","img_art/1.jpg","null","","","","","","","","","","","","","","","","","","","","","","","","",""
"1065","","image-button-response","69","779726","0.0-68.0","A25X755IRWK2U5","img_art/1.jpg","4","","","","","","","","","","","","","","","","","","","","","","","","",""
"2948","","image-button-response","70","782675","0.0-69.0-0.0","A25X755IRWK2U5","img_art/1.jpg","0","","","","","","","","","","","","","","","","","","","","","","","","",""
"6252","","image-button-response","71","788930","0.0-70.0-0.0","A25X755IRWK2U5","img_art/1.jpg","3","","","","","","","","","","","","","","","","","","","","","","","","",""
"null","","html-keyboard-response","72","789452","0.0-71.0","A25X755IRWK2U5","<p style=""font-size: 48px;"">+</p>","","","","","null","allTrialResponses","500","1","4","img_art/1.jpg","-15","A little on the aggressive side for me","Melissa,Gabrielle,Grace,Mary,Natalie,Crystal","muddy and uninteresting,-16,240,20","nice piece, fall like,31,160,20","Again, like the colors & abstractness.,29,180,20","This piece feels soft and romantic to me. I do not care for so much orange though.,3,180,20","my reaction is that the picture is that Ive seen it before,-14,400,20","Interesting color scheme but to bled to me,11,300,20","Natalie","my reaction is that the picture is that Ive seen it before,-14,400,20","Melissa","muddy and uninteresting,-16,240,20","Mary","This piece feels soft and romantic to me. I do not care for so much orange though.,3,180,20","2"
"10442","","survey-text","73","799901","0.0-72.0-0.0","A25X755IRWK2U5","","","","{""Q0"":""looks like a child did this""}","","","","","","","","","","","","","","","","","","","","","","",""
"3032.2999999970198","","image-slider-response","74","802935","0.0-73.0","A25X755IRWK2U5","","","","","-35","","","","","","","","","","","","","","","","","","","","","",""
"null","","image-button-response","75","807949","0.0-74.0","A25X755IRWK2U5","img_art/27.jpg","null","","","","","","","","","","","","","","","","","","","","","","","","",""
"1046","","image-button-response","76","808998","0.0-75.0","A25X755IRWK2U5","img_art/27.jpg","1","","","","","","","","","","","","","","","","","","","","","","","","",""
"6554","","image-button-response","77","815554","0.0-76.0-0.0","A25X755IRWK2U5","img_art/27.jpg","4","","","","","","","","","","","","","","","","","","","","","","","","",""
"829","","image-button-response","78","816386","0.0-77.0-0.0","A25X755IRWK2U5","img_art/27.jpg","0","","","","","","","","","","","","","","","","","","","","","","","","",""
"null","","html-keyboard-response","79","817889","0.0-78.0","A25X755IRWK2U5","<p style=""font-size: 48px;"">+</p>","","","","","null","allTrialResponses","1500","1","5","img_art/27.jpg","-35","looks like a child did this","Melissa,Alexandria,Sydney,Mary,Natalie,Diana","reminds me of kandinsky,10,240,20","it looks very simple and childlike,-31,80,20","This piece reminds me of a summer day.,30,320,20","I like the layer upon layer of different mediums used here.,21,180,20","also gives me anxiety,-21,400,20","I don't care for the green scribbles; not sure what they are. But I adore the colors in the background.,24,380,20","Alexandria","it looks very simple and childlike,-31,80,20","Natalie","also gives me anxiety,-21,400,20","Melissa","reminds me of kandinsky,10,240,20","2"
"3456","","survey-text","80","821353","0.0-79.0-0.0","A25X755IRWK2U5","","","","{""Q0"":""sky""}","","","","","","","","","","","","","","","","","","","","","","",""
"13091","","survey-text","81","834446","0.0-80.0-0.0","A25X755IRWK2U5","","","","{""Q0"":""Simple and I like it""}","","","","","","","","","","","","","","","","","","","","","","",""
"3667.5999999940395","","image-slider-response","82","838116","0.0-81.0","A25X755IRWK2U5","","","","","25","","","","","","","","","","","","","","","","","","","","","",""
"1760","","image-button-response","83","843136","0.0-82.0","A25X755IRWK2U5","img_art/6.jpg","0","","","","","","","","","","","","","","","","","","","","","","","","",""
"1592","","image-button-response","84","844730","0.0-83.0","A25X755IRWK2U5","img_art/6.jpg","0","","","","","","","","","","","","","","","","","","","","","","","","",""
"1288","","image-button-response","85","846019","0.0-84.0-0.0","A25X755IRWK2U5","img_art/6.jpg","2","","","","","","","","","","","","","","","","","","","","","","","","",""
"2338","","image-button-response","86","848360","0.0-85.0-0.0","A25X755IRWK2U5","img_art/6.jpg","4","","","","","","","","","","","","","","","","","","","","","","","","",""
"null","","html-keyboard-response","87","848862","0.0-86.0","A25X755IRWK2U5","<p style=""font-size: 48px;"">+</p>","","","","","null","allTrialResponses","500","1","6","img_art/6.jpg","25","Simple and I like it","Melissa,Alexandria,Leslie,Vanessa,Natalie,Emma","composition is engaging,28,240,20","i like it but it is very neutral,9,80,20","The limited colors make me feel lonely.,36,380,20","I don't like the colors and the dark shape at the top makes me think of a buzzard.,-28,380,20","reminds me a giant peach,19,400,20","Birds are cool but I don't love it,10,60,20","Melissa","composition is engaging,28,240,20","Leslie","The limited colors make me feel lonely.,36,380,20","Natalie","reminds me a giant peach,19,400,20","2"
"27850","","survey-text","88","876722","0.0-87.0-0.0","A25X755IRWK2U5","","","","{""Q0"":""Just not a fan of this one at all""}","","","","","","","","","","","","","","","","","","","","","","",""
"3746.1999999955297","","image-slider-response","89","880470","0.0-88.0","A25X755IRWK2U5","","","","","-47","","","","","","","","","","","","","","","","","","","","","",""
"null","","image-button-response","90","885472","0.0-89.0","A25X755IRWK2U5","img_art/5.jpg","null","","","","","","","","","","","","","","","","","","","","","","","","",""
"84779","","image-button-response","91","970254","0.0-90.0","A25X755IRWK2U5","img_art/5.jpg","2","","","","","","","","","","","","","","","","","","","","","","","","",""
"2076","","image-button-response","92","972332","0.0-91.0-0.0","A25X755IRWK2U5","img_art/5.jpg","3","","","","","","","","","","","","","","","","","","","","","","","","",""
"2866","","image-button-response","93","975200","0.0-92.0-0.0","A25X755IRWK2U5","img_art/5.jpg","4","","","","","","","","","","","","","","","","","","","","","","","","",""
"null","","html-keyboard-response","94","975712","0.0-93.0","A25X755IRWK2U5","<p style=""font-size: 48px;"">+</p>","","","","","null","allTrialResponses","500","1","7","img_art/5.jpg","-47","Just not a fan of this one at all","Melissa,Mariah,Leslie,Allison,Natalie,Julia","strong appeal in contrast,27,240,20","It feels very strong and open.,31,140,20","This elicits no reaction in me.,0,380,20","Too loud. Dislike the bright yellow.,-5,140,20","the picture looks ok,8,400,20","I like this one but wish it had more context around it,18,40,20","Leslie","This elicits no reaction in me.,0,380,20","Allison","Too loud. Dislike the bright yellow.,-5,140,20","Natalie","the picture looks ok,8,400,20","2"
"11660","","survey-text","95","987378","0.0-94.0-0.0","A25X755IRWK2U5","","","","{""Q0"":""It look like smeared pooh""}","","","","","","","","","","","","","","","","","","","","","","",""
"2878.2000000029802","","image-slider-response","96","990258","0.0-95.0","A25X755IRWK2U5","","","","","-43","","","","","","","","","","","","","","","","","","","","","",""
"3704","","image-button-response","97","995276","0.0-96.0","A25X755IRWK2U5","img_art/4.jpg","0","","","","","","","","","","","","","","","","","","","","","","","","",""
"1193","","image-button-response","98","996472","0.0-97.0","A25X755IRWK2U5","img_art/4.jpg","0","","","","","","","","","","","","","","","","","","","","","","","","",""
"6172","","image-button-response","99","1002646","0.0-98.0-0.0","A25X755IRWK2U5","img_art/4.jpg","5","","","","","","","","","","","","","","","","","","","","","","","","",""
"2390","","image-button-response","100","1005038","0.0-99.0-0.0","A25X755IRWK2U5","img_art/4.jpg","3","","","","","","","","","","","","","","","","","","","","","","","","",""
"null","","html-keyboard-response","101","1006044","0.0-100.0","A25X755IRWK2U5","<p style=""font-size: 48px;"">+</p>","","","","","null","allTrialResponses","1000","1","8","img_art/4.jpg","-43","It look like smeared pooh","Lindsey,Morgan,Leslie,Allison,Natalie,Mackenzie","Looks like feces smeared on the canvas. I hate it.,-50,400,20","Pretzel noodles.,7,380,20","This elicits no reaction in me.,0,380,20","McDonald's French Fries.,-10,140,20","dont know what im looking at,1,400,20","I don't enjoy the colors, or texture, it seems like mustard,-23,20,20","Lindsey","Looks like feces smeared on the canvas. I hate it.,-50,400,20","Mackenzie","I don't enjoy the colors, or texture, it seems like mustard,-23,20,20","Allison","McDonald's French Fries.,-10,140,20","2"
"11305","","survey-text","102","1017356","0.0-101.0-0.0","A25X755IRWK2U5","","","","{""Q0"":""I enjoy the black in this one""}","","","","","","","","","","","","","","","","","","","","","","",""
"2332.2000000029802","","image-slider-response","103","1019690","0.0-102.0","A25X755IRWK2U5","","","","","6","","","","","","","","","","","","","","","","","","","","","",""
"4981","","image-button-response","104","1024692","0.0-103.0","A25X755IRWK2U5","img_art/10.jpg","0","","","","","","","","","","","","","","","","","","","","","","","","",""
"2695","","image-button-response","105","1027391","0.0-104.0","A25X755IRWK2U5","img_art/10.jpg","0","","","","","","","","","","","","","","","","","","","","","","","","",""
"1752","","image-button-response","106","1029145","0.0-105.0-0.0","A25X755IRWK2U5","img_art/10.jpg","3","","","","","","","","","","","","","","","","","","","","","","","","",""
"4308","","image-button-response","107","1033455","0.0-106.0-0.0","A25X755IRWK2U5","img_art/10.jpg","5","","","","","","","","","","","","","","","","","","","","","","","","",""
"null","","html-keyboard-response","108","1033962","0.0-107.0","A25X755IRWK2U5","<p style=""font-size: 48px;"">+</p>","","","","","null","allTrialResponses","500","1","9","img_art/10.jpg","6","I enjoy the black in this one","Lindsey,Sierra,Elizabeth,Allison,Danielle,Mackenzie","Looks like a violin. Not a fan of the smudges and smears, but my initial reaction was positive.,11,400,20","it just doesnt appeal to me.,-10,260,20","Has an air of mystery around it,39,20,20","I like the contrast,10,140,20","Seems very lovecraftian, which I love that style,25,340,20","The design is very fluid and fun to interpret,35,20,20","Lindsey","Looks like a violin. Not a fan of the smudges and smears, but my initial reaction was positive.,11,400,20","Allison","I like the contrast,10,140,20","Mackenzie","The design is very fluid and fun to interpret,35,20,20","2"
"8582","","survey-text","109","1042546","0.0-108.0-0.0","A25X755IRWK2U5","","","","{""Q0"":""Feels clowny to me""}","","","","","","","","","","","","","","","","","","","","","","",""
"2634.89999999851","","image-slider-response","110","1045182","0.0-109.0","A25X755IRWK2U5","","","","","-30","","","","","","","","","","","","","","","","","","","","","",""
"null","","image-button-response","111","1050194","0.0-110.0","A25X755IRWK2U5","img_art/2.jpg","null","","","","","","","","","","","","","","","","","","","","","","","","",""
"164","","image-button-response","112","1050361","0.0-111.0","A25X755IRWK2U5","img_art/2.jpg","0","","","","","","","","","","","","","","","","","","","","","","","","",""
"1676","","image-button-response","113","1052039","0.0-112.0-0.0","A25X755IRWK2U5","img_art/2.jpg","2","","","","","","","","","","","","","","","","","","","","","","","","",""
"1344","","image-button-response","114","1053385","0.0-113.0-0.0","A25X755IRWK2U5","img_art/2.jpg","5","","","","","","","","","","","","","","","","","","","","","","","","",""
"null","","html-keyboard-response","115","1053886","0.0-114.0","A25X755IRWK2U5","<p style=""font-size: 48px;"">+</p>","","","","","null","allTrialResponses","500","1","10","img_art/2.jpg","-30","Feels clowny to me","Lindsey,Mikayla,Paige,Allison,Alyssa,Mackenzie","Not a fan of the colors or the style.,-31,400,20","I love the colors in this.,29,300,20","Unhappy. I do not like it,-5,60,20","Hate the vomit green.,-31,140,20","Its meh. Doesnt illicit any strong feelings in me,1,160,20","Muted green is overpowering,-10,20,20","Lindsey","Not a fan of the colors or the style.,-31,400,20","Paige","Unhappy. I do not like it,-5,60,20","Mackenzie","Muted green is overpowering,-10,20,20","2"
"3657","","survey-text","116","1057550","0.0-115.0-0.0","A25X755IRWK2U5","","","","{""Q0"":""our""}","","","","","","","","","","","","","","","","","","","","","","",""
"8161","","survey-text","117","1065713","0.0-116.0-0.0","A25X755IRWK2U5","","","","{""Q0"":""Love the way the sky looks""}","","","","","","","","","","","","","","","","","","","","","","",""
"2486.39999999851","","image-slider-response","118","1068201","0.0-117.0","A25X755IRWK2U5","","","","","29","","","","","","","","","","","","","","","","","","","","","",""
"2618","","image-button-response","119","1073205","0.0-118.0","A25X755IRWK2U5","img_art/20.jpg","0","","","","","","","","","","","","","","","","","","","","","","","","",""
"268","","image-button-response","120","1073477","0.0-119.0","A25X755IRWK2U5","img_art/20.jpg","0","","","","","","","","","","","","","","","","","","","","","","","","",""
"2268","","image-button-response","121","1075747","0.0-120.0-0.0","A25X755IRWK2U5","img_art/20.jpg","1","","","","","","","","","","","","","","","","","","","","","","","","",""
"2732","","image-button-response","122","1078481","0.0-121.0-0.0","A25X755IRWK2U5","img_art/20.jpg","3","","","","","","","","","","","","","","","","","","","","","","","","",""
"null","","html-keyboard-response","123","1079489","0.0-122.0","A25X755IRWK2U5","<p style=""font-size: 48px;"">+</p>","","","","","null","allTrialResponses","1000","1","11","img_art/20.jpg","29","Love the way the sky looks","Lindsey,Marissa,Paige,Makayla,Amy,Mackenzie","Not sure what it is. The colors are pleasant; makes me want to figure it out. An animal skull in the desert?,10,400,20","I feel intrigued and impressed,34,160,20","scared. makes me feel alone or abandoned,-11,60,20","Little picturesque town that I would like to visit,19,80,20","Elements that are more defined are incongruous to the soft and melting nature of this painting,5,220,20","Shapes are fun to interpret,21,20,20","Lindsey","Not sure what it is. The colors are pleasant; makes me want to figure it out. An animal skull in the desert?,10,400,20","Marissa","I feel intrigued and impressed,34,160,20","Makayla","Little picturesque town that I would like to visit,19,80,20","2"
"9602","","survey-text","124","1089101","0.0-123.0-0.0","A25X755IRWK2U5","","","","{""Q0"":""Kind of muted but attractive""}","","","","","","","","","","","","","","","","","","","","","","",""
"2482.2000000029802","","image-slider-response","125","1091585","0.0-124.0","A25X755IRWK2U5","","","","","12","","","","","","","","","","","","","","","","","","","","","",""
"4021","","image-button-response","126","1096596","0.0-125.0","A25X755IRWK2U5","img_art/26.jpg","4","","","","","","","","","","","","","","","","","","","","","","","","",""
"855","","image-button-response","127","1097453","0.0-126.0","A25X755IRWK2U5","img_art/26.jpg","4","","","","","","","","","","","","","","","","","","","","","","","","",""
"1984","","image-button-response","128","1099439","0.0-127.0-0.0","A25X755IRWK2U5","img_art/26.jpg","5","","","","","","","","","","","","","","","","","","","","","","","","",""
"1823","","image-button-response","129","1101263","0.0-128.0-0.0","A25X755IRWK2U5","img_art/26.jpg","3","","","","","","","","","","","","","","","","","","","","","","","","",""
"null","","html-keyboard-response","130","1102766","0.0-129.0","A25X755IRWK2U5","<p style=""font-size: 48px;"">+</p>","","","","","null","allTrialResponses","1500","1","12","img_art/26.jpg","12","Kind of muted but attractive","Lindsey,Marissa,Kaitlin,Makayla,Katie,Kimberly","I see a suburban neighborhood with townhouses and trees. Not a fan of the colors or style.,-16,400,20","It feels simple and pretty,12,160,20","i can feel the warmth,12,60,20","Reminds me of a European street, I desire to walk in this picture,28,80,20","Reminds me of watercolor. Muted tones and blurry soft brush strokes. Calm to me.,1,160,20","It looks like I'm staring out of the window of a nice house, but the house is mine,20,260,20","Katie","Reminds me of watercolor. Muted tones and blurry soft brush strokes. Calm to me.,1,160,20","Kimberly","It looks like I'm staring out of the window of a nice house, but the house is mine,20,260,20","Makayla","Reminds me of a European street, I desire to walk in this picture,28,80,20","2"
"8800","","survey-text","131","1111571","0.0-130.0-0.0","A25X755IRWK2U5","","","","{""Q0"":""Sunset and the key!""}","","","","","","","","","","","","","","","","","","","","","","",""
"3198.7999999970198","","image-slider-response","132","1114771","0.0-131.0","A25X755IRWK2U5","","","","","29","","","","","","","","","","","","","","","","","","","","","",""
"2957","","image-button-response","133","1119782","0.0-132.0","A25X755IRWK2U5","img_art/22.jpg","1","","","","","","","","","","","","","","","","","","","","","","","","",""
"503","","image-button-response","134","1120287","0.0-133.0","A25X755IRWK2U5","img_art/22.jpg","1","","","","","","","","","","","","","","","","","","","","","","","","",""
"4389","","image-button-response","135","1124677","0.0-134.0-0.0","A25X755IRWK2U5","img_art/22.jpg","5","","","","","","","","","","","","","","","","","","","","","","","","",""
"2592","","image-button-response","136","1127271","0.0-135.0-0.0","A25X755IRWK2U5","img_art/22.jpg","3","","","","","","","","","","","","","","","","","","","","","","","","",""
"null","","html-keyboard-response","137","1127773","0.0-136.0","A25X755IRWK2U5","<p style=""font-size: 48px;"">+</p>","","","","","null","allTrialResponses","500","1","13","img_art/22.jpg","29","Sunset and the key!","Courtney,Angela,Tiffany,Makayla,Katie,Kimberly","Looks hot where ever that is.,-8,280,20","Like the colors. I enjoy looking at this one.,15,260,20","The painting makes me feel a little sad.,12,360,20","Just neutral no feelings,2,80,20","Too much red. The red/yellow/orange make me think of heat/fire, which makes me anxious.,-10,160,20","I like the key near the sphere in the center,19,260,20","Angela","Like the colors. I enjoy looking at this one.,15,260,20","Kimberly","I like the key near the sphere in the center,19,260,20","Makayla","Just neutral no feelings,2,80,20","2"
"19918","","survey-text","138","1147701","0.0-137.0-0.0","A25X755IRWK2U5","","","","{""Q0"":""I really love this one.""}","","","","","","","","","","","","","","","","","","","","","","",""
"3223","","image-slider-response","139","1150925","0.0-138.0","A25X755IRWK2U5","","","","","47","","","","","","","","","","","","","","","","","","","","","",""
"3093","","image-button-response","140","1155927","0.0-139.0","A25X755IRWK2U5","img_art/13.jpg","2","","","","","","","","","","","","","","","","","","","","","","","","",""
"637","","image-button-response","141","1156567","0.0-140.0","A25X755IRWK2U5","img_art/13.jpg","2","","","","","","","","","","","","","","","","","","","","","","","","",""
"4088","","image-button-response","142","1160658","0.0-141.0-0.0","A25X755IRWK2U5","img_art/13.jpg","4","","","","","","","","","","","","","","","","","","","","","","","","",""
"1856","","image-button-response","143","1162515","0.0-142.0-0.0","A25X755IRWK2U5","img_art/13.jpg","1","","","","","","","","","","","","","","","","","","","","","","","","",""
"null","","html-keyboard-response","144","1164022","0.0-143.0","A25X755IRWK2U5","<p style=""font-size: 48px;"">+</p>","","","","","null","allTrialResponses","1500","1","14","img_art/13.jpg","47","I really love this one.","Kayla,Angela,Amanda,Makayla,Lauren,Kimberly","Pleasing, happy, rainy.,12,180,20","It's okay. Feels like a blander take on a Jackson Pollack,11,260,20","Feels calm and could be placed in anyones house,43,180,20","Reminds me of the aquarium,4,80,20","I like the color coordination between the foreground and background.,10,340,20","It's like a pattern on a bus seat,10,260,20","Amanda","Feels calm and could be placed in anyones house,43,180,20","Lauren","I like the color coordination between the foreground and background.,10,340,20","Angela","It's okay. Feels like a blander take on a Jackson Pollack,11,260,20","2"
"8732","","survey-text","145","1172761","0.0-144.0-0.0","A25X755IRWK2U5","","","","{""Q0"":""Yuck, I hate the blockiness of this one""}","","","","","","","","","","","","","","","","","","","","","","",""
"2237.7000000029802","","image-slider-response","146","1175001","0.0-145.0","A25X755IRWK2U5","","","","","-44","","","","","","","","","","","","","","","","","","","","","",""
"2085","","image-button-response","147","1180003","0.0-146.0","A25X755IRWK2U5","img_art/12.jpg","0","","","","","","","","","","","","","","","","","","","","","","","","",""
"464","","image-button-response","148","1180469","0.0-147.0","A25X755IRWK2U5","img_art/12.jpg","0","","","","","","","","","","","","","","","","","","","","","","","","",""
"2426","","image-button-response","149","1182897","0.0-148.0-0.0","A25X755IRWK2U5","img_art/12.jpg","4","","","","","","","","","","","","","","","","","","","","","","","","",""
"1522","","image-button-response","150","1184422","0.0-149.0-0.0","A25X755IRWK2U5","img_art/12.jpg","5","","","","","","","","","","","","","","","","","","","","","","","","",""
"null","","html-keyboard-response","151","1185437","0.0-150.0","A25X755IRWK2U5","<p style=""font-size: 48px;"">+</p>","","","","","null","allTrialResponses","1000","1","15","img_art/12.jpg","-44","Yuck, I hate the blockiness of this one","Kelsey,Angela,Amanda,Briana,Lauren,Kristen","dont like the squares,-16,240,20","I like the colors in the bottom half of the painting,10,260,20","The colors are beautiful and it has great composition,50,180,20","Interesting colors. I really dont like modern art though,24,400,20","This doesn't invoke anything. Just a mosaic of random images.,0,340,20","stressful, upsetting,-10,280,20","Kelsey","dont like the squares,-16,240,20","Lauren","This doesn't invoke anything. Just a mosaic of random images.,0,340,20","Kristen","stressful, upsetting,-10,280,20","2"
"3980","","survey-text","152","1189427","0.0-151.0-0.0","A25X755IRWK2U5","","","","{""Q0"":""course""}","","","","","","","","","","","","","","","","","","","","","","",""
"6426","","survey-text","153","1195855","0.0-152.0-0.0","A25X755IRWK2U5","","","","{""Q0"":""like snakes""}","","","","","","","","","","","","","","","","","","","","","","",""
"2368.60000000149","","image-slider-response","154","1198225","0.0-153.0","A25X755IRWK2U5","","","","","-29","","","","","","","","","","","","","","","","","","","","","",""
"null","","image-button-response","155","1203771","0.0-154.0","A25X755IRWK2U5","img_art/30.jpg","null","","","","","","","","","","","","","","","","","","","","","","","","",""
"37317","","image-button-response","156","1241091","0.0-155.0","A25X755IRWK2U5","img_art/30.jpg","3","","","","","","","","","","","","","","","","","","","","","","","","",""
"3014","","image-button-response","157","1244107","0.0-156.0-0.0","A25X755IRWK2U5","img_art/30.jpg","1","","","","","","","","","","","","","","","","","","","","","","","","",""
"1418","","image-button-response","158","1245527","0.0-157.0-0.0","A25X755IRWK2U5","img_art/30.jpg","0","","","","","","","","","","","","","","","","","","","","","","","","",""
"null","","html-keyboard-response","159","1246530","0.0-158.0","A25X755IRWK2U5","<p style=""font-size: 48px;"">+</p>","","","","","null","allTrialResponses","1000","1","16","img_art/30.jpg","-29","like snakes","Kelsey,Miranda,Jamie,Jordan,Lauren,Kristen","dont like this much at all,-30,240,20","It looks like it was made by pre-k students.,-30,320,20","Cool design and contrast of colors,30,320,20","cant see the meaning behind it,-20,20,20","I like how the strokes invokes a sense of fluidity.,20,340,20","makes me think of a tunnel filled with graffiti,19,280,20","Jordan","cant see the meaning behind it,-20,20,20","Miranda","It looks like it was made by pre-k students.,-30,320,20","Kelsey","dont like this much at all,-30,240,20","2"
"10405","","survey-text","160","1256943","0.0-159.0-0.0","A25X755IRWK2U5","","","","{""Q0"":""I like the colors and the feel""}","","","","","","","","","","","","","","","","","","","","","","",""
"2594.39999999851","","image-slider-response","161","1259539","0.0-160.0","A25X755IRWK2U5","","","","","22","","","","","","","","","","","","","","","","","","","","","",""
"4472","","image-button-response","162","1264553","0.0-161.0","A25X755IRWK2U5","img_art/14.jpg","0","","","","","","","","","","","","","","","","","","","","","","","","",""
"1044","","image-button-response","163","1265599","0.0-162.0","A25X755IRWK2U5","img_art/14.jpg","0","","","","","","","","","","","","","","","","","","","","","","","","",""
"1383","","image-button-response","164","1266983","0.0-163.0-0.0","A25X755IRWK2U5","img_art/14.jpg","4","","","","","","","","","","","","","","","","","","","","","","","","",""
"1452","","image-button-response","165","1268437","0.0-164.0-0.0","A25X755IRWK2U5","img_art/14.jpg","5","","","","","","","","","","","","","","","","","","","","","","","","",""
"null","","html-keyboard-response","166","1269940","0.0-165.0","A25X755IRWK2U5","<p style=""font-size: 48px;"">+</p>","","","","","null","allTrialResponses","1500","1","17","img_art/14.jpg","22","I like the colors and the feel","Kelsey,Miranda,Kaitlyn,Jordan,Stephanie,Madeline","i like this one!,23,240,20","This just looks like a kids watercolor painting.,-30,320,20","Focal point is interesting,5,80,20","this one isn't bad, reminds me a tree that gives life, and people are waiting for someone new to be born,27,20,20","Late Winter when things are just starting to bloom.,21,300,20","It looks nice colorwise but detail is lacking,18,40,20","Kelsey","i like this one!,23,240,20","Stephanie","Late Winter when things are just starting to bloom.,21,300,20","Madeline","It looks nice colorwise but detail is lacking,18,40,20","2"
"98050","","survey-text","167","1368000","0.0-166.0-0.0","A25X755IRWK2U5","","","","{""Q0"":""I like the crispness""}","","","","","","","","","","","","","","","","","","","","","","",""
"4345.70000000298","","image-slider-response","168","1372347","0.0-167.0","A25X755IRWK2U5","","","","","28","","","","","","","","","","","","","","","","","","","","","",""
"2741","","image-button-response","169","1377369","0.0-168.0","A25X755IRWK2U5","img_art/18.jpg","1","","","","","","","","","","","","","","","","","","","","","","","","",""
"530","","image-button-response","170","1377902","0.0-169.0","A25X755IRWK2U5","img_art/18.jpg","1","","","","","","","","","","","","","","","","","","","","","","","","",""
"3936","","image-button-response","171","1381840","0.0-170.0-0.0","A25X755IRWK2U5","img_art/18.jpg","3","","","","","","","","","","","","","","","","","","","","","","","","",""
"1644","","image-button-response","172","1383486","0.0-171.0-0.0","A25X755IRWK2U5","img_art/18.jpg","5","","","","","","","","","","","","","","","","","","","","","","","","",""
"null","","html-keyboard-response","173","1383991","0.0-172.0","A25X755IRWK2U5","<p style=""font-size: 48px;"">+</p>","","","","","null","allTrialResponses","500","1","18","img_art/18.jpg","28","I like the crispness","Kelsey,Hailey,Margaret,Jacqueline,Stephanie,Madeline","its messy, it seems angry,-21,240,20","i like the colors. outerspace,21,200,20","reminds me of dying at sea in the 1700s,-8,100,20","Kinda neat, looks like cavalry, or a knight.,15,300,20","It made me think of a car crash,-39,300,20","Good concept but then scribbled on a bit?,15,40,20","Hailey","i like the colors. outerspace,21,200,20","Jacqueline","Kinda neat, looks like cavalry, or a knight.,15,300,20","Madeline","Good concept but then scribbled on a bit?,15,40,20","2"
"8893","","survey-text","174","1392892","0.0-173.0-0.0","A25X755IRWK2U5","","","","{""Q0"":""Just feels too messy""}","","","","","","","","","","","","","","","","","","","","","","",""
"2766","","image-slider-response","175","1395660","0.0-174.0","A25X755IRWK2U5","","","","","-27","","","","","","","","","","","","","","","","","","","","","",""
"null","","image-button-response","176","1400675","0.0-175.0","A25X755IRWK2U5","img_art/15.jpg","null","","","","","","","","","","","","","","","","","","","","","","","","",""
"1844","","image-button-response","177","1402522","0.0-176.0","A25X755IRWK2U5","img_art/15.jpg","4","","","","","","","","","","","","","","","","","","","","","","","","",""
"1876","","image-button-response","178","1404400","0.0-177.0-0.0","A25X755IRWK2U5","img_art/15.jpg","3","","","","","","","","","","","","","","","","","","","","","","","","",""
"2242","","image-button-response","179","1406644","0.0-178.0-0.0","A25X755IRWK2U5","img_art/15.jpg","1","","","","","","","","","","","","","","","","","","","","","","","","",""
"null","","html-keyboard-response","180","1407147","0.0-179.0","A25X755IRWK2U5","<p style=""font-size: 48px;"">+</p>","","","","","null","allTrialResponses","500","1","19","img_art/15.jpg","-27","Just feels too messy","Michaela,Hailey,Cassidy,Jacqueline,Isabella,Madeline","Reminds me of lilacs,26,260,20","ugly picture and don't like it,-22,200,20","I like the random blue dabs to break up the black, but it looks unfinished.,4,140,20","I don't like how the black dots are aligned.,-20,300,20","Too intense with the black dotting,-22,280,20","Simple but needs some more detail somehow,-3,40,20","Isabella","Too intense with the black dotting,-22,280,20","Jacqueline","I don't like how the black dots are aligned.,-20,300,20","Hailey","ugly picture and don't like it,-22,200,20","2"
"9538","","survey-text","181","1416696","0.0-180.0-0.0","A25X755IRWK2U5","","","","{""Q0"":""I like this a lot, its like music""}","","","","","","","","","","","","","","","","","","","","","","",""
"3634.2999999970198","","image-slider-response","182","1420330","0.0-181.0","A25X755IRWK2U5","","","","","42","","","","","","","","","","","","","","","","","","","","","",""
"null","","image-button-response","183","1425767","0.0-182.0","A25X755IRWK2U5","img_art/11.jpg","null","","","","","","","","","","","","","","","","","","","","","","","","",""
"40715","","image-button-response","184","1466484","0.0-183.0","A25X755IRWK2U5","img_art/11.jpg","4","","","","","","","","","","","","","","","","","","","","","","","","",""
"3734","","image-button-response","185","1470220","0.0-184.0-0.0","A25X755IRWK2U5","img_art/11.jpg","5","","","","","","","","","","","","","","","","","","","","","","","","",""
"2705","","image-button-response","186","1472928","0.0-185.0-0.0","A25X755IRWK2U5","img_art/11.jpg","1","","","","","","","","","","","","","","","","","","","","","","","","",""
"null","","html-keyboard-response","187","1474431","0.0-186.0","A25X755IRWK2U5","<p style=""font-size: 48px;"">+</p>","","","","","null","allTrialResponses","1500","1","20","img_art/11.jpg","42","I like this a lot, its like music","Catherine,Hailey,Jennifer,Jacqueline,Isabella,Cassandra","Busy city life. transportation, anxiety.,10,160,20","a train going around the country,14,200,20","The narrow groups of lines in the center make me feel uneasy for some reason,-31,380,20","It's too dark and dingy.,-30,300,20","City on a hill, tranquility,42,280,20","I liked it it looked like an roller coasters at an amusment park.,16,120,20","Isabella","City on a hill, tranquility,42,280,20","Cassandra","I liked it it looked like an roller coasters at an amusment park.,16,120,20","Hailey","a train going around the country,14,200,20","2"
"8112","","survey-text","188","1482560","0.0-187.0-0.0","A25X755IRWK2U5","","","","{""Q0"":""we""}","","","","","","","","","","","","","","","","","","","","","","",""
"5825","","survey-text","189","1488387","0.0-188.0-0.0","A25X755IRWK2U5","","","","{""Q0"":""Way too much red""}","","","","","","","","","","","","","","","","","","","","","","",""
"2866.199999988079","","image-slider-response","190","1491255","0.0-189.0","A25X755IRWK2U5","","","","","-35","","","","","","","","","","","","","","","","","","","","","",""
"null","","image-button-response","191","1496759","0.0-190.0","A25X755IRWK2U5","img_art/3.jpg","null","","","","","","","","","","","","","","","","","","","","","","","","",""
"55673","","image-button-response","192","1552434","0.0-191.0","A25X755IRWK2U5","img_art/3.jpg","0","","","","","","","","","","","","","","","","","","","","","","","","",""
"1484","","image-button-response","193","1553920","0.0-192.0-0.0","A25X755IRWK2U5","img_art/3.jpg","1","","","","","","","","","","","","","","","","","","","","","","","","",""
"2850","","image-button-response","194","1556772","0.0-193.0-0.0","A25X755IRWK2U5","img_art/3.jpg","4","","","","","","","","","","","","","","","","","","","","","","","","",""
"null","","html-keyboard-response","195","1557289","0.0-194.0","A25X755IRWK2U5","<p style=""font-size: 48px;"">+</p>","","","","","null","allTrialResponses","500","1","21","img_art/3.jpg","-35","Way too much red","Brooke,Hailey,Megan,Nicole,Isabella,Cassandra","kid scribbled on the wall again,-35,60,20","painted by a 2 year old. cold and boring,-30,200,20","5 min scribble by a 3 year old,-46,200,20","Something I'd paint when I'm mad. I feel that,20,20,20","Too much red or blood,-28,280,20","I hate this...just a scribble of red.,-50,120,20","Brooke","kid scribbled on the wall again,-35,60,20","Hailey","painted by a 2 year old. cold and boring,-30,200,20","Isabella","Too much red or blood,-28,280,20","2"
"10023","","survey-text","196","1567319","0.0-195.0-0.0","A25X755IRWK2U5","","","","{""Q0"":""A city and nice colors""}","","","","","","","","","","","","","","","","","","","","","","",""
"3820.699999988079","","image-slider-response","197","1571142","0.0-196.0","A25X755IRWK2U5","","","","","27","","","","","","","","","","","","","","","","","","","","","",""
"null","","image-button-response","198","1576769","0.0-197.0","A25X755IRWK2U5","img_art/8.jpg","null","","","","","","","","","","","","","","","","","","","","","","","","",""
"68533","","image-button-response","199","1645305","0.0-198.0","A25X755IRWK2U5","img_art/8.jpg","2","","","","","","","","","","","","","","","","","","","","","","","","",""
"1834","","image-button-response","200","1647141","0.0-199.0-0.0","A25X755IRWK2U5","img_art/8.jpg","4","","","","","","","","","","","","","","","","","","","","","","","","",""
"3644","","image-button-response","201","1650787","0.0-200.0-0.0","A25X755IRWK2U5","img_art/8.jpg","3","","","","","","","","","","","","","","","","","","","","","","","","",""
"null","","html-keyboard-response","202","1652307","0.0-201.0","A25X755IRWK2U5","<p style=""font-size: 48px;"">+</p>","","","","","null","allTrialResponses","1500","1","22","img_art/8.jpg","27","A city and nice colors","Brooke,Hailey,Sara,Andrea,Isabella,Leah","what's going on here. looks like scary town.,-25,60,20","cold city controlled by evil gods,-17,200,20","Very interesting use of blocks,21,160,20","The face makes me think its a statement of the almighty of big brother watching us. onfuCsion limits my enjoyment.,6,240,20","Ancient city looked after by diety,38,280,20","Nice formats, I just don't like it much,-16,360,20","Sara","Very interesting use of blocks,21,160,20","Isabella","Ancient city looked after by diety,38,280,20","Andrea","The face makes me think its a statement of the almighty of big brother watching us. onfuCsion limits my enjoyment.,6,240,20","2"
"13670","","survey-text","203","1665986","0.0-202.0-0.0","A25X755IRWK2U5","","","","{""Q0"":""This one is attractive like dancing""}","","","","","","","","","","","","","","","","","","","","","","",""
"3860.5","","image-slider-response","204","1669848","0.0-203.0","A25X755IRWK2U5","","","","","25","","","","","","","","","","","","","","","","","","","","","",""
"null","","image-button-response","205","1674860","0.0-204.0","A25X755IRWK2U5","img_art/23.jpg","null","","","","","","","","","","","","","","","","","","","","","","","","",""
"875","","image-button-response","206","1675736","0.0-205.0","A25X755IRWK2U5","img_art/23.jpg","1","","","","","","","","","","","","","","","","","","","","","","","","",""
"912","","image-button-response","207","1676651","0.0-206.0-0.0","A25X755IRWK2U5","img_art/23.jpg","2","","","","","","","","","","","","","","","","","","","","","","","","",""
"826","","image-button-response","208","1677479","0.0-207.0-0.0","A25X755IRWK2U5","img_art/23.jpg","5","","","","","","","","","","","","","","","","","","","","","","","","",""
"null","","html-keyboard-response","209","1678495","0.0-208.0","A25X755IRWK2U5","<p style=""font-size: 48px;"">+</p>","","","","","null","allTrialResponses","1000","1","23","img_art/23.jpg","25","This one is attractive like dancing","Sarah,Gabriela,Sara,Andrea,Isabella,Michelle","it's not uninteresting, but i'm not responding to it,-7,180,20","It looks like a parade of musicians full of excitement. Makes me feel upbeat,33,140,20","Beautiful color scheme,21,160,20","I see souls in torment and that makes me feel uneasy.,-21,240,20","Love the line in the middle separating the two dark sides,50,280,20","This is nice, the colorful background is fun and the white looks like dancing figures,5,280,20","Gabriela","It looks like a parade of musicians full of excitement. Makes me feel upbeat,33,140,20","Sara","Beautiful color scheme,21,160,20","Michelle","This is nice, the colorful background is fun and the white looks like dancing figures,5,280,20","2"
"8193","","survey-text","210","1686694","0.0-209.0-0.0","A25X755IRWK2U5","","","","{""Q0"":""Too muted and not interesting""}","","","","","","","","","","","","","","","","","","","","","","",""
"2914.9000000059605","","image-slider-response","211","1689610","0.0-210.0","A25X755IRWK2U5","","","","","-38","","","","","","","","","","","","","","","","","","","","","",""
"null","","image-button-response","212","1694621","0.0-211.0","A25X755IRWK2U5","img_art/28.jpg","null","","","","","","","","","","","","","","","","","","","","","","","","",""
"2376","","image-button-response","213","1697000","0.0-212.0","A25X755IRWK2U5","img_art/28.jpg","1","","","","","","","","","","","","","","","","","","","","","","","","",""
"1033","","image-button-response","214","1698035","0.0-213.0-0.0","A25X755IRWK2U5","img_art/28.jpg","2","","","","","","","","","","","","","","","","","","","","","","","","",""
"884","","image-button-response","215","1698921","0.0-214.0-0.0","A25X755IRWK2U5","img_art/28.jpg","4","","","","","","","","","","","","","","","","","","","","","","","","",""
"null","","html-keyboard-response","216","1700425","0.0-215.0","A25X755IRWK2U5","<p style=""font-size: 48px;"">+</p>","","","","","null","allTrialResponses","1500","1","24","img_art/28.jpg","-38","Too muted and not interesting","Caitlin,Gabriela,Sara,Erika,Katherine,Michelle","Bug meets bug in a dark alley.,-20,80,20","The brown and green colors used look dull and unappealing,-30,140,20","This swirly drawing i snot my type I get confused and dizzy,-20,160,20","Invokes curiosity, I want to know it's story.,15,100,20","Eh it's just kinda brown and muddy and not very nice looking,-18,120,20","This piece is depressing to me, reminds me of German paintings,-6,280,20","Gabriela","The brown and green colors used look dull and unappealing,-30,140,20","Sara","This swirly drawing i snot my type I get confused and dizzy,-20,160,20","Katherine","Eh it's just kinda brown and muddy and not very nice looking,-18,120,20","2"
"8979","","survey-text","217","1709415","0.0-216.0-0.0","A25X755IRWK2U5","","","","{""Q0"":""I love the colors and the stream is moving!""}","","","","","","","","","","","","","","","","","","","","","","",""
"3116.7999999970198","","image-slider-response","218","1712534","0.0-217.0","A25X755IRWK2U5","","","","","49","","","","","","","","","","","","","","","","","","","","","",""
"null","","image-button-response","219","1717759","0.0-218.0","A25X755IRWK2U5","img_art/24.jpg","null","","","","","","","","","","","","","","","","","","","","","","","","",""
"190540","","image-button-response","220","1908301","0.0-219.0","A25X755IRWK2U5","img_art/24.jpg","1","","","","","","","","","","","","","","","","","","","","","","","","",""
"1380","","image-button-response","221","1909683","0.0-220.0-0.0","A25X755IRWK2U5","img_art/24.jpg","0","","","","","","","","","","","","","","","","","","","","","","","","",""
"2705","","image-button-response","222","1912390","0.0-221.0-0.0","A25X755IRWK2U5","img_art/24.jpg","5","","","","","","","","","","","","","","","","","","","","","","","","",""
"null","","html-keyboard-response","223","1912892","0.0-222.0","A25X755IRWK2U5","<p style=""font-size: 48px;"">+</p>","","","","","null","allTrialResponses","500","1","25","img_art/24.jpg","49","I love the colors and the stream is moving!","Rebecca,Gabriela,Sara,Chloe,Katherine,Amber","organized mess at first glance, would love to inspect this in closer proximity,39,100,20","I love how bold and vibrant the colors are,40,140,20","Beautiful scenic drawing with perfect color coordination,43,160,20","Pretty but cheesy,-15,220,20","The combination of nature / realism with abstract colors is unique.,39,120,20","peaceful and calm yet joyous.,50,200,20","Gabriela","I love how bold and vibrant the colors are,40,140,20","Rebecca","organized mess at first glance, would love to inspect this in closer proximity,39,100,20","Amber","peaceful and calm yet joyous.,50,200,20","2"
"3834","","survey-text","224","1916747","0.0-223.0-0.0","A25X755IRWK2U5","","","","{""Q0"":""table""}","","","","","","","","","","","","","","","","","","","","","","",""
"5045","","survey-text","225","1921793","0.0-224.0-0.0","A25X755IRWK2U5","","","","{""Q0"":""Yuck""}","","","","","","","","","","","","","","","","","","","","","","",""
"6587","","survey-text","226","1932427","0.0-224.1-0.1","A25X755IRWK2U5","","","","{""Q0"":""yuck, just plain yuck""}","","","","","","","","","","","","","","","","","","","","","","",""
"2585","","image-slider-response","227","1935013","0.0-225.0","A25X755IRWK2U5","","","","","-50","","","","","","","","","","","","","","","","","","","","","",""
"null","","image-button-response","228","1940022","0.0-226.0","A25X755IRWK2U5","img_art/16.jpg","null","","","","","","","","","","","","","","","","","","","","","","","","",""
"1658","","image-button-response","229","1941682","0.0-227.0","A25X755IRWK2U5","img_art/16.jpg","5","","","","","","","","","","","","","","","","","","","","","","","","",""
"1442","","image-button-response","230","1943125","0.0-228.0-0.0","A25X755IRWK2U5","img_art/16.jpg","1","","","","","","","","","","","","","","","","","","","","","","","","",""
"1453","","image-button-response","231","1944579","0.0-229.0-0.0","A25X755IRWK2U5","img_art/16.jpg","3","","","","","","","","","","","","","","","","","","","","","","","","",""
"null","","html-keyboard-response","232","1945585","0.0-230.0","A25X755IRWK2U5","<p style=""font-size: 48px;"">+</p>","","","","","null","allTrialResponses","1000","1","26","img_art/16.jpg","-50","yuck, just plain yuck","Rebecca,Gabriela,Jasmine,Kelly,Katelyn,Amber","don't know how to feel, I mean I respect it but I honestly don't know about this,-12,100,20","It looks very generic, like items were pasted onto the background,-38,140,20","I like it because it's quite different from the rest,23,340,20","Looks like someone got really high and did a bad photoshop job.,-27,220,20","I dont feel any real response,5,100,20","Don't like the teddy bear. It takes away from the painting.,-39,200,20","Amber","Don't like the teddy bear. It takes away from the painting.,-39,200,20","Gabriela","It looks very generic, like items were pasted onto the background,-38,140,20","Kelly","Looks like someone got really high and did a bad photoshop job.,-27,220,20","2"
"7287","","survey-text","233","1952883","0.0-231.0-0.0","A25X755IRWK2U5","","","","{""Q0"":""Feels messy ""}","","","","","","","","","","","","","","","","","","","","","","",""
"3074.5999999940395","","image-slider-response","234","1955959","0.0-232.0","A25X755IRWK2U5","","","","","-28","","","","","","","","","","","","","","","","","","","","","",""
"null","","image-button-response","235","1961756","0.0-233.0","A25X755IRWK2U5","img_art/29.jpg","null","","","","","","","","","","","","","","","","","","","","","","","","",""
"66386","","image-button-response","236","2028144","0.0-234.0","A25X755IRWK2U5","img_art/29.jpg","5","","","","","","","","","","","","","","","","","","","","","","","","",""
"1376","","image-button-response","237","2029522","0.0-235.0-0.0","A25X755IRWK2U5","img_art/29.jpg","0","","","","","","","","","","","","","","","","","","","","","","","","",""
"1152","","image-button-response","238","2030676","0.0-236.0-0.0","A25X755IRWK2U5","img_art/29.jpg","3","","","","","","","","","","","","","","","","","","","","","","","","",""
"null","","html-keyboard-response","239","2031181","0.0-237.0","A25X755IRWK2U5","<p style=""font-size: 48px;"">+</p>","","","","","null","allTrialResponses","500","1","27","img_art/29.jpg","-28","Feels messy ","Angelica,Gabriela,Cheyenne,Kelly,Heather,Amber","This is very gross and odd looking.,-8,280,20","I like that it looks like a scene from perhaps a failed painted project,10,140,20","Really enjoy everything about this one.,50,200,20","Too much going on, and I don't like the colors. It looks like a crime scene.,-50,220,20","i dont know how it makes me feel.,1,260,20","Don't like the red X across the painting.,-15,200,20","Amber","Don't like the red X across the painting.,-15,200,20","Angelica","This is very gross and odd looking.,-8,280,20","Kelly","Too much going on, and I don't like the colors. It looks like a crime scene.,-50,220,20","2"
"9018","","survey-text","240","2040206","0.0-238.0-0.0","A25X755IRWK2U5","","","","{""Q0"":""Colors are nice but it is too messy""}","","","","","","","","","","","","","","","","","","","","","","",""
"2320.2000000029802","","image-slider-response","241","2042528","0.0-239.0","A25X755IRWK2U5","","","","","-32","","","","","","","","","","","","","","","","","","","","","",""
"null","","image-button-response","242","2047751","0.0-240.0","A25X755IRWK2U5","img_art/9.jpg","null","","","","","","","","","","","","","","","","","","","","","","","","",""
"59868","","image-button-response","243","2107620","0.0-241.0","A25X755IRWK2U5","img_art/9.jpg","1","","","","","","","","","","","","","","","","","","","","","","","","",""
"2027","","image-button-response","244","2109649","0.0-242.0-0.0","A25X755IRWK2U5","img_art/9.jpg","4","","","","","","","","","","","","","","","","","","","","","","","","",""
"1279","","image-button-response","245","2110931","0.0-243.0-0.0","A25X755IRWK2U5","img_art/9.jpg","3","","","","","","","","","","","","","","","","","","","","","","","","",""
"null","","html-keyboard-response","246","2112444","0.0-244.0","A25X755IRWK2U5","<p style=""font-size: 48px;"">+</p>","","","","","null","allTrialResponses","1500","1","28","img_art/9.jpg","-32","Colors are nice but it is too messy","Angelica,Shelby,Hannah,Kelly,Savannah,Amber","The colors and image is ugly.,-7,280,20","A little too weird for me,-30,240,20","Someone lying in bed?  Don't care for it.,-14,240,20","It looks like a child drew it.,-28,220,20","Unfinished, weird composition.,-34,200,20","looks like sleeping beauty in a garden,10,200,20","Shelby","A little too weird for me,-30,240,20","Savannah","Unfinished, weird composition.,-34,200,20","Kelly","It looks like a child drew it.,-28,220,20","2"
"7853","","survey-text","247","2120305","0.0-245.0-0.0","A25X755IRWK2U5","","","","{""Q0"":""Like the ground, yucky""}","","","","","","","","","","","","","","","","","","","","","","",""
"3488","","image-slider-response","248","2123794","0.0-246.0","A25X755IRWK2U5","","","","","-48","","","","","","","","","","","","","","","","","","","","","",""
"null","","image-button-response","249","2129752","0.0-247.0","A25X755IRWK2U5","img_art/7.jpg","null","","","","","","","","","","","","","","","","","","","","","","","","",""
"32832","","image-button-response","250","2162587","0.0-248.0","A25X755IRWK2U5","img_art/7.jpg","0","","","","","","","","","","","","","","","","","","","","","","","","",""
"1242","","image-button-response","251","2163831","0.0-249.0-0.0","A25X755IRWK2U5","img_art/7.jpg","2","","","","","","","","","","","","","","","","","","","","","","","","",""
"1756","","image-button-response","252","2165588","0.0-250.0-0.0","A25X755IRWK2U5","img_art/7.jpg","5","","","","","","","","","","","","","","","","","","","","","","","","",""
"null","","html-keyboard-response","253","2166088","0.0-251.0","A25X755IRWK2U5","<p style=""font-size: 48px;"">+</p>","","","","","null","allTrialResponses","500","1","29","img_art/7.jpg","-48","Like the ground, yucky","Chelsea,Shelby,Monica,Kelly,Savannah,Claire","It looks more like wallpaper rather than a painting.,-27,180,20","This feels very earthy and grounded,20,240,20","It looks like bloody scabs on skin, I don't like it,-42,360,20","My firs thought was ""gross""...not sure what this is and I dont think i want to know.,-19,220,20","More saturated color, even more interpretations to have.,44,200,20","reminds me of a cave wall,-21,260,20","Chelsea","It looks more like wallpaper rather than a painting.,-27,180,20","Monica","It looks like bloody scabs on skin, I don't like it,-42,360,20","Claire","reminds me of a cave wall,-21,260,20","2"
"7881","","survey-text","254","2173973","0.0-252.0-0.0","A25X755IRWK2U5","","","","{""Q0"":""I love the trees""}","","","","","","","","","","","","","","","","","","","","","","",""
"3236.300000011921","","image-slider-response","255","2177211","0.0-253.0","A25X755IRWK2U5","","","","","33","","","","","","","","","","","","","","","","","","","","","",""
"null","","image-button-response","256","2182754","0.0-254.0","A25X755IRWK2U5","img_art/17.jpg","null","","","","","","","","","","","","","","","","","","","","","","","","",""
"49793","","image-button-response","257","2232549","0.0-255.0","A25X755IRWK2U5","img_art/17.jpg","0","","","","","","","","","","","","","","","","","","","","","","","","",""
"1634","","image-button-response","258","2234186","0.0-256.0-0.0","A25X755IRWK2U5","img_art/17.jpg","1","","","","","","","","","","","","","","","","","","","","","","","","",""
"2088","","image-button-response","259","2236276","0.0-257.0-0.0","A25X755IRWK2U5","img_art/17.jpg","5","","","","","","","","","","","","","","","","","","","","","","","","",""
"null","","html-keyboard-response","260","2237781","0.0-258.0","A25X755IRWK2U5","<p style=""font-size: 48px;"">+</p>","","","","","null","allTrialResponses","1500","1","30","img_art/17.jpg","33","I love the trees","Chelsea,Sabrina,Monica,Maria,Brittany,Claire","The colors are soft.,32,180,20","Messy shadow of loss and love,50,120,20","The colors remind me of a sunset and give a bittersweet feeling. It looks unfinished but not terrible.,6,360,20","feel close to nature,30,120,20","I like the colors and the design.,20,40,20","its whimsical and light,50,260,20","Chelsea","The colors are soft.,32,180,20","Sabrina","Messy shadow of loss and love,50,120,20","Claire","its whimsical and light,50,260,20","2"
"5073","","image-button-response_instructions","261","2242859","0.0-259.0","A25X755IRWK2U5","","0","instructions","","","","","","","","","","","","","","","","","","","","","","","",""
"2214","","image-button-response","262","2245079","0.0-260.0","A25X755IRWK2U5","","0","","","","","","","","","","","","","","","","","","","","","","","","",""
