"rt","url","trial_type","trial_index","time_elapsed","internal_node_id","participant_id","stimulus","button_pressed","Name","responses","response","key_press","variableName","fixationTime","condition","trial","photo","subjectRating","subjectResponse","agentsNames","agent_1_Response","agent_2_Response","agent_3_Response","agent_4_Response","agent_5_Response","agent_6_Response","kept_1_name","kept_1_response","kept_2_name","kept_2_response","kept_3_name","kept_3_response","errorCounter"
"8677","external_page_harvard.html","external-html","0","8764","0.0-0.0","A26ZENZ5G8AEGM","","","","","","","","","","","","","","","","","","","","","","","","","","",""
"2673","","image-button-response","1","11440","0.0-1.0","A26ZENZ5G8AEGM","","1","","","","","","","","","","","","","","","","","","","","","","","","",""
"4601","","image-button-response","2","16047","0.0-2.0-0.0","A26ZENZ5G8AEGM","","1","phone","","","","","","","","","","","","","","","","","","","","","","","",""
"8317","","survey-text","3","24369","0.0-3.0-0.0","A26ZENZ5G8AEGM","","","","{""Q0"":""A26ZENZ5G8AEGM""}","","","","","","","","","","","","","","","","","","","","","","",""
"11442","","image-button-response_instructions","4","35815","0.0-4.0","A26ZENZ5G8AEGM","","0","instructions","","","","","","","","","","","","","","","","","","","","","","","",""
"21183","","image-button-response_instructions","5","57000","0.0-5.0","A26ZENZ5G8AEGM","img_art/ins/popularity/ins1.png","0","instructions","","","","","","","","","","","","","","","","","","","","","","","",""
"6405","","image-button-response_instructions","6","63408","0.0-6.0","A26ZENZ5G8AEGM","img_art/ins/popularity/ins2.png","0","instructions","","","","","","","","","","","","","","","","","","","","","","","",""
"4670","","image-button-response_instructions","7","68079","0.0-7.0","A26ZENZ5G8AEGM","img_art/ins/popularity/ins2Extreme.png","0","instructions","","","","","","","","","","","","","","","","","","","","","","","",""
"7438","","image-button-response_instructions","8","75518","0.0-8.0","A26ZENZ5G8AEGM","img_art/ins/popularity/ins3KEEPpop.PNG","0","instructions","","","","","","","","","","","","","","","","","","","","","","","",""
"4928","","image-button-response_instructions","9","80448","0.0-9.0","A26ZENZ5G8AEGM","img_art/ins/popularity/ins3ANamepop.PNG","0","instructions","","","","","","","","","","","","","","","","","","","","","","","",""
"4133","","image-button-response_instructions","10","84584","0.0-10.0","A26ZENZ5G8AEGM","img_art/ins/popularity/ins3ARatingpop.png","0","instructions","","","","","","","","","","","","","","","","","","","","","","","",""
"3261","","image-button-response_instructions","11","87848","0.0-11.0","A26ZENZ5G8AEGM","img_art/ins/popularity/ins3ATextpop.png","0","instructions","","","","","","","","","","","","","","","","","","","","","","","",""
"9351","","image-button-response_instructions","12","97200","0.0-12.0","A26ZENZ5G8AEGM","img_art/ins/popularity/ins3ALikespop.png","0","instructions","","","","","","","","","","","","","","","","","","","","","","","",""
"11710","","image-button-response_instructions","13","108913","0.0-13.0","A26ZENZ5G8AEGM","img_art/ins/popularity/ins3KEEPpop.PNG","0","instructions","","","","","","","","","","","","","","","","","","","","","","","",""
"10925","","image-button-response_instructions","14","119840","0.0-14.0","A26ZENZ5G8AEGM","img_art/ins/popularity/ins3_5RED.png","0","instructions","","","","","","","","","","","","","","","","","","","","","","","",""
"5676","","image-button-response_instructions","15","125518","0.0-15.0","A26ZENZ5G8AEGM","img_art/ins/popularity/ins3KEEPpop.PNG","0","instructions","","","","","","","","","","","","","","","","","","","","","","","",""
"6809","","image-button-response_instructions","16","132328","0.0-16.0","A26ZENZ5G8AEGM","img_art/ins/popularity/ins4KEEPpop.PNG","0","instructions","","","","","","","","","","","","","","","","","","","","","","","",""
"4685","","image-button-response_instructions","17","137017","0.0-17.0","A26ZENZ5G8AEGM","img_art/ins/popularity/ins5KEEPpop.PNG","0","instructions","","","","","","","","","","","","","","","","","","","","","","","",""
"1741","","image-button-response_instructions","18","138760","0.0-18.0","A26ZENZ5G8AEGM","","0","instructions","","","","","","","","","","","","","","","","","","","","","","","",""
"7741","","survey-text","19","146526","0.0-19.0-0.0","A26ZENZ5G8AEGM","","","","{""Q0"":""but""}","","","","","","","","","","","","","","","","","","","","","","",""
"8879","","survey-text","20","155408","0.0-20.0-0.0","A26ZENZ5G8AEGM","","","","{""Q0"":""not attractive""}","","","","","","","","","","","","","","","","","","","","","","",""
"3980","","image-slider-response","21","159392","0.0-21.0","A26ZENZ5G8AEGM","","","","","-27","","","","","","","","","","","","","","","","","","","","","",""
"null","","image-button-response","22","164397","0.0-22.0","A26ZENZ5G8AEGM","img_art/ins/1.jpg","null","","","","","","","","","","","","","","","","","","","","","","","","",""
"1616","","image-button-response","23","166017","0.0-23.0","A26ZENZ5G8AEGM","img_art/ins/1.jpg","1","","","","","","","","","","","","","","","","","","","","","","","","",""
"2468","","image-button-response","24","168489","0.0-24.0-0.0","A26ZENZ5G8AEGM","img_art/ins/1.jpg","2","","","","","","","","","","","","","","","","","","","","","","","","",""
"3772","","image-button-response","25","172265","0.0-25.0-0.0","A26ZENZ5G8AEGM","img_art/ins/1.jpg","3","","","","","","","","","","","","","","","","","","","","","","","","",""
"null","","html-keyboard-response","26","173279","0.0-26.0","A26ZENZ5G8AEGM","<p style=""font-size: 48px;"">+</p>","","","","","null","allTrialResponses","1000","1","-2","img_art/ins/1.jpg","-27","not attractive","Allison,Ashley,Beth,Dora,Erika,Jen","looks like a lot of things going on in the mist,20,20,20","I just don't get why these type of art would be popular,-32,40,20","This color reminds me of poo,-46,60,20","looks like what my niece in 3rd grade did this afternoon,-50,80,20","I like the sophisticated brushwork,40,100,20","It reminds me of a candy land dream I had,36,120,20","Ashley","I just don't get why these type of art would be popular,-32,40,20","Beth","This color reminds me of poo,-46,60,20","Dora","looks like what my niece in 3rd grade did this afternoon,-50,80,20","0"
"8936","","survey-text","27","182225","0.0-27.0-0.0","A26ZENZ5G8AEGM","","","","{""Q0"":""interesting colors""}","","","","","","","","","","","","","","","","","","","","","","",""
"3467","","image-slider-response","28","185696","0.0-28.0","A26ZENZ5G8AEGM","","","","","21","","","","","","","","","","","","","","","","","","","","","",""
"null","","image-button-response","29","190701","0.0-29.0","A26ZENZ5G8AEGM","img_art/ins/2.jpg","null","","","","","","","","","","","","","","","","","","","","","","","","",""
"712","","image-button-response","30","191417","0.0-30.0","A26ZENZ5G8AEGM","img_art/ins/2.jpg","4","","","","","","","","","","","","","","","","","","","","","","","","",""
"4276","","image-button-response","31","195696","0.0-31.0-0.0","A26ZENZ5G8AEGM","img_art/ins/2.jpg","3","","","","","","","","","","","","","","","","","","","","","","","","",""
"1005","","image-button-response","32","196705","0.0-32.0-0.0","A26ZENZ5G8AEGM","img_art/ins/2.jpg","5","","","","","","","","","","","","","","","","","","","","","","","","",""
"null","","html-keyboard-response","33","197207","0.0-33.0","A26ZENZ5G8AEGM","<p style=""font-size: 48px;"">+</p>","","","","","null","allTrialResponses","500","1","-1","img_art/ins/2.jpg","21","interesting colors","Jenna,Ashley,Beth,Dora,Kara,Katie","One of my pet peevs,-48,140,20","Idk, it is just annoying,-32,40,20","meaningless painting,-45,60,20","looks too angry,-50,80,20","I like the blocks of color arrangements,30,160,20","too much color!,-28,180,20","Kara","I like the blocks of color arrangements,30,160,20","Dora","looks too angry,-50,80,20","Katie","too much color!,-28,180,20","0"
"32017","","survey-text","34","229232","0.0-34.0-0.0","A26ZENZ5G8AEGM","","","","{""Q0"":""nice blue""}","","","","","","","","","","","","","","","","","","","","","","",""
"4020.099999964237","","image-slider-response","35","233256","0.0-35.0","A26ZENZ5G8AEGM","","","","","28","","","","","","","","","","","","","","","","","","","","","",""
"2693","","image-button-response","36","238265","0.0-36.0","A26ZENZ5G8AEGM","img_art/ins/3.jpg","1","","","","","","","","","","","","","","","","","","","","","","","","",""
"2659","","image-button-response","37","240928","0.0-37.0","A26ZENZ5G8AEGM","img_art/ins/3.jpg","1","","","","","","","","","","","","","","","","","","","","","","","","",""
"3135","","image-button-response","38","244064","0.0-38.0-0.0","A26ZENZ5G8AEGM","img_art/ins/3.jpg","4","","","","","","","","","","","","","","","","","","","","","","","","",""
"1820","","image-button-response","39","245888","0.0-39.0-0.0","A26ZENZ5G8AEGM","img_art/ins/3.jpg","0","","","","","","","","","","","","","","","","","","","","","","","","",""
"null","","html-keyboard-response","40","246901","0.0-40.0","A26ZENZ5G8AEGM","<p style=""font-size: 48px;"">+</p>","","","","","null","allTrialResponses","1000","1","0","img_art/ins/3.jpg","28","nice blue","Leslie,Mary,Rose,Dora,Kara,Katie","It's an alright work,15,200,20","I like the overlapping of brushes,41,220,20","My daily routine, it's depressing,-20,240,20","My worst nightmare,-42,80,20","calming blue is very nice,36,160,20","It looks depressing,-26,180,20","Mary","I like the overlapping of brushes,41,220,20","Kara","calming blue is very nice,36,160,20","Leslie","It's an alright work,15,200,20","0"
"6251","","image-button-response_instructions","41","253160","0.0-41.0","A26ZENZ5G8AEGM","","0","instructions","","","","","","","","","","","","","","","","","","","","","","","",""
"12214","","survey-likert","42","265377","0.0-42.0-0.0","A26ZENZ5G8AEGM","","","","{""Q0"":"""",""Q1"":0,""Q2"":1}","","","","","","","","","","","","","","","","","","","","","","",""
"6640","","survey-text","43","272023","0.0-43.0-0.0","A26ZENZ5G8AEGM","","","","{""Q0"":""rock""}","","","","","","","","","","","","","","","","","","","","","","",""
"9413","","survey-text","44","281440","0.0-44.0-0.0","A26ZENZ5G8AEGM","","","","{""Q0"":""nothing to like""}","","","","","","","","","","","","","","","","","","","","","","",""
"4580.899999976158","","image-slider-response","45","286024","0.0-45.0","A26ZENZ5G8AEGM","","","","","-29","","","","","","","","","","","","","","","","","","","","","",""
"null","","image-button-response","46","291042","0.0-46.0","A26ZENZ5G8AEGM","img_art/30.jpg","null","","","","","","","","","","","","","","","","","","","","","","","","",""
"1187","","image-button-response","47","292232","0.0-47.0","A26ZENZ5G8AEGM","img_art/30.jpg","1","","","","","","","","","","","","","","","","","","","","","","","","",""
"781","","image-button-response","48","293016","0.0-48.0-0.0","A26ZENZ5G8AEGM","img_art/30.jpg","2","","","","","","","","","","","","","","","","","","","","","","","","",""
"4443","","image-button-response","49","297464","0.0-49.0-0.0","A26ZENZ5G8AEGM","img_art/30.jpg","5","","","","","","","","","","","","","","","","","","","","","","","","",""
"null","","html-keyboard-response","50","298974","0.0-50.0","A26ZENZ5G8AEGM","<p style=""font-size: 48px;"">+</p>","","","","","null","allTrialResponses","1500","1","1","img_art/30.jpg","-29","nothing to like","Katelyn,Victoria,Emily,Paige,Rebecca,Katie","I do like the multi-dimensional aspect of this piece,10,100,20","to dark and dreary,-28,400,20","It looks like a child did it. There is nothing talented or special about it.,-16,40,20","Happy. Makes me think of childhood finger painting,49,60,20","don't know but it somehow speaks to me,29,100,20","Soothing color palette, but doesn't look like anything. All I see are random brush strokes.,1,160,20","Victoria","to dark and dreary,-28,400,20","Emily","It looks like a child did it. There is nothing talented or special about it.,-16,40,20","Katie","Soothing color palette, but doesn't look like anything. All I see are random brush strokes.,1,160,20","0"
"6773","","survey-text","51","305752","0.0-51.0-0.0","A26ZENZ5G8AEGM","","","","{""Q0"":""interesting""}","","","","","","","","","","","","","","","","","","","","","","",""
"3269.199999988079","","image-slider-response","52","309024","0.0-52.0","A26ZENZ5G8AEGM","","","","","11","","","","","","","","","","","","","","","","","","","","","",""
"null","","image-button-response","53","314033","0.0-53.0","A26ZENZ5G8AEGM","img_art/11.jpg","null","","","","","","","","","","","","","","","","","","","","","","","","",""
"3516","","image-button-response","54","317552","0.0-54.0","A26ZENZ5G8AEGM","img_art/11.jpg","1","","","","","","","","","","","","","","","","","","","","","","","","",""
"1357","","image-button-response","55","318912","0.0-55.0-0.0","A26ZENZ5G8AEGM","img_art/11.jpg","2","","","","","","","","","","","","","","","","","","","","","","","","",""
"3583","","image-button-response","56","322497","0.0-56.0-0.0","A26ZENZ5G8AEGM","img_art/11.jpg","3","","","","","","","","","","","","","","","","","","","","","","","","",""
"null","","html-keyboard-response","57","324016","0.0-57.0","A26ZENZ5G8AEGM","<p style=""font-size: 48px;"">+</p>","","","","","null","allTrialResponses","1500","1","2","img_art/11.jpg","11","interesting","Amy,Victoria,Emily,Hannah,Megan,Katie","Simple and complex. Hopeful yet dark. I love this,35,220,20","reminds me of a rainy day in the city,32,400,20","It's kind of cool and I see it looks clean.,22,40,20","Is interesting. Wouldn't bother me to have this hanging where I'd see it every day.,11,240,20","Some interesting color but scratchy train mess.,-14,200,20","Dark and dreary. Makes me think of rain/water. I see grey clouds and high waves. Looks unsettling.,-20,160,20","Victoria","reminds me of a rainy day in the city,32,400,20","Emily","It's kind of cool and I see it looks clean.,22,40,20","Hannah","Is interesting. Wouldn't bother me to have this hanging where I'd see it every day.,11,240,20","0"
"8513","","survey-text","58","332536","0.0-58.0-0.0","A26ZENZ5G8AEGM","","","","{""Q0"":""not appealing""}","","","","","","","","","","","","","","","","","","","","","","",""
"2933.399999976158","","image-slider-response","59","335472","0.0-59.0","A26ZENZ5G8AEGM","","","","","-23","","","","","","","","","","","","","","","","","","","","","",""
"null","","image-button-response","60","340487","0.0-60.0","A26ZENZ5G8AEGM","img_art/19.jpg","null","","","","","","","","","","","","","","","","","","","","","","","","",""
"5406","","image-button-response","61","345896","0.0-61.0","A26ZENZ5G8AEGM","img_art/19.jpg","2","","","","","","","","","","","","","","","","","","","","","","","","",""
"781","","image-button-response","62","346680","0.0-62.0-0.0","A26ZENZ5G8AEGM","img_art/19.jpg","1","","","","","","","","","","","","","","","","","","","","","","","","",""
"61","","image-button-response","63","346744","0.0-63.0-0.0","A26ZENZ5G8AEGM","img_art/19.jpg","1","","","","","","","","","","","","","","","","","","","","","","","","",""
"1830","","image-button-response","64","355081","0.0-63.1-0.1","A26ZENZ5G8AEGM","img_art/19.jpg","0","","","","","","","","","","","","","","","","","","","","","","","","",""
"null","","html-keyboard-response","65","355584","0.0-64.0","A26ZENZ5G8AEGM","<p style=""font-size: 48px;"">+</p>","","","","","null","allTrialResponses","500","1","3","img_art/19.jpg","-23","not appealing","Alexandra,Victoria,Emily,Hannah,Cynthia,Brittany","This photo has too much going on.,-19,60,20","to much going on,-22,400,20","Loks like an amature did it, Not pleasing.,-45,40,20","Just don't like this one.,-9,240,20","confused and emotional,-4,320,20","It looks too much of a rough sketch. Don't really enjoy looking at it.,-9,40,20","Emily","Loks like an amature did it, Not pleasing.,-45,40,20","Victoria","to much going on,-22,400,20","Alexandra","This photo has too much going on.,-19,60,20","2"
"13913","","survey-text","66","369504","0.0-65.0-0.0","A26ZENZ5G8AEGM","","","","{""Q0"":""something nice""}","","","","","","","","","","","","","","","","","","","","","","",""
"2468.800000011921","","image-slider-response","67","371976","0.0-66.0","A26ZENZ5G8AEGM","","","","","15","","","","","","","","","","","","","","","","","","","","","",""
"null","","image-button-response","68","376999","0.0-67.0","A26ZENZ5G8AEGM","img_art/21.jpg","null","","","","","","","","","","","","","","","","","","","","","","","","",""
"1612","","image-button-response","69","378616","0.0-68.0","A26ZENZ5G8AEGM","img_art/21.jpg","0","","","","","","","","","","","","","","","","","","","","","","","","",""
"1125","","image-button-response","70","379745","0.0-69.0-0.0","A26ZENZ5G8AEGM","img_art/21.jpg","1","","","","","","","","","","","","","","","","","","","","","","","","",""
"2180","","image-button-response","71","381929","0.0-70.0-0.0","A26ZENZ5G8AEGM","img_art/21.jpg","4","","","","","","","","","","","","","","","","","","","","","","","","",""
"null","","html-keyboard-response","72","383436","0.0-71.0","A26ZENZ5G8AEGM","<p style=""font-size: 48px;"">+</p>","","","","","null","allTrialResponses","1500","1","4","img_art/21.jpg","15","something nice","Alexandra,Victoria,Emily,Erika,Autumn,Brianna","This one is nice, it reminds me of the sky,42,60,20","like the colors,30,400,20","What's the point?,-30,40,20","Indistinct, but beautiful hues,10,100,20","Amazing colors.,34,340,20","Don't really lean either way.,1,20,20","Alexandra","This one is nice, it reminds me of the sky,42,60,20","Victoria","like the colors,30,400,20","Autumn","Amazing colors.,34,340,20","2"
"11181","","survey-text","73","394624","0.0-72.0-0.0","A26ZENZ5G8AEGM","","","","{""Q0"":""too intense""}","","","","","","","","","","","","","","","","","","","","","","",""
"6220.699999988079","","image-slider-response","74","400848","0.0-73.0","A26ZENZ5G8AEGM","","","","","-23","","","","","","","","","","","","","","","","","","","","","",""
"null","","image-button-response","75","405868","0.0-74.0","A26ZENZ5G8AEGM","img_art/24.jpg","null","","","","","","","","","","","","","","","","","","","","","","","","",""
"3289","","image-button-response","76","409161","0.0-75.0","A26ZENZ5G8AEGM","img_art/24.jpg","4","","","","","","","","","","","","","","","","","","","","","","","","",""
"883","","image-button-response","77","410049","0.0-76.0-0.0","A26ZENZ5G8AEGM","img_art/24.jpg","5","","","","","","","","","","","","","","","","","","","","","","","","",""
"3019","","image-button-response","78","413072","0.0-77.0-0.0","A26ZENZ5G8AEGM","img_art/24.jpg","3","","","","","","","","","","","","","","","","","","","","","","","","",""
"null","","html-keyboard-response","79","413576","0.0-78.0","A26ZENZ5G8AEGM","<p style=""font-size: 48px;"">+</p>","","","","","null","allTrialResponses","500","1","5","img_art/24.jpg","-23","too intense","Alexandra,Victoria,Destiny,Andrea,Autumn,Kathryn","This reminds me of a creek or a river. It puts me a peace,42,60,20","very peaceful and serene,47,400,20","brick wall waterfall girl you think you got it all,50,360,20","Waterfall, and I love the coloring.,48,240,20","Very cute amateur piece.,18,340,20","This is clear and healthy. It makes me think of unspoiled nature.,20,140,20","Autumn","Very cute amateur piece.,18,340,20","Kathryn","This is clear and healthy. It makes me think of unspoiled nature.,20,140,20","Andrea","Waterfall, and I love the coloring.,48,240,20","2"
"8751","","survey-text","80","422344","0.0-79.0-0.0","A26ZENZ5G8AEGM","","","","{""Q0"":""sky""}","","","","","","","","","","","","","","","","","","","","","","",""
"14749","","survey-text","81","437096","0.0-80.0-0.0","A26ZENZ5G8AEGM","","","","{""Q0"":""too many blocks""}","","","","","","","","","","","","","","","","","","","","","","",""
"3828.699999988079","","image-slider-response","82","440928","0.0-81.0","A26ZENZ5G8AEGM","","","","","-27","","","","","","","","","","","","","","","","","","","","","",""
"null","","image-button-response","83","445933","0.0-82.0","A26ZENZ5G8AEGM","img_art/12.jpg","null","","","","","","","","","","","","","","","","","","","","","","","","",""
"2271","","image-button-response","84","448207","0.0-83.0","A26ZENZ5G8AEGM","img_art/12.jpg","1","","","","","","","","","","","","","","","","","","","","","","","","",""
"2398","","image-button-response","85","450608","0.0-84.0-0.0","A26ZENZ5G8AEGM","img_art/12.jpg","3","","","","","","","","","","","","","","","","","","","","","","","","",""
"1188","","image-button-response","86","451801","0.0-85.0-0.0","A26ZENZ5G8AEGM","img_art/12.jpg","4","","","","","","","","","","","","","","","","","","","","","","","","",""
"null","","html-keyboard-response","87","453310","0.0-86.0","A26ZENZ5G8AEGM","<p style=""font-size: 48px;"">+</p>","","","","","null","allTrialResponses","1500","1","6","img_art/12.jpg","-27","too many blocks","Chloe,Makayla,Madeline,Andrea,Autumn,Kathryn","Nice hallway art for a hotel.,21,220,20","Reminds me Early 2000's decor, don't favor it,-10,80,20","Love the shapes here,12,40,20","It just feels like a jigsaw puzzle,-4,240,20","Good too basic.,18,340,20","This feels cosmopolitan. Like looking at a high rise apartment at night and seeing into everyone's windows.,20,140,20","Makayla","Reminds me Early 2000's decor, don't favor it,-10,80,20","Andrea","It just feels like a jigsaw puzzle,-4,240,20","Autumn","Good too basic.,18,340,20","2"
"9547","","survey-text","88","462864","0.0-87.0-0.0","A26ZENZ5G8AEGM","","","","{""Q0"":""too strange""}","","","","","","","","","","","","","","","","","","","","","","",""
"4041.800000011921","","image-slider-response","89","466908","0.0-88.0","A26ZENZ5G8AEGM","","","","","-31","","","","","","","","","","","","","","","","","","","","","",""
"null","","image-button-response","90","471917","0.0-89.0","A26ZENZ5G8AEGM","img_art/25.jpg","null","","","","","","","","","","","","","","","","","","","","","","","","",""
"2136","","image-button-response","91","474057","0.0-90.0","A26ZENZ5G8AEGM","img_art/25.jpg","3","","","","","","","","","","","","","","","","","","","","","","","","",""
"1228","","image-button-response","92","475289","0.0-91.0-0.0","A26ZENZ5G8AEGM","img_art/25.jpg","4","","","","","","","","","","","","","","","","","","","","","","","","",""
"1460","","image-button-response","93","476752","0.0-92.0-0.0","A26ZENZ5G8AEGM","img_art/25.jpg","1","","","","","","","","","","","","","","","","","","","","","","","","",""
"null","","html-keyboard-response","94","477755","0.0-93.0","A26ZENZ5G8AEGM","<p style=""font-size: 48px;"">+</p>","","","","","null","allTrialResponses","1000","1","7","img_art/25.jpg","-31","too strange","Morgan,Makayla,Crystal,Andrea,Autumn,Heather","Ancient gods above you.,20,380,20","It's very mystical.,5,80,20","Seems ritualistic and nativist,50,300,20","Looks like Burning Man, dont care for the colors.,-5,240,20","This is too simple,-22,340,20","This reminds me of royalty and servants.,32,260,20","Andrea","Looks like Burning Man, dont care for the colors.,-5,240,20","Autumn","This is too simple,-22,340,20","Makayla","It's very mystical.,5,80,20","2"
"9646","","survey-text","95","487408","0.0-94.0-0.0","A26ZENZ5G8AEGM","","","","{""Q0"":""too much brown""}","","","","","","","","","","","","","","","","","","","","","","",""
"4061.899999976158","","image-slider-response","96","491472","0.0-95.0","A26ZENZ5G8AEGM","","","","","-30","","","","","","","","","","","","","","","","","","","","","",""
"null","","image-button-response","97","496486","0.0-96.0","A26ZENZ5G8AEGM","img_art/28.jpg","null","","","","","","","","","","","","","","","","","","","","","","","","",""
"2553","","image-button-response","98","499041","0.0-97.0","A26ZENZ5G8AEGM","img_art/28.jpg","4","","","","","","","","","","","","","","","","","","","","","","","","",""
"1548","","image-button-response","99","500593","0.0-98.0-0.0","A26ZENZ5G8AEGM","img_art/28.jpg","2","","","","","","","","","","","","","","","","","","","","","","","","",""
"836","","image-button-response","100","501433","0.0-99.0-0.0","A26ZENZ5G8AEGM","img_art/28.jpg","1","","","","","","","","","","","","","","","","","","","","","","","","",""
"null","","html-keyboard-response","101","502938","0.0-100.0","A26ZENZ5G8AEGM","<p style=""font-size: 48px;"">+</p>","","","","","null","allTrialResponses","1500","1","8","img_art/28.jpg","-30","too much brown","Caitlin,Makayla,Kaitlin,Andrea,Autumn,Jenna","Bug meets bug in a dark alley.,-20,80,20","The earthy colors smeared around looks like prison food tray,-17,80,20","i'm not too impressed with this one.,-10,60,20","It reminds me of the cantina in Star Wars.,37,240,20","Looks yucky and poor.,-33,340,20","looks like humanoid figures in distress. I like it, but makes me slightly uncomfortable,35,360,20","Autumn","Looks yucky and poor.,-33,340,20","Kaitlin","i'm not too impressed with this one.,-10,60,20","Makayla","The earthy colors smeared around looks like prison food tray,-17,80,20","2"
"15384","","survey-text","102","518328","0.0-101.0-0.0","A26ZENZ5G8AEGM","","","","{""Q0"":""the white seems strange with the colors""}","","","","","","","","","","","","","","","","","","","","","","",""
"3403.800000011921","","image-slider-response","103","521736","0.0-102.0","A26ZENZ5G8AEGM","","","","","-23","","","","","","","","","","","","","","","","","","","","","",""
"null","","image-button-response","104","526741","0.0-103.0","A26ZENZ5G8AEGM","img_art/23.jpg","null","","","","","","","","","","","","","","","","","","","","","","","","",""
"2737","","image-button-response","105","529481","0.0-104.0","A26ZENZ5G8AEGM","img_art/23.jpg","2","","","","","","","","","","","","","","","","","","","","","","","","",""
"752","","image-button-response","106","530235","0.0-105.0-0.0","A26ZENZ5G8AEGM","img_art/23.jpg","1","","","","","","","","","","","","","","","","","","","","","","","","",""
"1363","","image-button-response","107","531601","0.0-106.0-0.0","A26ZENZ5G8AEGM","img_art/23.jpg","5","","","","","","","","","","","","","","","","","","","","","","","","",""
"null","","html-keyboard-response","108","532606","0.0-107.0","A26ZENZ5G8AEGM","<p style=""font-size: 48px;"">+</p>","","","","","null","allTrialResponses","1000","1","9","img_art/23.jpg","-23","the white seems strange with the colors","Mariah,Makayla,Kaitlin,Kaitlyn,Autumn,Sabrina","It feels active and vibrant.,20,140,20","Reminds me of disco/70's, not my favorite design,-12,80,20","i cannot breath in this,-10,60,20","Interesting contrast,9,80,20","Awesome abstraction love it.,30,340,20","I dont like the chaos of this,-20,120,20","Kaitlin","i cannot breath in this,-10,60,20","Makayla","Reminds me of disco/70's, not my favorite design,-12,80,20","Sabrina","I dont like the chaos of this,-20,120,20","2"
"10995","","survey-text","109","543608","0.0-108.0-0.0","A26ZENZ5G8AEGM","","","","{""Q0"":""too much black""}","","","","","","","","","","","","","","","","","","","","","","",""
"3188.899999976158","","image-slider-response","110","546800","0.0-109.0","A26ZENZ5G8AEGM","","","","","-32","","","","","","","","","","","","","","","","","","","","","",""
"null","","image-button-response","111","551805","0.0-110.0","A26ZENZ5G8AEGM","img_art/15.jpg","null","","","","","","","","","","","","","","","","","","","","","","","","",""
"1329","","image-button-response","112","553137","0.0-111.0","A26ZENZ5G8AEGM","img_art/15.jpg","0","","","","","","","","","","","","","","","","","","","","","","","","",""
"1228","","image-button-response","113","554369","0.0-112.0-0.0","A26ZENZ5G8AEGM","img_art/15.jpg","2","","","","","","","","","","","","","","","","","","","","","","","","",""
"2356","","image-button-response","114","556729","0.0-113.0-0.0","A26ZENZ5G8AEGM","img_art/15.jpg","5","","","","","","","","","","","","","","","","","","","","","","","","",""
"null","","html-keyboard-response","115","557245","0.0-114.0","A26ZENZ5G8AEGM","<p style=""font-size: 48px;"">+</p>","","","","","null","allTrialResponses","500","1","10","img_art/15.jpg","-32","too much black","Laura,Makayla,Kaitlin,Hailey,Courtney,Sabrina","abrasive, rough, uneven,-31,320,20","It's just dots. Doesn't bring any positive or negative feelings,2,80,20","This one seems a bit frightening,-19,60,20","ugly picture and don't like it,-22,200,20","Weird fuzzball bush.,22,280,20","Extreme darkness and sadness,-30,120,20","Laura","abrasive, rough, uneven,-31,320,20","Kaitlin","This one seems a bit frightening,-19,60,20","Sabrina","Extreme darkness and sadness,-30,120,20","2"
"5001","","survey-text","116","562256","0.0-115.0-0.0","A26ZENZ5G8AEGM","","","","{""Q0"":""our""}","","","","","","","","","","","","","","","","","","","","","","",""
"12318","","survey-text","117","574577","0.0-116.0-0.0","A26ZENZ5G8AEGM","","","","{""Q0"":""strange use of colors""}","","","","","","","","","","","","","","","","","","","","","","",""
"2996.899999976158","","image-slider-response","118","577577","0.0-117.0","A26ZENZ5G8AEGM","","","","","-13","","","","","","","","","","","","","","","","","","","","","",""
"null","","image-button-response","119","582581","0.0-118.0","A26ZENZ5G8AEGM","img_art/27.jpg","null","","","","","","","","","","","","","","","","","","","","","","","","",""
"3137","","image-button-response","120","585721","0.0-119.0","A26ZENZ5G8AEGM","img_art/27.jpg","0","","","","","","","","","","","","","","","","","","","","","","","","",""
"1300","","image-button-response","121","587025","0.0-120.0-0.0","A26ZENZ5G8AEGM","img_art/27.jpg","3","","","","","","","","","","","","","","","","","","","","","","","","",""
"2630","","image-button-response","122","589657","0.0-121.0-0.0","A26ZENZ5G8AEGM","img_art/27.jpg","4","","","","","","","","","","","","","","","","","","","","","","","","",""
"null","","html-keyboard-response","123","590663","0.0-122.0","A26ZENZ5G8AEGM","<p style=""font-size: 48px;"">+</p>","","","","","null","allTrialResponses","1000","1","11","img_art/27.jpg","-13","strange use of colors","Laura,Jordan,Kaitlin,Miranda,Sarah,Sabrina","feels like a bar scene, tucked away in the corner of a small town,-40,320,20","two warring cities, separated by a small desert,50,20,20","this reminds me of simpler time,31,60,20","I'm not a fan. It looks like something my nephews (1 and 2) would make,-8,320,20","i don't think i should like this one because it's a little chaotic and simple but I do,6,180,20","Love the representation of home,22,120,20","Laura","feels like a bar scene, tucked away in the corner of a small town,-40,320,20","Miranda","I'm not a fan. It looks like something my nephews (1 and 2) would make,-8,320,20","Sarah","i don't think i should like this one because it's a little chaotic and simple but I do,6,180,20","2"
"12673","","survey-text","124","603344","0.0-123.0-0.0","A26ZENZ5G8AEGM","","","","{""Q0"":""strange composition""}","","","","","","","","","","","","","","","","","","","","","","",""
"4020.800000011921","","image-slider-response","125","607368","0.0-124.0","A26ZENZ5G8AEGM","","","","","-30","","","","","","","","","","","","","","","","","","","","","",""
"null","","image-button-response","126","612376","0.0-125.0","A26ZENZ5G8AEGM","img_art/16.jpg","null","","","","","","","","","","","","","","","","","","","","","","","","",""
"1229","","image-button-response","127","613608","0.0-126.0","A26ZENZ5G8AEGM","img_art/16.jpg","1","","","","","","","","","","","","","","","","","","","","","","","","",""
"1565","","image-button-response","128","615176","0.0-127.0-0.0","A26ZENZ5G8AEGM","img_art/16.jpg","0","","","","","","","","","","","","","","","","","","","","","","","","",""
"2237","","image-button-response","129","617416","0.0-128.0-0.0","A26ZENZ5G8AEGM","img_art/16.jpg","4","","","","","","","","","","","","","","","","","","","","","","","","",""
"null","","html-keyboard-response","130","618929","0.0-129.0","A26ZENZ5G8AEGM","<p style=""font-size: 48px;"">+</p>","","","","","null","allTrialResponses","1500","1","12","img_art/16.jpg","-30","strange composition","Laura,Mikayla,Haley,Miranda,Sarah,Rachel","depressing and confrontational,-9,320,20","The teddy bear is scary as hell.,-44,300,20","Makes me want to know more,5,220,20","This looks like it was made by an art student filled with angst,-30,320,20","i don't like the collage aspect,-25,180,20","Not pleasing to the eyes. I do like that the gun is broken though.,-28,80,20","Mikayla","The teddy bear is scary as hell.,-44,300,20","Laura","depressing and confrontational,-9,320,20","Sarah","i don't like the collage aspect,-25,180,20","2"
"7924","","survey-text","131","626864","0.0-130.0-0.0","A26ZENZ5G8AEGM","","","","{""Q0"":""depressing""}","","","","","","","","","","","","","","","","","","","","","","",""
"2940","","image-slider-response","132","629808","0.0-131.0","A26ZENZ5G8AEGM","","","","","-39","","","","","","","","","","","","","","","","","","","","","",""
"null","","image-button-response","133","634817","0.0-132.0","A26ZENZ5G8AEGM","img_art/29.jpg","null","","","","","","","","","","","","","","","","","","","","","","","","",""
"1980","","image-button-response","134","636800","0.0-133.0","A26ZENZ5G8AEGM","img_art/29.jpg","0","","","","","","","","","","","","","","","","","","","","","","","","",""
"1549","","image-button-response","135","638352","0.0-134.0-0.0","A26ZENZ5G8AEGM","img_art/29.jpg","1","","","","","","","","","","","","","","","","","","","","","","","","",""
"1101","","image-button-response","136","639457","0.0-135.0-0.0","A26ZENZ5G8AEGM","img_art/29.jpg","2","","","","","","","","","","","","","","","","","","","","","","","","",""
"null","","html-keyboard-response","137","639975","0.0-136.0","A26ZENZ5G8AEGM","<p style=""font-size: 48px;"">+</p>","","","","","null","allTrialResponses","500","1","13","img_art/29.jpg","-39","depressing","Laura,Mikayla,Kristen,Alyssa,Sarah,Nicole","this is not art to me - it's random collage,-45,320,20","Its kinda scary,-35,300,20","danger, crime scene,,10,280,20","Its interesting although doesnt illicit any strong emotions from me,10,160,20","it's interesting but not my style,9,180,20","This one feels scary in a good way,30,20,20","Laura","this is not art to me - it's random collage,-45,320,20","Mikayla","Its kinda scary,-35,300,20","Kristen","danger, crime scene,,10,280,20","2"
"8377","","survey-text","138","648360","0.0-137.0-0.0","A26ZENZ5G8AEGM","","","","{""Q0"":""too intense""}","","","","","","","","","","","","","","","","","","","","","","",""
"2588.699999988079","","image-slider-response","139","650952","0.0-138.0","A26ZENZ5G8AEGM","","","","","-33","","","","","","","","","","","","","","","","","","","","","",""
"null","","image-button-response","140","655955","0.0-139.0","A26ZENZ5G8AEGM","img_art/18.jpg","null","","","","","","","","","","","","","","","","","","","","","","","","",""
"2025","","image-button-response","141","657984","0.0-140.0","A26ZENZ5G8AEGM","img_art/18.jpg","1","","","","","","","","","","","","","","","","","","","","","","","","",""
"878","","image-button-response","142","658864","0.0-141.0-0.0","A26ZENZ5G8AEGM","img_art/18.jpg","0","","","","","","","","","","","","","","","","","","","","","","","","",""
"1424","","image-button-response","143","660290","0.0-142.0-0.0","A26ZENZ5G8AEGM","img_art/18.jpg","3","","","","","","","","","","","","","","","","","","","","","","","","",""
"null","","html-keyboard-response","144","660804","0.0-143.0","A26ZENZ5G8AEGM","<p style=""font-size: 48px;"">+</p>","","","","","null","allTrialResponses","500","1","14","img_art/18.jpg","-33","too intense","Laura,Mikayla,Kristen,Olivia,Diana,Lindsey","afraid and anxious,21,320,20","Kinda boring. Not my favorite,-34,300,20","pegssus going into battle,25,280,20","death rides in life,-25,40,20","This painting reminds me of the 4 horsemen of the apocalypse. It feels haunting.,31,380,20","Interesting piece - gives you more the more you look at it. I like it but wouldn't buy it.,11,400,20","Mikayla","Kinda boring. Not my favorite,-34,300,20","Laura","afraid and anxious,21,320,20","Olivia","death rides in life,-25,40,20","2"
"9765","","survey-text","145","670576","0.0-144.0-0.0","A26ZENZ5G8AEGM","","","","{""Q0"":""not attractive""}","","","","","","","","","","","","","","","","","","","","","","",""
"4156.899999976158","","image-slider-response","146","674736","0.0-145.0","A26ZENZ5G8AEGM","","","","","-36","","","","","","","","","","","","","","","","","","","","","",""
"null","","image-button-response","147","679741","0.0-146.0","A26ZENZ5G8AEGM","img_art/3.jpg","null","","","","","","","","","","","","","","","","","","","","","","","","",""
"1640","","image-button-response","148","681385","0.0-147.0","A26ZENZ5G8AEGM","img_art/3.jpg","1","","","","","","","","","","","","","","","","","","","","","","","","",""
"1014","","image-button-response","149","682402","0.0-148.0-0.0","A26ZENZ5G8AEGM","img_art/3.jpg","2","","","","","","","","","","","","","","","","","","","","","","","","",""
"1891","","image-button-response","150","684297","0.0-149.0-0.0","A26ZENZ5G8AEGM","img_art/3.jpg","3","","","","","","","","","","","","","","","","","","","","","","","","",""
"null","","html-keyboard-response","151","685314","0.0-150.0","A26ZENZ5G8AEGM","<p style=""font-size: 48px;"">+</p>","","","","","null","allTrialResponses","1000","1","15","img_art/3.jpg","-36","not attractive","Laura,Mikayla,Savannah,Olivia,Dominique,Tiffany","wild scribbling, freedom, expression,40,320,20","Scary. Looks like blood.,-45,300,20","Completely incomprehensible.,-33,200,20","confusing taking over,-15,40,20","Iike this one it's a piece that I need to spend more time with to understand how i feel about it,20,400,20","I feel uncomfortable, like I am looking at a crime scene.,-17,360,20","Mikayla","Scary. Looks like blood.,-45,300,20","Savannah","Completely incomprehensible.,-33,200,20","Olivia","confusing taking over,-15,40,20","2"
"6060","","survey-text","152","691384","0.0-151.0-0.0","A26ZENZ5G8AEGM","","","","{""Q0"":""course""}","","","","","","","","","","","","","","","","","","","","","","",""
"10549","","survey-text","153","701936","0.0-152.0-0.0","A26ZENZ5G8AEGM","","","","{""Q0"":""enthralling""}","","","","","","","","","","","","","","","","","","","","","","",""
"3813.100000023842","","image-slider-response","154","705752","0.0-153.0","A26ZENZ5G8AEGM","","","","","29","","","","","","","","","","","","","","","","","","","","","",""
"null","","image-button-response","155","710757","0.0-154.0","A26ZENZ5G8AEGM","img_art/13.jpg","null","","","","","","","","","","","","","","","","","","","","","","","","",""
"953","","image-button-response","156","711712","0.0-155.0","A26ZENZ5G8AEGM","img_art/13.jpg","0","","","","","","","","","","","","","","","","","","","","","","","","",""
"662","","image-button-response","157","712377","0.0-156.0-0.0","A26ZENZ5G8AEGM","img_art/13.jpg","1","","","","","","","","","","","","","","","","","","","","","","","","",""
"701","","image-button-response","158","713081","0.0-157.0-0.0","A26ZENZ5G8AEGM","img_art/13.jpg","2","","","","","","","","","","","","","","","","","","","","","","","","",""
"null","","html-keyboard-response","159","713584","0.0-158.0","A26ZENZ5G8AEGM","<p style=""font-size: 48px;"">+</p>","","","","","null","allTrialResponses","500","1","16","img_art/13.jpg","29","enthralling","Stephanie,Mikayla,Savannah,Olivia,Erin,Jasmine","Raindrops splashing on the window.,50,300,20","My favorite!,47,300,20","Lots of depth and character.,30,200,20","eighties here we come,7,40,20","Color palette is complementary,40,120,20","I like the colors together,17,340,20","Stephanie","Raindrops splashing on the window.,50,300,20","Mikayla","My favorite!,47,300,20","Savannah","Lots of depth and character.,30,200,20","2"
"9055","","survey-text","160","722648","0.0-159.0-0.0","A26ZENZ5G8AEGM","","","","{""Q0"":""not attractive""}","","","","","","","","","","","","","","","","","","","","","","",""
"3732.2999999523163","","image-slider-response","161","726384","0.0-160.0","A26ZENZ5G8AEGM","","","","","-37","","","","","","","","","","","","","","","","","","","","","",""
"null","","image-button-response","162","731391","0.0-161.0","A26ZENZ5G8AEGM","img_art/4.jpg","null","","","","","","","","","","","","","","","","","","","","","","","","",""
"728","","image-button-response","163","732121","0.0-162.0","A26ZENZ5G8AEGM","img_art/4.jpg","0","","","","","","","","","","","","","","","","","","","","","","","","",""
"766","","image-button-response","164","732890","0.0-163.0-0.0","A26ZENZ5G8AEGM","img_art/4.jpg","1","","","","","","","","","","","","","","","","","","","","","","","","",""
"708","","image-button-response","165","733602","0.0-164.0-0.0","A26ZENZ5G8AEGM","img_art/4.jpg","2","","","","","","","","","","","","","","","","","","","","","","","","",""
"null","","html-keyboard-response","166","734611","0.0-165.0","A26ZENZ5G8AEGM","<p style=""font-size: 48px;"">+</p>","","","","","null","allTrialResponses","1000","1","17","img_art/4.jpg","-37","not attractive","Stephanie,Mikayla,Savannah,Taylor,Kayla,Abigail","It looks like a hand someone scribbled over,-30,300,20","Not very interesting to look at.,-34,300,20","Colors are horrendous, look like bodily fluids have been smeared.,-50,200,20","Reminds me of a first place trophy,30,340,20","It's okay, I guess. Nothing much either way.,5,180,20","A hand reaching for something it cannot obtain,-9,20,20","Stephanie","It looks like a hand someone scribbled over,-30,300,20","Mikayla","Not very interesting to look at.,-34,300,20","Savannah","Colors are horrendous, look like bodily fluids have been smeared.,-50,200,20","2"
"9620","","survey-text","167","744240","0.0-166.0-0.0","A26ZENZ5G8AEGM","","","","{""Q0"":""not appealing""}","","","","","","","","","","","","","","","","","","","","","","",""
"3213.300000011921","","image-slider-response","168","747456","0.0-167.0","A26ZENZ5G8AEGM","","","","","-31","","","","","","","","","","","","","","","","","","","","","",""
"null","","image-button-response","169","752461","0.0-168.0","A26ZENZ5G8AEGM","img_art/2.jpg","null","","","","","","","","","","","","","","","","","","","","","","","","",""
"808","","image-button-response","170","753273","0.0-169.0","A26ZENZ5G8AEGM","img_art/2.jpg","3","","","","","","","","","","","","","","","","","","","","","","","","",""
"731","","image-button-response","171","754009","0.0-170.0-0.0","A26ZENZ5G8AEGM","img_art/2.jpg","4","","","","","","","","","","","","","","","","","","","","","","","","",""
"781","","image-button-response","172","754793","0.0-171.0-0.0","A26ZENZ5G8AEGM","img_art/2.jpg","5","","","","","","","","","","","","","","","","","","","","","","","","",""
"null","","html-keyboard-response","173","755802","0.0-172.0","A26ZENZ5G8AEGM","<p style=""font-size: 48px;"">+</p>","","","","","null","allTrialResponses","1000","1","18","img_art/2.jpg","-31","not appealing","Stephanie,Mikayla,Savannah,Angelica,Alexandria,Leah","The colors are what I like. It looks like a smiling face too.,32,300,20","I love the colors in this.,29,300,20","Very gross colors. What were they thinking?,-47,200,20","These colors are ugly.,-40,280,20","too abstract and confusing,-19,80,20","Kind of looks upside down, I need a focal point,-29,360,20","Angelica","These colors are ugly.,-40,280,20","Alexandria","too abstract and confusing,-19,80,20","Leah","Kind of looks upside down, I need a focal point,-29,360,20","2"
"13079","","survey-text","174","768888","0.0-173.0-0.0","A26ZENZ5G8AEGM","","","","{""Q0"":""not interesting""}","","","","","","","","","","","","","","","","","","","","","","",""
"4068.5","","image-slider-response","175","772960","0.0-174.0","A26ZENZ5G8AEGM","","","","","-38","","","","","","","","","","","","","","","","","","","","","",""
"null","","image-button-response","176","777968","0.0-175.0","A26ZENZ5G8AEGM","img_art/6.jpg","null","","","","","","","","","","","","","","","","","","","","","","","","",""
"1910","","image-button-response","177","779881","0.0-176.0","A26ZENZ5G8AEGM","img_art/6.jpg","2","","","","","","","","","","","","","","","","","","","","","","","","",""
"1661","","image-button-response","178","781545","0.0-177.0-0.0","A26ZENZ5G8AEGM","img_art/6.jpg","5","","","","","","","","","","","","","","","","","","","","","","","","",""
"1581","","image-button-response","179","783129","0.0-178.0-0.0","A26ZENZ5G8AEGM","img_art/6.jpg","3","","","","","","","","","","","","","","","","","","","","","","","","",""
"null","","html-keyboard-response","180","783632","0.0-179.0","A26ZENZ5G8AEGM","<p style=""font-size: 48px;"">+</p>","","","","","null","allTrialResponses","500","1","19","img_art/6.jpg","-38","not interesting","Kelly,Meghan,Julia,Angelica,Alexandria,Leah","Simple and pretty.,18,220,20","reminds me of a bird,31,220,20","this is too simple for me,-34,40,20","It feels sad but it's nice to look at.,4,280,20","i like it but it is very neutral,9,80,20","Boring, looks like a sad tree in wind,-37,360,20","Julia","this is too simple for me,-34,40,20","Leah","Boring, looks like a sad tree in wind,-37,360,20","Angelica","It feels sad but it's nice to look at.,4,280,20","2"
"10368","","survey-text","181","794008","0.0-180.0-0.0","A26ZENZ5G8AEGM","","","","{""Q0"":""too strange""}","","","","","","","","","","","","","","","","","","","","","","",""
"3973.2000000476837","","image-slider-response","182","797985","0.0-181.0","A26ZENZ5G8AEGM","","","","","-35","","","","","","","","","","","","","","","","","","","","","",""
"null","","image-button-response","183","802988","0.0-182.0","A26ZENZ5G8AEGM","img_art/5.jpg","null","","","","","","","","","","","","","","","","","","","","","","","","",""
"842","","image-button-response","184","803833","0.0-183.0","A26ZENZ5G8AEGM","img_art/5.jpg","0","","","","","","","","","","","","","","","","","","","","","","","","",""
"652","","image-button-response","185","804488","0.0-184.0-0.0","A26ZENZ5G8AEGM","img_art/5.jpg","1","","","","","","","","","","","","","","","","","","","","","","","","",""
"1364","","image-button-response","186","805857","0.0-185.0-0.0","A26ZENZ5G8AEGM","img_art/5.jpg","5","","","","","","","","","","","","","","","","","","","","","","","","",""
"null","","html-keyboard-response","187","806866","0.0-186.0","A26ZENZ5G8AEGM","<p style=""font-size: 48px;"">+</p>","","","","","null","allTrialResponses","1000","1","20","img_art/5.jpg","-35","too strange","Molly,Cassandra,Julia,Angelica,Katherine,Leah","Very non-dynamic painting, dislike it.,-10,340,20","This was awful and it looked like someone took minimul effort with it... no time at all.,-49,120,20","I like this one but wish it had more context around it,18,40,20","This is interesting and nice.,16,280,20","Don't love don't hate,8,120,20","Boring, no flow except the pink feathery band,-42,360,20","Molly","Very non-dynamic painting, dislike it.,-10,340,20","Cassandra","This was awful and it looked like someone took minimul effort with it... no time at all.,-49,120,20","Leah","Boring, no flow except the pink feathery band,-42,360,20","2"
"3404","","survey-text","188","810280","0.0-187.0-0.0","A26ZENZ5G8AEGM","","","","{""Q0"":""we""}","","","","","","","","","","","","","","","","","","","","","","",""
"11084","","survey-text","189","821369","0.0-188.0-0.0","A26ZENZ5G8AEGM","","","","{""Q0"":""interesting use of colors""}","","","","","","","","","","","","","","","","","","","","","","",""
"4205.900000035763","","image-slider-response","190","825576","0.0-189.0","A26ZENZ5G8AEGM","","","","","19","","","","","","","","","","","","","","","","","","","","","",""
"null","","image-button-response","191","830581","0.0-190.0","A26ZENZ5G8AEGM","img_art/17.jpg","null","","","","","","","","","","","","","","","","","","","","","","","","",""
"2849","","image-button-response","192","833433","0.0-191.0","A26ZENZ5G8AEGM","img_art/17.jpg","0","","","","","","","","","","","","","","","","","","","","","","","","",""
"965","","image-button-response","193","834401","0.0-192.0-0.0","A26ZENZ5G8AEGM","img_art/17.jpg","1","","","","","","","","","","","","","","","","","","","","","","","","",""
"1437","","image-button-response","194","835841","0.0-193.0-0.0","A26ZENZ5G8AEGM","img_art/17.jpg","4","","","","","","","","","","","","","","","","","","","","","","","","",""
"null","","html-keyboard-response","195","837354","0.0-194.0","A26ZENZ5G8AEGM","<p style=""font-size: 48px;"">+</p>","","","","","null","allTrialResponses","1500","1","21","img_art/17.jpg","19","interesting use of colors","Molly,Cassandra,Margaret,Chelsea,Elizabeth,Leah","Wow, I haven't seen anything better than this.,40,340,20","Very pretty...the colors and good and flow well.,33,120,20","gentle watercolor vibes,12,100,20","The colors are soft.,32,180,20","Has a unique vibe to it,50,20,20","Love the colors, the flow, like a strange storm or tree off the balcony,50,360,20","Molly","Wow, I haven't seen anything better than this.,40,340,20","Cassandra","Very pretty...the colors and good and flow well.,33,120,20","Elizabeth","Has a unique vibe to it,50,20,20","2"
"8279","","survey-text","196","845640","0.0-195.0-0.0","A26ZENZ5G8AEGM","","","","{""Q0"":""some appeal""}","","","","","","","","","","","","","","","","","","","","","","",""
"2828.300000011921","","image-slider-response","197","848472","0.0-196.0","A26ZENZ5G8AEGM","","","","","17","","","","","","","","","","","","","","","","","","","","","",""
"null","","image-button-response","198","853483","0.0-197.0","A26ZENZ5G8AEGM","img_art/22.jpg","null","","","","","","","","","","","","","","","","","","","","","","","","",""
"746","","image-button-response","199","854233","0.0-198.0","A26ZENZ5G8AEGM","img_art/22.jpg","3","","","","","","","","","","","","","","","","","","","","","","","","",""
"725","","image-button-response","200","854961","0.0-199.0-0.0","A26ZENZ5G8AEGM","img_art/22.jpg","4","","","","","","","","","","","","","","","","","","","","","","","","",""
"813","","image-button-response","201","855777","0.0-200.0-0.0","A26ZENZ5G8AEGM","img_art/22.jpg","5","","","","","","","","","","","","","","","","","","","","","","","","",""
"null","","html-keyboard-response","202","856791","0.0-201.0","A26ZENZ5G8AEGM","<p style=""font-size: 48px;"">+</p>","","","","","null","allTrialResponses","1000","1","22","img_art/22.jpg","17","some appeal","Molly,Cassandra,Alicia,Madison,Elizabeth,Erica","Unfortunately, I can't see anything special in this painting.,-20,340,20","Don't like it...too much red,-17,120,20","Could be interpreted so many ways, bold. I like it.,29,120,20","Like the colors, and the even blur. The more I look, the more a story forms. A very narrative image.,18,60,20","Great color palette,29,20,20","Picture is very relaxing,32,80,20","Madison","Like the colors, and the even blur. The more I look, the more a story forms. A very narrative image.,18,60,20","Elizabeth","Great color palette,29,20,20","Erica","Picture is very relaxing,32,80,20","2"
"12225","","survey-text","203","869023","0.0-202.0-0.0","A26ZENZ5G8AEGM","","","","{""Q0"":""strange geometry""}","","","","","","","","","","","","","","","","","","","","","","",""
"2691","","image-slider-response","204","871717","0.0-203.0","A26ZENZ5G8AEGM","","","","","-29","","","","","","","","","","","","","","","","","","","","","",""
"null","","image-button-response","205","876731","0.0-204.0","A26ZENZ5G8AEGM","img_art/10.jpg","null","","","","","","","","","","","","","","","","","","","","","","","","",""
"4850","","image-button-response","206","881585","0.0-205.0","A26ZENZ5G8AEGM","img_art/10.jpg","2","","","","","","","","","","","","","","","","","","","","","","","","",""
"1556","","image-button-response","207","883144","0.0-206.0-0.0","A26ZENZ5G8AEGM","img_art/10.jpg","3","","","","","","","","","","","","","","","","","","","","","","","","",""
"1084","","image-button-response","208","884232","0.0-207.0-0.0","A26ZENZ5G8AEGM","img_art/10.jpg","5","","","","","","","","","","","","","","","","","","","","","","","","",""
"null","","html-keyboard-response","209","885239","0.0-208.0","A26ZENZ5G8AEGM","<p style=""font-size: 48px;"">+</p>","","","","","null","allTrialResponses","1000","1","23","img_art/10.jpg","-29","strange geometry","Melissa,Alexa,Samantha,Madison,Elizabeth,Erica","shapes are appealing/relationship between the beige square and the black lines,24,240,20","Cute and has a vintage feel to it,45,40,20","I like it but do not love it. It is sort of depressing,13,140,20","In proper lighting I might enjoy this,11,60,20","Has an air of mystery around it,39,20,20","Relaxing; a lot of going on but colours make it easy to look at,20,80,20","Samantha","I like it but do not love it. It is sort of depressing,13,140,20","Madison","In proper lighting I might enjoy this,11,60,20","Erica","Relaxing; a lot of going on but colours make it easy to look at,20,80,20","2"
"10353","","survey-text","210","895600","0.0-209.0-0.0","A26ZENZ5G8AEGM","","","","{""Q0"":""vibrant colors""}","","","","","","","","","","","","","","","","","","","","","","",""
"3140.699999988079","","image-slider-response","211","898744","0.0-210.0","A26ZENZ5G8AEGM","","","","","9","","","","","","","","","","","","","","","","","","","","","",""
"null","","image-button-response","212","903749","0.0-211.0","A26ZENZ5G8AEGM","img_art/1.jpg","null","","","","","","","","","","","","","","","","","","","","","","","","",""
"1824","","image-button-response","213","905576","0.0-212.0","A26ZENZ5G8AEGM","img_art/1.jpg","3","","","","","","","","","","","","","","","","","","","","","","","","",""
"798","","image-button-response","214","906377","0.0-213.0-0.0","A26ZENZ5G8AEGM","img_art/1.jpg","4","","","","","","","","","","","","","","","","","","","","","","","","",""
"1045","","image-button-response","215","907425","0.0-214.0-0.0","A26ZENZ5G8AEGM","img_art/1.jpg","5","","","","","","","","","","","","","","","","","","","","","","","","",""
"null","","html-keyboard-response","216","908938","0.0-215.0","A26ZENZ5G8AEGM","<p style=""font-size: 48px;"">+</p>","","","","","null","allTrialResponses","1500","1","24","img_art/1.jpg","9","vibrant colors","Caroline,Lauren,Samantha,Madison,Emma,Erica","Felt nothing in response to this painting,3,100,20","This image doesn't invoke much in me.,0,340,20","Love the colors but it makes me feel like someone is looking at me through it,38,140,20","This looks like the same artist as the first picture, but cropped? Looks incomplete.,28,60,20","Pretty, nice use of color,40,60,20","Makes me warm and relaxed,38,80,20","Madison","This looks like the same artist as the first picture, but cropped? Looks incomplete.,28,60,20","Emma","Pretty, nice use of color,40,60,20","Erica","Makes me warm and relaxed,38,80,20","2"
"20478","","survey-text","217","929425","0.0-216.0-0.0","A26ZENZ5G8AEGM","","","","{""Q0"":""strange tilt to the objects""}","","","","","","","","","","","","","","","","","","","","","","",""
"2556.800000011921","","image-slider-response","218","931985","0.0-217.0","A26ZENZ5G8AEGM","","","","","-19","","","","","","","","","","","","","","","","","","","","","",""
"null","","image-button-response","219","936989","0.0-218.0","A26ZENZ5G8AEGM","img_art/8.jpg","null","","","","","","","","","","","","","","","","","","","","","","","","",""
"2242","","image-button-response","220","939233","0.0-219.0","A26ZENZ5G8AEGM","img_art/8.jpg","0","","","","","","","","","","","","","","","","","","","","","","","","",""
"1157","","image-button-response","221","940393","0.0-220.0-0.0","A26ZENZ5G8AEGM","img_art/8.jpg","1","","","","","","","","","","","","","","","","","","","","","","","","",""
"2844","","image-button-response","222","943241","0.0-221.0-0.0","A26ZENZ5G8AEGM","img_art/8.jpg","3","","","","","","","","","","","","","","","","","","","","","","","","",""
"null","","html-keyboard-response","223","944255","0.0-222.0","A26ZENZ5G8AEGM","<p style=""font-size: 48px;"">+</p>","","","","","null","allTrialResponses","1000","1","25","img_art/8.jpg","-19","strange tilt to the objects","Allison,Mary,Anna,Madison,Emma,Erica","Eclectic city with good mix of colors.,10,140,20","Very inspiring piece. I love how it's at angle. It gives it character.,23,180,20","The shapes and colors work well together.,40,300,20","The composition is striking, and some of the images are quite dramatic,11,60,20","Love the colors & block-style,50,60,20","Very busy, I want to look at it and investigate,23,80,20","Allison","Eclectic city with good mix of colors.,10,140,20","Mary","Very inspiring piece. I love how it's at angle. It gives it character.,23,180,20","Madison","The composition is striking, and some of the images are quite dramatic,11,60,20","2"
"12639","","survey-text","224","956905","0.0-223.0-0.0","A26ZENZ5G8AEGM","","","","{""Q0"":""table""}","","","","","","","","","","","","","","","","","","","","","","",""
"9940","","survey-text","225","966848","0.0-224.0-0.0","A26ZENZ5G8AEGM","","","","{""Q0"":""too much gray""}","","","","","","","","","","","","","","","","","","","","","","",""
"2734.300000011921","","image-slider-response","226","969584","0.0-225.0","A26ZENZ5G8AEGM","","","","","-22","","","","","","","","","","","","","","","","","","","","","",""
"null","","image-button-response","227","974587","0.0-226.0","A26ZENZ5G8AEGM","img_art/26.jpg","null","","","","","","","","","","","","","","","","","","","","","","","","",""
"1314","","image-button-response","228","975904","0.0-227.0","A26ZENZ5G8AEGM","img_art/26.jpg","3","","","","","","","","","","","","","","","","","","","","","","","","",""
"1534","","image-button-response","229","977441","0.0-228.0-0.0","A26ZENZ5G8AEGM","img_art/26.jpg","1","","","","","","","","","","","","","","","","","","","","","","","","",""
"1516","","image-button-response","230","978961","0.0-229.0-0.0","A26ZENZ5G8AEGM","img_art/26.jpg","5","","","","","","","","","","","","","","","","","","","","","","","","",""
"null","","html-keyboard-response","231","980476","0.0-230.0","A26ZENZ5G8AEGM","<p style=""font-size: 48px;"">+</p>","","","","","null","allTrialResponses","1500","1","26","img_art/26.jpg","-22","too much gray","Allison,Mary,Brooke,Madison,Gabrielle,Catherine","pretty colors, but sketch style isn't for me,10,140,20","I can tell it's some sort of outdoor scene. It looks very amateurish.,-9,180,20","street scene is okay?,15,60,20","Colors look glum; photograph is not properly contrasted and does not reflect the appropriate amount of natural light.,-10,60,20","subtle use of colors, city street view?,8,160,20","Incomplete, The artist painted his impression of somthing he was thinking of,0,160,20","Madison","Colors look glum; photograph is not properly contrasted and does not reflect the appropriate amount of natural light.,-10,60,20","Mary","I can tell it's some sort of outdoor scene. It looks very amateurish.,-9,180,20","Catherine","Incomplete, The artist painted his impression of somthing he was thinking of,0,160,20","2"
"11829","","survey-text","232","992312","0.0-231.0-0.0","A26ZENZ5G8AEGM","","","","{""Q0"":""too much like a cave""}","","","","","","","","","","","","","","","","","","","","","","",""
"2772.699999988079","","image-slider-response","233","995087","0.0-232.0","A26ZENZ5G8AEGM","","","","","-30","","","","","","","","","","","","","","","","","","","","","",""
"null","","image-button-response","234","1000090","0.0-233.0","A26ZENZ5G8AEGM","img_art/9.jpg","null","","","","","","","","","","","","","","","","","","","","","","","","",""
"1347","","image-button-response","235","1001440","0.0-234.0","A26ZENZ5G8AEGM","img_art/9.jpg","0","","","","","","","","","","","","","","","","","","","","","","","","",""
"1381","","image-button-response","236","1002824","0.0-235.0-0.0","A26ZENZ5G8AEGM","img_art/9.jpg","3","","","","","","","","","","","","","","","","","","","","","","","","",""
"1084","","image-button-response","237","1003913","0.0-236.0-0.0","A26ZENZ5G8AEGM","img_art/9.jpg","4","","","","","","","","","","","","","","","","","","","","","","","","",""
"null","","html-keyboard-response","238","1005428","0.0-237.0","A26ZENZ5G8AEGM","<p style=""font-size: 48px;"">+</p>","","","","","null","allTrialResponses","1500","1","27","img_art/9.jpg","-30","too much like a cave","Kaylee,Mary,Kylie,Madison,Maria,Catherine","not my type of art,-33,200,20","How neat is this piece?  I love the angry expressive lines. Emotion is captured in it.,26,180,20","Peaceful dreaming,40,300,20","No cohesive form whatsoever. Hard pass.,-31,60,20","while I don't dispute the art, it feels childish,-20,120,20","Cozy, In her own world. feminine .,30,160,20","Kaylee","not my type of art,-33,200,20","Madison","No cohesive form whatsoever. Hard pass.,-31,60,20","Maria","while I don't dispute the art, it feels childish,-20,120,20","2"
"9545","","survey-text","239","1014984","0.0-238.0-0.0","A26ZENZ5G8AEGM","","","","{""Q0"":""distressing""}","","","","","","","","","","","","","","","","","","","","","","",""
"2869","","image-slider-response","240","1017856","0.0-239.0","A26ZENZ5G8AEGM","","","","","-34","","","","","","","","","","","","","","","","","","","","","",""
"null","","image-button-response","241","1022861","0.0-240.0","A26ZENZ5G8AEGM","img_art/20.jpg","null","","","","","","","","","","","","","","","","","","","","","","","","",""
"1457","","image-button-response","242","1024321","0.0-241.0","A26ZENZ5G8AEGM","img_art/20.jpg","2","","","","","","","","","","","","","","","","","","","","","","","","",""
"1164","","image-button-response","243","1025489","0.0-242.0-0.0","A26ZENZ5G8AEGM","img_art/20.jpg","3","","","","","","","","","","","","","","","","","","","","","","","","",""
"1014","","image-button-response","244","1026512","0.0-243.0-0.0","A26ZENZ5G8AEGM","img_art/20.jpg","4","","","","","","","","","","","","","","","","","","","","","","","","",""
"null","","html-keyboard-response","245","1027524","0.0-244.0","A26ZENZ5G8AEGM","<p style=""font-size: 48px;"">+</p>","","","","","null","allTrialResponses","1000","1","28","img_art/20.jpg","-34","distressing","Kaylee,Sierra,Leslie,Madison,Maria,Shannon","i can see a car crash,13,200,20","i like the rounded edges,18,260,20","This elicits no reaction in me.,0,380,20","This is not abstract art, it is representative.,0,60,20","just feels generic,-18,120,20","I really like this. There are lots of objects the artist wanted to show and the colors are good.,38,220,20","Leslie","This elicits no reaction in me.,0,380,20","Madison","This is not abstract art, it is representative.,0,60,20","Maria","just feels generic,-18,120,20","2"
"9814","","survey-text","246","1037344","0.0-245.0-0.0","A26ZENZ5G8AEGM","","","","{""Q0"":""intriguing""}","","","","","","","","","","","","","","","","","","","","","","",""
"2604.600000023842","","image-slider-response","247","1039952","0.0-246.0","A26ZENZ5G8AEGM","","","","","20","","","","","","","","","","","","","","","","","","","","","",""
"null","","image-button-response","248","1044974","0.0-247.0","A26ZENZ5G8AEGM","img_art/14.jpg","null","","","","","","","","","","","","","","","","","","","","","","","","",""
"1056","","image-button-response","249","1046033","0.0-248.0","A26ZENZ5G8AEGM","img_art/14.jpg","0","","","","","","","","","","","","","","","","","","","","","","","","",""
"878","","image-button-response","250","1046915","0.0-249.0-0.0","A26ZENZ5G8AEGM","img_art/14.jpg","1","","","","","","","","","","","","","","","","","","","","","","","","",""
"1371","","image-button-response","251","1048289","0.0-250.0-0.0","A26ZENZ5G8AEGM","img_art/14.jpg","4","","","","","","","","","","","","","","","","","","","","","","","","",""
"null","","html-keyboard-response","252","1049293","0.0-251.0","A26ZENZ5G8AEGM","<p style=""font-size: 48px;"">+</p>","","","","","null","allTrialResponses","1000","1","29","img_art/14.jpg","20","intriguing","Sophia,Christina,Leslie,Madison,Maria,Briana","I don't know why, but this piece makes me happy.,20,280,20","has a tree look to it and it's colors are happy,9,240,20","This elicits no reaction in me.,0,380,20","No strong feelings either direction.,-4,60,20","I enjoy what comes across as a playful take on nature themes,26,120,20","Simplistic. Looks like a child did it,14,400,20","Sophia","I don't know why, but this piece makes me happy.,20,280,20","Christina","has a tree look to it and it's colors are happy,9,240,20","Maria","I enjoy what comes across as a playful take on nature themes,26,120,20","2"
"12811","","survey-text","253","1062113","0.0-252.0-0.0","A26ZENZ5G8AEGM","","","","{""Q0"":""nothing is appealing""}","","","","","","","","","","","","","","","","","","","","","","",""
"3284.199999988079","","image-slider-response","254","1065400","0.0-253.0","A26ZENZ5G8AEGM","","","","","-31","","","","","","","","","","","","","","","","","","","","","",""
"null","","image-button-response","255","1070404","0.0-254.0","A26ZENZ5G8AEGM","img_art/7.jpg","null","","","","","","","","","","","","","","","","","","","","","","","","",""
"954","","image-button-response","256","1071361","0.0-255.0","A26ZENZ5G8AEGM","img_art/7.jpg","0","","","","","","","","","","","","","","","","","","","","","","","","",""
"734","","image-button-response","257","1072098","0.0-256.0-0.0","A26ZENZ5G8AEGM","img_art/7.jpg","1","","","","","","","","","","","","","","","","","","","","","","","","",""
"1171","","image-button-response","258","1073273","0.0-257.0-0.0","A26ZENZ5G8AEGM","img_art/7.jpg","3","","","","","","","","","","","","","","","","","","","","","","","","",""
"null","","html-keyboard-response","259","1074286","0.0-258.0","A26ZENZ5G8AEGM","<p style=""font-size: 48px;"">+</p>","","","","","null","allTrialResponses","1000","1","30","img_art/7.jpg","-31","nothing is appealing","Sophia,Christina,Jamie,Grace,Maria,Jessica","Is this cookie dough?  Yum!,-10,280,20","looks like the surface of the moon,-28,240,20","Looks like a battle raging on,20,320,20","Makes me itch - looks like a closeup of an ant colony or something.,-1,180,20","elicits no real response,0,120,20","Looks like a natural texture, reminds me of rocks.,0,400,20","Sophia","Is this cookie dough?  Yum!,-10,280,20","Christina","looks like the surface of the moon,-28,240,20","Grace","Makes me itch - looks like a closeup of an ant colony or something.,-1,180,20","2"
"6604","","image-button-response_instructions","260","1080897","0.0-259.0","A26ZENZ5G8AEGM","","0","instructions","","","","","","","","","","","","","","","","","","","","","","","",""
"1944","","image-button-response","261","1082849","0.0-260.0","A26ZENZ5G8AEGM","","0","","","","","","","","","","","","","","","","","","","","","","","","",""
