"rt","url","trial_type","trial_index","time_elapsed","internal_node_id","participant_id","stimulus","button_pressed","Name","responses","response","key_press","variableName","fixationTime","condition","trial","photo","subjectRating","subjectResponse","agentsNames","agent_1_Response","agent_2_Response","agent_3_Response","agent_4_Response","agent_5_Response","agent_6_Response","kept_1_name","kept_1_response","kept_2_name","kept_2_response","kept_3_name","kept_3_response","errorCounter"
"260627","external_page_harvard.html","external-html","0","260704","0.0-0.0","A27OXXF9NU2UZH","","","","","","","","","","","","","","","","","","","","","","","","","","",""
"2000","","image-button-response","1","262706","0.0-1.0","A27OXXF9NU2UZH","","1","","","","","","","","","","","","","","","","","","","","","","","","",""
"2026","","image-button-response","2","264737","0.0-2.0-0.0","A27OXXF9NU2UZH","","1","phone","","","","","","","","","","","","","","","","","","","","","","","",""
"9252","","survey-text","3","273992","0.0-3.0-0.0","A27OXXF9NU2UZH","","","","{""Q0"":""A27OXXF9NU2UZH""}","","","","","","","","","","","","","","","","","","","","","","",""
"4598","","image-button-response_instructions","4","278592","0.0-4.0","A27OXXF9NU2UZH","","0","instructions","","","","","","","","","","","","","","","","","","","","","","","",""
"11591","","image-button-response_instructions","5","290184","0.0-5.0","A27OXXF9NU2UZH","img_art/ins/popularity/ins1.png","0","instructions","","","","","","","","","","","","","","","","","","","","","","","",""
"7241","","image-button-response_instructions","6","297427","0.0-6.0","A27OXXF9NU2UZH","img_art/ins/popularity/ins2.png","0","instructions","","","","","","","","","","","","","","","","","","","","","","","",""
"3308","","image-button-response_instructions","7","300744","0.0-7.0","A27OXXF9NU2UZH","img_art/ins/popularity/ins2Extreme.png","0","instructions","","","","","","","","","","","","","","","","","","","","","","","",""
"5612","","image-button-response_instructions","8","306358","0.0-8.0","A27OXXF9NU2UZH","img_art/ins/popularity/ins3KEEPpop.PNG","0","instructions","","","","","","","","","","","","","","","","","","","","","","","",""
"5708","","image-button-response_instructions","9","312068","0.0-9.0","A27OXXF9NU2UZH","img_art/ins/popularity/ins3ANamepop.PNG","0","instructions","","","","","","","","","","","","","","","","","","","","","","","",""
"2489","","image-button-response_instructions","10","314558","0.0-10.0","A27OXXF9NU2UZH","img_art/ins/popularity/ins3ARatingpop.png","0","instructions","","","","","","","","","","","","","","","","","","","","","","","",""
"2054","","image-button-response_instructions","11","316613","0.0-11.0","A27OXXF9NU2UZH","img_art/ins/popularity/ins3ATextpop.png","0","instructions","","","","","","","","","","","","","","","","","","","","","","","",""
"5870","","image-button-response_instructions","12","322484","0.0-12.0","A27OXXF9NU2UZH","img_art/ins/popularity/ins3ALikespop.png","0","instructions","","","","","","","","","","","","","","","","","","","","","","","",""
"12335","","image-button-response_instructions","13","334820","0.0-13.0","A27OXXF9NU2UZH","img_art/ins/popularity/ins3KEEPpop.PNG","0","instructions","","","","","","","","","","","","","","","","","","","","","","","",""
"6880","","image-button-response_instructions","14","341702","0.0-14.0","A27OXXF9NU2UZH","img_art/ins/popularity/ins3_5RED.png","0","instructions","","","","","","","","","","","","","","","","","","","","","","","",""
"4360","","image-button-response_instructions","15","346064","0.0-15.0","A27OXXF9NU2UZH","img_art/ins/popularity/ins3KEEPpop.PNG","0","instructions","","","","","","","","","","","","","","","","","","","","","","","",""
"8862","","image-button-response_instructions","16","354927","0.0-16.0","A27OXXF9NU2UZH","img_art/ins/popularity/ins4KEEPpop.PNG","0","instructions","","","","","","","","","","","","","","","","","","","","","","","",""
"4744","","image-button-response_instructions","17","359672","0.0-17.0","A27OXXF9NU2UZH","img_art/ins/popularity/ins5KEEPpop.PNG","0","instructions","","","","","","","","","","","","","","","","","","","","","","","",""
"2801","","image-button-response_instructions","18","362474","0.0-18.0","A27OXXF9NU2UZH","","0","instructions","","","","","","","","","","","","","","","","","","","","","","","",""
"7310","","survey-text","19","369807","0.0-19.0-0.0","A27OXXF9NU2UZH","","","","{""Q0"":""but""}","","","","","","","","","","","","","","","","","","","","","","",""
"16596","","survey-text","20","386406","0.0-20.0-0.0","A27OXXF9NU2UZH","","","","{""Q0"":""Looks like a windy field""}","","","","","","","","","","","","","","","","","","","","","","",""
"9341.900000035763","","image-slider-response","21","395750","0.0-21.0","A27OXXF9NU2UZH","","","","","-13","","","","","","","","","","","","","","","","","","","","","",""
"null","","image-button-response","22","400754","0.0-22.0","A27OXXF9NU2UZH","img_art/ins/1.jpg","null","","","","","","","","","","","","","","","","","","","","","","","","",""
"16101","","image-button-response","23","416858","0.0-23.0","A27OXXF9NU2UZH","img_art/ins/1.jpg","0","","","","","","","","","","","","","","","","","","","","","","","","",""
"11771","","image-button-response","24","428632","0.0-24.0-0.0","A27OXXF9NU2UZH","img_art/ins/1.jpg","5","","","","","","","","","","","","","","","","","","","","","","","","",""
"3731","","image-button-response","25","432367","0.0-25.0-0.0","A27OXXF9NU2UZH","img_art/ins/1.jpg","0","","","","","","","","","","","","","","","","","","","","","","","","",""
"3476","","image-button-response","26","441707","0.0-25.1-0.1","A27OXXF9NU2UZH","img_art/ins/1.jpg","3","","","","","","","","","","","","","","","","","","","","","","","","",""
"null","","html-keyboard-response","27","443221","0.0-26.0","A27OXXF9NU2UZH","<p style=""font-size: 48px;"">+</p>","","","","","null","allTrialResponses","1500","1","-2","img_art/ins/1.jpg","-13","Looks like a windy field","Allison,Ashley,Beth,Dora,Erika,Jen","looks like a lot of things going on in the mist,20,20,20","I just don't get why these type of art would be popular,-32,40,20","This color reminds me of poo,-46,60,20","looks like what my niece in 3rd grade did this afternoon,-50,80,20","I like the sophisticated brushwork,40,100,20","It reminds me of a candy land dream I had,36,120,20","Allison","looks like a lot of things going on in the mist,20,20,20","Jen","It reminds me of a candy land dream I had,36,120,20","Dora","looks like what my niece in 3rd grade did this afternoon,-50,80,20","2"
"17283","","survey-text","28","460512","0.0-27.0-0.0","A27OXXF9NU2UZH","","","","{""Q0"":""Impression of a city""}","","","","","","","","","","","","","","","","","","","","","","",""
"5712.100000023842","","image-slider-response","29","466226","0.0-28.0","A27OXXF9NU2UZH","","","","","-5","","","","","","","","","","","","","","","","","","","","","",""
"null","","image-button-response","30","471230","0.0-29.0","A27OXXF9NU2UZH","img_art/ins/2.jpg","null","","","","","","","","","","","","","","","","","","","","","","","","",""
"12159","","image-button-response","31","483392","0.0-30.0","A27OXXF9NU2UZH","img_art/ins/2.jpg","4","","","","","","","","","","","","","","","","","","","","","","","","",""
"707","","image-button-response","32","484102","0.0-31.0-0.0","A27OXXF9NU2UZH","img_art/ins/2.jpg","5","","","","","","","","","","","","","","","","","","","","","","","","",""
"2610","","image-button-response","33","486713","0.0-32.0-0.0","A27OXXF9NU2UZH","img_art/ins/2.jpg","0","","","","","","","","","","","","","","","","","","","","","","","","",""
"null","","html-keyboard-response","34","488215","0.0-33.0","A27OXXF9NU2UZH","<p style=""font-size: 48px;"">+</p>","","","","","null","allTrialResponses","1500","1","-1","img_art/ins/2.jpg","-5","Impression of a city","Allison,Jenna,Katie,Dora,Kara,Jen","I don't have strong feelings about this,10,20,20","One of my pet peevs,-48,140,20","too much color!,-28,180,20","looks too angry,-50,80,20","I like the blocks of color arrangements,30,160,20","It reminds me of a fireplace,36,120,20","Kara","I like the blocks of color arrangements,30,160,20","Jen","It reminds me of a fireplace,36,120,20","Allison","I don't have strong feelings about this,10,20,20","2"
"31016","","survey-text","35","519236","0.0-34.0-0.0","A27OXXF9NU2UZH","","","","{""Q0"":""Not sure what it's about""}","","","","","","","","","","","","","","","","","","","","","","",""
"7616.5","","image-slider-response","36","526854","0.0-35.0","A27OXXF9NU2UZH","","","","","-22","","","","","","","","","","","","","","","","","","","","","",""
"null","","image-button-response","37","531873","0.0-36.0","A27OXXF9NU2UZH","img_art/ins/3.jpg","null","","","","","","","","","","","","","","","","","","","","","","","","",""
"10827","","image-button-response","38","542703","0.0-37.0","A27OXXF9NU2UZH","img_art/ins/3.jpg","5","","","","","","","","","","","","","","","","","","","","","","","","",""
"881","","image-button-response","39","543586","0.0-38.0-0.0","A27OXXF9NU2UZH","img_art/ins/3.jpg","4","","","","","","","","","","","","","","","","","","","","","","","","",""
"2797","","image-button-response","40","546385","0.0-39.0-0.0","A27OXXF9NU2UZH","img_art/ins/3.jpg","0","","","","","","","","","","","","","","","","","","","","","","","","",""
"null","","html-keyboard-response","41","546886","0.0-40.0","A27OXXF9NU2UZH","<p style=""font-size: 48px;"">+</p>","","","","","null","allTrialResponses","500","1","0","img_art/ins/3.jpg","-22","Not sure what it's about","Allison,Rose,Mary,Leslie,Kara,Jen","enjoy the different shades of blue,22,20,20","My daily routine, it's depressing,-20,240,20","I like the overlapping of brushes,41,220,20","It's an alright work,15,200,20","calming blue is very nice,36,160,20","I can feel a rainy day from this painting,18,120,20","Jen","I can feel a rainy day from this painting,18,120,20","Kara","calming blue is very nice,36,160,20","Allison","enjoy the different shades of blue,22,20,20","2"
"4107","","image-button-response_instructions","42","551001","0.0-41.0","A27OXXF9NU2UZH","","0","instructions","","","","","","","","","","","","","","","","","","","","","","","",""
"12440","","survey-likert","43","563442","0.0-42.0-0.0","A27OXXF9NU2UZH","","","","{""Q0"":"""",""Q1"":0,""Q2"":1}","","","","","","","","","","","","","","","","","","","","","","",""
"5696","","survey-text","44","569145","0.0-43.0-0.0","A27OXXF9NU2UZH","","","","{""Q0"":""rock""}","","","","","","","","","","","","","","","","","","","","","","",""
"19028","","survey-text","45","588176","0.0-44.0-0.0","A27OXXF9NU2UZH","","","","{""Q0"":""Looks like a sleeping bird""}","","","","","","","","","","","","","","","","","","","","","","",""
"7559.400000035763","","image-slider-response","46","595737","0.0-45.0","A27OXXF9NU2UZH","","","","","20","","","","","","","","","","","","","","","","","","","","","",""
"null","","image-button-response","47","600780","0.0-46.0","A27OXXF9NU2UZH","img_art/6.jpg","null","","","","","","","","","","","","","","","","","","","","","","","","",""
"19223","","image-button-response","48","620006","0.0-47.0","A27OXXF9NU2UZH","img_art/6.jpg","2","","","","","","","","","","","","","","","","","","","","","","","","",""
"10855","","image-button-response","49","630864","0.0-48.0-0.0","A27OXXF9NU2UZH","img_art/6.jpg","5","","","","","","","","","","","","","","","","","","","","","","","","",""
"7302","","image-button-response","50","638168","0.0-49.0-0.0","A27OXXF9NU2UZH","img_art/6.jpg","3","","","","","","","","","","","","","","","","","","","","","","","","",""
"null","","html-keyboard-response","51","638670","0.0-50.0","A27OXXF9NU2UZH","<p style=""font-size: 48px;"">+</p>","","","","","null","allTrialResponses","500","1","1","img_art/6.jpg","20","Looks like a sleeping bird","Grace,Bailey,Madison,Cassandra,Briana,Megan","Growth in the desert?  Don't care for it very much.,-26,180,20","Not my favorite, but I like the empty vibe and the imagination it invokes. A skinny girl with long legs, perhaps, looking over a cliff,9,360,20","Is this the villain from Despicable Me?,29,60,20","No feeling...just left me feeling kind of blah,1,120,20","Close up peach? Hate it,-16,400,20","Odd desert, nice sand color with headless bird,11,200,20","Madison","Is this the villain from Despicable Me?,29,60,20","Megan","Odd desert, nice sand color with headless bird,11,200,20","Cassandra","No feeling...just left me feeling kind of blah,1,120,20","2"
"33269","","survey-text","52","671944","0.0-51.0-0.0","A27OXXF9NU2UZH","","","","{""Q0"":""Understated dune""}","","","","","","","","","","","","","","","","","","","","","","",""
"2974.399999976158","","image-slider-response","53","674920","0.0-52.0","A27OXXF9NU2UZH","","","","","-16","","","","","","","","","","","","","","","","","","","","","",""
"null","","image-button-response","54","679922","0.0-53.0","A27OXXF9NU2UZH","img_art/10.jpg","null","","","","","","","","","","","","","","","","","","","","","","","","",""
"21315","","image-button-response","55","701240","0.0-54.0","A27OXXF9NU2UZH","img_art/10.jpg","5","","","","","","","","","","","","","","","","","","","","","","","","",""
"903","","image-button-response","56","702146","0.0-55.0-0.0","A27OXXF9NU2UZH","img_art/10.jpg","4","","","","","","","","","","","","","","","","","","","","","","","","",""
"1733","","image-button-response","57","703881","0.0-56.0-0.0","A27OXXF9NU2UZH","img_art/10.jpg","3","","","","","","","","","","","","","","","","","","","","","","","","",""
"null","","html-keyboard-response","58","704384","0.0-57.0","A27OXXF9NU2UZH","<p style=""font-size: 48px;"">+</p>","","","","","null","allTrialResponses","500","1","2","img_art/10.jpg","-16","Understated dune","Kathryn,Katelyn,Madison,Cassandra,Kayla,Megan","This piece makes me think of music. The music is dark; I like dark music so it edges toward good.,10,140,20","It makes me think of music and i love the reflective aspect,29,100,20","In proper lighting I might enjoy this,11,60,20","I liked it...it looked somewhat like a guitar.,32,120,20","The loop type thing reminds me of interconnectedness and life and hope.,12,180,20","Music visualized with subtle color,17,200,20","Megan","Music visualized with subtle color,17,200,20","Kayla","The loop type thing reminds me of interconnectedness and life and hope.,12,180,20","Cassandra","I liked it...it looked somewhat like a guitar.,32,120,20","2"
"15647","","survey-text","59","720036","0.0-58.0-0.0","A27OXXF9NU2UZH","","","","{""Q0"":""ships in the fog""}","","","","","","","","","","","","","","","","","","","","","","",""
"3137.900000035763","","image-slider-response","60","723175","0.0-59.0","A27OXXF9NU2UZH","","","","","8","","","","","","","","","","","","","","","","","","","","","",""
"4843","","image-button-response","61","728191","0.0-60.0","A27OXXF9NU2UZH","img_art/21.jpg","0","","","","","","","","","","","","","","","","","","","","","","","","",""
"5562","","image-button-response","62","733756","0.0-61.0","A27OXXF9NU2UZH","img_art/21.jpg","3","","","","","","","","","","","","","","","","","","","","","","","","",""
"12938","","image-button-response","63","746695","0.0-62.0-0.0","A27OXXF9NU2UZH","img_art/21.jpg","0","","","","","","","","","","","","","","","","","","","","","","","","",""
"3763","","image-button-response","64","750461","0.0-63.0-0.0","A27OXXF9NU2UZH","img_art/21.jpg","2","","","","","","","","","","","","","","","","","","","","","","","","",""
"null","","html-keyboard-response","65","751979","0.0-64.0","A27OXXF9NU2UZH","<p style=""font-size: 48px;"">+</p>","","","","","null","allTrialResponses","1500","1","3","img_art/21.jpg","8","ships in the fog","Kylie,Jasmine,Erin,Cassandra,Kayla,Megan","Makes me think of a battleship targeting a beautiful mountainside,0,300,20","The blues make me feel sadder as my mood is already not the best right now,-10,340,20","Love the colors and hue, ocean,38,120,20","I liked it...it looked like a storm raging.,12,120,20","I like that it reminds me of an abstract version of a Bob Ross painting.,36,180,20","Nice asymmetry with maritime colors city meets the sea,34,200,20","Cassandra","I liked it...it looked like a storm raging.,12,120,20","Kylie","Makes me think of a battleship targeting a beautiful mountainside,0,300,20","Erin","Love the colors and hue, ocean,38,120,20","2"
"1841804","","survey-text","66","2593789","0.0-65.0-0.0","A27OXXF9NU2UZH","","","","{""Q0"":""Telephone lines""}","","","","","","","","","","","","","","","","","","","","","","",""
"5197.299999952316","","image-slider-response","67","2598989","0.0-66.0","A27OXXF9NU2UZH","","","","","4","","","","","","","","","","","","","","","","","","","","","",""
"null","","image-button-response","68","2604004","0.0-67.0","A27OXXF9NU2UZH","img_art/11.jpg","null","","","","","","","","","","","","","","","","","","","","","","","","",""
"1433","","image-button-response","69","2605441","0.0-68.0","A27OXXF9NU2UZH","img_art/11.jpg","0","","","","","","","","","","","","","","","","","","","","","","","","",""
"9963","","image-button-response","70","2615407","0.0-69.0-0.0","A27OXXF9NU2UZH","img_art/11.jpg","4","","","","","","","","","","","","","","","","","","","","","","","","",""
"872","","image-button-response","71","2616282","0.0-70.0-0.0","A27OXXF9NU2UZH","img_art/11.jpg","5","","","","","","","","","","","","","","","","","","","","","","","","",""
"null","","html-keyboard-response","72","2617791","0.0-71.0","A27OXXF9NU2UZH","<p style=""font-size: 48px;"">+</p>","","","","","null","allTrialResponses","1500","1","4","img_art/11.jpg","4","Telephone lines","Kylie,Jennifer,Erin,Cassandra,Ashley,Sabrina","This looks like a busy highway system along a suburban background,40,300,20","The narrow groups of lines in the center make me feel uneasy for some reason,-31,380,20","Frank Lloyd Wright, music,24,120,20","I liked it it looked like an roller coasters at an amusment park.,16,120,20","Dark but bright, city but ocean, musical scales.,50,320,20","I love the city chaos from this,50,120,20","Kylie","This looks like a busy highway system along a suburban background,40,300,20","Ashley","Dark but bright, city but ocean, musical scales.,50,320,20","Sabrina","I love the city chaos from this,50,120,20","2"
"18234","","survey-text","73","2636031","0.0-72.0-0.0","A27OXXF9NU2UZH","","","","{""Q0"":""Watercolor of a watercolor""}","","","","","","","","","","","","","","","","","","","","","","",""
"5388.900000035763","","image-slider-response","74","2641421","0.0-73.0","A27OXXF9NU2UZH","","","","","17","","","","","","","","","","","","","","","","","","","","","",""
"null","","image-button-response","75","2646424","0.0-74.0","A27OXXF9NU2UZH","img_art/14.jpg","null","","","","","","","","","","","","","","","","","","","","","","","","",""
"1457","","image-button-response","76","2647884","0.0-75.0","A27OXXF9NU2UZH","img_art/14.jpg","5","","","","","","","","","","","","","","","","","","","","","","","","",""
"15983","","image-button-response","77","2663869","0.0-76.0-0.0","A27OXXF9NU2UZH","img_art/14.jpg","3","","","","","","","","","","","","","","","","","","","","","","","","",""
"936","","image-button-response","78","2664808","0.0-77.0-0.0","A27OXXF9NU2UZH","img_art/14.jpg","4","","","","","","","","","","","","","","","","","","","","","","","","",""
"null","","html-keyboard-response","79","2665320","0.0-78.0","A27OXXF9NU2UZH","<p style=""font-size: 48px;"">+</p>","","","","","null","allTrialResponses","500","1","5","img_art/14.jpg","17","Watercolor of a watercolor","Kylie,Leslie,Brianna,Marissa,Ashley,Sabrina","Confusion or an explosion,40,300,20","This elicits no reaction in me.,0,380,20","It uses interesting techniques on this picture, but I have no feelings for or against.,1,20,20","I like the sharpness of the lines,20,160,20","I like the color tone, it's kind of disturbing.,35,320,20","Love the assortment of colors and flowers, expressing gentle and caring,50,120,20","Sabrina","Love the assortment of colors and flowers, expressing gentle and caring,50,120,20","Marissa","I like the sharpness of the lines,20,160,20","Ashley","I like the color tone, it's kind of disturbing.,35,320,20","2"
"4938","","survey-text","80","2670271","0.0-79.0-0.0","A27OXXF9NU2UZH","","","","{""Q0"":""sky""}","","","","","","","","","","","","","","","","","","","","","","",""
"39950","","survey-text","81","2710223","0.0-80.0-0.0","A27OXXF9NU2UZH","","","","{""Q0"":""People playing a game""}","","","","","","","","","","","","","","","","","","","","","","",""
"8750.599999964237","","image-slider-response","82","2718976","0.0-81.0","A27OXXF9NU2UZH","","","","","11","","","","","","","","","","","","","","","","","","","","","",""
"null","","image-button-response","83","2723979","0.0-82.0","A27OXXF9NU2UZH","img_art/28.jpg","null","","","","","","","","","","","","","","","","","","","","","","","","",""
"4482","","image-button-response","84","2728464","0.0-83.0","A27OXXF9NU2UZH","img_art/28.jpg","4","","","","","","","","","","","","","","","","","","","","","","","","",""
"8781","","image-button-response","85","2737247","0.0-84.0-0.0","A27OXXF9NU2UZH","img_art/28.jpg","1","","","","","","","","","","","","","","","","","","","","","","","","",""
"5096","","image-button-response","86","2742347","0.0-85.0-0.0","A27OXXF9NU2UZH","img_art/28.jpg","2","","","","","","","","","","","","","","","","","","","","","","","","",""
"null","","html-keyboard-response","87","2742850","0.0-86.0","A27OXXF9NU2UZH","<p style=""font-size: 48px;"">+</p>","","","","","null","allTrialResponses","500","1","6","img_art/28.jpg","11","People playing a game","Victoria,Maria,Katherine,Marissa,Ashley,Sabrina","drab and dreary,-21,400,20","I want to like it, but I'm not really sure what to make of it,2,120,20","Eh it's just kinda brown and muddy and not very nice looking,-18,120,20","It feels very blah,-10,160,20","Normally don't react well to abstract art, but it looks almost like something's there.,28,320,20","Self-hate and abuse at home, unsafe and torturing,-30,120,20","Ashley","Normally don't react well to abstract art, but it looks almost like something's there.,28,320,20","Maria","I want to like it, but I'm not really sure what to make of it,2,120,20","Katherine","Eh it's just kinda brown and muddy and not very nice looking,-18,120,20","2"
"121568","","survey-text","88","2864425","0.0-87.0-0.0","A27OXXF9NU2UZH","","","","{""Q0"":""I like the colors, but don't make much of it""}","","","","","","","","","","","","","","","","","","","","","","",""
"4057.900000035763","","image-slider-response","89","2868485","0.0-88.0","A27OXXF9NU2UZH","","","","","10","","","","","","","","","","","","","","","","","","","","","",""
"3301","","image-button-response","90","2873488","0.0-89.0","A27OXXF9NU2UZH","img_art/30.jpg","1","","","","","","","","","","","","","","","","","","","","","","","","",""
"939","","image-button-response","91","2874429","0.0-90.0","A27OXXF9NU2UZH","img_art/30.jpg","1","","","","","","","","","","","","","","","","","","","","","","","","",""
"9091","","image-button-response","92","2883522","0.0-91.0-0.0","A27OXXF9NU2UZH","img_art/30.jpg","4","","","","","","","","","","","","","","","","","","","","","","","","",""
"6432","","image-button-response","93","2889957","0.0-92.0-0.0","A27OXXF9NU2UZH","img_art/30.jpg","3","","","","","","","","","","","","","","","","","","","","","","","","",""
"null","","html-keyboard-response","94","2890960","0.0-93.0","A27OXXF9NU2UZH","<p style=""font-size: 48px;"">+</p>","","","","","null","allTrialResponses","1000","1","7","img_art/30.jpg","10","I like the colors, but don't make much of it","Makayla,Maria,Katherine,Mackenzie,Ashley,Crystal","I feel nothing towards,-1,80,20","uplifted and yet calmed,15,120,20","For some reason I like the red in this one. Maybe it's the style of lines/blurs,46,120,20","I like the forefront design.,10,20,20","Decent abstract art, ncie colors.,23,320,20","An interesting design but don't like the colors. I value the time and effort put into it, but not a huge fan.,10,300,20","Maria","uplifted and yet calmed,15,120,20","Ashley","Decent abstract art, ncie colors.,23,320,20","Mackenzie","I like the forefront design.,10,20,20","2"
"13694","","survey-text","95","2904659","0.0-94.0-0.0","A27OXXF9NU2UZH","","","","{""Q0"":""nice city watercolor""}","","","","","","","","","","","","","","","","","","","","","","",""
"3223.400000035763","","image-slider-response","96","2907885","0.0-95.0","A27OXXF9NU2UZH","","","","","38","","","","","","","","","","","","","","","","","","","","","",""
"4048","","image-button-response","97","2912888","0.0-96.0","A27OXXF9NU2UZH","img_art/26.jpg","2","","","","","","","","","","","","","","","","","","","","","","","","",""
"538","","image-button-response","98","2913428","0.0-97.0","A27OXXF9NU2UZH","img_art/26.jpg","2","","","","","","","","","","","","","","","","","","","","","","","","",""
"2071","","image-button-response","99","2915501","0.0-98.0-0.0","A27OXXF9NU2UZH","img_art/26.jpg","4","","","","","","","","","","","","","","","","","","","","","","","","",""
"5876","","image-button-response","100","2921379","0.0-99.0-0.0","A27OXXF9NU2UZH","img_art/26.jpg","3","","","","","","","","","","","","","","","","","","","","","","","","",""
"null","","html-keyboard-response","101","2922395","0.0-100.0","A27OXXF9NU2UZH","<p style=""font-size: 48px;"">+</p>","","","","","null","allTrialResponses","1000","1","8","img_art/26.jpg","38","nice city watercolor","Danielle,Maria,Alexandria,Mackenzie,Ashley,Nicole","It's a little too yellow-y for me, I'm not a huge fan of the color schemes or setting it portrays.,-20,340,20","fairly neutral, really,8,120,20","makes me happy and reminds me of a paris courtyard,29,80,20","Very interesting to look at, I like the shapes, textures and colors.,30,20,20","Telented watercolor artist or second grader.,18,320,20","It's relaxing to look at but I wish it was just a little more defined,20,20,20","Alexandria","makes me happy and reminds me of a paris courtyard,29,80,20","Ashley","Telented watercolor artist or second grader.,18,320,20","Mackenzie","Very interesting to look at, I like the shapes, textures and colors.,30,20,20","2"
"21784","","survey-text","102","2944187","0.0-101.0-0.0","A27OXXF9NU2UZH","","","","{""Q0"":""I think a kid drew this""}","","","","","","","","","","","","","","","","","","","","","","",""
"3753.7999999523163","","image-slider-response","103","2947943","0.0-102.0","A27OXXF9NU2UZH","","","","","-50","","","","","","","","","","","","","","","","","","","","","",""
"null","","image-button-response","104","2952945","0.0-103.0","A27OXXF9NU2UZH","img_art/27.jpg","null","","","","","","","","","","","","","","","","","","","","","","","","",""
"3904","","image-button-response","105","2956852","0.0-104.0","A27OXXF9NU2UZH","img_art/27.jpg","2","","","","","","","","","","","","","","","","","","","","","","","","",""
"3288","","image-button-response","106","2960142","0.0-105.0-0.0","A27OXXF9NU2UZH","img_art/27.jpg","3","","","","","","","","","","","","","","","","","","","","","","","","",""
"2049","","image-button-response","107","2962193","0.0-106.0-0.0","A27OXXF9NU2UZH","img_art/27.jpg","5","","","","","","","","","","","","","","","","","","","","","","","","",""
"null","","html-keyboard-response","108","2963195","0.0-107.0","A27OXXF9NU2UZH","<p style=""font-size: 48px;"">+</p>","","","","","null","allTrialResponses","1000","1","9","img_art/27.jpg","-50","I think a kid drew this","Paige,Emma,Alexandria,Mackenzie,Ashley,Jacqueline","Pleased. Reminds me of a child drawing,46,60,20","Not sure how I feel about this. Messy, even for art. But good colors.,0,60,20","it looks very simple and childlike,-31,80,20","The color palette isn't my taste,-24,20,20","Lots of activity, layers, imagination at work here.,29,320,20","I don't really see anything to this art.,-5,300,20","Alexandria","it looks very simple and childlike,-31,80,20","Mackenzie","The color palette isn't my taste,-24,20,20","Jacqueline","I don't really see anything to this art.,-5,300,20","2"
"16480","","survey-text","109","2979679","0.0-108.0-0.0","A27OXXF9NU2UZH","","","","{""Q0"":""Lady lying in a meadow""}","","","","","","","","","","","","","","","","","","","","","","",""
"4995.699999988079","","image-slider-response","110","2984677","0.0-109.0","A27OXXF9NU2UZH","","","","","9","","","","","","","","","","","","","","","","","","","","","",""
"null","","image-button-response","111","2989692","0.0-110.0","A27OXXF9NU2UZH","img_art/9.jpg","null","","","","","","","","","","","","","","","","","","","","","","","","",""
"14811","","image-button-response","112","3004506","0.0-111.0","A27OXXF9NU2UZH","img_art/9.jpg","4","","","","","","","","","","","","","","","","","","","","","","","","",""
"3610","","image-button-response","113","3008118","0.0-112.0-0.0","A27OXXF9NU2UZH","img_art/9.jpg","1","","","","","","","","","","","","","","","","","","","","","","","","",""
"2209","","image-button-response","114","3010329","0.0-113.0-0.0","A27OXXF9NU2UZH","img_art/9.jpg","2","","","","","","","","","","","","","","","","","","","","","","","","",""
"null","","html-keyboard-response","115","3010831","0.0-114.0","A27OXXF9NU2UZH","<p style=""font-size: 48px;"">+</p>","","","","","null","allTrialResponses","500","1","10","img_art/9.jpg","9","Lady lying in a meadow","Hailey,Erika,Alexandria,Mackenzie,Margaret,Jacqueline","looks like a woman in bed and its ok,8,200,20","Colorful and expressive,15,100,20","it makes me feel excited and draws my eye around,24,80,20","I enjoy the design, but the colors look waxy,-7,20,20","keeps me interested. like the colors,17,100,20","Looks like a sloppy iguana.,-11,300,20","Margaret","keeps me interested. like the colors,17,100,20","Erika","Colorful and expressive,15,100,20","Alexandria","it makes me feel excited and draws my eye around,24,80,20","2"
"4314","","survey-text","116","3015153","0.0-115.0-0.0","A27OXXF9NU2UZH","","","","{""Q0"":""our""}","","","","","","","","","","","","","","","","","","","","","","",""
"18156","","survey-text","117","3033311","0.0-116.0-0.0","A27OXXF9NU2UZH","","","","{""Q0"":""people dancing""}","","","","","","","","","","","","","","","","","","","","","","",""
"3998.2000000476837","","image-slider-response","118","3037311","0.0-117.0","A27OXXF9NU2UZH","","","","","22","","","","","","","","","","","","","","","","","","","","","",""
"4379","","image-button-response","119","3042313","0.0-118.0","A27OXXF9NU2UZH","img_art/23.jpg","1","","","","","","","","","","","","","","","","","","","","","","","","",""
"4468","","image-button-response","120","3046783","0.0-119.0","A27OXXF9NU2UZH","img_art/23.jpg","2","","","","","","","","","","","","","","","","","","","","","","","","",""
"8455","","image-button-response","121","3055240","0.0-120.0-0.0","A27OXXF9NU2UZH","img_art/23.jpg","1","","","","","","","","","","","","","","","","","","","","","","","","",""
"1255","","image-button-response","122","3056497","0.0-121.0-0.0","A27OXXF9NU2UZH","img_art/23.jpg","0","","","","","","","","","","","","","","","","","","","","","","","","",""
"null","","html-keyboard-response","123","3057000","0.0-122.0","A27OXXF9NU2UZH","<p style=""font-size: 48px;"">+</p>","","","","","null","allTrialResponses","500","1","11","img_art/23.jpg","22","people dancing","Natalie,Erika,Alexandria,Madeline,Margaret,Gabriela","so much detail .,31,400,20","Very intense and unique,3,100,20","makes me happy and want to dance,43,80,20","background is great but the white is a bit weird,3,40,20","white reminds me of screamo music band tshirts when they have their name in the unreadable lettering,-9,100,20","It looks like a parade of musicians full of excitement. Makes me feel upbeat,33,140,20","Alexandria","makes me happy and want to dance,43,80,20","Erika","Very intense and unique,3,100,20","Natalie","so much detail .,31,400,20","2"
"12947","","survey-text","124","3069951","0.0-123.0-0.0","A27OXXF9NU2UZH","","","","{""Q0"":""mountain stream""}","","","","","","","","","","","","","","","","","","","","","","",""
"6311.100000023842","","image-slider-response","125","3076264","0.0-124.0","A27OXXF9NU2UZH","","","","","50","","","","","","","","","","","","","","","","","","","","","",""
"null","","image-button-response","126","3081267","0.0-125.0","A27OXXF9NU2UZH","img_art/24.jpg","null","","","","","","","","","","","","","","","","","","","","","","","","",""
"2801","","image-button-response","127","3084071","0.0-126.0","A27OXXF9NU2UZH","img_art/24.jpg","4","","","","","","","","","","","","","","","","","","","","","","","","",""
"3652","","image-button-response","128","3087725","0.0-127.0-0.0","A27OXXF9NU2UZH","img_art/24.jpg","0","","","","","","","","","","","","","","","","","","","","","","","","",""
"1438","","image-button-response","129","3089165","0.0-128.0-0.0","A27OXXF9NU2UZH","img_art/24.jpg","2","","","","","","","","","","","","","","","","","","","","","","","","",""
"null","","html-keyboard-response","130","3090167","0.0-129.0","A27OXXF9NU2UZH","<p style=""font-size: 48px;"">+</p>","","","","","null","allTrialResponses","1000","1","12","img_art/24.jpg","50","mountain stream","Natalie,Erika,Alexandria,Angelica,Kaitlyn,Sophia","I like the waterfall,22,400,20","Very nice textures and subject,38,100,20","very colorful and intricate and makes me feel at peace,50,80,20","This looks ugly and simple, as if done by a young person.,-2,280,20","I like the bright colors,16,80,20","Hmm. Don't know what to make of this one.,1,280,20","Kaitlyn","I like the bright colors,16,80,20","Natalie","I like the waterfall,22,400,20","Alexandria","very colorful and intricate and makes me feel at peace,50,80,20","2"
"17142","","survey-text","131","3107317","0.0-130.0-0.0","A27OXXF9NU2UZH","","","","{""Q0"":""City watercolor""}","","","","","","","","","","","","","","","","","","","","","","",""
"3172","","image-slider-response","132","3110491","0.0-131.0","A27OXXF9NU2UZH","","","","","-24","","","","","","","","","","","","","","","","","","","","","",""
"3988","","image-button-response","133","3115494","0.0-132.0","A27OXXF9NU2UZH","img_art/22.jpg","0","","","","","","","","","","","","","","","","","","","","","","","","",""
"5151","","image-button-response","134","3120648","0.0-133.0","A27OXXF9NU2UZH","img_art/22.jpg","4","","","","","","","","","","","","","","","","","","","","","","","","",""
"2759","","image-button-response","135","3123409","0.0-134.0-0.0","A27OXXF9NU2UZH","img_art/22.jpg","0","","","","","","","","","","","","","","","","","","","","","","","","",""
"10492","","image-button-response","136","3133903","0.0-135.0-0.0","A27OXXF9NU2UZH","img_art/22.jpg","5","","","","","","","","","","","","","","","","","","","","","","","","",""
"null","","html-keyboard-response","137","3135417","0.0-136.0","A27OXXF9NU2UZH","<p style=""font-size: 48px;"">+</p>","","","","","null","allTrialResponses","1500","1","13","img_art/22.jpg","-24","City watercolor","Natalie,Dominique,Alexandria,Elizabeth,Kaitlyn,Kelly","my reaction is that the picture is confusion,-9,400,20","Can fit with anyone. And in any home a great piece of art,35,400,20","the colors and shapes makes me want to keep looking at it,22,80,20","Great color palette,29,20,20","Would be better if random black object was not present,11,80,20","I really enjoy the blended colors.,20,220,20","Kaitlyn","Would be better if random black object was not present,11,80,20","Natalie","my reaction is that the picture is confusion,-9,400,20","Kelly","I really enjoy the blended colors.,20,220,20","2"
"19313","","survey-text","138","3154737","0.0-137.0-0.0","A27OXXF9NU2UZH","","","","{""Q0"":""odd teddy bear""}","","","","","","","","","","","","","","","","","","","","","","",""
"4152","","image-slider-response","139","3158891","0.0-138.0","A27OXXF9NU2UZH","","","","","-50","","","","","","","","","","","","","","","","","","","","","",""
"null","","image-button-response","140","3163894","0.0-139.0","A27OXXF9NU2UZH","img_art/16.jpg","null","","","","","","","","","","","","","","","","","","","","","","","","",""
"2039","","image-button-response","141","3165935","0.0-140.0","A27OXXF9NU2UZH","img_art/16.jpg","0","","","","","","","","","","","","","","","","","","","","","","","","",""
"9719","","image-button-response","142","3175655","0.0-141.0-0.0","A27OXXF9NU2UZH","img_art/16.jpg","5","","","","","","","","","","","","","","","","","","","","","","","","",""
"1679","","image-button-response","143","3177338","0.0-142.0-0.0","A27OXXF9NU2UZH","img_art/16.jpg","4","","","","","","","","","","","","","","","","","","","","","","","","",""
"null","","html-keyboard-response","144","3178840","0.0-143.0","A27OXXF9NU2UZH","<p style=""font-size: 48px;"">+</p>","","","","","null","allTrialResponses","1500","1","14","img_art/16.jpg","-50","odd teddy bear","Natalie,Mary,Amanda,Michaela,Kaitlyn,Kelly","my reaction is that the picture is creepy,-19,400,20","This is a neat piece. Sort of shocking. I think it's too monochromatic though.,19,180,20","Very modern, reminds me of bansky,43,180,20","It feels lazily done,-9,260,20","The bear is a weird choice,-22,80,20","Looks like someone got really high and did a bad photoshop job.,-27,220,20","Natalie","my reaction is that the picture is creepy,-19,400,20","Kelly","Looks like someone got really high and did a bad photoshop job.,-27,220,20","Kaitlyn","The bear is a weird choice,-22,80,20","2"
"33699","","survey-text","145","3212546","0.0-144.0-0.0","A27OXXF9NU2UZH","","","","{""Q0"":""Lots of detail in this watercolor""}","","","","","","","","","","","","","","","","","","","","","","",""
"3592.600000023842","","image-slider-response","146","3216141","0.0-145.0","A27OXXF9NU2UZH","","","","","35","","","","","","","","","","","","","","","","","","","","","",""
"3772","","image-button-response","147","3221143","0.0-146.0","A27OXXF9NU2UZH","img_art/19.jpg","2","","","","","","","","","","","","","","","","","","","","","","","","",""
"13389","","image-button-response","148","3234536","0.0-147.0","A27OXXF9NU2UZH","img_art/19.jpg","5","","","","","","","","","","","","","","","","","","","","","","","","",""
"670","","image-button-response","149","3235209","0.0-148.0-0.0","A27OXXF9NU2UZH","img_art/19.jpg","4","","","","","","","","","","","","","","","","","","","","","","","","",""
"1508","","image-button-response","150","3236720","0.0-149.0-0.0","A27OXXF9NU2UZH","img_art/19.jpg","2","","","","","","","","","","","","","","","","","","","","","","","","",""
"null","","html-keyboard-response","151","3237722","0.0-150.0","A27OXXF9NU2UZH","<p style=""font-size: 48px;"">+</p>","","","","","null","allTrialResponses","1000","1","15","img_art/19.jpg","35","Lots of detail in this watercolor","Natalie,Caitlin,Christina,Claire,Kaitlyn,Kelly","the picture gave me anxiety,-38,400,20","Looks like a homeless man and this painting should be too.,-5,80,20","i like the colors and the way it looks like an actual scene,18,240,20","way too much going on,-33,260,20","The picture contains a lot of brown and weird drips,-4,80,20","TOo much brown.,-24,220,20","Kelly","TOo much brown.,-24,220,20","Kaitlyn","The picture contains a lot of brown and weird drips,-4,80,20","Christina","i like the colors and the way it looks like an actual scene,18,240,20","2"
"4388","","survey-text","152","3242121","0.0-151.0-0.0","A27OXXF9NU2UZH","","","","{""Q0"":""course""}","","","","","","","","","","","","","","","","","","","","","","",""
"16551","","survey-text","153","3258673","0.0-152.0-0.0","A27OXXF9NU2UZH","","","","{""Q0"":""Pretty colors, splatter art""}","","","","","","","","","","","","","","","","","","","","","","",""
"3563.800000011921","","image-slider-response","154","3262239","0.0-153.0","A27OXXF9NU2UZH","","","","","50","","","","","","","","","","","","","","","","","","","","","",""
"null","","image-button-response","155","3267241","0.0-154.0","A27OXXF9NU2UZH","img_art/13.jpg","null","","","","","","","","","","","","","","","","","","","","","","","","",""
"784","","image-button-response","156","3268027","0.0-155.0","A27OXXF9NU2UZH","img_art/13.jpg","5","","","","","","","","","","","","","","","","","","","","","","","","",""
"1564","","image-button-response","157","3269593","0.0-156.0-0.0","A27OXXF9NU2UZH","img_art/13.jpg","4","","","","","","","","","","","","","","","","","","","","","","","","",""
"1820","","image-button-response","158","3271416","0.0-157.0-0.0","A27OXXF9NU2UZH","img_art/13.jpg","3","","","","","","","","","","","","","","","","","","","","","","","","",""
"null","","html-keyboard-response","159","3271918","0.0-158.0","A27OXXF9NU2UZH","<p style=""font-size: 48px;"">+</p>","","","","","null","allTrialResponses","500","1","16","img_art/13.jpg","50","Pretty colors, splatter art","Miranda,Chloe,Christina,Destiny,Kaitlyn,Kelly","This looks like something that could be made off of windows paint, not a huge fan.,-30,320,20","Industrial Jackson Pollock knock-off,-20,220,20","i like the colors but it looks like something that would hang in a hotel,18,240,20","so simple and stupid this looks like what I did to my cousins wall when we repainted it for her 13th bday,0,360,20","Like the color choices,7,80,20","I would hang this photo in my room.,21,220,20","Kelly","I would hang this photo in my room.,21,220,20","Kaitlyn","Like the color choices,7,80,20","Destiny","so simple and stupid this looks like what I did to my cousins wall when we repainted it for her 13th bday,0,360,20","2"
"19079","","survey-text","160","3291003","0.0-159.0-0.0","A27OXXF9NU2UZH","","","","{""Q0"":""Reapers on horseback""}","","","","","","","","","","","","","","","","","","","","","","",""
"3417.600000023842","","image-slider-response","161","3294423","0.0-160.0","A27OXXF9NU2UZH","","","","","-40","","","","","","","","","","","","","","","","","","","","","",""
"3399","","image-button-response","162","3299437","0.0-161.0","A27OXXF9NU2UZH","img_art/18.jpg","0","","","","","","","","","","","","","","","","","","","","","","","","",""
"1348","","image-button-response","163","3300788","0.0-162.0","A27OXXF9NU2UZH","img_art/18.jpg","1","","","","","","","","","","","","","","","","","","","","","","","","",""
"4718","","image-button-response","164","3305508","0.0-163.0-0.0","A27OXXF9NU2UZH","img_art/18.jpg","5","","","","","","","","","","","","","","","","","","","","","","","","",""
"2662","","image-button-response","165","3308173","0.0-164.0-0.0","A27OXXF9NU2UZH","img_art/18.jpg","2","","","","","","","","","","","","","","","","","","","","","","","","",""
"null","","html-keyboard-response","166","3308675","0.0-165.0","A27OXXF9NU2UZH","<p style=""font-size: 48px;"">+</p>","","","","","null","allTrialResponses","500","1","17","img_art/18.jpg","-40","Reapers on horseback","Cynthia,Katie,Emily,Destiny,Kaitlyn,Kelly","Imaginative, makes me feel creative.,42,320,20","Looks messy. Reminds me of a battle or war. I have an unpleasant feeling the more I look.,-20,160,20","Not my style but I can see some serious skill went int it.,21,40,20","Can't tell if I love it or hate it. That response warranted more than neutral so I gave it 20 but not sure,21,360,20","Umclear what is present in the picture,0,80,20","It's interesting. I'm not sure how I feel about it, but i enjoy the ghostly apparitions.,10,220,20","Katie","Looks messy. Reminds me of a battle or war. I have an unpleasant feeling the more I look.,-20,160,20","Kelly","It's interesting. I'm not sure how I feel about it, but i enjoy the ghostly apparitions.,10,220,20","Emily","Not my style but I can see some serious skill went int it.,21,40,20","2"
"13815","","survey-text","167","3322495","0.0-166.0-0.0","A27OXXF9NU2UZH","","","","{""Q0"":""No idea what this is""}","","","","","","","","","","","","","","","","","","","","","","",""
"3916.100000023842","","image-slider-response","168","3326413","0.0-167.0","A27OXXF9NU2UZH","","","","","-50","","","","","","","","","","","","","","","","","","","","","",""
"1940","","image-button-response","169","3331416","0.0-168.0","A27OXXF9NU2UZH","img_art/5.jpg","1","","","","","","","","","","","","","","","","","","","","","","","","",""
"1165","","image-button-response","170","3332583","0.0-169.0","A27OXXF9NU2UZH","img_art/5.jpg","4","","","","","","","","","","","","","","","","","","","","","","","","",""
"2504","","image-button-response","171","3335089","0.0-170.0-0.0","A27OXXF9NU2UZH","img_art/5.jpg","2","","","","","","","","","","","","","","","","","","","","","","","","",""
"811","","image-button-response","172","3335903","0.0-171.0-0.0","A27OXXF9NU2UZH","img_art/5.jpg","1","","","","","","","","","","","","","","","","","","","","","","","","",""
"null","","html-keyboard-response","173","3337419","0.0-172.0","A27OXXF9NU2UZH","<p style=""font-size: 48px;"">+</p>","","","","","null","allTrialResponses","1500","1","18","img_art/5.jpg","-50","No idea what this is","Jamie,Katie,Emily,Autumn,Alicia,Kelly","Don't really see it and yellow/pink don't go well together,-35,320,20","I don't get it at all. But, maybe it is the top portion of a piece of fruit.,-50,160,20","Complete garbage. Looks like a kid drew it.,-50,40,20","Appealing but shapeless,24,340,20","pointless, ugly, not creative.,-50,120,20","It looks like daffy duck's leg with a random trail of pink.,-22,220,20","Alicia","pointless, ugly, not creative.,-50,120,20","Emily","Complete garbage. Looks like a kid drew it.,-50,40,20","Katie","I don't get it at all. But, maybe it is the top portion of a piece of fruit.,-50,160,20","2"
"35295","","survey-text","174","3372723","0.0-173.0-0.0","A27OXXF9NU2UZH","","","","{""Q0"":""Interesting tree outside of a room""}","","","","","","","","","","","","","","","","","","","","","","",""
"4189.899999976158","","image-slider-response","175","3376915","0.0-174.0","A27OXXF9NU2UZH","","","","","50","","","","","","","","","","","","","","","","","","","","","",""
"4355","","image-button-response","176","3381917","0.0-175.0","A27OXXF9NU2UZH","img_art/17.jpg","5","","","","","","","","","","","","","","","","","","","","","","","","",""
"578","","image-button-response","177","3382498","0.0-176.0","A27OXXF9NU2UZH","img_art/17.jpg","4","","","","","","","","","","","","","","","","","","","","","","","","",""
"864","","image-button-response","178","3383364","0.0-177.0-0.0","A27OXXF9NU2UZH","img_art/17.jpg","3","","","","","","","","","","","","","","","","","","","","","","","","",""
"1274","","image-button-response","179","3384640","0.0-178.0-0.0","A27OXXF9NU2UZH","img_art/17.jpg","5","","","","","","","","","","","","","","","","","","","","","","","","",""
"null","","html-keyboard-response","180","3385642","0.0-179.0","A27OXXF9NU2UZH","<p style=""font-size: 48px;"">+</p>","","","","","null","allTrialResponses","1000","1","19","img_art/17.jpg","50","Interesting tree outside of a room","Kimberly,Katie,Emily,Catherine,Alicia,Abigail","I like the trees, but the doors less so,19,260,20","Is it a tree/plant of some sort?  Or, I see hair?  I don't get it. But, the colors are pleasing to me.,1,160,20","There is better structure and direction in this one.,19,40,20","Nature coming to the inside of your space that you are locked into.,50,160,20","Like this one, super creative, calming.,43,120,20","Really love the branches. The bottom made it not perfect,42,20,20","Alicia","Like this one, super creative, calming.,43,120,20","Catherine","Nature coming to the inside of your space that you are locked into.,50,160,20","Abigail","Really love the branches. The bottom made it not perfect,42,20,20","2"
"29132","","survey-text","181","3414783","0.0-180.0-0.0","A27OXXF9NU2UZH","","","","{""Q0"":""Odd town and God-like images""}","","","","","","","","","","","","","","","","","","","","","","",""
"3811.399999976158","","image-slider-response","182","3418597","0.0-181.0","A27OXXF9NU2UZH","","","","","-26","","","","","","","","","","","","","","","","","","","","","",""
"3657","","image-button-response","183","3423600","0.0-182.0","A27OXXF9NU2UZH","img_art/8.jpg","5","","","","","","","","","","","","","","","","","","","","","","","","",""
"893","","image-button-response","184","3424495","0.0-183.0","A27OXXF9NU2UZH","img_art/8.jpg","3","","","","","","","","","","","","","","","","","","","","","","","","",""
"3160","","image-button-response","185","3427657","0.0-184.0-0.0","A27OXXF9NU2UZH","img_art/8.jpg","2","","","","","","","","","","","","","","","","","","","","","","","","",""
"986","","image-button-response","186","3428645","0.0-185.0-0.0","A27OXXF9NU2UZH","img_art/8.jpg","5","","","","","","","","","","","","","","","","","","","","","","","","",""
"null","","html-keyboard-response","187","3429148","0.0-186.0","A27OXXF9NU2UZH","<p style=""font-size: 48px;"">+</p>","","","","","null","allTrialResponses","500","1","20","img_art/8.jpg","-26","Odd town and God-like images","Kelsey,Alyssa,Mikayla,Catherine,Alicia,Abigail","i like all the different faces,19,240,20","I like how the more you like at it there are more things to discover.Very creative.,33,160,20","Its kinda like an optical illusion.,22,300,20","Lost in a big city confuse as to where to go to next. No matter if you live in a mansion or homeless. Being bigger than what is going on around you,30,160,20","wow. blocky, angled, neat colors. The faces are what makes it. love it.,45,120,20","I did not like the face,-10,20,20","Catherine","Lost in a big city confuse as to where to go to next. No matter if you live in a mansion or homeless. Being bigger than what is going on around you,30,160,20","Mikayla","Its kinda like an optical illusion.,22,300,20","Abigail","I did not like the face,-10,20,20","2"
"3027","","survey-text","188","3432187","0.0-187.0-0.0","A27OXXF9NU2UZH","","","","{""Q0"":""we""}","","","","","","","","","","","","","","","","","","","","","","",""
"22479","","survey-text","189","3454668","0.0-188.0-0.0","A27OXXF9NU2UZH","","","","{""Q0"":""Different techniques, but what is it""}","","","","","","","","","","","","","","","","","","","","","","",""
"4583.400000035763","","image-slider-response","190","3459253","0.0-189.0","A27OXXF9NU2UZH","","","","","-50","","","","","","","","","","","","","","","","","","","","","",""
"3943","","image-button-response","191","3464256","0.0-190.0","A27OXXF9NU2UZH","img_art/4.jpg","1","","","","","","","","","","","","","","","","","","","","","","","","",""
"964","","image-button-response","192","3465223","0.0-191.0","A27OXXF9NU2UZH","img_art/4.jpg","2","","","","","","","","","","","","","","","","","","","","","","","","",""
"2068","","image-button-response","193","3467293","0.0-192.0-0.0","A27OXXF9NU2UZH","img_art/4.jpg","1","","","","","","","","","","","","","","","","","","","","","","","","",""
"2120","","image-button-response","194","3469415","0.0-193.0-0.0","A27OXXF9NU2UZH","img_art/4.jpg","4","","","","","","","","","","","","","","","","","","","","","","","","",""
"null","","html-keyboard-response","195","3469918","0.0-194.0","A27OXXF9NU2UZH","<p style=""font-size: 48px;"">+</p>","","","","","null","allTrialResponses","500","1","21","img_art/4.jpg","-50","Different techniques, but what is it","Meghan,Vanessa,Mikayla,Catherine,Alexa,Abigail","feels free flowing and relaxed,21,220,20","Again, this is too abstract and I really don't like the colors.,-21,380,20","Not very interesting to look at.,-34,300,20","Hearts, family connected. They are standing on a narrow base and could fall to pieces at anytime.,40,160,20","A bit too plain for my tastes,-10,40,20","A hand reaching for something it cannot obtain,-9,20,20","Mikayla","Not very interesting to look at.,-34,300,20","Vanessa","Again, this is too abstract and I really don't like the colors.,-21,380,20","Alexa","A bit too plain for my tastes,-10,40,20","2"
"11153","","survey-text","196","3481078","0.0-195.0-0.0","A27OXXF9NU2UZH","","","","{""Q0"":""Nice town""}","","","","","","","","","","","","","","","","","","","","","","",""
"4292.299999952316","","image-slider-response","197","3485373","0.0-196.0","A27OXXF9NU2UZH","","","","","15","","","","","","","","","","","","","","","","","","","","","",""
"4154","","image-button-response","198","3490375","0.0-197.0","A27OXXF9NU2UZH","img_art/20.jpg","4","","","","","","","","","","","","","","","","","","","","","","","","",""
"652","","image-button-response","199","3491030","0.0-198.0","A27OXXF9NU2UZH","img_art/20.jpg","4","","","","","","","","","","","","","","","","","","","","","","","","",""
"1133","","image-button-response","200","3492165","0.0-199.0-0.0","A27OXXF9NU2UZH","img_art/20.jpg","3","","","","","","","","","","","","","","","","","","","","","","","","",""
"12174","","image-button-response","201","3504341","0.0-200.0-0.0","A27OXXF9NU2UZH","img_art/20.jpg","1","","","","","","","","","","","","","","","","","","","","","","","","",""
"null","","html-keyboard-response","202","3505844","0.0-201.0","A27OXXF9NU2UZH","<p style=""font-size: 48px;"">+</p>","","","","","null","allTrialResponses","1500","1","22","img_art/20.jpg","15","Nice town","Kristen,Vanessa,Mikayla,Heather,Alexa,Erica","danger, car crash, stressful,-12,280,20","I like the deep blues, but I don't like the way this picture makes me feel.,-13,380,20","Kinda freaks me out.,-40,300,20","make me feel like its a little country maybe a tractor and a skull head of a bull,1,260,20","I like the calming mood of this painting,35,40,20","looks like an auto accident,-30,80,20","Alexa","I like the calming mood of this painting,35,40,20","Heather","make me feel like its a little country maybe a tractor and a skull head of a bull,1,260,20","Vanessa","I like the deep blues, but I don't like the way this picture makes me feel.,-13,380,20","2"
"14899","","survey-text","203","3520753","0.0-202.0-0.0","A27OXXF9NU2UZH","","","","{""Q0"":""Nice watercolor""}","","","","","","","","","","","","","","","","","","","","","","",""
"3425.599999964237","","image-slider-response","204","3524180","0.0-203.0","A27OXXF9NU2UZH","","","","","26","","","","","","","","","","","","","","","","","","","","","",""
"4729","","image-button-response","205","3529184","0.0-204.0","A27OXXF9NU2UZH","img_art/1.jpg","0","","","","","","","","","","","","","","","","","","","","","","","","",""
"676","","image-button-response","206","3529863","0.0-205.0","A27OXXF9NU2UZH","img_art/1.jpg","0","","","","","","","","","","","","","","","","","","","","","","","","",""
"6204","","image-button-response","207","3536069","0.0-206.0-0.0","A27OXXF9NU2UZH","img_art/1.jpg","3","","","","","","","","","","","","","","","","","","","","","","","","",""
"707","","image-button-response","208","3536779","0.0-207.0-0.0","A27OXXF9NU2UZH","img_art/1.jpg","4","","","","","","","","","","","","","","","","","","","","","","","","",""
"null","","html-keyboard-response","209","3538281","0.0-208.0","A27OXXF9NU2UZH","<p style=""font-size: 48px;"">+</p>","","","","","null","allTrialResponses","1500","1","23","img_art/1.jpg","26","Nice watercolor","Stephanie,Vanessa,Sarah,Heather,Alexa,Julia","Pretty colors. Fall day in the East Coast of USA.,42,300,20","I don't like how this one makes me feel.,-32,380,20","it's boring despite all the colors,-2,180,20","the colors are vibrant and beautiful,1,260,20","The blend of colors are gorgeous and reminds me of fall,32,40,20","I don't feel like much is happening in this painting,-25,40,20","Stephanie","Pretty colors. Fall day in the East Coast of USA.,42,300,20","Heather","the colors are vibrant and beautiful,1,260,20","Alexa","The blend of colors are gorgeous and reminds me of fall,32,40,20","2"
"12341","","survey-text","210","3550629","0.0-209.0-0.0","A27OXXF9NU2UZH","","","","{""Q0"":""looks like a nightmare""}","","","","","","","","","","","","","","","","","","","","","","",""
"4184.5","","image-slider-response","211","3554815","0.0-210.0","A27OXXF9NU2UZH","","","","","-50","","","","","","","","","","","","","","","","","","","","","",""
"4358","","image-button-response","212","3559818","0.0-211.0","A27OXXF9NU2UZH","img_art/3.jpg","0","","","","","","","","","","","","","","","","","","","","","","","","",""
"1608","","image-button-response","213","3561428","0.0-212.0","A27OXXF9NU2UZH","img_art/3.jpg","0","","","","","","","","","","","","","","","","","","","","","","","","",""
"847","","image-button-response","214","3562277","0.0-213.0-0.0","A27OXXF9NU2UZH","img_art/3.jpg","1","","","","","","","","","","","","","","","","","","","","","","","","",""
"6445","","image-button-response","215","3568723","0.0-214.0-0.0","A27OXXF9NU2UZH","img_art/3.jpg","2","","","","","","","","","","","","","","","","","","","","","","","","",""
"null","","html-keyboard-response","216","3569728","0.0-215.0","A27OXXF9NU2UZH","<p style=""font-size: 48px;"">+</p>","","","","","null","allTrialResponses","1000","1","24","img_art/3.jpg","-50","looks like a nightmare","Stephanie,Sara,Kaylee,Heather,Alexa,Gabrielle","I think of an angry child,-50,300,20","Random use of red and looks scary,-50,160,20","i really cant get it,-44,200,20","Blood splatter and one black spot.,1,260,20","Looks messy and too much for my eyes,-35,40,20","7th grade art, not much effort to do this.,-39,160,20","Stephanie","I think of an angry child,-50,300,20","Sara","Random use of red and looks scary,-50,160,20","Kaylee","i really cant get it,-44,200,20","2"
"14699","","survey-text","217","3584436","0.0-216.0-0.0","A27OXXF9NU2UZH","","","","{""Q0"":""fossils in rock""}","","","","","","","","","","","","","","","","","","","","","","",""
"3573","","image-slider-response","218","3588011","0.0-217.0","A27OXXF9NU2UZH","","","","","3","","","","","","","","","","","","","","","","","","","","","",""
"2662","","image-button-response","219","3593014","0.0-218.0","A27OXXF9NU2UZH","img_art/7.jpg","2","","","","","","","","","","","","","","","","","","","","","","","","",""
"2441","","image-button-response","220","3595458","0.0-219.0","A27OXXF9NU2UZH","img_art/7.jpg","2","","","","","","","","","","","","","","","","","","","","","","","","",""
"7091","","image-button-response","221","3602551","0.0-220.0-0.0","A27OXXF9NU2UZH","img_art/7.jpg","5","","","","","","","","","","","","","","","","","","","","","","","","",""
"2323","","image-button-response","222","3604877","0.0-221.0-0.0","A27OXXF9NU2UZH","img_art/7.jpg","3","","","","","","","","","","","","","","","","","","","","","","","","",""
"null","","html-keyboard-response","223","3605879","0.0-222.0","A27OXXF9NU2UZH","<p style=""font-size: 48px;"">+</p>","","","","","null","allTrialResponses","1000","1","25","img_art/7.jpg","3","fossils in rock","Stephanie,Sara,Kaylee,Taylor,Jenna,Rachel","This looks muddy and stomped on. I think of destruction.,-50,300,20","It feels cold and hard,-40,160,20","some rocks on a mars?,7,200,20","It makes me think of new archaeology discoveries,15,340,20","reminds me of a desert from far above,23,360,20","Looks like a desert or another planet. While the color choices are narrow, it's still interesting because it is very natural.,12,80,20","Kaylee","some rocks on a mars?,7,200,20","Rachel","Looks like a desert or another planet. While the color choices are narrow, it's still interesting because it is very natural.,12,80,20","Taylor","It makes me think of new archaeology discoveries,15,340,20","2"
"4308","","survey-text","224","3610201","0.0-223.0-0.0","A27OXXF9NU2UZH","","","","{""Q0"":""table""}","","","","","","","","","","","","","","","","","","","","","","",""
"13173","","survey-text","225","3623375","0.0-224.0-0.0","A27OXXF9NU2UZH","","","","{""Q0"":""interesting""}","","","","","","","","","","","","","","","","","","","","","","",""
"3535.7999999523163","","image-slider-response","226","3626913","0.0-225.0","A27OXXF9NU2UZH","","","","","11","","","","","","","","","","","","","","","","","","","","","",""
"null","","image-button-response","227","3631916","0.0-226.0","A27OXXF9NU2UZH","img_art/25.jpg","null","","","","","","","","","","","","","","","","","","","","","","","","",""
"5097","","image-button-response","228","3637016","0.0-227.0","A27OXXF9NU2UZH","img_art/25.jpg","0","","","","","","","","","","","","","","","","","","","","","","","","",""
"3347","","image-button-response","229","3640365","0.0-228.0-0.0","A27OXXF9NU2UZH","img_art/25.jpg","1","","","","","","","","","","","","","","","","","","","","","","","","",""
"1690","","image-button-response","230","3642058","0.0-229.0-0.0","A27OXXF9NU2UZH","img_art/25.jpg","3","","","","","","","","","","","","","","","","","","","","","","","","",""
"null","","html-keyboard-response","231","3643059","0.0-230.0","A27OXXF9NU2UZH","<p style=""font-size: 48px;"">+</p>","","","","","null","allTrialResponses","1000","1","26","img_art/25.jpg","11","interesting","Jordan,Allison,Kaylee,Taylor,Monica,Rachel","It's fine, belongs in a church, or somewhere else mystical,15,20,20","high contrast draws attention to the image, but I'm not sure what I'm seeing,-5,140,20","is this an ancient woman?,-16,200,20","It makes me feel a little uneasy, but I like the painting,11,340,20","The skeletal figure is a bit scary,-12,360,20","I like the green color, but the combination of green and a person with a long neck reminds me of aliens,-27,80,20","Jordan","It's fine, belongs in a church, or somewhere else mystical,15,20,20","Allison","high contrast draws attention to the image, but I'm not sure what I'm seeing,-5,140,20","Taylor","It makes me feel a little uneasy, but I like the painting,11,340,20","2"
"31849","","survey-text","232","3674920","0.0-231.0-0.0","A27OXXF9NU2UZH","","","","{""Q0"":""I see a few people, but am missing a lot of detail""}","","","","","","","","","","","","","","","","","","","","","","",""
"3728.800000011921","","image-slider-response","233","3678651","0.0-232.0","A27OXXF9NU2UZH","","","","","-50","","","","","","","","","","","","","","","","","","","","","",""
"4472","","image-button-response","234","3683653","0.0-233.0","A27OXXF9NU2UZH","img_art/2.jpg","0","","","","","","","","","","","","","","","","","","","","","","","","",""
"1376","","image-button-response","235","3685031","0.0-234.0","A27OXXF9NU2UZH","img_art/2.jpg","0","","","","","","","","","","","","","","","","","","","","","","","","",""
"1716","","image-button-response","236","3686749","0.0-235.0-0.0","A27OXXF9NU2UZH","img_art/2.jpg","1","","","","","","","","","","","","","","","","","","","","","","","","",""
"10910","","image-button-response","237","3697661","0.0-236.0-0.0","A27OXXF9NU2UZH","img_art/2.jpg","4","","","","","","","","","","","","","","","","","","","","","","","","",""
"null","","html-keyboard-response","238","3698164","0.0-237.0","A27OXXF9NU2UZH","<p style=""font-size: 48px;"">+</p>","","","","","null","allTrialResponses","500","1","27","img_art/2.jpg","-50","I see a few people, but am missing a lot of detail","Jordan,Allison,Laura,Taylor,Mariah,Andrea","I can't get past the fact that it looks like someone wearing a mask,-46,20,20","Hate the vomit green.,-31,140,20","active and kinetic- simplified,14,320,20","Doesn't give me a reaction,10,340,20","The colors are soothing, but the composition feels thoughtless.,-11,140,20","It feels like a party and Moulin Rouge.,20,240,20","Jordan","I can't get past the fact that it looks like someone wearing a mask,-46,20,20","Allison","Hate the vomit green.,-31,140,20","Mariah","The colors are soothing, but the composition feels thoughtless.,-11,140,20","2"
"47938","","survey-text","239","3746112","0.0-238.0-0.0","A27OXXF9NU2UZH","","","","{""Q0"":""It looks like an artist who is quitting""}","","","","","","","","","","","","","","","","","","","","","","",""
"3270.300000011921","","image-slider-response","240","3749385","0.0-239.0","A27OXXF9NU2UZH","","","","","-50","","","","","","","","","","","","","","","","","","","","","",""
"3046","","image-button-response","241","3754393","0.0-240.0","A27OXXF9NU2UZH","img_art/29.jpg","0","","","","","","","","","","","","","","","","","","","","","","","","",""
"2104","","image-button-response","242","3756499","0.0-241.0","A27OXXF9NU2UZH","img_art/29.jpg","0","","","","","","","","","","","","","","","","","","","","","","","","",""
"3490","","image-button-response","243","3759991","0.0-242.0-0.0","A27OXXF9NU2UZH","img_art/29.jpg","1","","","","","","","","","","","","","","","","","","","","","","","","",""
"1503","","image-button-response","244","3761495","0.0-243.0-0.0","A27OXXF9NU2UZH","img_art/29.jpg","5","","","","","","","","","","","","","","","","","","","","","","","","",""
"null","","html-keyboard-response","245","3762497","0.0-244.0","A27OXXF9NU2UZH","<p style=""font-size: 48px;"">+</p>","","","","","null","allTrialResponses","1000","1","28","img_art/29.jpg","-50","It looks like an artist who is quitting","Jordan,Allison,Breanna,Courtney,Mariah,Alexandra","Yeah, I don't know. It's clearly a situation where art is the reject of something more,-27,20,20","Flash is too strong. Dislike the colors,-5,140,20","Makes me feel untidy,-9,380,20","Thats a pretty wierd picture.,6,280,20","It feels like looking through layers of frustration.,19,140,20","I don't like this. It is ugly and dark,-29,60,20","Jordan","Yeah, I don't know. It's clearly a situation where art is the reject of something more,-27,20,20","Allison","Flash is too strong. Dislike the colors,-5,140,20","Alexandra","I don't like this. It is ugly and dark,-29,60,20","2"
"22495","","survey-text","246","3784999","0.0-245.0-0.0","A27OXXF9NU2UZH","","","","{""Q0"":""Too much black""}","","","","","","","","","","","","","","","","","","","","","","",""
"3135.899999976158","","image-slider-response","247","3788137","0.0-246.0","A27OXXF9NU2UZH","","","","","-50","","","","","","","","","","","","","","","","","","","","","",""
"null","","image-button-response","248","3793139","0.0-247.0","A27OXXF9NU2UZH","img_art/15.jpg","null","","","","","","","","","","","","","","","","","","","","","","","","",""
"1808","","image-button-response","249","3794950","0.0-248.0","A27OXXF9NU2UZH","img_art/15.jpg","2","","","","","","","","","","","","","","","","","","","","","","","","",""
"5267","","image-button-response","250","3800219","0.0-249.0-0.0","A27OXXF9NU2UZH","img_art/15.jpg","3","","","","","","","","","","","","","","","","","","","","","","","","",""
"1363","","image-button-response","251","3801585","0.0-250.0-0.0","A27OXXF9NU2UZH","img_art/15.jpg","0","","","","","","","","","","","","","","","","","","","","","","","","",""
"null","","html-keyboard-response","252","3802586","0.0-251.0","A27OXXF9NU2UZH","<p style=""font-size: 48px;"">+</p>","","","","","null","allTrialResponses","1000","1","29","img_art/15.jpg","-50","Too much black","Jordan,Allison,Lindsey,Isabella,Leah,Alexandra","I'm just not into it,-5,20,20","Eyes hunt for the blue in the black.,5,140,20","Not a fan. This piece would only go with very specific decor in a modern home.,-35,400,20","Too intense with the black dotting,-22,280,20","Pretty, like in a field of poppies,19,360,20","This is sort of ugly, but I do like the design.,10,60,20","Lindsey","Not a fan. This piece would only go with very specific decor in a modern home.,-35,400,20","Isabella","Too intense with the black dotting,-22,280,20","Jordan","I'm just not into it,-5,20,20","2"
"16667","","survey-text","253","3819263","0.0-252.0-0.0","A27OXXF9NU2UZH","","","","{""Q0"":""Interesting composition""}","","","","","","","","","","","","","","","","","","","","","","",""
"4108","","image-slider-response","254","3823373","0.0-253.0","A27OXXF9NU2UZH","","","","","24","","","","","","","","","","","","","","","","","","","","","",""
"null","","image-button-response","255","3828376","0.0-254.0","A27OXXF9NU2UZH","img_art/12.jpg","null","","","","","","","","","","","","","","","","","","","","","","","","",""
"2395","","image-button-response","256","3830774","0.0-255.0","A27OXXF9NU2UZH","img_art/12.jpg","4","","","","","","","","","","","","","","","","","","","","","","","","",""
"1347","","image-button-response","257","3832123","0.0-256.0-0.0","A27OXXF9NU2UZH","img_art/12.jpg","5","","","","","","","","","","","","","","","","","","","","","","","","",""
"1234","","image-button-response","258","3833359","0.0-257.0-0.0","A27OXXF9NU2UZH","img_art/12.jpg","1","","","","","","","","","","","","","","","","","","","","","","","","",""
"null","","html-keyboard-response","259","3834868","0.0-258.0","A27OXXF9NU2UZH","<p style=""font-size: 48px;"">+</p>","","","","","null","allTrialResponses","1500","1","30","img_art/12.jpg","24","Interesting composition","Jordan,Olivia,Lindsey,Isabella,Alexis,Brooke","not my kind of thing,1,20,20","feels cluttered,-11,40,20","Ugly colors and I'm just not too much a fan of cubist abstract art.,-50,400,20","Something you would see in a government building hallway,3,280,20","I like the cubic feel.,11,100,20","Dislike the style, the sharp rectangular pattern very jarring.,-20,60,20","Alexis","I like the cubic feel.,11,100,20","Brooke","Dislike the style, the sharp rectangular pattern very jarring.,-20,60,20","Olivia","feels cluttered,-11,40,20","2"
"3663","","image-button-response_instructions","260","3838542","0.0-259.0","A27OXXF9NU2UZH","","0","instructions","","","","","","","","","","","","","","","","","","","","","","","",""
"1346","","image-button-response","261","3839895","0.0-260.0","A27OXXF9NU2UZH","","0","","","","","","","","","","","","","","","","","","","","","","","","",""
