"rt","url","trial_type","trial_index","time_elapsed","internal_node_id","participant_id","stimulus","button_pressed","Name","responses","response","key_press","variableName","fixationTime","condition","trial","photo","subjectRating","subjectResponse","agentsNames","agent_1_Response","agent_2_Response","agent_3_Response","agent_4_Response","agent_5_Response","agent_6_Response","kept_1_name","kept_1_response","kept_2_name","kept_2_response","kept_3_name","kept_3_response","errorCounter"
"3651","external_page_harvard.html","external-html","0","3759","0.0-0.0","A292T1OXCVXN78","","","","","","","","","","","","","","","","","","","","","","","","","","",""
"982","","image-button-response","1","4741","0.0-1.0","A292T1OXCVXN78","","0","","","","","","","","","","","","","","","","","","","","","","","","",""
"1126","","image-button-response","2","5869","0.0-2.0-0.0","A292T1OXCVXN78","","1","phone","","","","","","","","","","","","","","","","","","","","","","","",""
"6216","","survey-text","3","12085","0.0-3.0-0.0","A292T1OXCVXN78","","","","{""Q0"":""A292T1OXCVXN78""}","","","","","","","","","","","","","","","","","","","","","","",""
"2463","","image-button-response_instructions","4","14549","0.0-4.0","A292T1OXCVXN78","","0","instructions","","","","","","","","","","","","","","","","","","","","","","","",""
"11039","","image-button-response_instructions","5","25589","0.0-5.0","A292T1OXCVXN78","img_art/ins/popularity/ins1.png","0","instructions","","","","","","","","","","","","","","","","","","","","","","","",""
"3312","","image-button-response_instructions","6","28901","0.0-6.0","A292T1OXCVXN78","img_art/ins/popularity/ins2.png","0","instructions","","","","","","","","","","","","","","","","","","","","","","","",""
"1447","","image-button-response_instructions","7","30349","0.0-7.0","A292T1OXCVXN78","img_art/ins/popularity/ins2Extreme.png","0","instructions","","","","","","","","","","","","","","","","","","","","","","","",""
"3055","","image-button-response_instructions","8","33405","0.0-8.0","A292T1OXCVXN78","img_art/ins/popularity/ins3KEEPpop.PNG","0","instructions","","","","","","","","","","","","","","","","","","","","","","","",""
"2392","","image-button-response_instructions","9","35797","0.0-9.0","A292T1OXCVXN78","img_art/ins/popularity/ins3ANamepop.PNG","0","instructions","","","","","","","","","","","","","","","","","","","","","","","",""
"1840","","image-button-response_instructions","10","37637","0.0-10.0","A292T1OXCVXN78","img_art/ins/popularity/ins3ARatingpop.png","0","instructions","","","","","","","","","","","","","","","","","","","","","","","",""
"2008","","image-button-response_instructions","11","39645","0.0-11.0","A292T1OXCVXN78","img_art/ins/popularity/ins3ATextpop.png","0","instructions","","","","","","","","","","","","","","","","","","","","","","","",""
"4600","","image-button-response_instructions","12","44245","0.0-12.0","A292T1OXCVXN78","img_art/ins/popularity/ins3ALikespop.png","0","instructions","","","","","","","","","","","","","","","","","","","","","","","",""
"16062","","image-button-response_instructions","13","60308","0.0-13.0","A292T1OXCVXN78","img_art/ins/popularity/ins3KEEPpop.PNG","0","instructions","","","","","","","","","","","","","","","","","","","","","","","",""
"9199","","image-button-response_instructions","14","69508","0.0-14.0","A292T1OXCVXN78","img_art/ins/popularity/ins3_5RED.png","0","instructions","","","","","","","","","","","","","","","","","","","","","","","",""
"1759","","image-button-response_instructions","15","71268","0.0-15.0","A292T1OXCVXN78","img_art/ins/popularity/ins3KEEPpop.PNG","0","instructions","","","","","","","","","","","","","","","","","","","","","","","",""
"4735","","image-button-response_instructions","16","76004","0.0-16.0","A292T1OXCVXN78","img_art/ins/popularity/ins4KEEPpop.PNG","0","instructions","","","","","","","","","","","","","","","","","","","","","","","",""
"3200","","image-button-response_instructions","17","79204","0.0-17.0","A292T1OXCVXN78","img_art/ins/popularity/ins5KEEPpop.PNG","0","instructions","","","","","","","","","","","","","","","","","","","","","","","",""
"1159","","image-button-response_instructions","18","80364","0.0-18.0","A292T1OXCVXN78","","0","instructions","","","","","","","","","","","","","","","","","","","","","","","",""
"4569","","survey-text","19","84948","0.0-19.0-0.0","A292T1OXCVXN78","","","","{""Q0"":""but""}","","","","","","","","","","","","","","","","","","","","","","",""
"12751","","survey-text","20","97700","0.0-20.0-0.0","A292T1OXCVXN78","","","","{""Q0"":""it looks like random colors""}","","","","","","","","","","","","","","","","","","","","","","",""
"2694.7999999523163","","image-slider-response","21","100397","0.0-21.0","A292T1OXCVXN78","","","","","-28","","","","","","","","","","","","","","","","","","","","","",""
"null","","image-button-response","22","105399","0.0-22.0","A292T1OXCVXN78","img_art/ins/1.jpg","null","","","","","","","","","","","","","","","","","","","","","","","","",""
"2996","","image-button-response","23","108397","0.0-23.0","A292T1OXCVXN78","img_art/ins/1.jpg","0","","","","","","","","","","","","","","","","","","","","","","","","",""
"1247","","image-button-response","24","109645","0.0-24.0-0.0","A292T1OXCVXN78","img_art/ins/1.jpg","2","","","","","","","","","","","","","","","","","","","","","","","","",""
"2254","","image-button-response","25","111900","0.0-25.0-0.0","A292T1OXCVXN78","img_art/ins/1.jpg","0","","","","","","","","","","","","","","","","","","","","","","","","",""
"3079","","image-button-response","26","117749","0.0-25.1-0.1","A292T1OXCVXN78","img_art/ins/1.jpg","4","","","","","","","","","","","","","","","","","","","","","","","","",""
"null","","html-keyboard-response","27","119250","0.0-26.0","A292T1OXCVXN78","<p style=""font-size: 48px;"">+</p>","","","","","null","allTrialResponses","1500","1","-2","img_art/ins/1.jpg","-28","it looks like random colors","Adam,Alex,Ben,Carl,Daniel,Jack","Seems like doodles,-20,20,20","very creative work.,36,40,20","This color reminds me of poo,-46,60,20","very calming artwork,42,80,20","It looks like a murder scene.,-48,100,20","I like the sophisticated brushwork,40,120,20","Adam","Seems like doodles,-20,20,20","Ben","This color reminds me of poo,-46,60,20","Daniel","It looks like a murder scene.,-48,100,20","2"
"15865","","survey-text","28","135117","0.0-27.0-0.0","A292T1OXCVXN78","","","","{""Q0"":""I kind of like the thick layers""}","","","","","","","","","","","","","","","","","","","","","","",""
"1790.5","","image-slider-response","29","136909","0.0-28.0","A292T1OXCVXN78","","","","","3","","","","","","","","","","","","","","","","","","","","","",""
"3704","","image-button-response","30","141910","0.0-29.0","A292T1OXCVXN78","img_art/ins/2.jpg","1","","","","","","","","","","","","","","","","","","","","","","","","",""
"775","","image-button-response","31","142685","0.0-30.0","A292T1OXCVXN78","img_art/ins/2.jpg","0","","","","","","","","","","","","","","","","","","","","","","","","",""
"799","","image-button-response","32","143485","0.0-31.0-0.0","A292T1OXCVXN78","img_art/ins/2.jpg","1","","","","","","","","","","","","","","","","","","","","","","","","",""
"3775","","image-button-response","33","147261","0.0-32.0-0.0","A292T1OXCVXN78","img_art/ins/2.jpg","5","","","","","","","","","","","","","","","","","","","","","","","","",""
"null","","html-keyboard-response","34","148264","0.0-33.0","A292T1OXCVXN78","<p style=""font-size: 48px;"">+</p>","","","","","null","allTrialResponses","1000","1","-1","img_art/ins/2.jpg","3","I kind of like the thick layers","Adam,John,Ben,James,Daniel,Kyle","too much color,-18,20,20","love the texture of paint,48,160,20","meaningless painting,-45,60,20","looks too angry,-50,140,20","One of my pet peevs,-48,100,20","Idk, it is just annoying,-32,180,20","Adam","too much color,-18,20,20","John","love the texture of paint,48,160,20","Kyle","Idk, it is just annoying,-32,180,20","2"
"12140","","survey-text","35","160405","0.0-34.0-0.0","A292T1OXCVXN78","","","","{""Q0"":""it's a little plain""}","","","","","","","","","","","","","","","","","","","","","","",""
"2191.0999999046326","","image-slider-response","36","162597","0.0-35.0","A292T1OXCVXN78","","","","","3","","","","","","","","","","","","","","","","","","","","","",""
"4583","","image-button-response","37","167599","0.0-36.0","A292T1OXCVXN78","img_art/ins/3.jpg","3","","","","","","","","","","","","","","","","","","","","","","","","",""
"270","","image-button-response","38","167869","0.0-37.0","A292T1OXCVXN78","img_art/ins/3.jpg","1","","","","","","","","","","","","","","","","","","","","","","","","",""
"782","","image-button-response","39","168653","0.0-38.0-0.0","A292T1OXCVXN78","img_art/ins/3.jpg","2","","","","","","","","","","","","","","","","","","","","","","","","",""
"503","","image-button-response","40","169157","0.0-39.0-0.0","A292T1OXCVXN78","img_art/ins/3.jpg","3","","","","","","","","","","","","","","","","","","","","","","","","",""
"null","","html-keyboard-response","41","170159","0.0-40.0","A292T1OXCVXN78","<p style=""font-size: 48px;"">+</p>","","","","","null","allTrialResponses","1000","1","0","img_art/ins/3.jpg","3","it's a little plain","Adam,John,Sam,Mike,Ron,Kyle","My daily routine, it's depressing,-20,20,20","I like the overlapping of brushes,41,160,20","I can feel a rainy day from this painting,18,240,20","enjoy the different shades of blue,22,200,20","It looks depressing,-26,220,20","It looks like a playground for bats,-36,180,20","John","I like the overlapping of brushes,41,160,20","Sam","I can feel a rainy day from this painting,18,240,20","Mike","enjoy the different shades of blue,22,200,20","2"
"2355","","image-button-response_instructions","42","172517","0.0-41.0","A292T1OXCVXN78","","0","instructions","","","","","","","","","","","","","","","","","","","","","","","",""
"8416","","survey-likert","43","180933","0.0-42.0-0.0","A292T1OXCVXN78","","","","{""Q0"":"""",""Q1"":0,""Q2"":1}","","","","","","","","","","","","","","","","","","","","","","",""
"3844","","survey-text","44","184781","0.0-43.0-0.0","A292T1OXCVXN78","","","","{""Q0"":""rock""}","","","","","","","","","","","","","","","","","","","","","","",""
"16239","","survey-text","45","201021","0.0-44.0-0.0","A292T1OXCVXN78","","","","{""Q0"":""I like the blending of colors""}","","","","","","","","","","","","","","","","","","","","","","",""
"1711","","image-slider-response","46","202733","0.0-45.0","A292T1OXCVXN78","","","","","2","","","","","","","","","","","","","","","","","","","","","",""
"null","","image-button-response","47","207750","0.0-46.0","A292T1OXCVXN78","img_art/30.jpg","null","","","","","","","","","","","","","","","","","","","","","","","","",""
"102","","image-button-response","48","207853","0.0-47.0","A292T1OXCVXN78","img_art/30.jpg","2","","","","","","","","","","","","","","","","","","","","","","","","",""
"2887","","image-button-response","49","210741","0.0-48.0-0.0","A292T1OXCVXN78","img_art/30.jpg","5","","","","","","","","","","","","","","","","","","","","","","","","",""
"2199","","image-button-response","50","212941","0.0-49.0-0.0","A292T1OXCVXN78","img_art/30.jpg","3","","","","","","","","","","","","","","","","","","","","","","","","",""
"null","","html-keyboard-response","51","213443","0.0-50.0","A292T1OXCVXN78","<p style=""font-size: 48px;"">+</p>","","","","","null","allTrialResponses","500","1","1","img_art/30.jpg","2","I like the blending of colors","Devon,Charles,Bryan,Jesus,Alex,Angel","the different roads to take in life,10,400,20","looks like eels,-20,100,20","A little too dull. Would've liked brighter colors. Also looks washed out.,1,400,20","I like the forefront design.,10,100,20","Don't like it at all, looks like a someone smeared paint with their fingers,-25,100,20","It's like a child's art piece: carefree and not trying to conform to anything.,10,180,20","Bryan","A little too dull. Would've liked brighter colors. Also looks washed out.,1,400,20","Angel","It's like a child's art piece: carefree and not trying to conform to anything.,10,180,20","Jesus","I like the forefront design.,10,100,20","2"
"15400","","survey-text","52","228845","0.0-51.0-0.0","A292T1OXCVXN78","","","","{""Q0"":""looks like someone threw paint at a canvas""}","","","","","","","","","","","","","","","","","","","","","","",""
"5231.100000023842","","image-slider-response","53","234077","0.0-52.0","A292T1OXCVXN78","","","","","-14","","","","","","","","","","","","","","","","","","","","","",""
"4519","","image-button-response","54","239079","0.0-53.0","A292T1OXCVXN78","img_art/13.jpg","5","","","","","","","","","","","","","","","","","","","","","","","","",""
"621","","image-button-response","55","239702","0.0-54.0","A292T1OXCVXN78","img_art/13.jpg","4","","","","","","","","","","","","","","","","","","","","","","","","",""
"1462","","image-button-response","56","241165","0.0-55.0-0.0","A292T1OXCVXN78","img_art/13.jpg","1","","","","","","","","","","","","","","","","","","","","","","","","",""
"1262","","image-button-response","57","242429","0.0-56.0-0.0","A292T1OXCVXN78","img_art/13.jpg","5","","","","","","","","","","","","","","","","","","","","","","","","",""
"null","","html-keyboard-response","58","243430","0.0-57.0","A292T1OXCVXN78","<p style=""font-size: 48px;"">+</p>","","","","","null","allTrialResponses","1000","1","2","img_art/13.jpg","-14","looks like someone threw paint at a canvas","Joseph,Chase,Bryan,Jesus,Christian,Angel","Pleasing, happy, rainy.,12,220,20","Seems a little cold but I like the neuron looking splatters.,10,120,20","Love the colors, love the abstractness, love this Jackson Pollock type painting.,48,400,20","I enjoy the cool colors mixed together,31,100,20","love the style but not very novel,9,140,20","Reminds me of depression anxiety, but negativity is dampened by motion. It's trying to release itself through expression.,-10,180,20","Christian","love the style but not very novel,9,140,20","Chase","Seems a little cold but I like the neuron looking splatters.,10,120,20","Angel","Reminds me of depression anxiety, but negativity is dampened by motion. It's trying to release itself through expression.,-10,180,20","2"
"21244","","survey-text","59","264676","0.0-58.0-0.0","A292T1OXCVXN78","","","","{""Q0"":""I think there's supposed to be a guitar in the middle""}","","","","","","","","","","","","","","","","","","","","","","",""
"2912.9000000953674","","image-slider-response","60","267591","0.0-59.0","A292T1OXCVXN78","","","","","11","","","","","","","","","","","","","","","","","","","","","",""
"4698","","image-button-response","61","272595","0.0-60.0","A292T1OXCVXN78","img_art/10.jpg","2","","","","","","","","","","","","","","","","","","","","","","","","",""
"1815","","image-button-response","62","274413","0.0-61.0","A292T1OXCVXN78","img_art/10.jpg","5","","","","","","","","","","","","","","","","","","","","","","","","",""
"1415","","image-button-response","63","275828","0.0-62.0-0.0","A292T1OXCVXN78","img_art/10.jpg","2","","","","","","","","","","","","","","","","","","","","","","","","",""
"671","","image-button-response","64","276500","0.0-63.0-0.0","A292T1OXCVXN78","img_art/10.jpg","0","","","","","","","","","","","","","","","","","","","","","","","","",""
"null","","html-keyboard-response","65","277003","0.0-64.0","A292T1OXCVXN78","<p style=""font-size: 48px;"">+</p>","","","","","null","allTrialResponses","500","1","3","img_art/10.jpg","11","I think there's supposed to be a guitar in the middle","Cole,Chase,Blake,Jesse,Christian,Angel","It confuses me. I dont know whats going on,14,200,20","Seems more harmonic with the strokes and colors.,31,120,20","a fast racetrack. go, go, go,5,280,20","It makes me think of music and i love the reflective aspect,29,80,20","gives a sense of a roller coaster unit splashed in water. it's not but i love it nevertheless,44,140,20","This piece makes me think of music. The music is dark; I like dark music so it edges toward good.,10,180,20","Angel","This piece makes me think of music. The music is dark; I like dark music so it edges toward good.,10,180,20","Blake","a fast racetrack. go, go, go,5,280,20","Cole","It confuses me. I dont know whats going on,14,200,20","2"
"10007","","survey-text","66","287012","0.0-65.0-0.0","A292T1OXCVXN78","","","","{""Q0"":""random red scribbles""}","","","","","","","","","","","","","","","","","","","","","","",""
"2103.1999999284744","","image-slider-response","67","289116","0.0-66.0","A292T1OXCVXN78","","","","","-37","","","","","","","","","","","","","","","","","","","","","",""
"2784","","image-button-response","68","294119","0.0-67.0","A292T1OXCVXN78","img_art/3.jpg","2","","","","","","","","","","","","","","","","","","","","","","","","",""
"884","","image-button-response","69","295005","0.0-68.0","A292T1OXCVXN78","img_art/3.jpg","0","","","","","","","","","","","","","","","","","","","","","","","","",""
"599","","image-button-response","70","295604","0.0-69.0-0.0","A292T1OXCVXN78","img_art/3.jpg","2","","","","","","","","","","","","","","","","","","","","","","","","",""
"2951","","image-button-response","71","298556","0.0-70.0-0.0","A292T1OXCVXN78","img_art/3.jpg","3","","","","","","","","","","","","","","","","","","","","","","","","",""
"null","","html-keyboard-response","72","299558","0.0-71.0","A292T1OXCVXN78","<p style=""font-size: 48px;"">+</p>","","","","","null","allTrialResponses","1000","1","4","img_art/3.jpg","-37","random red scribbles","Cole,Matthew,Blake,Justin,Alexis,Angel","Sharp peaks look like sharp teeth,-37,200,20","Reminds of John Lenonn's art a bit.,27,120,20","painted by a 2 year old. cold and boring,-30,280,20","I don't care for art that looks like it was just scribbled.,-19,280,20","It looks like a child drawing,-29,140,20","This gives me a negative feeling, like someone trying to scratch out their flaws. I see low self-esteem.,-20,180,20","Cole","Sharp peaks look like sharp teeth,-37,200,20","Blake","painted by a 2 year old. cold and boring,-30,280,20","Justin","I don't care for art that looks like it was just scribbled.,-19,280,20","2"
"18309","","survey-text","73","317869","0.0-72.0-0.0","A292T1OXCVXN78","","","","{""Q0"":""I like the water colors""}","","","","","","","","","","","","","","","","","","","","","","",""
"2495","","image-slider-response","74","320365","0.0-73.0","A292T1OXCVXN78","","","","","26","","","","","","","","","","","","","","","","","","","","","",""
"3887","","image-button-response","75","325366","0.0-74.0","A292T1OXCVXN78","img_art/21.jpg","2","","","","","","","","","","","","","","","","","","","","","","","","",""
"518","","image-button-response","76","325885","0.0-75.0","A292T1OXCVXN78","img_art/21.jpg","2","","","","","","","","","","","","","","","","","","","","","","","","",""
"1670","","image-button-response","77","327557","0.0-76.0-0.0","A292T1OXCVXN78","img_art/21.jpg","5","","","","","","","","","","","","","","","","","","","","","","","","",""
"1231","","image-button-response","78","328789","0.0-77.0-0.0","A292T1OXCVXN78","img_art/21.jpg","4","","","","","","","","","","","","","","","","","","","","","","","","",""
"null","","html-keyboard-response","79","329290","0.0-78.0","A292T1OXCVXN78","<p style=""font-size: 48px;"">+</p>","","","","","null","allTrialResponses","500","1","5","img_art/21.jpg","26","I like the water colors","Cole,Jake,Blake,Justin,John,Peter","Unfinished. Confusing to look at,-12,200,20","It looks epic and is nice to look at in terms of colors/style.,23,360,20","ocean and rocks at the beach,11,280,20","Alright. I like the colors.,5,280,20","I like the colors that were used and the stark contrast between the two sides,25,120,20","I like the two sides meeting, like a movie scene,15,320,20","Blake","ocean and rocks at the beach,11,280,20","Peter","I like the two sides meeting, like a movie scene,15,320,20","John","I like the colors that were used and the stark contrast between the two sides,25,120,20","2"
"3448","","survey-text","80","332742","0.0-79.0-0.0","A292T1OXCVXN78","","","","{""Q0"":""sky""}","","","","","","","","","","","","","","","","","","","","","","",""
"13590","","survey-text","81","346333","0.0-80.0-0.0","A292T1OXCVXN78","","","","{""Q0"":""it's kinda like a cityscape""}","","","","","","","","","","","","","","","","","","","","","","",""
"1759.1000000238419","","image-slider-response","82","348093","0.0-81.0","A292T1OXCVXN78","","","","","21","","","","","","","","","","","","","","","","","","","","","",""
"1639","","image-button-response","83","353095","0.0-82.0","A292T1OXCVXN78","img_art/11.jpg","4","","","","","","","","","","","","","","","","","","","","","","","","",""
"2414","","image-button-response","84","355509","0.0-83.0","A292T1OXCVXN78","img_art/11.jpg","3","","","","","","","","","","","","","","","","","","","","","","","","",""
"1214","","image-button-response","85","356725","0.0-84.0-0.0","A292T1OXCVXN78","img_art/11.jpg","0","","","","","","","","","","","","","","","","","","","","","","","","",""
"838","","image-button-response","86","357565","0.0-85.0-0.0","A292T1OXCVXN78","img_art/11.jpg","1","","","","","","","","","","","","","","","","","","","","","","","","",""
"null","","html-keyboard-response","87","358567","0.0-86.0","A292T1OXCVXN78","<p style=""font-size: 48px;"">+</p>","","","","","null","allTrialResponses","1000","1","6","img_art/11.jpg","21","it's kinda like a cityscape","Christopher,Kenneth,Blake,Alejandro,John,Peter","i like the gray tones with black lines and bits of color,23,160,20","Its a little psychedelic.,10,300,20","a train going around the country,14,280,20","Enjoyed the lines representing different paths that encompass different entities,20,80,20","Its interesting.,20,120,20","Smoggy, oily, industrial. Don't like,1,320,20","Alejandro","Enjoyed the lines representing different paths that encompass different entities,20,80,20","Christopher","i like the gray tones with black lines and bits of color,23,160,20","Kenneth","Its a little psychedelic.,10,300,20","2"
"11523","","survey-text","88","370092","0.0-87.0-0.0","A292T1OXCVXN78","","","","{""Q0"":""random scribbles. not a fan""}","","","","","","","","","","","","","","","","","","","","","","",""
"1926.7999999523163","","image-slider-response","89","372020","0.0-88.0","A292T1OXCVXN78","","","","","-50","","","","","","","","","","","","","","","","","","","","","",""
"4911","","image-button-response","90","377022","0.0-89.0","A292T1OXCVXN78","img_art/9.jpg","1","","","","","","","","","","","","","","","","","","","","","","","","",""
"134","","image-button-response","91","377157","0.0-90.0","A292T1OXCVXN78","img_art/9.jpg","1","","","","","","","","","","","","","","","","","","","","","","","","",""
"192","","image-button-response","92","377352","0.0-91.0-0.0","A292T1OXCVXN78","img_art/9.jpg","1","","","","","","","","","","","","","","","","","","","","","","","","",""
"511","","image-button-response","93","380813","0.0-91.1-0.1","A292T1OXCVXN78","img_art/9.jpg","2","","","","","","","","","","","","","","","","","","","","","","","","",""
"288","","image-button-response","94","381103","0.0-92.0-0.0","A292T1OXCVXN78","img_art/9.jpg","0","","","","","","","","","","","","","","","","","","","","","","","","",""
"null","","html-keyboard-response","95","382609","0.0-93.0","A292T1OXCVXN78","<p style=""font-size: 48px;"">+</p>","","","","","null","allTrialResponses","1500","1","7","img_art/9.jpg","-50","random scribbles. not a fan","Christopher,Kenneth,Nicholas,Alejandro,Gregory,Dustin","I really like the color balance but the image is odd,-5,160,20","It looks like a child drew it.,-28,300,20","Some nice colors but i do not like it,-18,240,20","Evokes triumph of a mountain over powering a drowning sea,24,80,20","Mash up of colors and designs don't really go together,-5,220,20","I like the blues and pinks. The woman lying down communicates relaxation. It is a serene, calming scene,30,20,20","Kenneth","It looks like a child drew it.,-28,300,20","Nicholas","Some nice colors but i do not like it,-18,240,20","Christopher","I really like the color balance but the image is odd,-5,160,20","4"
"17790","","survey-text","96","400407","0.0-94.0-0.0","A292T1OXCVXN78","","","","{""Q0"":""I can't tell what it is""}","","","","","","","","","","","","","","","","","","","","","","",""
"1715.2000000476837","","image-slider-response","97","402124","0.0-95.0","A292T1OXCVXN78","","","","","-32","","","","","","","","","","","","","","","","","","","","","",""
"null","","image-button-response","98","407126","0.0-96.0","A292T1OXCVXN78","img_art/26.jpg","null","","","","","","","","","","","","","","","","","","","","","","","","",""
"845","","image-button-response","99","407973","0.0-97.0","A292T1OXCVXN78","img_art/26.jpg","0","","","","","","","","","","","","","","","","","","","","","","","","",""
"1975","","image-button-response","100","409949","0.0-98.0-0.0","A292T1OXCVXN78","img_art/26.jpg","4","","","","","","","","","","","","","","","","","","","","","","","","",""
"1728","","image-button-response","101","411679","0.0-99.0-0.0","A292T1OXCVXN78","img_art/26.jpg","5","","","","","","","","","","","","","","","","","","","","","","","","",""
"null","","html-keyboard-response","102","412683","0.0-100.0","A292T1OXCVXN78","<p style=""font-size: 48px;"">+</p>","","","","","null","allTrialResponses","1000","1","8","img_art/26.jpg","-32","I can't tell what it is","Christopher,Kenneth,Nicholas,Brett,Patrick,David","too hard to figure out if it's meant to be actual objects or impressions,-36,160,20","Very subdued, but wouldn't give it a 2nd notice.,4,300,20","I like the colors and trees. Seems cheap vintage retail store art but i love it anyways,50,240,20","Picturesque little town,45,360,20","I can somewhat city a city in this drawing,11,280,20","The piece doesn't really invoke anything for me.,0,340,20","Christopher","too hard to figure out if it's meant to be actual objects or impressions,-36,160,20","Patrick","I can somewhat city a city in this drawing,11,280,20","David","The piece doesn't really invoke anything for me.,0,340,20","4"
"14700","","survey-text","103","427388","0.0-101.0-0.0","A292T1OXCVXN78","","","","{""Q0"":""it's just random black specks""}","","","","","","","","","","","","","","","","","","","","","","",""
"1743.3000000715256","","image-slider-response","104","429133","0.0-102.0","A292T1OXCVXN78","","","","","-41","","","","","","","","","","","","","","","","","","","","","",""
"3639","","image-button-response","105","434135","0.0-103.0","A292T1OXCVXN78","img_art/15.jpg","4","","","","","","","","","","","","","","","","","","","","","","","","",""
"1758","","image-button-response","106","435893","0.0-104.0","A292T1OXCVXN78","img_art/15.jpg","4","","","","","","","","","","","","","","","","","","","","","","","","",""
"694","","image-button-response","107","436589","0.0-105.0-0.0","A292T1OXCVXN78","img_art/15.jpg","3","","","","","","","","","","","","","","","","","","","","","","","","",""
"3334","","image-button-response","108","439925","0.0-106.0-0.0","A292T1OXCVXN78","img_art/15.jpg","5","","","","","","","","","","","","","","","","","","","","","","","","",""
"null","","html-keyboard-response","109","440427","0.0-107.0","A292T1OXCVXN78","<p style=""font-size: 48px;"">+</p>","","","","","null","allTrialResponses","500","1","9","img_art/15.jpg","-41","it's just random black specks","Christopher,Elijah,Edward,Samuel,Patrick,David","this is really pretty! i like the pops of blue in all the black,26,160,20","Makes me feel weird,-16,80,20","Reminds me of lilacs,26,60,20","Black reminds me of darkness,-18,400,20","I don't like the black dots,-19,280,20","Hard to tell what I'm looking at, but it does a gives a slight impression of a of garden.,5,340,20","Patrick","I don't like the black dots,-19,280,20","Samuel","Black reminds me of darkness,-18,400,20","David","Hard to tell what I'm looking at, but it does a gives a slight impression of a of garden.,5,340,20","4"
"12103","","survey-text","110","452533","0.0-108.0-0.0","A292T1OXCVXN78","","","","{""Q0"":""it looks like a kid drew it""}","","","","","","","","","","","","","","","","","","","","","","",""
"2079","","image-slider-response","111","454613","0.0-109.0","A292T1OXCVXN78","","","","","-47","","","","","","","","","","","","","","","","","","","","","",""
"3943","","image-button-response","112","459615","0.0-110.0","A292T1OXCVXN78","img_art/2.jpg","2","","","","","","","","","","","","","","","","","","","","","","","","",""
"772","","image-button-response","113","460389","0.0-111.0","A292T1OXCVXN78","img_art/2.jpg","2","","","","","","","","","","","","","","","","","","","","","","","","",""
"2439","","image-button-response","114","462829","0.0-112.0-0.0","A292T1OXCVXN78","img_art/2.jpg","1","","","","","","","","","","","","","","","","","","","","","","","","",""
"1262","","image-button-response","115","464093","0.0-113.0-0.0","A292T1OXCVXN78","img_art/2.jpg","5","","","","","","","","","","","","","","","","","","","","","","","","",""
"null","","html-keyboard-response","116","465094","0.0-114.0","A292T1OXCVXN78","<p style=""font-size: 48px;"">+</p>","","","","","null","allTrialResponses","1000","1","10","img_art/2.jpg","-47","it looks like a kid drew it","Logan,Evan,Tristan,Samuel,Patrick,David","omg she's so cute look at that little smile those eyelashes ugh love it,30,360,20","I feel bothered by the dark and dingy choice of colors,-22,140,20","The color palette of this painting is for me displeasing and immature.,-30,300,20","i liked the bright colors,13,400,20","Dark tone feels sad,-30,280,20","I feel that its too abstract for me to understand what I'm looking at.,-15,340,20","Tristan","The color palette of this painting is for me displeasing and immature.,-30,300,20","Evan","I feel bothered by the dark and dingy choice of colors,-22,140,20","David","I feel that its too abstract for me to understand what I'm looking at.,-15,340,20","4"
"3058","","survey-text","117","468156","0.0-115.0-0.0","A292T1OXCVXN78","","","","{""Q0"":""our""}","","","","","","","","","","","","","","","","","","","","","","",""
"23760","","survey-text","118","491917","0.0-116.0-0.0","A292T1OXCVXN78","","","","{""Q0"":""I like the black, but there's no cohesion""}","","","","","","","","","","","","","","","","","","","","","","",""
"1567","","image-slider-response","119","493485","0.0-117.0","A292T1OXCVXN78","","","","","-6","","","","","","","","","","","","","","","","","","","","","",""
"2031","","image-button-response","120","498491","0.0-118.0","A292T1OXCVXN78","img_art/29.jpg","0","","","","","","","","","","","","","","","","","","","","","","","","",""
"1353","","image-button-response","121","499845","0.0-119.0","A292T1OXCVXN78","img_art/29.jpg","0","","","","","","","","","","","","","","","","","","","","","","","","",""
"1487","","image-button-response","122","501333","0.0-120.0-0.0","A292T1OXCVXN78","img_art/29.jpg","5","","","","","","","","","","","","","","","","","","","","","","","","",""
"759","","image-button-response","123","502093","0.0-121.0-0.0","A292T1OXCVXN78","img_art/29.jpg","1","","","","","","","","","","","","","","","","","","","","","","","","",""
"null","","html-keyboard-response","124","503595","0.0-122.0","A292T1OXCVXN78","<p style=""font-size: 48px;"">+</p>","","","","","null","allTrialResponses","1500","1","11","img_art/29.jpg","-6","I like the black, but there's no cohesion","Jason,Evan,Tristan,Stephen,Ian,David","I do not like the red x present in the picture,-6,20,20","It makes me feel as though the artist put in a lot of time and effort and then gave up,10,140,20","The textures bring this painting alive. A window to another existence with infinite possibility.,25,300,20","Really enjoy everything about this one.,50,140,20","This feels chaotic and I like the energy that it gives off.,21,260,20","Don't really like the red x. It gives the impression that this a discarded piece.,-10,340,20","Jason","I do not like the red x present in the picture,-6,20,20","David","Don't really like the red x. It gives the impression that this a discarded piece.,-10,340,20","Evan","It makes me feel as though the artist put in a lot of time and effort and then gave up,10,140,20","4"
"12755","","survey-text","125","516357","0.0-123.0-0.0","A292T1OXCVXN78","","","","{""Q0"":""looks kinda gross""}","","","","","","","","","","","","","","","","","","","","","","",""
"1615","","image-slider-response","126","517973","0.0-124.0","A292T1OXCVXN78","","","","","-47","","","","","","","","","","","","","","","","","","","","","",""
"4895","","image-button-response","127","522975","0.0-125.0","A292T1OXCVXN78","img_art/7.jpg","1","","","","","","","","","","","","","","","","","","","","","","","","",""
"493","","image-button-response","128","523469","0.0-126.0","A292T1OXCVXN78","img_art/7.jpg","1","","","","","","","","","","","","","","","","","","","","","","","","",""
"983","","image-button-response","129","524453","0.0-127.0-0.0","A292T1OXCVXN78","img_art/7.jpg","0","","","","","","","","","","","","","","","","","","","","","","","","",""
"2135","","image-button-response","130","526589","0.0-128.0-0.0","A292T1OXCVXN78","img_art/7.jpg","4","","","","","","","","","","","","","","","","","","","","","","","","",""
"null","","html-keyboard-response","131","527090","0.0-129.0","A292T1OXCVXN78","<p style=""font-size: 48px;"">+</p>","","","","","null","allTrialResponses","500","1","12","img_art/7.jpg","-47","looks kinda gross","Jason,Evan,Jack,Garrett,Robert,David","Boring  and lacks color,-11,20,20","I feel confused, am I looking at a painting or a close up picture of some sort of fly stone?,-19,140,20","reminds me of a desert from far above,23,320,20","I don't like the repetitiveness of the colors, and I think there should be more colors.,-50,180,20","This looks muddy and stomped on. I think of destruction.,-50,360,20","I like how the image has a sense of history, since the style looks like it came from stone.,20,340,20","Evan","I feel confused, am I looking at a painting or a close up picture of some sort of fly stone?,-19,140,20","Jason","Boring  and lacks color,-11,20,20","Robert","This looks muddy and stomped on. I think of destruction.,-50,360,20","4"
"10104","","survey-text","132","537197","0.0-130.0-0.0","A292T1OXCVXN78","","","","{""Q0"":""simple, but I like it""}","","","","","","","","","","","","","","","","","","","","","","",""
"1295","","image-slider-response","133","538493","0.0-131.0","A292T1OXCVXN78","","","","","7","","","","","","","","","","","","","","","","","","","","","",""
"2310","","image-button-response","134","543494","0.0-132.0","A292T1OXCVXN78","img_art/6.jpg","3","","","","","","","","","","","","","","","","","","","","","","","","",""
"454","","image-button-response","135","543951","0.0-133.0","A292T1OXCVXN78","img_art/6.jpg","1","","","","","","","","","","","","","","","","","","","","","","","","",""
"755","","image-button-response","136","544709","0.0-134.0-0.0","A292T1OXCVXN78","img_art/6.jpg","0","","","","","","","","","","","","","","","","","","","","","","","","",""
"711","","image-button-response","137","545421","0.0-135.0-0.0","A292T1OXCVXN78","img_art/6.jpg","2","","","","","","","","","","","","","","","","","","","","","","","","",""
"null","","html-keyboard-response","138","545923","0.0-136.0","A292T1OXCVXN78","<p style=""font-size: 48px;"">+</p>","","","","","null","allTrialResponses","500","1","13","img_art/6.jpg","7","simple, but I like it","Jason,Evan,William,Richard,Robert,Aaron","I like the simplicity of the picture,30,20,20","I am intrigued but unsure whether I enjoy this or not,6,140,20","makes me think of nature,30,380,20","simplistic but reminds me of a crow in a field,-10,340,20","Nevermore!  A black raven sitting on a pumpkin. Halloween,-35,360,20","It reminds me of a simplistic bird. I like the colors used.,40,20,20","Evan","I am intrigued but unsure whether I enjoy this or not,6,140,20","Jason","I like the simplicity of the picture,30,20,20","William","makes me think of nature,30,380,20","4"
"9415","","survey-text","139","555341","0.0-137.0-0.0","A292T1OXCVXN78","","","","{""Q0"":""it's random colors""}","","","","","","","","","","","","","","","","","","","","","","",""
"1758.8999999761581","","image-slider-response","140","557101","0.0-138.0","A292T1OXCVXN78","","","","","-24","","","","","","","","","","","","","","","","","","","","","",""
"null","","image-button-response","141","562102","0.0-139.0","A292T1OXCVXN78","img_art/18.jpg","null","","","","","","","","","","","","","","","","","","","","","","","","",""
"573","","image-button-response","142","562677","0.0-140.0","A292T1OXCVXN78","img_art/18.jpg","0","","","","","","","","","","","","","","","","","","","","","","","","",""
"2303","","image-button-response","143","564981","0.0-141.0-0.0","A292T1OXCVXN78","img_art/18.jpg","1","","","","","","","","","","","","","","","","","","","","","","","","",""
"1183","","image-button-response","144","566165","0.0-142.0-0.0","A292T1OXCVXN78","img_art/18.jpg","3","","","","","","","","","","","","","","","","","","","","","","","","",""
"null","","html-keyboard-response","145","567666","0.0-143.0","A292T1OXCVXN78","<p style=""font-size: 48px;"">+</p>","","","","","null","allTrialResponses","1500","1","14","img_art/18.jpg","-24","it's random colors","Jason,Evan,William,Brandon,Scott,Brian","Umclear what is present in the picture,0,20,20","This brings to mind the four horsemen of the apocalypse,8,140,20","Makes me think of stormy oceans,20,380,20","Crusade-feel, but a little too abstract for my taste,23,320,20","reminds me of sailors on a boat,17,20,20","Very classy, I feel like it's the apocalypse.,25,380,20","Jason","Umclear what is present in the picture,0,20,20","Evan","This brings to mind the four horsemen of the apocalypse,8,140,20","Brandon","Crusade-feel, but a little too abstract for my taste,23,320,20","4"
"13487","","survey-text","146","581157","0.0-144.0-0.0","A292T1OXCVXN78","","","","{""Q0"":""I don't like how abstract it is""}","","","","","","","","","","","","","","","","","","","","","","",""
"1632.1999999284744","","image-slider-response","147","582791","0.0-145.0","A292T1OXCVXN78","","","","","-17","","","","","","","","","","","","","","","","","","","","","",""
"4932","","image-button-response","148","587794","0.0-146.0","A292T1OXCVXN78","img_art/28.jpg","5","","","","","","","","","","","","","","","","","","","","","","","","",""
"433","","image-button-response","149","588229","0.0-147.0","A292T1OXCVXN78","img_art/28.jpg","5","","","","","","","","","","","","","","","","","","","","","","","","",""
"447","","image-button-response","150","588677","0.0-148.0-0.0","A292T1OXCVXN78","img_art/28.jpg","1","","","","","","","","","","","","","","","","","","","","","","","","",""
"240","","image-button-response","151","588917","0.0-149.0-0.0","A292T1OXCVXN78","img_art/28.jpg","0","","","","","","","","","","","","","","","","","","","","","","","","",""
"null","","html-keyboard-response","152","589918","0.0-150.0","A292T1OXCVXN78","<p style=""font-size: 48px;"">+</p>","","","","","null","allTrialResponses","1000","1","15","img_art/28.jpg","-17","I don't like how abstract it is","Jason,Evan,Jeremy,Brandon,Corey,Cameron","Not sure what way this picture is suppose to be oriented,-5,20,20","It feels very blah,-10,140,20","I just don't like it. It makes no sense to me,1,60,20","Interesting. I like the ""old woman"" on the left. Lots of different entities to look at,21,320,20","i like the neutral color pallette but i dont know what i am looking at,26,260,20","dislike the colors. it looks like a bike, but misshapen wheels like it was wrecked.,-10,60,20","Cameron","dislike the colors. it looks like a bike, but misshapen wheels like it was wrecked.,-10,60,20","Evan","It feels very blah,-10,140,20","Jason","Not sure what way this picture is suppose to be oriented,-5,20,20","4"
"3993","","survey-text","153","593917","0.0-151.0-0.0","A292T1OXCVXN78","","","","{""Q0"":""course""}","","","","","","","","","","","","","","","","","","","","","","",""
"15264","","survey-text","154","609181","0.0-152.0-0.0","A292T1OXCVXN78","","","","{""Q0"":""I like the colors and squares""}","","","","","","","","","","","","","","","","","","","","","","",""
"1518.8999999761581","","image-slider-response","155","610701","0.0-153.0","A292T1OXCVXN78","","","","","16","","","","","","","","","","","","","","","","","","","","","",""
"3095","","image-button-response","156","615703","0.0-154.0","A292T1OXCVXN78","img_art/12.jpg","4","","","","","","","","","","","","","","","","","","","","","","","","",""
"237","","image-button-response","157","615941","0.0-155.0","A292T1OXCVXN78","img_art/12.jpg","4","","","","","","","","","","","","","","","","","","","","","","","","",""
"327","","image-button-response","158","616269","0.0-156.0-0.0","A292T1OXCVXN78","img_art/12.jpg","3","","","","","","","","","","","","","","","","","","","","","","","","",""
"439","","image-button-response","159","616709","0.0-157.0-0.0","A292T1OXCVXN78","img_art/12.jpg","0","","","","","","","","","","","","","","","","","","","","","","","","",""
"null","","html-keyboard-response","160","617211","0.0-158.0","A292T1OXCVXN78","<p style=""font-size: 48px;"">+</p>","","","","","null","allTrialResponses","500","1","16","img_art/12.jpg","16","I like the colors and squares","Jason,Evan,Isaiah,Marcus,Antonio,Cameron","The shapes present in the picture make it very interesting,17,20,20","It reminds me of the documentary Paris is Burning, though I'm not sure why,11,140,20","The painting makes me uncomfortable. The smears in the boxes feel like a giant mess.,-16,300,20","I like the colors in the bottom half of the painting,10,60,20","I like the colors in both sections, brights compared to neutrals. Each block has a different view. I think of the future,11,220,20","Dislike the style, the sharp rectangular pattern very jarring.,-20,60,20","Antonio","I like the colors in both sections, brights compared to neutrals. Each block has a different view. I think of the future,11,220,20","Marcus","I like the colors in the bottom half of the painting,10,60,20","Jason","The shapes present in the picture make it very interesting,17,20,20","4"
"12216","","survey-text","161","629429","0.0-159.0-0.0","A292T1OXCVXN78","","","","{""Q0"":""maybe it's a volcano erupting""}","","","","","","","","","","","","","","","","","","","","","","",""
"1966.8999999761581","","image-slider-response","162","631397","0.0-160.0","A292T1OXCVXN78","","","","","17","","","","","","","","","","","","","","","","","","","","","",""
"null","","image-button-response","163","636398","0.0-161.0","A292T1OXCVXN78","img_art/4.jpg","null","","","","","","","","","","","","","","","","","","","","","","","","",""
"1078","","image-button-response","164","637477","0.0-162.0","A292T1OXCVXN78","img_art/4.jpg","5","","","","","","","","","","","","","","","","","","","","","","","","",""
"1663","","image-button-response","165","639141","0.0-163.0-0.0","A292T1OXCVXN78","img_art/4.jpg","2","","","","","","","","","","","","","","","","","","","","","","","","",""
"1287","","image-button-response","166","640429","0.0-164.0-0.0","A292T1OXCVXN78","img_art/4.jpg","1","","","","","","","","","","","","","","","","","","","","","","","","",""
"null","","html-keyboard-response","167","640932","0.0-165.0","A292T1OXCVXN78","<p style=""font-size: 48px;"">+</p>","","","","","null","allTrialResponses","500","1","17","img_art/4.jpg","17","maybe it's a volcano erupting","Jason,Trevor,Connor,Marcus,Antonio,Bradley","I don't understand this at all,3,20,20","not enough color and too yellow for me. Not my favorite colors,-10,280,20","Seems simplistic,-8,240,20","Really like the colors, but don't like the object/squiggle in darker gold and black,4,60,20","Blah feeling, nothing,-8,220,20","This looks like what happens when someone steps on a mustard packet.,-7,300,20","Bradley","This looks like what happens when someone steps on a mustard packet.,-7,300,20","Connor","Seems simplistic,-8,240,20","Trevor","not enough color and too yellow for me. Not my favorite colors,-10,280,20","4"
"18725","","survey-text","168","659661","0.0-166.0-0.0","A292T1OXCVXN78","","","","{""Q0"":""this is cool. overhead of a city""}","","","","","","","","","","","","","","","","","","","","","","",""
"1799.2000000476837","","image-slider-response","169","661461","0.0-167.0","A292T1OXCVXN78","","","","","39","","","","","","","","","","","","","","","","","","","","","",""
"null","","image-button-response","170","666463","0.0-168.0","A292T1OXCVXN78","img_art/8.jpg","null","","","","","","","","","","","","","","","","","","","","","","","","",""
"733","","image-button-response","171","667197","0.0-169.0","A292T1OXCVXN78","img_art/8.jpg","0","","","","","","","","","","","","","","","","","","","","","","","","",""
"546","","image-button-response","172","667744","0.0-170.0-0.0","A292T1OXCVXN78","img_art/8.jpg","3","","","","","","","","","","","","","","","","","","","","","","","","",""
"404","","image-button-response","173","668149","0.0-171.0-0.0","A292T1OXCVXN78","img_art/8.jpg","4","","","","","","","","","","","","","","","","","","","","","","","","",""
"null","","html-keyboard-response","174","669650","0.0-172.0","A292T1OXCVXN78","<p style=""font-size: 48px;"">+</p>","","","","","null","allTrialResponses","1500","1","18","img_art/8.jpg","39","this is cool. overhead of a city","Shane,Trevor,Connor,Jared,Seth,Bradley","Ancient city looked after by diety,38,80,20","it looks very 80's and kind of scary,-11,280,20","Lots of depth, faces, city, arch,3,240,20","i love the colors, the church and the face,42,400,20","I don't care for the piece, but I appreciate the talent that it took to create it.,22,60,20","Interesting but it has a bit of a dark feel to it.,6,300,20","Shane","Ancient city looked after by diety,38,80,20","Jared","i love the colors, the church and the face,42,400,20","Seth","I don't care for the piece, but I appreciate the talent that it took to create it.,22,60,20","4"
"24143","","survey-text","175","693797","0.0-173.0-0.0","A292T1OXCVXN78","","","","{""Q0"":""I love the colors, but I'm not sure what's happening""}","","","","","","","","","","","","","","","","","","","","","","",""
"2535.100000023842","","image-slider-response","176","696333","0.0-174.0","A292T1OXCVXN78","","","","","33","","","","","","","","","","","","","","","","","","","","","",""
"null","","image-button-response","177","701335","0.0-175.0","A292T1OXCVXN78","img_art/23.jpg","null","","","","","","","","","","","","","","","","","","","","","","","","",""
"798","","image-button-response","178","702133","0.0-176.0","A292T1OXCVXN78","img_art/23.jpg","0","","","","","","","","","","","","","","","","","","","","","","","","",""
"1015","","image-button-response","179","703149","0.0-177.0-0.0","A292T1OXCVXN78","img_art/23.jpg","1","","","","","","","","","","","","","","","","","","","","","","","","",""
"1104","","image-button-response","180","704253","0.0-178.0-0.0","A292T1OXCVXN78","img_art/23.jpg","5","","","","","","","","","","","","","","","","","","","","","","","","",""
"null","","html-keyboard-response","181","704755","0.0-179.0","A292T1OXCVXN78","<p style=""font-size: 48px;"">+</p>","","","","","null","allTrialResponses","500","1","19","img_art/23.jpg","33","I love the colors, but I'm not sure what's happening","Shane,Anthony,Jonathan,Jared,Seth,Noah","Love the line in the middle separating the two dark sides,50,80,20","The cluster of white silhouettes against the colorful background makes me feel uneasy for some reason,-36,200,20","Those colors are awesome! And I love the strip of negative space that almost looks like a line of people,50,140,20","it makes me aggitated,-21,400,20","I thought this art was exciting and it reminded me of dancing people.,12,60,20","the pattern of colours imbues in me a sense of infinity, which I find soothing,10,260,20","Shane","Love the line in the middle separating the two dark sides,50,80,20","Anthony","The cluster of white silhouettes against the colorful background makes me feel uneasy for some reason,-36,200,20","Noah","the pattern of colours imbues in me a sense of infinity, which I find soothing,10,260,20","4"
"15391","","survey-text","182","720148","0.0-180.0-0.0","A292T1OXCVXN78","","","","{""Q0"":""seems like a random combo of colors""}","","","","","","","","","","","","","","","","","","","","","","",""
"1295.5","","image-slider-response","183","721445","0.0-181.0","A292T1OXCVXN78","","","","","-23","","","","","","","","","","","","","","","","","","","","","",""
"4775","","image-button-response","184","726447","0.0-182.0","A292T1OXCVXN78","img_art/14.jpg","1","","","","","","","","","","","","","","","","","","","","","","","","",""
"2028","","image-button-response","185","728477","0.0-183.0","A292T1OXCVXN78","img_art/14.jpg","2","","","","","","","","","","","","","","","","","","","","","","","","",""
"975","","image-button-response","186","729453","0.0-184.0-0.0","A292T1OXCVXN78","img_art/14.jpg","5","","","","","","","","","","","","","","","","","","","","","","","","",""
"862","","image-button-response","187","730317","0.0-185.0-0.0","A292T1OXCVXN78","img_art/14.jpg","1","","","","","","","","","","","","","","","","","","","","","","","","",""
"null","","html-keyboard-response","188","731318","0.0-186.0","A292T1OXCVXN78","<p style=""font-size: 48px;"">+</p>","","","","","null","allTrialResponses","1000","1","20","img_art/14.jpg","-23","seems like a random combo of colors","Shane,Anthony,Devin,Eric,Jeffrey,Noah","Feels like a camp fire among friends,22,80,20","This piece is average compared to the others.,1,200,20","It looks nice colorwise but detail is lacking,18,380,20","I'm imagining a flower bouquet with pretty colors which I like.,35,100,20","positive colours, makes me to look at it and investigate what is going on,27,40,20","I enjoy what comes across as a playful take on nature themes,26,260,20","Devin","It looks nice colorwise but detail is lacking,18,380,20","Noah","I enjoy what comes across as a playful take on nature themes,26,260,20","Anthony","This piece is average compared to the others.,1,200,20","4"
"2338","","survey-text","189","733661","0.0-187.0-0.0","A292T1OXCVXN78","","","","{""Q0"":""we""}","","","","","","","","","","","","","","","","","","","","","","",""
"9815","","survey-text","190","743477","0.0-188.0-0.0","A292T1OXCVXN78","","","","{""Q0"":""I love the colors""}","","","","","","","","","","","","","","","","","","","","","","",""
"2286.6999999284744","","image-slider-response","191","745764","0.0-189.0","A292T1OXCVXN78","","","","","39","","","","","","","","","","","","","","","","","","","","","",""
"3783","","image-button-response","192","750765","0.0-190.0","A292T1OXCVXN78","img_art/22.jpg","4","","","","","","","","","","","","","","","","","","","","","","","","",""
"582","","image-button-response","193","751349","0.0-191.0","A292T1OXCVXN78","img_art/22.jpg","1","","","","","","","","","","","","","","","","","","","","","","","","",""
"495","","image-button-response","194","751845","0.0-192.0-0.0","A292T1OXCVXN78","img_art/22.jpg","3","","","","","","","","","","","","","","","","","","","","","","","","",""
"328","","image-button-response","195","752175","0.0-193.0-0.0","A292T1OXCVXN78","img_art/22.jpg","4","","","","","","","","","","","","","","","","","","","","","","","","",""
"null","","html-keyboard-response","196","753678","0.0-194.0","A292T1OXCVXN78","<p style=""font-size: 48px;"">+</p>","","","","","null","allTrialResponses","1500","1","21","img_art/22.jpg","39","I love the colors","Taylor,Anthony,Devin,Caleb,Gabriel,Noah","Looks like the kind of art I would see at the doctor's office.,-5,200,20","Colors are subdued yet vibrant,30,200,20","I really like the colors here,3,380,20","Seems too simple.,-19,40,20","its messy, like a child painted it,-14,160,20","displeasure - not a fan of the colour or the shapes,-18,260,20","Anthony","Colors are subdued yet vibrant,30,200,20","Caleb","Seems too simple.,-19,40,20","Gabriel","its messy, like a child painted it,-14,160,20","4"
"6103","","survey-text","197","759789","0.0-195.0-0.0","A292T1OXCVXN78","","","","{""Q0"":""way too plain""}","","","","","","","","","","","","","","","","","","","","","","",""
"1263.1000000238419","","image-slider-response","198","761053","0.0-196.0","A292T1OXCVXN78","","","","","-31","","","","","","","","","","","","","","","","","","","","","",""
"4623","","image-button-response","199","766054","0.0-197.0","A292T1OXCVXN78","img_art/5.jpg","2","","","","","","","","","","","","","","","","","","","","","","","","",""
"366","","image-button-response","200","766421","0.0-198.0","A292T1OXCVXN78","img_art/5.jpg","0","","","","","","","","","","","","","","","","","","","","","","","","",""
"520","","image-button-response","201","766941","0.0-199.0-0.0","A292T1OXCVXN78","img_art/5.jpg","2","","","","","","","","","","","","","","","","","","","","","","","","",""
"870","","image-button-response","202","767813","0.0-200.0-0.0","A292T1OXCVXN78","img_art/5.jpg","3","","","","","","","","","","","","","","","","","","","","","","","","",""
"null","","html-keyboard-response","203","768814","0.0-201.0","A292T1OXCVXN78","<p style=""font-size: 48px;"">+</p>","","","","","null","allTrialResponses","1000","1","22","img_art/5.jpg","-31","way too plain","Nathan,Anthony,Mason,Caleb,Gabriel,Joshua","Not a fan of the themes,-30,200,20","This piece doesn't really stand out.,0,200,20","pointless, ugly, not creative.,-50,100,20","Boring and appears low effort,-41,40,20","too abstract, looks like a pyramid,-22,160,20","Very basic, but at least has some color to it.,-9,240,20","Nathan","Not a fan of the themes,-30,200,20","Mason","pointless, ugly, not creative.,-50,100,20","Caleb","Boring and appears low effort,-41,40,20","4"
"10908","","survey-text","204","779725","0.0-202.0-0.0","A292T1OXCVXN78","","","","{""Q0"":""dope, looks like a house""}","","","","","","","","","","","","","","","","","","","","","","",""
"1455.1000000238419","","image-slider-response","205","781181","0.0-203.0","A292T1OXCVXN78","","","","","37","","","","","","","","","","","","","","","","","","","","","",""
"null","","image-button-response","206","786183","0.0-204.0","A292T1OXCVXN78","img_art/17.jpg","null","","","","","","","","","","","","","","","","","","","","","","","","",""
"926","","image-button-response","207","787109","0.0-205.0","A292T1OXCVXN78","img_art/17.jpg","3","","","","","","","","","","","","","","","","","","","","","","","","",""
"463","","image-button-response","208","787573","0.0-206.0-0.0","A292T1OXCVXN78","img_art/17.jpg","5","","","","","","","","","","","","","","","","","","","","","","","","",""
"383","","image-button-response","209","787957","0.0-207.0-0.0","A292T1OXCVXN78","img_art/17.jpg","2","","","","","","","","","","","","","","","","","","","","","","","","",""
"null","","html-keyboard-response","210","788458","0.0-208.0","A292T1OXCVXN78","<p style=""font-size: 48px;"">+</p>","","","","","null","allTrialResponses","500","1","23","img_art/17.jpg","37","dope, looks like a house","Nathan,Adam,Mason,Caleb,Victor,Steven","It's alright, nothing I particularly like but it's just fine,-10,200,20","Very washed out.,-10,40,20","Like this one, super creative, calming.,43,100,20","Not even abstract to me, very clear meaning.,44,40,20","cool. Sharp and blocky below, light and flowing on top. Overall pleasing to look at,32,340,20","absolutely gorgeous, I feel solitude again, but the beauty is there also,50,160,20","Caleb","Not even abstract to me, very clear meaning.,44,40,20","Steven","absolutely gorgeous, I feel solitude again, but the beauty is there also,50,160,20","Mason","Like this one, super creative, calming.,43,100,20","4"
"9808","","survey-text","211","798269","0.0-209.0-0.0","A292T1OXCVXN78","","","","{""Q0"":""what on earth is happeing here?""}","","","","","","","","","","","","","","","","","","","","","","",""
"1551","","image-slider-response","212","799821","0.0-210.0","A292T1OXCVXN78","","","","","-29","","","","","","","","","","","","","","","","","","","","","",""
"4823","","image-button-response","213","804822","0.0-211.0","A292T1OXCVXN78","img_art/16.jpg","3","","","","","","","","","","","","","","","","","","","","","","","","",""
"462","","image-button-response","214","805285","0.0-212.0","A292T1OXCVXN78","img_art/16.jpg","3","","","","","","","","","","","","","","","","","","","","","","","","",""
"287","","image-button-response","215","805573","0.0-213.0-0.0","A292T1OXCVXN78","img_art/16.jpg","4","","","","","","","","","","","","","","","","","","","","","","","","",""
"567","","image-button-response","216","806141","0.0-214.0-0.0","A292T1OXCVXN78","img_art/16.jpg","2","","","","","","","","","","","","","","","","","","","","","","","","",""
"null","","html-keyboard-response","217","806643","0.0-215.0","A292T1OXCVXN78","<p style=""font-size: 48px;"">+</p>","","","","","null","allTrialResponses","500","1","24","img_art/16.jpg","-29","what on earth is happeing here?","Dakota,Mark,Mason,Caleb,Andrew,Steven","depressing and confrontational,-9,280,20","I think it's about child abuse. The teddy bear represents innocence and the dark shape is approaching it.,40,80,20","Don't get it. Hate it. ugly.,-44,100,20","A strange collage made by a child. Do not like the colored face of the bear.,-29,40,20","It just makes me feel uncomfortable,-25,160,20","Not interested at all,-15,160,20","Caleb","A strange collage made by a child. Do not like the colored face of the bear.,-29,40,20","Andrew","It just makes me feel uncomfortable,-25,160,20","Mason","Don't get it. Hate it. ugly.,-44,100,20","4"
"15367","","survey-text","218","822013","0.0-216.0-0.0","A292T1OXCVXN78","","","","{""Q0"":""a little too abstract""}","","","","","","","","","","","","","","","","","","","","","","",""
"1271.1000000238419","","image-slider-response","219","823285","0.0-217.0","A292T1OXCVXN78","","","","","-9","","","","","","","","","","","","","","","","","","","","","",""
"2599","","image-button-response","220","828289","0.0-218.0","A292T1OXCVXN78","img_art/20.jpg","0","","","","","","","","","","","","","","","","","","","","","","","","",""
"187","","image-button-response","221","828477","0.0-219.0","A292T1OXCVXN78","img_art/20.jpg","0","","","","","","","","","","","","","","","","","","","","","","","","",""
"728","","image-button-response","222","829205","0.0-220.0-0.0","A292T1OXCVXN78","img_art/20.jpg","5","","","","","","","","","","","","","","","","","","","","","","","","",""
"702","","image-button-response","223","829909","0.0-221.0-0.0","A292T1OXCVXN78","img_art/20.jpg","4","","","","","","","","","","","","","","","","","","","","","","","","",""
"null","","html-keyboard-response","224","831411","0.0-222.0","A292T1OXCVXN78","<p style=""font-size: 48px;"">+</p>","","","","","null","allTrialResponses","1500","1","25","img_art/20.jpg","-9","a little too abstract","Paul,James,Mason,Caleb,Andrew,Grant","It looks like a junkyard and isn't appealing,-22,300,20","It looks like a motorcycle and I like cars and motorcycles,30,380,20","Very cool, and calming (again) Love it.,47,100,20","Lovely composition, colors, and message.,35,40,20","I just love this painting,47,160,20","This elicits no reaction in me.,0,200,20","Paul","It looks like a junkyard and isn't appealing,-22,300,20","Grant","This elicits no reaction in me.,0,200,20","Andrew","I just love this painting,47,160,20","4"
"3821","","survey-text","225","835237","0.0-223.0-0.0","A292T1OXCVXN78","","","","{""Q0"":""table""}","","","","","","","","","","","","","","","","","","","","","","",""
"5863","","survey-text","226","841101","0.0-224.0-0.0","A292T1OXCVXN78","","","","{""Q0"":""random scribbles""}","","","","","","","","","","","","","","","","","","","","","","",""
"2663.100000023842","","image-slider-response","227","843764","0.0-225.0","A292T1OXCVXN78","","","","","-8","","","","","","","","","","","","","","","","","","","","","",""
"3215","","image-button-response","228","848767","0.0-226.0","A292T1OXCVXN78","img_art/19.jpg","2","","","","","","","","","","","","","","","","","","","","","","","","",""
"445","","image-button-response","229","849213","0.0-227.0","A292T1OXCVXN78","img_art/19.jpg","2","","","","","","","","","","","","","","","","","","","","","","","","",""
"335","","image-button-response","230","849548","0.0-228.0-0.0","A292T1OXCVXN78","img_art/19.jpg","1","","","","","","","","","","","","","","","","","","","","","","","","",""
"503","","image-button-response","231","850053","0.0-229.0-0.0","A292T1OXCVXN78","img_art/19.jpg","0","","","","","","","","","","","","","","","","","","","","","","","","",""
"null","","html-keyboard-response","232","850554","0.0-230.0","A292T1OXCVXN78","<p style=""font-size: 48px;"">+</p>","","","","","null","allTrialResponses","500","1","26","img_art/19.jpg","-8","random scribbles","Paul,Nathaniel,Colton,Jordan,Andrew,Grant","The shapes make me recall a city scene but it looks dirty,-22,300,20","Horrible. Squiggly lines everywhere.,-50,220,20","way too much going on,-33,220,20","I dont like the gray shadows, ruins it,-7,160,20","It reminds me of sitting at a cafe on the side of a river.,45,160,20","It's a cute city scene, but nothing special.,10,200,20","Colton","way too much going on,-33,220,20","Nathaniel","Horrible. Squiggly lines everywhere.,-50,220,20","Paul","The shapes make me recall a city scene but it looks dirty,-22,300,20","4"
"7247","","survey-text","233","857804","0.0-231.0-0.0","A292T1OXCVXN78","","","","{""Q0"":""cool, but simple""}","","","","","","","","","","","","","","","","","","","","","","",""
"3359","","image-slider-response","234","861164","0.0-232.0","A292T1OXCVXN78","","","","","6","","","","","","","","","","","","","","","","","","","","","",""
"4239","","image-button-response","235","866167","0.0-233.0","A292T1OXCVXN78","img_art/25.jpg","1","","","","","","","","","","","","","","","","","","","","","","","","",""
"389","","image-button-response","236","866557","0.0-234.0","A292T1OXCVXN78","img_art/25.jpg","1","","","","","","","","","","","","","","","","","","","","","","","","",""
"279","","image-button-response","237","866837","0.0-235.0-0.0","A292T1OXCVXN78","img_art/25.jpg","2","","","","","","","","","","","","","","","","","","","","","","","","",""
"343","","image-button-response","238","867181","0.0-236.0-0.0","A292T1OXCVXN78","img_art/25.jpg","5","","","","","","","","","","","","","","","","","","","","","","","","",""
"null","","html-keyboard-response","239","868681","0.0-237.0","A292T1OXCVXN78","<p style=""font-size: 48px;"">+</p>","","","","","null","allTrialResponses","1500","1","27","img_art/25.jpg","6","cool, but simple","Paul,Nathaniel,Colton,Dylan,Ethan,Lucas","The skeletal figure is a bit scary,-12,300,20","I love the background color and it's creepy...but cool.,30,220,20","the colors are pretty,11,220,20","This is too dark and creepy. I also hate the color,-30,40,20","The artist was daring to create this. Don't love the green and black combo though.,9,120,20","Well-designed, interesting.,30,380,20","Nathaniel","I love the background color and it's creepy...but cool.,30,220,20","Colton","the colors are pretty,11,220,20","Lucas","Well-designed, interesting.,30,380,20","4"
"5327","","survey-text","240","874012","0.0-238.0-0.0","A292T1OXCVXN78","","","","{""Q0"":""random scribbles""}","","","","","","","","","","","","","","","","","","","","","","",""
"1758.8999999761581","","image-slider-response","241","875772","0.0-239.0","A292T1OXCVXN78","","","","","-14","","","","","","","","","","","","","","","","","","","","","",""
"4895","","image-button-response","242","880774","0.0-240.0","A292T1OXCVXN78","img_art/27.jpg","2","","","","","","","","","","","","","","","","","","","","","","","","",""
"445","","image-button-response","243","881221","0.0-241.0","A292T1OXCVXN78","img_art/27.jpg","2","","","","","","","","","","","","","","","","","","","","","","","","",""
"295","","image-button-response","244","881517","0.0-242.0-0.0","A292T1OXCVXN78","img_art/27.jpg","1","","","","","","","","","","","","","","","","","","","","","","","","",""
"327","","image-button-response","245","881845","0.0-243.0-0.0","A292T1OXCVXN78","img_art/27.jpg","3","","","","","","","","","","","","","","","","","","","","","","","","",""
"null","","html-keyboard-response","246","882345","0.0-244.0","A292T1OXCVXN78","<p style=""font-size: 48px;"">+</p>","","","","","null","allTrialResponses","500","1","28","img_art/27.jpg","-14","random scribbles","Malik,Nathaniel,Colton,Daniel,Ryan,Lucas","Nice color, but too vague,-12,40,20","Looks like a splash of different colors and designs without purpose,-44,220,20","looks like a little kid did it,-30,220,20","Nice back ground with childish scribble on top,-30,320,20","I love the childish aspect to it,37,380,20","No clue what to say.,0,380,20","Colton","looks like a little kid did it,-30,220,20","Nathaniel","Looks like a splash of different colors and designs without purpose,-44,220,20","Daniel","Nice back ground with childish scribble on top,-30,320,20","4"
"5543","","survey-text","247","887892","0.0-245.0-0.0","A292T1OXCVXN78","","","","{""Q0"":""I love the colors""}","","","","","","","","","","","","","","","","","","","","","","",""
"1865.0999999046326","","image-slider-response","248","889758","0.0-246.0","A292T1OXCVXN78","","","","","25","","","","","","","","","","","","","","","","","","","","","",""
"3970","","image-button-response","249","894775","0.0-247.0","A292T1OXCVXN78","img_art/1.jpg","3","","","","","","","","","","","","","","","","","","","","","","","","",""
"187","","image-button-response","250","894965","0.0-248.0","A292T1OXCVXN78","img_art/1.jpg","3","","","","","","","","","","","","","","","","","","","","","","","","",""
"511","","image-button-response","251","895477","0.0-249.0-0.0","A292T1OXCVXN78","img_art/1.jpg","5","","","","","","","","","","","","","","","","","","","","","","","","",""
"310","","image-button-response","252","895789","0.0-250.0-0.0","A292T1OXCVXN78","img_art/1.jpg","2","","","","","","","","","","","","","","","","","","","","","","","","",""
"null","","html-keyboard-response","253","897290","0.0-251.0","A292T1OXCVXN78","<p style=""font-size: 48px;"">+</p>","","","","","null","allTrialResponses","1500","1","29","img_art/1.jpg","25","I love the colors","Jose,Nathaniel,Colton,Daniel,Hunter,Alexander","Blurry but that's how emotions are a lot of the time.,27,200,20","A bit of a smokey mess, but it does have an air of mystery I like,7,220,20","the colors are nice,8,220,20","Nice colors with some 3D effects,15,320,20","muddy and uninteresting,-16,240,20","Flat colors with no flavor.,5,120,20","Daniel","Nice colors with some 3D effects,15,320,20","Alexander","Flat colors with no flavor.,5,120,20","Colton","the colors are nice,8,220,20","4"
"35065","","survey-text","254","932358","0.0-252.0-0.0","A292T1OXCVXN78","","","","{""Q0"":""amazing composition""}","","","","","","","","","","","","","","","","","","","","","","",""
"3435","","image-slider-response","255","935797","0.0-253.0","A292T1OXCVXN78","","","","","31","","","","","","","","","","","","","","","","","","","","","",""
"null","","image-button-response","256","940799","0.0-254.0","A292T1OXCVXN78","img_art/24.jpg","null","","","","","","","","","","","","","","","","","","","","","","","","",""
"6100","","image-button-response","257","946901","0.0-255.0","A292T1OXCVXN78","img_art/24.jpg","1","","","","","","","","","","","","","","","","","","","","","","","","",""
"510","","image-button-response","258","947413","0.0-256.0-0.0","A292T1OXCVXN78","img_art/24.jpg","2","","","","","","","","","","","","","","","","","","","","","","","","",""
"934","","image-button-response","259","948349","0.0-257.0-0.0","A292T1OXCVXN78","img_art/24.jpg","4","","","","","","","","","","","","","","","","","","","","","","","","",""
"null","","html-keyboard-response","260","948851","0.0-258.0","A292T1OXCVXN78","<p style=""font-size: 48px;"">+</p>","","","","","null","allTrialResponses","500","1","30","img_art/24.jpg","31","amazing composition","Brendan,Dalton,Colton,Daniel,Thomas,Alexander","lovely forest vibes,36,340,20","i feel peace and wanting. i love waterfalls,50,300,20","reminds me of a beautiful waterfall,50,220,20","Classic palette lacks real world 3d construction,19,320,20","Beautiful colors and texture,20,220,20","Water through the fruit.,15,120,20","Dalton","i feel peace and wanting. i love waterfalls,50,300,20","Colton","reminds me of a beautiful waterfall,50,220,20","Thomas","Beautiful colors and texture,20,220,20","4"
"2838","","image-button-response_instructions","261","951693","0.0-259.0","A292T1OXCVXN78","","0","instructions","","","","","","","","","","","","","","","","","","","","","","","",""
"988","","image-button-response","262","952684","0.0-260.0","A292T1OXCVXN78","","0","","","","","","","","","","","","","","","","","","","","","","","","",""
