"rt","url","trial_type","trial_index","time_elapsed","internal_node_id","participant_id","stimulus","button_pressed","Name","responses","response","key_press","variableName","fixationTime","condition","trial","photo","subjectRating","subjectResponse","agentsNames","agent_1_Response","agent_2_Response","agent_3_Response","agent_4_Response","agent_5_Response","agent_6_Response","kept_1_name","kept_1_response","kept_2_name","kept_2_response","kept_3_name","kept_3_response","errorCounter"
"16348","external_page_harvard.html","external-html","0","16440","0.0-0.0","A29DF24JS60P35","","","","","","","","","","","","","","","","","","","","","","","","","","",""
"9430","","image-button-response","1","25874","0.0-1.0","A29DF24JS60P35","","1","","","","","","","","","","","","","","","","","","","","","","","","",""
"3550","","image-button-response","2","29433","0.0-2.0-0.0","A29DF24JS60P35","","1","phone","","","","","","","","","","","","","","","","","","","","","","","",""
"12517","","survey-text","3","41953","0.0-3.0-0.0","A29DF24JS60P35","","","","{""Q0"":""A29DF24JS60P35""}","","","","","","","","","","","","","","","","","","","","","","",""
"18169","","image-button-response_instructions","4","60126","0.0-4.0","A29DF24JS60P35","","0","instructions","","","","","","","","","","","","","","","","","","","","","","","",""
"34873","","image-button-response_instructions","5","95002","0.0-5.0","A29DF24JS60P35","img_art/ins/popularity/ins1.png","0","instructions","","","","","","","","","","","","","","","","","","","","","","","",""
"10277","","image-button-response_instructions","6","105281","0.0-6.0","A29DF24JS60P35","img_art/ins/popularity/ins2.png","0","instructions","","","","","","","","","","","","","","","","","","","","","","","",""
"21217","","image-button-response_instructions","7","126500","0.0-7.0","A29DF24JS60P35","img_art/ins/popularity/ins2Extreme.png","0","instructions","","","","","","","","","","","","","","","","","","","","","","","",""
"13824","","image-button-response_instructions","8","140326","0.0-8.0","A29DF24JS60P35","img_art/ins/popularity/ins3KEEPpop.PNG","0","instructions","","","","","","","","","","","","","","","","","","","","","","","",""
"6048","","image-button-response_instructions","9","146377","0.0-9.0","A29DF24JS60P35","img_art/ins/popularity/ins3ANamepop.PNG","0","instructions","","","","","","","","","","","","","","","","","","","","","","","",""
"4630","","image-button-response_instructions","10","151009","0.0-10.0","A29DF24JS60P35","img_art/ins/popularity/ins3ARatingpop.png","0","instructions","","","","","","","","","","","","","","","","","","","","","","","",""
"1901","","image-button-response_instructions","11","152912","0.0-11.0","A29DF24JS60P35","img_art/ins/popularity/ins3ATextpop.png","0","instructions","","","","","","","","","","","","","","","","","","","","","","","",""
"12077","","image-button-response_instructions","12","164992","0.0-12.0","A29DF24JS60P35","img_art/ins/popularity/ins3ALikespop.png","0","instructions","","","","","","","","","","","","","","","","","","","","","","","",""
"5873","","image-button-response_instructions","13","170868","0.0-13.0","A29DF24JS60P35","img_art/ins/popularity/ins3KEEPpop.PNG","0","instructions","","","","","","","","","","","","","","","","","","","","","","","",""
"4567","","image-button-response_instructions","14","175438","0.0-14.0","A29DF24JS60P35","img_art/ins/popularity/ins3_5RED.png","0","instructions","","","","","","","","","","","","","","","","","","","","","","","",""
"5110","","image-button-response_instructions","15","180550","0.0-15.0","A29DF24JS60P35","img_art/ins/popularity/ins3KEEPpop.PNG","0","instructions","","","","","","","","","","","","","","","","","","","","","","","",""
"6918","","image-button-response_instructions","16","187470","0.0-16.0","A29DF24JS60P35","img_art/ins/popularity/ins4KEEPpop.PNG","0","instructions","","","","","","","","","","","","","","","","","","","","","","","",""
"4899","","image-button-response_instructions","17","192371","0.0-17.0","A29DF24JS60P35","img_art/ins/popularity/ins5KEEPpop.PNG","0","instructions","","","","","","","","","","","","","","","","","","","","","","","",""
"1499","","image-button-response_instructions","18","193872","0.0-18.0","A29DF24JS60P35","","0","instructions","","","","","","","","","","","","","","","","","","","","","","","",""
"5136","","survey-text","19","199050","0.0-19.0-0.0","A29DF24JS60P35","","","","{""Q0"":""but""}","","","","","","","","","","","","","","","","","","","","","","",""
"13373","","survey-text","20","212427","0.0-20.0-0.0","A29DF24JS60P35","","","","{""Q0"":""abstract and colorful""}","","","","","","","","","","","","","","","","","","","","","","",""
"6150.299999952316","","image-slider-response","21","218583","0.0-21.0","A29DF24JS60P35","","","","","-3","","","","","","","","","","","","","","","","","","","","","",""
"null","","image-button-response","22","223594","0.0-22.0","A29DF24JS60P35","img_art/ins/1.jpg","null","","","","","","","","","","","","","","","","","","","","","","","","",""
"1677","","image-button-response","23","225275","0.0-23.0","A29DF24JS60P35","img_art/ins/1.jpg","3","","","","","","","","","","","","","","","","","","","","","","","","",""
"6455","","image-button-response","24","231735","0.0-24.0-0.0","A29DF24JS60P35","img_art/ins/1.jpg","1","","","","","","","","","","","","","","","","","","","","","","","","",""
"3412","","image-button-response","25","235154","0.0-25.0-0.0","A29DF24JS60P35","img_art/ins/1.jpg","2","","","","","","","","","","","","","","","","","","","","","","","","",""
"null","","html-keyboard-response","26","236662","0.0-26.0","A29DF24JS60P35","<p style=""font-size: 48px;"">+</p>","","","","","null","allTrialResponses","1500","1","-2","img_art/ins/1.jpg","-3","abstract and colorful","Allison,Ashley,Beth,Dora,Erika,Jen","looks like a lot of things going on in the mist,20,20,20","I just don't get why these type of art would be popular,-32,40,20","This color reminds me of poo,-46,60,20","looks like what my niece in 3rd grade did this afternoon,-50,80,20","I like the sophisticated brushwork,40,100,20","It reminds me of a candy land dream I had,36,120,20","Dora","looks like what my niece in 3rd grade did this afternoon,-50,80,20","Ashley","I just don't get why these type of art would be popular,-32,40,20","Beth","This color reminds me of poo,-46,60,20","0"
"34232","","survey-text","27","270902","0.0-27.0-0.0","A29DF24JS60P35","","","","{""Q0"":""textured and almost 3D""}","","","","","","","","","","","","","","","","","","","","","","",""
"5329.5","","image-slider-response","28","276235","0.0-28.0","A29DF24JS60P35","","","","","14","","","","","","","","","","","","","","","","","","","","","",""
"4708","","image-button-response","29","281247","0.0-29.0","A29DF24JS60P35","img_art/ins/2.jpg","4","","","","","","","","","","","","","","","","","","","","","","","","",""
"1716","","image-button-response","30","282967","0.0-30.0","A29DF24JS60P35","img_art/ins/2.jpg","4","","","","","","","","","","","","","","","","","","","","","","","","",""
"9588","","image-button-response","31","292558","0.0-31.0-0.0","A29DF24JS60P35","img_art/ins/2.jpg","2","","","","","","","","","","","","","","","","","","","","","","","","",""
"1646","","image-button-response","32","294208","0.0-32.0-0.0","A29DF24JS60P35","img_art/ins/2.jpg","3","","","","","","","","","","","","","","","","","","","","","","","","",""
"null","","html-keyboard-response","33","295715","0.0-33.0","A29DF24JS60P35","<p style=""font-size: 48px;"">+</p>","","","","","null","allTrialResponses","1500","1","-1","img_art/ins/2.jpg","14","textured and almost 3D","Jenna,Ashley,Beth,Dora,Kara,Katie","One of my pet peevs,-48,140,20","Idk, it is just annoying,-32,40,20","meaningless painting,-45,60,20","looks too angry,-50,80,20","I like the blocks of color arrangements,30,160,20","too much color!,-28,180,20","Kara","I like the blocks of color arrangements,30,160,20","Beth","meaningless painting,-45,60,20","Dora","looks too angry,-50,80,20","0"
"25613","","survey-text","34","321336","0.0-34.0-0.0","A29DF24JS60P35","","","","{""Q0"":""makes me think of winter""}","","","","","","","","","","","","","","","","","","","","","","",""
"4576.200000047684","","image-slider-response","35","325915","0.0-35.0","A29DF24JS60P35","","","","","8","","","","","","","","","","","","","","","","","","","","","",""
"null","","image-button-response","36","330923","0.0-36.0","A29DF24JS60P35","img_art/ins/3.jpg","null","","","","","","","","","","","","","","","","","","","","","","","","",""
"5579","","image-button-response","37","336505","0.0-37.0","A29DF24JS60P35","img_art/ins/3.jpg","1","","","","","","","","","","","","","","","","","","","","","","","","",""
"1353","","image-button-response","38","337863","0.0-38.0-0.0","A29DF24JS60P35","img_art/ins/3.jpg","5","","","","","","","","","","","","","","","","","","","","","","","","",""
"981","","image-button-response","39","338850","0.0-39.0-0.0","A29DF24JS60P35","img_art/ins/3.jpg","2","","","","","","","","","","","","","","","","","","","","","","","","",""
"null","","html-keyboard-response","40","340352","0.0-40.0","A29DF24JS60P35","<p style=""font-size: 48px;"">+</p>","","","","","null","allTrialResponses","1500","1","0","img_art/ins/3.jpg","8","makes me think of winter","Mary,Leslie,Beth,Dora,Kara,Rose","I like the overlapping of brushes,41,220,20","It's an alright work,15,200,20","This thing gives me anxiety,-41,60,20","My worst nightmare,-42,80,20","calming blue is very nice,36,160,20","My daily routine, it's depressing,-20,240,20","Leslie","It's an alright work,15,200,20","Rose","My daily routine, it's depressing,-20,240,20","Beth","This thing gives me anxiety,-41,60,20","0"
"5104","","image-button-response_instructions","41","345464","0.0-41.0","A29DF24JS60P35","","0","instructions","","","","","","","","","","","","","","","","","","","","","","","",""
"9469","","survey-likert","42","354937","0.0-42.0-0.0","A29DF24JS60P35","","","","{""Q0"":"""",""Q1"":0,""Q2"":1}","","","","","","","","","","","","","","","","","","","","","","",""
"5260","","survey-text","43","360209","0.0-43.0-0.0","A29DF24JS60P35","","","","{""Q0"":""rock""}","","","","","","","","","","","","","","","","","","","","","","",""
"14265","","survey-text","44","374479","0.0-44.0-0.0","A29DF24JS60P35","","","","{""Q0"":""very pretty and quaint""}","","","","","","","","","","","","","","","","","","","","","","",""
"8874","","image-slider-response","45","383357","0.0-45.0","A29DF24JS60P35","","","","","39","","","","","","","","","","","","","","","","","","","","","",""
"null","","image-button-response","46","388385","0.0-46.0","A29DF24JS60P35","img_art/24.jpg","null","","","","","","","","","","","","","","","","","","","","","","","","",""
"9526","","image-button-response","47","397916","0.0-47.0","A29DF24JS60P35","img_art/24.jpg","5","","","","","","","","","","","","","","","","","","","","","","","","",""
"3221","","image-button-response","48","401142","0.0-48.0-0.0","A29DF24JS60P35","img_art/24.jpg","3","","","","","","","","","","","","","","","","","","","","","","","","",""
"5780","","image-button-response","49","406928","0.0-49.0-0.0","A29DF24JS60P35","img_art/24.jpg","4","","","","","","","","","","","","","","","","","","","","","","","","",""
"null","","html-keyboard-response","50","408435","0.0-50.0","A29DF24JS60P35","<p style=""font-size: 48px;"">+</p>","","","","","null","allTrialResponses","1500","1","1","img_art/24.jpg","39","very pretty and quaint","Mary,Angelica,Kelsey,Sabrina,Morgan,Kelly","This is sort of interesting. I think it's a bit busy. Less is more.,3,180,20","This looks ugly and simple, as if done by a young person.,-2,280,20","this one is just a bit too harsh,-13,240,20","Love the natural vibe,50,120,20","Water through the fruit.,15,380,20","Cute; I like what the image itself & the colors.,25,220,20","Kelly","Cute; I like what the image itself & the colors.,25,220,20","Sabrina","Love the natural vibe,50,120,20","Morgan","Water through the fruit.,15,380,20","0"
"38039","","survey-text","51","446483","0.0-51.0-0.0","A29DF24JS60P35","","","","{""Q0"":""I don't like this it looks like a city covered in smog""}","","","","","","","","","","","","","","","","","","","","","","",""
"8345.200000047684","","image-slider-response","52","454833","0.0-52.0","A29DF24JS60P35","","","","","-50","","","","","","","","","","","","","","","","","","","","","",""
"4854","","image-button-response","53","459841","0.0-53.0","A29DF24JS60P35","img_art/11.jpg","0","","","","","","","","","","","","","","","","","","","","","","","","",""
"1716","","image-button-response","54","461561","0.0-54.0","A29DF24JS60P35","img_art/11.jpg","0","","","","","","","","","","","","","","","","","","","","","","","","",""
"921","","image-button-response","55","462485","0.0-55.0-0.0","A29DF24JS60P35","img_art/11.jpg","1","","","","","","","","","","","","","","","","","","","","","","","","",""
"1802","","image-button-response","56","464291","0.0-56.0-0.0","A29DF24JS60P35","img_art/11.jpg","0","","","","","","","","","","","","","","","","","","","","","","","","",""
"1722","","image-button-response","57","469983","0.0-56.1-0.1","A29DF24JS60P35","img_art/11.jpg","2","","","","","","","","","","","","","","","","","","","","","","","","",""
"null","","html-keyboard-response","58","470986","0.0-57.0","A29DF24JS60P35","<p style=""font-size: 48px;"">+</p>","","","","","null","allTrialResponses","1000","1","2","img_art/11.jpg","-50","I don't like this it looks like a city covered in smog","Margaret,Makayla,Stephanie,Sabrina,Morgan,Kelly","dont like the colors. Its a gloomy day in london and this is the transit system,-26,100,20","Smoggy, oily, industrial. Don't like,1,80,20","Rainy dreary day in a town.,7,300,20","I love the city chaos from this,50,120,20","Waves of signs.,15,380,20","Its a little psychedelic.,10,220,20","Margaret","dont like the colors. Its a gloomy day in london and this is the transit system,-26,100,20","Makayla","Smoggy, oily, industrial. Don't like,1,80,20","Stephanie","Rainy dreary day in a town.,7,300,20","2"
"26422","","survey-text","59","497416","0.0-58.0-0.0","A29DF24JS60P35","","","","{""Q0"":""colorful and interesting but not really my style. I guess its a vase?""}","","","","","","","","","","","","","","","","","","","","","","",""
"4083.5","","image-slider-response","60","501503","0.0-59.0","A29DF24JS60P35","","","","","-2","","","","","","","","","","","","","","","","","","","","","",""
"null","","image-button-response","61","506510","0.0-60.0","A29DF24JS60P35","img_art/14.jpg","null","","","","","","","","","","","","","","","","","","","","","","","","",""
"1223","","image-button-response","62","507737","0.0-61.0","A29DF24JS60P35","img_art/14.jpg","5","","","","","","","","","","","","","","","","","","","","","","","","",""
"4068","","image-button-response","63","511809","0.0-62.0-0.0","A29DF24JS60P35","img_art/14.jpg","2","","","","","","","","","","","","","","","","","","","","","","","","",""
"2804","","image-button-response","64","514618","0.0-63.0-0.0","A29DF24JS60P35","img_art/14.jpg","1","","","","","","","","","","","","","","","","","","","","","","","","",""
"null","","html-keyboard-response","65","515124","0.0-64.0","A29DF24JS60P35","<p style=""font-size: 48px;"">+</p>","","","","","null","allTrialResponses","500","1","3","img_art/14.jpg","-2","colorful and interesting but not really my style. I guess its a vase?","Margaret,Makayla,Stephanie,Diana,Chloe,Shannon","its okay. pretty bland but looks like nature,8,100,20","I like that it's like a snippet of a field in the desert,21,80,20","Late Winter when things are just starting to bloom.,21,300,20","This piece feels inviting. It's like opening up the pages of your favorite book for the first time.,26,380,20","Like the brushstrokes but not the composition,9,220,20","I like this picture because it looks like a tree and the colors used look cool.,20,220,20","Shannon","I like this picture because it looks like a tree and the colors used look cool.,20,220,20","Stephanie","Late Winter when things are just starting to bloom.,21,300,20","Makayla","I like that it's like a snippet of a field in the desert,21,80,20","2"
"13461","","survey-text","66","528593","0.0-65.0-0.0","A29DF24JS60P35","","","","{""Q0"":""looks like animal droppings""}","","","","","","","","","","","","","","","","","","","","","","",""
"2372.2000000476837","","image-slider-response","67","530969","0.0-66.0","A29DF24JS60P35","","","","","-50","","","","","","","","","","","","","","","","","","","","","",""
"null","","image-button-response","68","535977","0.0-67.0","A29DF24JS60P35","img_art/7.jpg","null","","","","","","","","","","","","","","","","","","","","","","","","",""
"5260","","image-button-response","69","541244","0.0-68.0","A29DF24JS60P35","img_art/7.jpg","3","","","","","","","","","","","","","","","","","","","","","","","","",""
"1149","","image-button-response","70","542396","0.0-69.0-0.0","A29DF24JS60P35","img_art/7.jpg","2","","","","","","","","","","","","","","","","","","","","","","","","",""
"4409","","image-button-response","71","546809","0.0-70.0-0.0","A29DF24JS60P35","img_art/7.jpg","0","","","","","","","","","","","","","","","","","","","","","","","","",""
"null","","html-keyboard-response","72","548315","0.0-71.0","A29DF24JS60P35","<p style=""font-size: 48px;"">+</p>","","","","","null","allTrialResponses","1500","1","4","img_art/7.jpg","-50","looks like animal droppings","Jacqueline,Makayla,Stephanie,Amanda,Tiffany,Shannon","Just looks like rocks or some kind of mineral.,0,300,20","It's just like sand from the beach,2,80,20","This looks muddy and stomped on. I think of destruction.,-50,300,20","I hate everything about this painting from the cors to it looking like a war,-50,180,20","I feel relaxed and a little nostalgic, like I'm exploring the wall of a very old building.,18,360,20","I don't like the repetitiveness of the colors, and I think there should be more colors.,-50,220,20","Amanda","I hate everything about this painting from the cors to it looking like a war,-50,180,20","Stephanie","This looks muddy and stomped on. I think of destruction.,-50,300,20","Jacqueline","Just looks like rocks or some kind of mineral.,0,300,20","2"
"26795","","survey-text","73","575118","0.0-72.0-0.0","A29DF24JS60P35","","","","{""Q0"":""weird, I have no idea what this is supposed to be, a pear maybe?""}","","","","","","","","","","","","","","","","","","","","","","",""
"8801.900000095367","","image-slider-response","74","583923","0.0-73.0","A29DF24JS60P35","","","","","-49","","","","","","","","","","","","","","","","","","","","","",""
"null","","image-button-response","75","588929","0.0-74.0","A29DF24JS60P35","img_art/5.jpg","null","","","","","","","","","","","","","","","","","","","","","","","","",""
"4714","","image-button-response","76","593648","0.0-75.0","A29DF24JS60P35","img_art/5.jpg","2","","","","","","","","","","","","","","","","","","","","","","","","",""
"2017","","image-button-response","77","595668","0.0-76.0-0.0","A29DF24JS60P35","img_art/5.jpg","1","","","","","","","","","","","","","","","","","","","","","","","","",""
"6414","","image-button-response","78","602086","0.0-77.0-0.0","A29DF24JS60P35","img_art/5.jpg","4","","","","","","","","","","","","","","","","","","","","","","","","",""
"null","","html-keyboard-response","79","602590","0.0-78.0","A29DF24JS60P35","<p style=""font-size: 48px;"">+</p>","","","","","null","allTrialResponses","500","1","5","img_art/5.jpg","-49","weird, I have no idea what this is supposed to be, a pear maybe?","Jacqueline,Gabriela,Stephanie,Amanda,Michelle,Leah","Seems very basic and uninteresting.,-15,300,20","I am confused as to what this is supposed to be,6,140,20","This did not do a thing for me.,-50,300,20","Very good color coordination,41,180,20","What is this? It looks like no effort was put into this work,-2,280,20","Boring, no flow except the pink feathery band,-42,360,20","Stephanie","This did not do a thing for me.,-50,300,20","Gabriela","I am confused as to what this is supposed to be,6,140,20","Michelle","What is this? It looks like no effort was put into this work,-2,280,20","2"
"7491","","survey-text","80","610097","0.0-79.0-0.0","A29DF24JS60P35","","","","{""Q0"":""sky""}","","","","","","","","","","","","","","","","","","","","","","",""
"15314","","survey-text","81","625414","0.0-80.0-0.0","A29DF24JS60P35","","","","{""Q0"":""too busy kind of hurts my eyes""}","","","","","","","","","","","","","","","","","","","","","","",""
"3659.100000143051","","image-slider-response","82","629076","0.0-81.0","A29DF24JS60P35","","","","","-50","","","","","","","","","","","","","","","","","","","","","",""
"null","","image-button-response","83","634083","0.0-82.0","A29DF24JS60P35","img_art/12.jpg","null","","","","","","","","","","","","","","","","","","","","","","","","",""
"3176","","image-button-response","84","637263","0.0-83.0","A29DF24JS60P35","img_art/12.jpg","5","","","","","","","","","","","","","","","","","","","","","","","","",""
"7061","","image-button-response","85","644327","0.0-84.0-0.0","A29DF24JS60P35","img_art/12.jpg","4","","","","","","","","","","","","","","","","","","","","","","","","",""
"6930","","image-button-response","86","651260","0.0-85.0-0.0","A29DF24JS60P35","img_art/12.jpg","0","","","","","","","","","","","","","","","","","","","","","","","","",""
"null","","html-keyboard-response","87","651765","0.0-86.0","A29DF24JS60P35","<p style=""font-size: 48px;"">+</p>","","","","","null","allTrialResponses","500","1","6","img_art/12.jpg","-50","too busy kind of hurts my eyes","Briana,Gabriela,Stephanie,Katherine,Michelle,Kaitlin","Interesting colors. I really dont like modern art though,24,400,20","In my opinion, this photo has an old school vibe,22,140,20","I like the pattern to it.,31,300,20","Not sure why but this is my favorite. I'd put it on my wall,50,120,20","eww hate everything about this, looks like it belongs in a dentist's office,-14,280,20","too much - just overcrowded,-20,60,20","Kaitlin","too much - just overcrowded,-20,60,20","Michelle","eww hate everything about this, looks like it belongs in a dentist's office,-14,280,20","Briana","Interesting colors. I really dont like modern art though,24,400,20","2"
"23622","","survey-text","88","675395","0.0-87.0-0.0","A29DF24JS60P35","","","","{""Q0"":""looks like a toddler got ahold of some paint and threw it at a wall""}","","","","","","","","","","","","","","","","","","","","","","",""
"3129","","image-slider-response","89","678528","0.0-88.0","A29DF24JS60P35","","","","","-46","","","","","","","","","","","","","","","","","","","","","",""
"null","","image-button-response","90","683534","0.0-89.0","A29DF24JS60P35","img_art/13.jpg","null","","","","","","","","","","","","","","","","","","","","","","","","",""
"9605","","image-button-response","91","693143","0.0-90.0","A29DF24JS60P35","img_art/13.jpg","4","","","","","","","","","","","","","","","","","","","","","","","","",""
"1275","","image-button-response","92","694423","0.0-91.0-0.0","A29DF24JS60P35","img_art/13.jpg","3","","","","","","","","","","","","","","","","","","","","","","","","",""
"6236","","image-button-response","93","700664","0.0-92.0-0.0","A29DF24JS60P35","img_art/13.jpg","0","","","","","","","","","","","","","","","","","","","","","","","","",""
"null","","html-keyboard-response","94","701167","0.0-93.0","A29DF24JS60P35","<p style=""font-size: 48px;"">+</p>","","","","","null","allTrialResponses","500","1","7","img_art/13.jpg","-46","looks like a toddler got ahold of some paint and threw it at a wall","Briana,Jamie,Michaela,Molly,Michelle,Kaitlin","The blue colors are very calming. Reminds me of water,33,400,20","Cool colors and looks like rain on a window,45,320,20","The colors are really pretty together,39,260,20","Incredible, curious.,20,340,20","I like the blue colors and the symmetry and paint splatters but I would not hang it in my house,8,280,20","I like this picture. The choice of colors are good,31,60,20","Michelle","I like the blue colors and the symmetry and paint splatters but I would not hang it in my house,8,280,20","Molly","Incredible, curious.,20,340,20","Briana","The blue colors are very calming. Reminds me of water,33,400,20","2"
"25654","","survey-text","95","726829","0.0-94.0-0.0","A29DF24JS60P35","","","","{""Q0"":""Interesting interpretation of a village shopping area""}","","","","","","","","","","","","","","","","","","","","","","",""
"2246.5","","image-slider-response","96","729079","0.0-95.0","A29DF24JS60P35","","","","","8","","","","","","","","","","","","","","","","","","","","","",""
"null","","image-button-response","97","734088","0.0-96.0","A29DF24JS60P35","img_art/19.jpg","null","","","","","","","","","","","","","","","","","","","","","","","","",""
"2613","","image-button-response","98","736704","0.0-97.0","A29DF24JS60P35","img_art/19.jpg","3","","","","","","","","","","","","","","","","","","","","","","","","",""
"3945","","image-button-response","99","740651","0.0-98.0-0.0","A29DF24JS60P35","img_art/19.jpg","5","","","","","","","","","","","","","","","","","","","","","","","","",""
"3514","","image-button-response","100","744170","0.0-99.0-0.0","A29DF24JS60P35","img_art/19.jpg","0","","","","","","","","","","","","","","","","","","","","","","","","",""
"null","","html-keyboard-response","101","744674","0.0-100.0","A29DF24JS60P35","<p style=""font-size: 48px;"">+</p>","","","","","null","allTrialResponses","500","1","8","img_art/19.jpg","8","Interesting interpretation of a village shopping area","Briana,Olivia,Kayla,Molly,Michelle,Maria","Its simple and the colors i like. It reminds me of chagall,34,400,20","city life energy,8,40,20","Too messy and busy. Too much going on there for me.,-12,180,20","I can see kind of beach and sea full of people and buildings.,25,340,20","I like the water but again, the small lines with no detail are irritating,3,280,20","the way the landscape is portrayed captivates me - I enjoy studying the structure,32,120,20","Molly","I can see kind of beach and sea full of people and buildings.,25,340,20","Maria","the way the landscape is portrayed captivates me - I enjoy studying the structure,32,120,20","Briana","Its simple and the colors i like. It reminds me of chagall,34,400,20","2"
"20845","","survey-text","102","765527","0.0-101.0-0.0","A29DF24JS60P35","","","","{""Q0"":""Interesting but I don't care for the weird face in the upper left ""}","","","","","","","","","","","","","","","","","","","","","","",""
"2315.4000000953674","","image-slider-response","103","767846","0.0-102.0","A29DF24JS60P35","","","","","16","","","","","","","","","","","","","","","","","","","","","",""
"2957","","image-button-response","104","772855","0.0-103.0","A29DF24JS60P35","img_art/8.jpg","1","","","","","","","","","","","","","","","","","","","","","","","","",""
"976","","image-button-response","105","773835","0.0-104.0","A29DF24JS60P35","img_art/8.jpg","1","","","","","","","","","","","","","","","","","","","","","","","","",""
"5300","","image-button-response","106","779139","0.0-105.0-0.0","A29DF24JS60P35","img_art/8.jpg","3","","","","","","","","","","","","","","","","","","","","","","","","",""
"1138","","image-button-response","107","780283","0.0-106.0-0.0","A29DF24JS60P35","img_art/8.jpg","4","","","","","","","","","","","","","","","","","","","","","","","","",""
"null","","html-keyboard-response","108","780785","0.0-107.0","A29DF24JS60P35","<p style=""font-size: 48px;"">+</p>","","","","","null","allTrialResponses","500","1","9","img_art/8.jpg","16","Interesting but I don't care for the weird face in the upper left ","Briana,Kaylee,Caroline,Molly,Shelby,Maria","Its abstract and interesting,24,400,20","beautiful buildings,32,200,20","I love the colors in it and also the faces and door ways. Made me feel hopeful,35,100,20","Different styles make this picture outstanding.,20,340,20","Too much going on, too many colors, makes me feel uneasy,-20,240,20","not sure what to make of this - just neutral again,-1,120,20","Kaylee","beautiful buildings,32,200,20","Molly","Different styles make this picture outstanding.,20,340,20","Shelby","Too much going on, too many colors, makes me feel uneasy,-20,240,20","2"
"26198","","survey-text","109","806990","0.0-108.0-0.0","A29DF24JS60P35","","","","{""Q0"":""not sure what is going on, the white line is maybe people? too busy for my liking""}","","","","","","","","","","","","","","","","","","","","","","",""
"2725.5999999046326","","image-slider-response","110","809720","0.0-109.0","A29DF24JS60P35","","","","","-38","","","","","","","","","","","","","","","","","","","","","",""
"2395","","image-button-response","111","814724","0.0-110.0","A29DF24JS60P35","img_art/23.jpg","1","","","","","","","","","","","","","","","","","","","","","","","","",""
"759","","image-button-response","112","815487","0.0-111.0","A29DF24JS60P35","img_art/23.jpg","1","","","","","","","","","","","","","","","","","","","","","","","","",""
"4975","","image-button-response","113","820466","0.0-112.0-0.0","A29DF24JS60P35","img_art/23.jpg","5","","","","","","","","","","","","","","","","","","","","","","","","",""
"8620","","image-button-response","114","829091","0.0-113.0-0.0","A29DF24JS60P35","img_art/23.jpg","2","","","","","","","","","","","","","","","","","","","","","","","","",""
"null","","html-keyboard-response","115","829594","0.0-114.0","A29DF24JS60P35","<p style=""font-size: 48px;"">+</p>","","","","","null","allTrialResponses","500","1","10","img_art/23.jpg","-38","not sure what is going on, the white line is maybe people? too busy for my liking","Danielle,Kaylee,Mariah,Molly,Shelby,Madeline","While I don't normally enjoy these color schemes all together, I kind of like this one,10,340,20","i completely dont get it,-47,200,20","It feels active and vibrant.,20,140,20","Shocked, beautiful.,20,340,20","This feels so energized, i love it,50,240,20","background is great but the white is a bit weird,3,40,20","Kaylee","i completely dont get it,-47,200,20","Madeline","background is great but the white is a bit weird,3,40,20","Mariah","It feels active and vibrant.,20,140,20","2"
"3239","","survey-text","116","832846","0.0-115.0-0.0","A29DF24JS60P35","","","","{""Q0"":""our""}","","","","","","","","","","","","","","","","","","","","","","",""
"11065","","survey-text","117","843914","0.0-116.0-0.0","A29DF24JS60P35","","","","{""Q0"":""this one is just creepy""}","","","","","","","","","","","","","","","","","","","","","","",""
"2506.7000000476837","","image-slider-response","118","846424","0.0-117.0","A29DF24JS60P35","","","","","-50","","","","","","","","","","","","","","","","","","","","","",""
"null","","image-button-response","119","851433","0.0-118.0","A29DF24JS60P35","img_art/18.jpg","null","","","","","","","","","","","","","","","","","","","","","","","","",""
"12143","","image-button-response","120","863579","0.0-119.0","A29DF24JS60P35","img_art/18.jpg","5","","","","","","","","","","","","","","","","","","","","","","","","",""
"2868","","image-button-response","121","866452","0.0-120.0-0.0","A29DF24JS60P35","img_art/18.jpg","1","","","","","","","","","","","","","","","","","","","","","","","","",""
"2278","","image-button-response","122","868733","0.0-121.0-0.0","A29DF24JS60P35","img_art/18.jpg","2","","","","","","","","","","","","","","","","","","","","","","","","",""
"null","","html-keyboard-response","123","869234","0.0-122.0","A29DF24JS60P35","<p style=""font-size: 48px;"">+</p>","","","","","null","allTrialResponses","500","1","11","img_art/18.jpg","-50","this one is just creepy","Nicole,Kaylee,Mariah,Leslie,Kristen,Madeline","There's danger in this painting and it's awesome,40,20,20","looks like a war,22,200,20","It is too busy, but the colors are pleasant.,15,140,20","This is a very energetic painting, and brings to mind scenes of battle.,50,380,20","pegssus going into battle,25,280,20","Good concept but then scribbled on a bit?,15,40,20","Madeline","Good concept but then scribbled on a bit?,15,40,20","Kaylee","looks like a war,22,200,20","Mariah","It is too busy, but the colors are pleasant.,15,140,20","2"
"7634","","survey-text","124","876875","0.0-123.0-0.0","A29DF24JS60P35","","","","{""Q0"":""looks evil""}","","","","","","","","","","","","","","","","","","","","","","",""
"4441.700000047684","","image-slider-response","125","881320","0.0-124.0","A29DF24JS60P35","","","","","-50","","","","","","","","","","","","","","","","","","","","","",""
"null","","image-button-response","126","886325","0.0-125.0","A29DF24JS60P35","img_art/25.jpg","null","","","","","","","","","","","","","","","","","","","","","","","","",""
"1402","","image-button-response","127","887731","0.0-126.0","A29DF24JS60P35","img_art/25.jpg","0","","","","","","","","","","","","","","","","","","","","","","","","",""
"3077","","image-button-response","128","890811","0.0-127.0-0.0","A29DF24JS60P35","img_art/25.jpg","0","","","","","","","","","","","","","","","","","","","","","","","","",""
"1011","","image-button-response","129","894851","0.0-127.1-0.1","A29DF24JS60P35","img_art/25.jpg","2","","","","","","","","","","","","","","","","","","","","","","","","",""
"3855","","image-button-response","130","898710","0.0-128.0-0.0","A29DF24JS60P35","img_art/25.jpg","5","","","","","","","","","","","","","","","","","","","","","","","","",""
"null","","html-keyboard-response","131","899213","0.0-129.0","A29DF24JS60P35","<p style=""font-size: 48px;"">+</p>","","","","","null","allTrialResponses","500","1","12","img_art/25.jpg","-50","looks evil","Grace,Kaylee,Mariah,Emily,Miranda,Madeline","Scary. Something out of a Stephen King book/movie.,-31,180,20","is this an ancient woman?,-16,200,20","The proportions are unpleasant.,-30,140,20","Low skill not impressed.,-14,40,20","This looks cool but I don't really care for it. Some sort or religious figure?,16,320,20","It looks a bit strange to me, neck too long,-19,40,20","Grace","Scary. Something out of a Stephen King book/movie.,-31,180,20","Mariah","The proportions are unpleasant.,-30,140,20","Madeline","It looks a bit strange to me, neck too long,-19,40,20","4"
"27381","","survey-text","132","926599","0.0-130.0-0.0","A29DF24JS60P35","","","","{""Q0"":""although I usually don't like abstract art the colors in this really appeal to me""}","","","","","","","","","","","","","","","","","","","","","","",""
"2602.5","","image-slider-response","133","929204","0.0-131.0","A29DF24JS60P35","","","","","47","","","","","","","","","","","","","","","","","","","","","",""
"null","","image-button-response","134","934209","0.0-132.0","A29DF24JS60P35","img_art/1.jpg","null","","","","","","","","","","","","","","","","","","","","","","","","",""
"3858","","image-button-response","135","938069","0.0-133.0","A29DF24JS60P35","img_art/1.jpg","1","","","","","","","","","","","","","","","","","","","","","","","","",""
"2750","","image-button-response","136","940823","0.0-134.0-0.0","A29DF24JS60P35","img_art/1.jpg","0","","","","","","","","","","","","","","","","","","","","","","","","",""
"3783","","image-button-response","137","944612","0.0-135.0-0.0","A29DF24JS60P35","img_art/1.jpg","3","","","","","","","","","","","","","","","","","","","","","","","","",""
"null","","html-keyboard-response","138","945618","0.0-136.0","A29DF24JS60P35","<p style=""font-size: 48px;"">+</p>","","","","","null","allTrialResponses","1000","1","13","img_art/1.jpg","47","although I usually don't like abstract art the colors in this really appeal to me","Grace,Erin,Mariah,Isabella,Brooke,Madeline","Again, like the colors & abstractness.,29,180,20","Love the coloration and abstract figures,18,120,20","Colors are pleasant, but feels incredibly generic.,9,140,20","Warmth of the sun,22,280,20","It's okay, colors remind me of autumn.,10,60,20","Quite messy looking,-22,40,20","Erin","Love the coloration and abstract figures,18,120,20","Grace","Again, like the colors & abstractness.,29,180,20","Isabella","Warmth of the sun,22,280,20","4"
"12844","","survey-text","139","958475","0.0-137.0-0.0","A29DF24JS60P35","","","","{""Q0"":""What the heck, this is so weird""}","","","","","","","","","","","","","","","","","","","","","","",""
"3534.2000000476837","","image-slider-response","140","962012","0.0-138.0","A29DF24JS60P35","","","","","-50","","","","","","","","","","","","","","","","","","","","","",""
"null","","image-button-response","141","967020","0.0-139.0","A29DF24JS60P35","img_art/16.jpg","null","","","","","","","","","","","","","","","","","","","","","","","","",""
"3387","","image-button-response","142","970410","0.0-140.0","A29DF24JS60P35","img_art/16.jpg","5","","","","","","","","","","","","","","","","","","","","","","","","",""
"1227","","image-button-response","143","971639","0.0-141.0-0.0","A29DF24JS60P35","img_art/16.jpg","4","","","","","","","","","","","","","","","","","","","","","","","","",""
"5494","","image-button-response","144","977136","0.0-142.0-0.0","A29DF24JS60P35","img_art/16.jpg","0","","","","","","","","","","","","","","","","","","","","","","","","",""
"null","","html-keyboard-response","145","977639","0.0-143.0","A29DF24JS60P35","<p style=""font-size: 48px;"">+</p>","","","","","null","allTrialResponses","500","1","14","img_art/16.jpg","-50","What the heck, this is so weird","Grace,Erin,Julia,Isabella,Alyssa,Alexis","Something terrible happened. Either the figure on the right is the victim or another shredded toy.,-49,180,20","Not original. Bear is odd,-50,120,20","I love the teddy bear,50,40,20","This looks chaotic,-25,280,20","It creeps me out.,-50,160,20","Don't like this technique. Too serial killer.,-50,100,20","Alexis","Don't like this technique. Too serial killer.,-50,100,20","Alyssa","It creeps me out.,-50,160,20","Grace","Something terrible happened. Either the figure on the right is the victim or another shredded toy.,-49,180,20","4"
"20419","","survey-text","146","998066","0.0-144.0-0.0","A29DF24JS60P35","","","","{""Q0"":""Odd, but I like the blue splashes so it is overall not bad""}","","","","","","","","","","","","","","","","","","","","","","",""
"3128.7000000476837","","image-slider-response","147","1001198","0.0-145.0","A29DF24JS60P35","","","","","22","","","","","","","","","","","","","","","","","","","","","",""
"null","","image-button-response","148","1006206","0.0-146.0","A29DF24JS60P35","img_art/15.jpg","null","","","","","","","","","","","","","","","","","","","","","","","","",""
"3156","","image-button-response","149","1009366","0.0-147.0","A29DF24JS60P35","img_art/15.jpg","3","","","","","","","","","","","","","","","","","","","","","","","","",""
"3098","","image-button-response","150","1012467","0.0-148.0-0.0","A29DF24JS60P35","img_art/15.jpg","5","","","","","","","","","","","","","","","","","","","","","","","","",""
"1092","","image-button-response","151","1013564","0.0-149.0-0.0","A29DF24JS60P35","img_art/15.jpg","2","","","","","","","","","","","","","","","","","","","","","","","","",""
"null","","html-keyboard-response","152","1015072","0.0-150.0","A29DF24JS60P35","<p style=""font-size: 48px;"">+</p>","","","","","null","allTrialResponses","1500","1","15","img_art/15.jpg","22","Odd, but I like the blue splashes so it is overall not bad","Grace,Rebecca,Alexa,Amy,Alyssa,Alexis","Interesting. Reminds me of a biopsy slide.,21,180,20","very unsettling! like reverse porcelain esp because of the colors,28,100,20","Although it looks a bit bland in terms of color, I really like the print/pattern,25,40,20","basic colors and pleasing shapes providing a calming effect,15,220,20","Uninteresting and too much black,-30,160,20","Not a fan of abstract, but the black is very striking,10,100,20","Amy","basic colors and pleasing shapes providing a calming effect,15,220,20","Alexis","Not a fan of abstract, but the black is very striking,10,100,20","Alexa","Although it looks a bit bland in terms of color, I really like the print/pattern,25,40,20","4"
"3584","","survey-text","153","1018671","0.0-151.0-0.0","A29DF24JS60P35","","","","{""Q0"":""course""}","","","","","","","","","","","","","","","","","","","","","","",""
"53233","","survey-text","154","1071908","0.0-152.0-0.0","A29DF24JS60P35","","","","{""Q0"":""looks like something any preschooler could do and in fact a preschooler could probably do better and use nicer colors""}","","","","","","","","","","","","","","","","","","","","","","",""
"3459.7999999523163","","image-slider-response","155","1075372","0.0-153.0","A29DF24JS60P35","","","","","-50","","","","","","","","","","","","","","","","","","","","","",""
"null","","image-button-response","156","1080381","0.0-154.0","A29DF24JS60P35","img_art/2.jpg","null","","","","","","","","","","","","","","","","","","","","","","","","",""
"2147","","image-button-response","157","1082533","0.0-155.0","A29DF24JS60P35","img_art/2.jpg","3","","","","","","","","","","","","","","","","","","","","","","","","",""
"3208","","image-button-response","158","1085744","0.0-156.0-0.0","A29DF24JS60P35","img_art/2.jpg","5","","","","","","","","","","","","","","","","","","","","","","","","",""
"4313","","image-button-response","159","1090060","0.0-157.0-0.0","A29DF24JS60P35","img_art/2.jpg","4","","","","","","","","","","","","","","","","","","","","","","","","",""
"null","","html-keyboard-response","160","1091064","0.0-158.0","A29DF24JS60P35","<p style=""font-size: 48px;"">+</p>","","","","","null","allTrialResponses","1000","1","16","img_art/2.jpg","-50","looks like something any preschooler could do and in fact a preschooler could probably do better and use nicer colors","Angela,Breanna,Alexa,Amy,Jordan,Alexis","Only like the blues and teals in this. The rest is unappealing.,-15,260,20","It's just a splash of paint on a canvas,-31,380,20","Not my favorite but I can see this being hung in a art museum,25,40,20","The color palette of this painting is for me displeasing and immature.,-30,220,20","I can't get past the fact that it looks like someone wearing a mask,-46,20,20","Do not like this type of abstract work,-50,100,20","Amy","The color palette of this painting is for me displeasing and immature.,-30,220,20","Alexis","Do not like this type of abstract work,-50,100,20","Jordan","I can't get past the fact that it looks like someone wearing a mask,-46,20,20","4"
"45435","","survey-text","161","1136508","0.0-159.0-0.0","A29DF24JS60P35","","","","{""Q0"":""the orange is pretty and so is the yellow but then it looks like someone did a football formation in the middle in green""}","","","","","","","","","","","","","","","","","","","","","","",""
"3089","","image-slider-response","162","1139601","0.0-160.0","A29DF24JS60P35","","","","","-45","","","","","","","","","","","","","","","","","","","","","",""
"null","","image-button-response","163","1144611","0.0-161.0","A29DF24JS60P35","img_art/27.jpg","null","","","","","","","","","","","","","","","","","","","","","","","","",""
"1892","","image-button-response","164","1146508","0.0-162.0","A29DF24JS60P35","img_art/27.jpg","0","","","","","","","","","","","","","","","","","","","","","","","","",""
"1259","","image-button-response","165","1147770","0.0-163.0-0.0","A29DF24JS60P35","img_art/27.jpg","1","","","","","","","","","","","","","","","","","","","","","","","","",""
"5933","","image-button-response","166","1153706","0.0-164.0-0.0","A29DF24JS60P35","img_art/27.jpg","5","","","","","","","","","","","","","","","","","","","","","","","","",""
"null","","html-keyboard-response","167","1155214","0.0-165.0","A29DF24JS60P35","<p style=""font-size: 48px;"">+</p>","","","","","null","allTrialResponses","1500","1","17","img_art/27.jpg","-45","the orange is pretty and so is the yellow but then it looks like someone did a football formation in the middle in green","Marissa,Anna,Gabrielle,Amy,Jordan,Alexis","I am bothered by the green doodles,-20,160,20","It looks like when my little sister took magic markers to the wall.,-11,300,20","like the patterns and colors all but the orange blob on the right,32,160,20","The colors provide a complexity to the nearly child-like sketches.,5,220,20","two warring cities, separated by a small desert,50,20,20","Too abstract, doesn't remind me of anything,-42,100,20","Marissa","I am bothered by the green doodles,-20,160,20","Anna","It looks like when my little sister took magic markers to the wall.,-11,300,20","Alexis","Too abstract, doesn't remind me of anything,-42,100,20","4"
"33439","","survey-text","168","1188662","0.0-166.0-0.0","A29DF24JS60P35","","","","{""Q0"":""beautiful hues of purple and blue, reminds me of spring""}","","","","","","","","","","","","","","","","","","","","","","",""
"5866.700000047684","","image-slider-response","169","1194533","0.0-167.0","A29DF24JS60P35","","","","","50","","","","","","","","","","","","","","","","","","","","","",""
"null","","image-button-response","170","1199540","0.0-168.0","A29DF24JS60P35","img_art/17.jpg","null","","","","","","","","","","","","","","","","","","","","","","","","",""
"588","","image-button-response","171","1200131","0.0-169.0","A29DF24JS60P35","img_art/17.jpg","0","","","","","","","","","","","","","","","","","","","","","","","","",""
"4371","","image-button-response","172","1204506","0.0-170.0-0.0","A29DF24JS60P35","img_art/17.jpg","5","","","","","","","","","","","","","","","","","","","","","","","","",""
"823","","image-button-response","173","1205333","0.0-171.0-0.0","A29DF24JS60P35","img_art/17.jpg","2","","","","","","","","","","","","","","","","","","","","","","","","",""
"null","","html-keyboard-response","174","1205837","0.0-172.0","A29DF24JS60P35","<p style=""font-size: 48px;"">+</p>","","","","","null","allTrialResponses","500","1","18","img_art/17.jpg","50","beautiful hues of purple and blue, reminds me of spring","Marissa,Anna,Hailey,Victoria,Chelsea,Alexis","This reminds me of spring,24,160,20","it brings a clear picture to my minds eye:,45,300,20","soft and warm light colors are relaxing,12,200,20","love the wispyness of it,34,400,20","The colors are soft.,32,180,20","Love the color and nature motif,36,100,20","Marissa","This reminds me of spring,24,160,20","Alexis","Love the color and nature motif,36,100,20","Hailey","soft and warm light colors are relaxing,12,200,20","4"
"18796","","survey-text","175","1224642","0.0-173.0-0.0","A29DF24JS60P35","","","","{""Q0"":""Is this a early prototype for Google Maps?""}","","","","","","","","","","","","","","","","","","","","","","",""
"3119.199999809265","","image-slider-response","176","1227767","0.0-174.0","A29DF24JS60P35","","","","","-50","","","","","","","","","","","","","","","","","","","","","",""
"null","","image-button-response","177","1232773","0.0-175.0","A29DF24JS60P35","img_art/29.jpg","null","","","","","","","","","","","","","","","","","","","","","","","","",""
"2656","","image-button-response","178","1235432","0.0-176.0","A29DF24JS60P35","img_art/29.jpg","0","","","","","","","","","","","","","","","","","","","","","","","","",""
"2152","","image-button-response","179","1237587","0.0-177.0-0.0","A29DF24JS60P35","img_art/29.jpg","4","","","","","","","","","","","","","","","","","","","","","","","","",""
"2696","","image-button-response","180","1240287","0.0-178.0-0.0","A29DF24JS60P35","img_art/29.jpg","3","","","","","","","","","","","","","","","","","","","","","","","","",""
"null","","html-keyboard-response","181","1241794","0.0-179.0","A29DF24JS60P35","<p style=""font-size: 48px;"">+</p>","","","","","null","allTrialResponses","1500","1","19","img_art/29.jpg","-50","Is this a early prototype for Google Maps?","Marissa,Hannah,Hailey,Abigail,Destiny,Alexis","It makes me feel as though the artist put in a lot of time and effort and then gave up,10,160,20","I don't like the red X through it.,-20,240,20","a hot fireplace with things to burn. warm,12,200,20","Messy and disorganized, to odark,-31,20,20","is this supposed to be edgy,-21,360,20","The black color is great, but I'm really not a fan of this hectic style,-40,100,20","Marissa","It makes me feel as though the artist put in a lot of time and effort and then gave up,10,160,20","Destiny","is this supposed to be edgy,-21,360,20","Abigail","Messy and disorganized, to odark,-31,20,20","4"
"29053","","survey-text","182","1270855","0.0-180.0-0.0","A29DF24JS60P35","","","","{""Q0"":""kid that got ahold of a red sharpie""}","","","","","","","","","","","","","","","","","","","","","","",""
"5332.099999904633","","image-slider-response","183","1276191","0.0-181.0","A29DF24JS60P35","","","","","-50","","","","","","","","","","","","","","","","","","","","","",""
"null","","image-button-response","184","1281200","0.0-182.0","A29DF24JS60P35","img_art/3.jpg","null","","","","","","","","","","","","","","","","","","","","","","","","",""
"1500","","image-button-response","185","1282704","0.0-183.0","A29DF24JS60P35","img_art/3.jpg","1","","","","","","","","","","","","","","","","","","","","","","","","",""
"5982","","image-button-response","186","1288688","0.0-184.0-0.0","A29DF24JS60P35","img_art/3.jpg","4","","","","","","","","","","","","","","","","","","","","","","","","",""
"3257","","image-button-response","187","1291949","0.0-185.0-0.0","A29DF24JS60P35","img_art/3.jpg","3","","","","","","","","","","","","","","","","","","","","","","","","",""
"null","","html-keyboard-response","188","1293459","0.0-186.0","A29DF24JS60P35","<p style=""font-size: 48px;"">+</p>","","","","","null","allTrialResponses","1500","1","20","img_art/3.jpg","-50","kid that got ahold of a red sharpie","Marissa,Jennifer,Kylie,Abigail,Destiny,Meghan","It feels like a half assed and failed imitation of Japanese signatures on old paintings,-22,160,20","This looks like something a child created in 5 minutes.,-50,380,20","Confusion and mayhem,-10,300,20","Reminded me of blood or something bad,-21,20,20","im just getting more agitated and less appreciative of art. I have absolutely no scale to base on,-34,360,20","I like that it's messy,14,220,20","Jennifer","This looks like something a child created in 5 minutes.,-50,380,20","Destiny","im just getting more agitated and less appreciative of art. I have absolutely no scale to base on,-34,360,20","Abigail","Reminded me of blood or something bad,-21,20,20","4"
"4805","","survey-text","189","1298280","0.0-187.0-0.0","A29DF24JS60P35","","","","{""Q0"":""we""}","","","","","","","","","","","","","","","","","","","","","","",""
"14944","","survey-text","190","1313228","0.0-188.0-0.0","A29DF24JS60P35","","","","{""Q0"":""it reminds me of peacock""}","","","","","","","","","","","","","","","","","","","","","","",""
"2339.899999856949","","image-slider-response","191","1315572","0.0-189.0","A29DF24JS60P35","","","","","20","","","","","","","","","","","","","","","","","","","","","",""
"null","","image-button-response","192","1320582","0.0-190.0","A29DF24JS60P35","img_art/9.jpg","null","","","","","","","","","","","","","","","","","","","","","","","","",""
"74606","","image-button-response","193","1395192","0.0-191.0","A29DF24JS60P35","img_art/9.jpg","4","","","","","","","","","","","","","","","","","","","","","","","","",""
"3276","","image-button-response","194","1398473","0.0-192.0-0.0","A29DF24JS60P35","img_art/9.jpg","5","","","","","","","","","","","","","","","","","","","","","","","","",""
"4329","","image-button-response","195","1402806","0.0-193.0-0.0","A29DF24JS60P35","img_art/9.jpg","2","","","","","","","","","","","","","","","","","","","","","","","","",""
"null","","html-keyboard-response","196","1404314","0.0-194.0","A29DF24JS60P35","<p style=""font-size: 48px;"">+</p>","","","","","null","allTrialResponses","1500","1","21","img_art/9.jpg","20","it reminds me of peacock","Laura,Jennifer,Sarah,Abigail,Destiny,Allison","autopsy, morgue, dead corpses - don't like the flesh tones,-43,320,20","This piece is very boring to look at.,-27,380,20","I really like the color balance but the image is odd,-5,180,20","Reminds me of a cave in a scary movie,-21,20,20","is that sleeping beauty,33,360,20","Very eclectic and messy. Not my preference, but may work for some.,-20,140,20","Destiny","is that sleeping beauty,33,360,20","Allison","Very eclectic and messy. Not my preference, but may work for some.,-20,140,20","Sarah","I really like the color balance but the image is odd,-5,180,20","4"
"13836","","survey-text","197","1418160","0.0-195.0-0.0","A29DF24JS60P35","","","","{""Q0"":""a musical symphony ""}","","","","","","","","","","","","","","","","","","","","","","",""
"48586.5","","image-slider-response","198","1466748","0.0-196.0","A29DF24JS60P35","","","","","6","","","","","","","","","","","","","","","","","","","","","",""
"null","","image-button-response","199","1471753","0.0-197.0","A29DF24JS60P35","img_art/10.jpg","null","","","","","","","","","","","","","","","","","","","","","","","","",""
"5308","","image-button-response","200","1477064","0.0-198.0","A29DF24JS60P35","img_art/10.jpg","2","","","","","","","","","","","","","","","","","","","","","","","","",""
"1607","","image-button-response","201","1478674","0.0-199.0-0.0","A29DF24JS60P35","img_art/10.jpg","0","","","","","","","","","","","","","","","","","","","","","","","","",""
"677","","image-button-response","202","1479354","0.0-200.0-0.0","A29DF24JS60P35","img_art/10.jpg","1","","","","","","","","","","","","","","","","","","","","","","","","",""
"null","","html-keyboard-response","203","1479856","0.0-201.0","A29DF24JS60P35","<p style=""font-size: 48px;"">+</p>","","","","","null","allTrialResponses","500","1","22","img_art/10.jpg","6","a musical symphony ","Sophia,Melissa,Sarah,Vanessa,Destiny,Allison","This piece is very intriguing to me.,3,280,20","shapes are appealing/relationship between the beige square and the black lines,24,240,20","i like this, the mix of brush textures is cool,24,180,20","It's interesting and my eyes keep being drawn to different parts of the picture.,11,380,20","The more I look the more I like. Reminds me of a rollercoaster and a war scene. A lot going on which is unnerving, like a rollercoaster but still fun,22,360,20","I like the contrast,10,140,20","Sarah","i like this, the mix of brush textures is cool,24,180,20","Sophia","This piece is very intriguing to me.,3,280,20","Melissa","shapes are appealing/relationship between the beige square and the black lines,24,240,20","4"
"16342","","survey-text","204","1496207","0.0-202.0-0.0","A29DF24JS60P35","","","","{""Q0"":""a park in the fall""}","","","","","","","","","","","","","","","","","","","","","","",""
"2911.7000000476837","","image-slider-response","205","1499121","0.0-203.0","A29DF24JS60P35","","","","","26","","","","","","","","","","","","","","","","","","","","","",""
"null","","image-button-response","206","1504128","0.0-204.0","A29DF24JS60P35","img_art/26.jpg","null","","","","","","","","","","","","","","","","","","","","","","","","",""
"4497","","image-button-response","207","1508629","0.0-205.0","A29DF24JS60P35","img_art/26.jpg","0","","","","","","","","","","","","","","","","","","","","","","","","",""
"7308","","image-button-response","208","1515940","0.0-206.0-0.0","A29DF24JS60P35","img_art/26.jpg","3","","","","","","","","","","","","","","","","","","","","","","","","",""
"1466","","image-button-response","209","1517410","0.0-207.0-0.0","A29DF24JS60P35","img_art/26.jpg","5","","","","","","","","","","","","","","","","","","","","","","","","",""
"null","","html-keyboard-response","210","1517915","0.0-208.0","A29DF24JS60P35","<p style=""font-size: 48px;"">+</p>","","","","","null","allTrialResponses","500","1","23","img_art/26.jpg","26","a park in the fall","Sophia,Melissa,Sarah,Kimberly,Bailey,Cassandra","I like this. Looks like a city street and I can use my imagination to make it come alive.,15,280,20","feels incomplete,-50,240,20","too hard to figure out if it's meant to be actual objects or impressions,-36,180,20","It looks like I'm staring out of the window of a nice house, but the house is mine,20,260,20","Too blocky and unfocused. It's like the inside of a house, and the outside.,-24,360,20","Neutral...nothing to say.,3,120,20","Sophia","I like this. Looks like a city street and I can use my imagination to make it come alive.,15,280,20","Kimberly","It looks like I'm staring out of the window of a nice house, but the house is mine,20,260,20","Cassandra","Neutral...nothing to say.,3,120,20","4"
"31395","","survey-text","211","1549321","0.0-209.0-0.0","A29DF24JS60P35","","","","{""Q0"":""looks like a ship coming back from sea at dawn""}","","","","","","","","","","","","","","","","","","","","","","",""
"4574.299999952316","","image-slider-response","212","1553899","0.0-210.0","A29DF24JS60P35","","","","","50","","","","","","","","","","","","","","","","","","","","","",""
"null","","image-button-response","213","1558908","0.0-211.0","A29DF24JS60P35","img_art/21.jpg","null","","","","","","","","","","","","","","","","","","","","","","","","",""
"1483","","image-button-response","214","1560396","0.0-212.0","A29DF24JS60P35","img_art/21.jpg","3","","","","","","","","","","","","","","","","","","","","","","","","",""
"2161","","image-button-response","215","1562560","0.0-213.0-0.0","A29DF24JS60P35","img_art/21.jpg","1","","","","","","","","","","","","","","","","","","","","","","","","",""
"2632","","image-button-response","216","1565197","0.0-214.0-0.0","A29DF24JS60P35","img_art/21.jpg","5","","","","","","","","","","","","","","","","","","","","","","","","",""
"null","","html-keyboard-response","217","1566201","0.0-215.0","A29DF24JS60P35","<p style=""font-size: 48px;"">+</p>","","","","","null","allTrialResponses","1000","1","24","img_art/21.jpg","50","looks like a ship coming back from sea at dawn","Sophia,Alexandria,Sara,Kimberly,Kaitlyn,Cassandra","Indifferent toward this one.,6,280,20","the vast colors make me happy,15,80,20","It looks confusing,-21,160,20","Another swathe of ocean,31,260,20","The division in the picture is pleasing but the random white dots are distracting,12,80,20","I liked it...it looked like a storm raging.,12,120,20","Kimberly","Another swathe of ocean,31,260,20","Alexandria","the vast colors make me happy,15,80,20","Cassandra","I liked it...it looked like a storm raging.,12,120,20","4"
"17457","","survey-text","218","1583668","0.0-216.0-0.0","A29DF24JS60P35","","","","{""Q0"":""It's the old west a ghost town with a cow skull""}","","","","","","","","","","","","","","","","","","","","","","",""
"4464.199999809265","","image-slider-response","219","1588136","0.0-217.0","A29DF24JS60P35","","","","","-2","","","","","","","","","","","","","","","","","","","","","",""
"null","","image-button-response","220","1593144","0.0-218.0","A29DF24JS60P35","img_art/20.jpg","null","","","","","","","","","","","","","","","","","","","","","","","","",""
"1404","","image-button-response","221","1594552","0.0-219.0","A29DF24JS60P35","img_art/20.jpg","0","","","","","","","","","","","","","","","","","","","","","","","","",""
"4420","","image-button-response","222","1598974","0.0-220.0-0.0","A29DF24JS60P35","img_art/20.jpg","4","","","","","","","","","","","","","","","","","","","","","","","","",""
"919","","image-button-response","223","1599897","0.0-221.0-0.0","A29DF24JS60P35","img_art/20.jpg","2","","","","","","","","","","","","","","","","","","","","","","","","",""
"null","","html-keyboard-response","224","1600901","0.0-222.0","A29DF24JS60P35","<p style=""font-size: 48px;"">+</p>","","","","","null","allTrialResponses","1000","1","25","img_art/20.jpg","-2","It's the old west a ghost town with a cow skull","Caitlin,Alexandria,Jenna,Kimberly,Alexandra,Cassandra","Not bad for all the southwestern people.,15,80,20","it looks like a car crash which is depressing,-19,80,20","could look for hours. love the brush work. color choices look like a desert.,50,360,20","Something bad has happened TO reality,-23,260,20","The white blob looks like a face and it's creepy,-30,60,20","I liked this...I liked the blue and the black and I liked the smoothness to it.,31,120,20","Caitlin","Not bad for all the southwestern people.,15,80,20","Alexandra","The white blob looks like a face and it's creepy,-30,60,20","Jenna","could look for hours. love the brush work. color choices look like a desert.,50,360,20","4"
"4007","","survey-text","225","1604926","0.0-223.0-0.0","A29DF24JS60P35","","","","{""Q0"":""table""}","","","","","","","","","","","","","","","","","","","","","","",""
"17573","","survey-text","226","1622500","0.0-224.0-0.0","A29DF24JS60P35","","","","{""Q0"":""looks like a pot full of cooking utensils""}","","","","","","","","","","","","","","","","","","","","","","",""
"8271","","image-slider-response","227","1630774","0.0-225.0","A29DF24JS60P35","","","","","-1","","","","","","","","","","","","","","","","","","","","","",""
"null","","image-button-response","228","1635780","0.0-226.0","A29DF24JS60P35","img_art/4.jpg","null","","","","","","","","","","","","","","","","","","","","","","","","",""
"8183","","image-button-response","229","1643966","0.0-227.0","A29DF24JS60P35","img_art/4.jpg","1","","","","","","","","","","","","","","","","","","","","","","","","",""
"3675","","image-button-response","230","1647645","0.0-228.0-0.0","A29DF24JS60P35","img_art/4.jpg","3","","","","","","","","","","","","","","","","","","","","","","","","",""
"1180","","image-button-response","231","1648829","0.0-229.0-0.0","A29DF24JS60P35","img_art/4.jpg","2","","","","","","","","","","","","","","","","","","","","","","","","",""
"null","","html-keyboard-response","232","1649332","0.0-230.0","A29DF24JS60P35","<p style=""font-size: 48px;"">+</p>","","","","","null","allTrialResponses","500","1","26","img_art/4.jpg","-1","looks like a pot full of cooking utensils","Caitlin,Paige,Jenna,Jessica,Alexandra,Samantha","They give out trophies now for fighting with brass knuckles?,-20,80,20","the colors are calming,31,60,20","creepy, looks like a deformed hand, but the background is pretty,5,360,20","Looks like they just smothered on some paint and called it a day.,-17,400,20","This artwork looks like a child did it,-41,60,20","I domt like the yellow black blended smear,-50,140,20","Paige","the colors are calming,31,60,20","Jessica","Looks like they just smothered on some paint and called it a day.,-17,400,20","Jenna","creepy, looks like a deformed hand, but the background is pretty,5,360,20","4"
"12972","","survey-text","233","1662314","0.0-231.0-0.0","A29DF24JS60P35","","","","{""Q0"":""looks like a castle""}","","","","","","","","","","","","","","","","","","","","","","",""
"1968","","image-slider-response","234","1664286","0.0-232.0","A29DF24JS60P35","","","","","24","","","","","","","","","","","","","","","","","","","","","",""
"null","","image-button-response","235","1669289","0.0-233.0","A29DF24JS60P35","img_art/22.jpg","null","","","","","","","","","","","","","","","","","","","","","","","","",""
"601","","image-button-response","236","1669893","0.0-234.0","A29DF24JS60P35","img_art/22.jpg","1","","","","","","","","","","","","","","","","","","","","","","","","",""
"1040","","image-button-response","237","1670937","0.0-235.0-0.0","A29DF24JS60P35","img_art/22.jpg","4","","","","","","","","","","","","","","","","","","","","","","","","",""
"1984","","image-button-response","238","1672925","0.0-236.0-0.0","A29DF24JS60P35","img_art/22.jpg","2","","","","","","","","","","","","","","","","","","","","","","","","",""
"null","","html-keyboard-response","239","1673429","0.0-237.0","A29DF24JS60P35","<p style=""font-size: 48px;"">+</p>","","","","","null","allTrialResponses","500","1","27","img_art/22.jpg","24","looks like a castle","Monica,Paige,Jenna,Jessica,Claire,Brianna","I really like the bright colors and sunset feel,31,360,20","Happy. I like to colors,33,60,20","beautiful. love the bright colors & soft brush strokes, and the imprint of the key is genius.,50,360,20","I like the mixing of the primary colors.,8,400,20","I enjoy the colors used,24,260,20","Like the black key and the rainbow color theme.,31,20,20","Paige","Happy. I like to colors,33,60,20","Claire","I enjoy the colors used,24,260,20","Jenna","beautiful. love the bright colors & soft brush strokes, and the imprint of the key is genius.,50,360,20","4"
"18736","","survey-text","240","1692175","0.0-238.0-0.0","A29DF24JS60P35","","","","{""Q0"":""a crow sitting on the desert""}","","","","","","","","","","","","","","","","","","","","","","",""
"4131.299999952316","","image-slider-response","241","1696310","0.0-239.0","A29DF24JS60P35","","","","","4","","","","","","","","","","","","","","","","","","","","","",""
"null","","image-button-response","242","1701314","0.0-240.0","A29DF24JS60P35","img_art/6.jpg","null","","","","","","","","","","","","","","","","","","","","","","","","",""
"4179","","image-button-response","243","1705497","0.0-241.0","A29DF24JS60P35","img_art/6.jpg","5","","","","","","","","","","","","","","","","","","","","","","","","",""
"809","","image-button-response","244","1706309","0.0-242.0-0.0","A29DF24JS60P35","img_art/6.jpg","4","","","","","","","","","","","","","","","","","","","","","","","","",""
"2783","","image-button-response","245","1709096","0.0-243.0-0.0","A29DF24JS60P35","img_art/6.jpg","3","","","","","","","","","","","","","","","","","","","","","","","","",""
"null","","html-keyboard-response","246","1710100","0.0-244.0","A29DF24JS60P35","<p style=""font-size: 48px;"">+</p>","","","","","null","allTrialResponses","1000","1","28","img_art/6.jpg","4","a crow sitting on the desert","Heather,Paige,Jenna,Mackenzie,Claire,Dominique","it looks like a stick holding a wig on a cliff,21,260,20","Kind of boring. I don't care for many abstracts,1,60,20","I like the bottom half, but not the top,-7,360,20","I enjoy the color contrast.,20,20,20","very minimalistic,22,260,20","Calm and catching,30,400,20","Dominique","Calm and catching,30,400,20","Claire","very minimalistic,22,260,20","Mackenzie","I enjoy the color contrast.,20,20,20","4"
"15901","","survey-text","247","1726014","0.0-245.0-0.0","A29DF24JS60P35","","","","{""Q0"":""pretty sure my 2 year old made this""}","","","","","","","","","","","","","","","","","","","","","","",""
"2727.7000000476837","","image-slider-response","248","1728745","0.0-246.0","A29DF24JS60P35","","","","","-25","","","","","","","","","","","","","","","","","","","","","",""
"null","","image-button-response","249","1733754","0.0-247.0","A29DF24JS60P35","img_art/30.jpg","null","","","","","","","","","","","","","","","","","","","","","","","","",""
"3812","","image-button-response","250","1737570","0.0-248.0","A29DF24JS60P35","img_art/30.jpg","1","","","","","","","","","","","","","","","","","","","","","","","","",""
"889","","image-button-response","251","1738462","0.0-249.0-0.0","A29DF24JS60P35","img_art/30.jpg","0","","","","","","","","","","","","","","","","","","","","","","","","",""
"1101","","image-button-response","252","1739567","0.0-250.0-0.0","A29DF24JS60P35","img_art/30.jpg","4","","","","","","","","","","","","","","","","","","","","","","","","",""
"null","","html-keyboard-response","253","1740071","0.0-251.0","A29DF24JS60P35","<p style=""font-size: 48px;"">+</p>","","","","","null","allTrialResponses","500","1","29","img_art/30.jpg","-25","pretty sure my 2 year old made this","Cheyenne,Megan,Madison,Mackenzie,Claire,Dominique","A bit too dark for my liking,-10,200,20","10 year old 10 minute project ""Fun with Painting"",-42,200,20","Interesting brushstroke work, but not particularly memorable.,21,60,20","I like the forefront design.,10,20,20","too segmented, looks sloppy,-37,260,20","Personal , calming conservative signature business ideal.,32,400,20","Megan","10 year old 10 minute project ""Fun with Painting"",-42,200,20","Cheyenne","A bit too dark for my liking,-10,200,20","Claire","too segmented, looks sloppy,-37,260,20","4"
"20592","","survey-text","254","1760674","0.0-252.0-0.0","A29DF24JS60P35","","","","{""Q0"":""a bicycle parked on the street, colors are interesting""}","","","","","","","","","","","","","","","","","","","","","","",""
"3318","","image-slider-response","255","1763996","0.0-253.0","A29DF24JS60P35","","","","","15","","","","","","","","","","","","","","","","","","","","","",""
"null","","image-button-response","256","1769006","0.0-254.0","A29DF24JS60P35","img_art/28.jpg","null","","","","","","","","","","","","","","","","","","","","","","","","",""
"765","","image-button-response","257","1769774","0.0-255.0","A29DF24JS60P35","img_art/28.jpg","5","","","","","","","","","","","","","","","","","","","","","","","","",""
"1174","","image-button-response","258","1770950","0.0-256.0-0.0","A29DF24JS60P35","img_art/28.jpg","2","","","","","","","","","","","","","","","","","","","","","","","","",""
"1338","","image-button-response","259","1772292","0.0-257.0-0.0","A29DF24JS60P35","img_art/28.jpg","0","","","","","","","","","","","","","","","","","","","","","","","","",""
"null","","html-keyboard-response","260","1773799","0.0-258.0","A29DF24JS60P35","<p style=""font-size: 48px;"">+</p>","","","","","null","allTrialResponses","1500","1","30","img_art/28.jpg","15","a bicycle parked on the street, colors are interesting","Cheyenne,Megan,Erika,Rachel,Claire,Natalie","Good use of shapes.,7,200,20","Compact grey mess lack negative space,-10,200,20","Invokes curiosity, I want to know it's story.,15,100,20","Too muted and bland. I like my art to be vivid.,-11,80,20","not a fan of the colors or strokes used,-27,260,20","it looks alright,-1,400,20","Natalie","it looks alright,-1,400,20","Erika","Invokes curiosity, I want to know it's story.,15,100,20","Cheyenne","Good use of shapes.,7,200,20","4"
"5575","","image-button-response_instructions","261","1779385","0.0-259.0","A29DF24JS60P35","","0","instructions","","","","","","","","","","","","","","","","","","","","","","","",""
"1521","","image-button-response","262","1780917","0.0-260.0","A29DF24JS60P35","","0","","","","","","","","","","","","","","","","","","","","","","","","",""
