"rt","url","trial_type","trial_index","time_elapsed","internal_node_id","participant_id","stimulus","button_pressed","Name","responses","response","key_press","variableName","fixationTime","condition","trial","photo","subjectRating","subjectResponse","agentsNames","agent_1_Response","agent_2_Response","agent_3_Response","agent_4_Response","agent_5_Response","agent_6_Response","kept_1_name","kept_1_response","kept_2_name","kept_2_response","kept_3_name","kept_3_response","errorCounter"
"22724","external_page_harvard.html","external-html","0","22875","0.0-0.0","A29HNN7SWL3N31","","","","","","","","","","","","","","","","","","","","","","","","","","",""
"3183","","image-button-response","1","26060","0.0-1.0","A29HNN7SWL3N31","","1","","","","","","","","","","","","","","","","","","","","","","","","",""
"1862","","image-button-response","2","27932","0.0-2.0-0.0","A29HNN7SWL3N31","","1","phone","","","","","","","","","","","","","","","","","","","","","","","",""
"4360","","survey-text","3","32292","0.0-3.0-0.0","A29HNN7SWL3N31","","","","{""Q0"":""A29HNN7SWL3N31""}","","","","","","","","","","","","","","","","","","","","","","",""
"6213","","image-button-response_instructions","4","38507","0.0-4.0","A29HNN7SWL3N31","","0","instructions","","","","","","","","","","","","","","","","","","","","","","","",""
"239796","","image-button-response_instructions","5","278310","0.0-5.0","A29HNN7SWL3N31","img_art/ins/popularity/ins1.png","0","instructions","","","","","","","","","","","","","","","","","","","","","","","",""
"6952","","image-button-response_instructions","6","285264","0.0-6.0","A29HNN7SWL3N31","img_art/ins/popularity/ins2.png","0","instructions","","","","","","","","","","","","","","","","","","","","","","","",""
"11689","","image-button-response_instructions","7","296958","0.0-7.0","A29HNN7SWL3N31","img_art/ins/popularity/ins2Extreme.png","0","instructions","","","","","","","","","","","","","","","","","","","","","","","",""
"67127","","image-button-response_instructions","8","364089","0.0-8.0","A29HNN7SWL3N31","img_art/ins/popularity/ins3KEEPpop.PNG","0","instructions","","","","","","","","","","","","","","","","","","","","","","","",""
"14716","","image-button-response_instructions","9","378805","0.0-9.0","A29HNN7SWL3N31","img_art/ins/popularity/ins3ANamepop.PNG","0","instructions","","","","","","","","","","","","","","","","","","","","","","","",""
"6374","","image-button-response_instructions","10","385188","0.0-10.0","A29HNN7SWL3N31","img_art/ins/popularity/ins3ARatingpop.png","0","instructions","","","","","","","","","","","","","","","","","","","","","","","",""
"3631","","image-button-response_instructions","11","388831","0.0-11.0","A29HNN7SWL3N31","img_art/ins/popularity/ins3ATextpop.png","0","instructions","","","","","","","","","","","","","","","","","","","","","","","",""
"4392","","image-button-response_instructions","12","393224","0.0-12.0","A29HNN7SWL3N31","img_art/ins/popularity/ins3ALikespop.png","0","instructions","","","","","","","","","","","","","","","","","","","","","","","",""
"1766","","image-button-response_instructions","13","394990","0.0-13.0","A29HNN7SWL3N31","img_art/ins/popularity/ins3KEEPpop.PNG","0","instructions","","","","","","","","","","","","","","","","","","","","","","","",""
"63321","","image-button-response_instructions","14","458312","0.0-14.0","A29HNN7SWL3N31","img_art/ins/popularity/ins3_5RED.png","0","instructions","","","","","","","","","","","","","","","","","","","","","","","",""
"362105","","image-button-response_instructions","15","820418","0.0-15.0","A29HNN7SWL3N31","img_art/ins/popularity/ins3KEEPpop.PNG","0","instructions","","","","","","","","","","","","","","","","","","","","","","","",""
"6120","","image-button-response_instructions","16","826539","0.0-16.0","A29HNN7SWL3N31","img_art/ins/popularity/ins4KEEPpop.PNG","0","instructions","","","","","","","","","","","","","","","","","","","","","","","",""
"4623","","image-button-response_instructions","17","831168","0.0-17.0","A29HNN7SWL3N31","img_art/ins/popularity/ins5KEEPpop.PNG","0","instructions","","","","","","","","","","","","","","","","","","","","","","","",""
"2703","","image-button-response_instructions","18","833877","0.0-18.0","A29HNN7SWL3N31","","0","instructions","","","","","","","","","","","","","","","","","","","","","","","",""
"9681","","survey-text","19","843588","0.0-19.0-0.0","A29HNN7SWL3N31","","","","{""Q0"":""BUT""}","","","","","","","","","","","","","","","","","","","","","","",""
"15852","","survey-text","20","886327","0.0-19.1-0.1","A29HNN7SWL3N31","","","","{""Q0"":""BUT""}","","","","","","","","","","","","","","","","","","","","","","",""
"5467","","survey-text","21","896935","0.0-19.2-0.2","A29HNN7SWL3N31","","","","{""Q0"":""but""}","","","","","","","","","","","","","","","","","","","","","","",""
"14015","","survey-text","22","910955","0.0-20.0-0.0","A29HNN7SWL3N31","","","","{""Q0"":""I felt very good""}","","","","","","","","","","","","","","","","","","","","","","",""
"5783","","image-slider-response","23","916749","0.0-21.0","A29HNN7SWL3N31","","","","","38","","","","","","","","","","","","","","","","","","","","","",""
"null","","image-button-response","24","921764","0.0-22.0","A29HNN7SWL3N31","img_art/ins/1.jpg","null","","","","","","","","","","","","","","","","","","","","","","","","",""
"3010","","image-button-response","25","924783","0.0-23.0","A29HNN7SWL3N31","img_art/ins/1.jpg","3","","","","","","","","","","","","","","","","","","","","","","","","",""
"69155","","image-button-response","26","993942","0.0-24.0-0.0","A29HNN7SWL3N31","img_art/ins/1.jpg","5","","","","","","","","","","","","","","","","","","","","","","","","",""
"1239","","image-button-response","27","995184","0.0-25.0-0.0","A29HNN7SWL3N31","img_art/ins/1.jpg","2","","","","","","","","","","","","","","","","","","","","","","","","",""
"null","","html-keyboard-response","28","996200","0.0-26.0","A29HNN7SWL3N31","<p style=""font-size: 48px;"">+</p>","","","","","null","allTrialResponses","1000","1","-2","img_art/ins/1.jpg","38","I felt very good","Allison,Ashley,Beth,Dora,Erika,Jen","looks like a lot of things going on in the mist,20,20,20","I just don't get why these type of art would be popular,-32,40,20","This color reminds me of poo,-46,60,20","looks like what my niece in 3rd grade did this afternoon,-50,80,20","I like the sophisticated brushwork,40,100,20","It reminds me of a candy land dream I had,36,120,20","Dora","looks like what my niece in 3rd grade did this afternoon,-50,80,20","Jen","It reminds me of a candy land dream I had,36,120,20","Beth","This color reminds me of poo,-46,60,20","2"
"13114","","survey-text","29","1009319","0.0-27.0-0.0","A29HNN7SWL3N31","","","","{""Q0"":""I felt very nice""}","","","","","","","","","","","","","","","","","","","","","","",""
"8019","","image-slider-response","30","1017339","0.0-28.0","A29HNN7SWL3N31","","","","","35","","","","","","","","","","","","","","","","","","","","","",""
"2199","","image-button-response","31","1022349","0.0-29.0","A29HNN7SWL3N31","img_art/ins/2.jpg","0","","","","","","","","","","","","","","","","","","","","","","","","",""
"1517","","image-button-response","32","1023868","0.0-30.0","A29HNN7SWL3N31","img_art/ins/2.jpg","1","","","","","","","","","","","","","","","","","","","","","","","","",""
"399","","image-button-response","33","1024273","0.0-31.0-0.0","A29HNN7SWL3N31","img_art/ins/2.jpg","0","","","","","","","","","","","","","","","","","","","","","","","","",""
"1296","","image-button-response","34","1025580","0.0-32.0-0.0","A29HNN7SWL3N31","img_art/ins/2.jpg","0","","","","","","","","","","","","","","","","","","","","","","","","",""
"3692","","image-button-response","35","1050592","0.0-32.1-0.1","A29HNN7SWL3N31","img_art/ins/2.jpg","4","","","","","","","","","","","","","","","","","","","","","","","","",""
"null","","html-keyboard-response","36","1051619","0.0-33.0","A29HNN7SWL3N31","<p style=""font-size: 48px;"">+</p>","","","","","null","allTrialResponses","1000","1","-1","img_art/ins/2.jpg","35","I felt very nice","Katie,Jenna,Beth,Dora,Kara,Jen","too much color!,-28,180,20","One of my pet peevs,-48,140,20","meaningless painting,-45,60,20","looks too angry,-50,80,20","I like the blocks of color arrangements,30,160,20","It reminds me of a fireplace,36,120,20","Jenna","One of my pet peevs,-48,140,20","Katie","too much color!,-28,180,20","Kara","I like the blocks of color arrangements,30,160,20","4"
"39753","","survey-text","37","1091383","0.0-34.0-0.0","A29HNN7SWL3N31","","","","{""Q0"":""I felt very interested""}","","","","","","","","","","","","","","","","","","","","","","",""
"4045","","image-slider-response","38","1095428","0.0-35.0","A29HNN7SWL3N31","","","","","36","","","","","","","","","","","","","","","","","","","","","",""
"4690","","image-button-response","39","1100435","0.0-36.0","A29HNN7SWL3N31","img_art/ins/3.jpg","3","","","","","","","","","","","","","","","","","","","","","","","","",""
"4597","","image-button-response","40","1105044","0.0-37.0","A29HNN7SWL3N31","img_art/ins/3.jpg","1","","","","","","","","","","","","","","","","","","","","","","","","",""
"1945","","image-button-response","41","1106994","0.0-38.0-0.0","A29HNN7SWL3N31","img_art/ins/3.jpg","4","","","","","","","","","","","","","","","","","","","","","","","","",""
"1886","","image-button-response","42","1108882","0.0-39.0-0.0","A29HNN7SWL3N31","img_art/ins/3.jpg","3","","","","","","","","","","","","","","","","","","","","","","","","",""
"null","","html-keyboard-response","43","1109883","0.0-40.0","A29HNN7SWL3N31","<p style=""font-size: 48px;"">+</p>","","","","","null","allTrialResponses","1000","1","0","img_art/ins/3.jpg","36","I felt very interested","Katie,Jenna,Mary,Leslie,Kara,Rose","It looks depressing,-26,180,20","looks like a murder room,-35,140,20","I like the overlapping of brushes,41,220,20","It's an alright work,15,200,20","calming blue is very nice,36,160,20","My daily routine, it's depressing,-20,240,20","Jenna","looks like a murder room,-35,140,20","Kara","calming blue is very nice,36,160,20","Leslie","It's an alright work,15,200,20","4"
"15704","","image-button-response_instructions","44","1125596","0.0-41.0","A29HNN7SWL3N31","","0","instructions","","","","","","","","","","","","","","","","","","","","","","","",""
"17391","","survey-likert","45","1142990","0.0-42.0-0.0","A29HNN7SWL3N31","","","","{""Q0"":"""",""Q1"":0,""Q2"":0}","","","","","","","","","","","","","","","","","","","","","","",""
"2520","","survey-likert","46","1149759","0.0-42.1-0.1","A29HNN7SWL3N31","","","","{""Q0"":"""",""Q1"":"""",""Q2"":1}","","","","","","","","","","","","","","","","","","","","","","",""
"285313","","survey-text","47","1435111","0.0-43.0-0.0","A29HNN7SWL3N31","","","","{""Q0"":""rock""}","","","","","","","","","","","","","","","","","","","","","","",""
"17558","","survey-text","48","1452674","0.0-44.0-0.0","A29HNN7SWL3N31","","","","{""Q0"":""I felt very interested""}","","","","","","","","","","","","","","","","","","","","","","",""
"2715","","image-slider-response","49","1455413","0.0-45.0","A29HNN7SWL3N31","","","","","30","","","","","","","","","","","","","","","","","","","","","",""
"3165","","image-button-response","50","1460488","0.0-46.0","A29HNN7SWL3N31","img_art/18.jpg","3","","","","","","","","","","","","","","","","","","","","","","","","",""
"2593","","image-button-response","51","1463091","0.0-47.0","A29HNN7SWL3N31","img_art/18.jpg","5","","","","","","","","","","","","","","","","","","","","","","","","",""
"1803","","image-button-response","52","1464897","0.0-48.0-0.0","A29HNN7SWL3N31","img_art/18.jpg","1","","","","","","","","","","","","","","","","","","","","","","","","",""
"1970","","image-button-response","53","1466883","0.0-49.0-0.0","A29HNN7SWL3N31","img_art/18.jpg","3","","","","","","","","","","","","","","","","","","","","","","","","",""
"null","","html-keyboard-response","54","1467395","0.0-50.0","A29HNN7SWL3N31","<p style=""font-size: 48px;"">+</p>","","","","","null","allTrialResponses","500","1","1","img_art/18.jpg","30","I felt very interested","Katie,Shelby,Megan,Ashley,Caroline,Danielle","Looks messy. Reminds me of a battle or war. I have an unpleasant feeling the more I look.,-20,160,20","This gives a very ominous feeling,-30,240,20","Nice palette with complexity becoming nice at the center,34,200,20","Resembles a ship at sea, storm of activity.,28,320,20","I think of the ocean and a boat tossed about on the waves. In the upper left is a figure. It is pleasant,30,100,20","Doesn't really speak to me well but I can appreciate it,10,340,20","Danielle","Doesn't really speak to me well but I can appreciate it,10,340,20","Shelby","This gives a very ominous feeling,-30,240,20","Ashley","Resembles a ship at sea, storm of activity.,28,320,20","5"
"11882","","survey-text","55","1479288","0.0-51.0-0.0","A29HNN7SWL3N31","","","","{""Q0"":""I felt very nice""}","","","","","","","","","","","","","","","","","","","","","","",""
"18257","","image-slider-response","56","1497549","0.0-52.0","A29HNN7SWL3N31","","","","","36","","","","","","","","","","","","","","","","","","","","","",""
"2659","","image-button-response","57","1502561","0.0-53.0","A29HNN7SWL3N31","img_art/24.jpg","1","","","","","","","","","","","","","","","","","","","","","","","","",""
"686","","image-button-response","58","1503260","0.0-54.0","A29HNN7SWL3N31","img_art/24.jpg","2","","","","","","","","","","","","","","","","","","","","","","","","",""
"1565","","image-button-response","59","1504837","0.0-55.0-0.0","A29HNN7SWL3N31","img_art/24.jpg","1","","","","","","","","","","","","","","","","","","","","","","","","",""
"1114","","image-button-response","60","1505952","0.0-56.0-0.0","A29HNN7SWL3N31","img_art/24.jpg","4","","","","","","","","","","","","","","","","","","","","","","","","",""
"null","","html-keyboard-response","61","1506473","0.0-57.0","A29HNN7SWL3N31","<p style=""font-size: 48px;"">+</p>","","","","","null","allTrialResponses","500","1","2","img_art/24.jpg","36","I felt very nice","Lindsey,Shelby,Emily,Ashley,Emma,Danielle","I like the colors and see a stream in a wooded setting. Makes me feel calm and cheerful.,27,400,20","Earthy wonderful, love everything about it,50,240,20","It's not super high uality  but there is some skill and talent in it I see.,15,40,20","NOt quite Bob Ross, but still good.,30,320,20","Beautiful, good colors, love water,50,60,20","Looks like a mystical type of forest/waterfall. Love it,40,340,20","Emily","It's not super high uality  but there is some skill and talent in it I see.,15,40,20","Shelby","Earthy wonderful, love everything about it,50,240,20","Emma","Beautiful, good colors, love water,50,60,20","5"
"10442","","survey-text","62","1516927","0.0-58.0-0.0","A29HNN7SWL3N31","","","","{""Q0"":""I felt very interested""}","","","","","","","","","","","","","","","","","","","","","","",""
"3318","","image-slider-response","63","1520248","0.0-59.0","A29HNN7SWL3N31","","","","","41","","","","","","","","","","","","","","","","","","","","","",""
"4746","","image-button-response","64","1525251","0.0-60.0","A29HNN7SWL3N31","img_art/7.jpg","3","","","","","","","","","","","","","","","","","","","","","","","","",""
"1014","","image-button-response","65","1526267","0.0-61.0","A29HNN7SWL3N31","img_art/7.jpg","3","","","","","","","","","","","","","","","","","","","","","","","","",""
"869","","image-button-response","66","1527137","0.0-62.0-0.0","A29HNN7SWL3N31","img_art/7.jpg","4","","","","","","","","","","","","","","","","","","","","","","","","",""
"1031","","image-button-response","67","1528173","0.0-63.0-0.0","A29HNN7SWL3N31","img_art/7.jpg","5","","","","","","","","","","","","","","","","","","","","","","","","",""
"null","","html-keyboard-response","68","1528678","0.0-64.0","A29HNN7SWL3N31","<p style=""font-size: 48px;"">+</p>","","","","","null","allTrialResponses","500","1","3","img_art/7.jpg","41","I felt very interested","Leah,Shelby,Emily,Alyssa,Emma,Claire","I love it, it looks like a landscape photograph in desert or rocky mountain,50,360,20","This feels very earthy and grounded,20,240,20","Ugly. I don't like the colors or the scattering.,-50,40,20","It looks like someone took a picture of a muddy ground and called it art.,-41,160,20","Cool, makes me think of archeology,15,60,20","reminds me of a cave wall,-21,260,20","Alyssa","It looks like someone took a picture of a muddy ground and called it art.,-41,160,20","Emma","Cool, makes me think of archeology,15,60,20","Claire","reminds me of a cave wall,-21,260,20","5"
"6349","","survey-text","69","1535027","0.0-65.0-0.0","A29HNN7SWL3N31","","","","{""Q0"":""I felt very good""}","","","","","","","","","","","","","","","","","","","","","","",""
"3301","","image-slider-response","70","1538332","0.0-66.0","A29HNN7SWL3N31","","","","","31","","","","","","","","","","","","","","","","","","","","","",""
"2537","","image-button-response","71","1543336","0.0-67.0","A29HNN7SWL3N31","img_art/11.jpg","1","","","","","","","","","","","","","","","","","","","","","","","","",""
"860","","image-button-response","72","1544198","0.0-68.0","A29HNN7SWL3N31","img_art/11.jpg","1","","","","","","","","","","","","","","","","","","","","","","","","",""
"918","","image-button-response","73","1545121","0.0-69.0-0.0","A29HNN7SWL3N31","img_art/11.jpg","2","","","","","","","","","","","","","","","","","","","","","","","","",""
"1208","","image-button-response","74","1546335","0.0-70.0-0.0","A29HNN7SWL3N31","img_art/11.jpg","3","","","","","","","","","","","","","","","","","","","","","","","","",""
"null","","html-keyboard-response","75","1547836","0.0-71.0","A29HNN7SWL3N31","<p style=""font-size: 48px;"">+</p>","","","","","null","allTrialResponses","1500","1","4","img_art/11.jpg","31","I felt very good","Savannah,Isabella,Courtney,Alyssa,Emma,Claire","Not quite as abstract as I'd like- It's clearly a dingy city.,-18,200,20","City on a hill, tranquility,42,280,20","Thats a creepy old rollercoasters abandoned,-2,280,20","Its interesting.,20,160,20","Pretty, interesting, feels like a city, feels like home,50,60,20","the wavy lines are nice and pleasing,13,260,20","Isabella","City on a hill, tranquility,42,280,20","Courtney","Thats a creepy old rollercoasters abandoned,-2,280,20","Alyssa","Its interesting.,20,160,20","5"
"3455","","survey-text","76","1551300","0.0-72.0-0.0","A29HNN7SWL3N31","","","","{""Q0"":""I felt very interested""}","","","","","","","","","","","","","","","","","","","","","","",""
"3676","","image-slider-response","77","1554981","0.0-73.0","A29HNN7SWL3N31","","","","","40","","","","","","","","","","","","","","","","","","","","","",""
"2179","","image-button-response","78","1559989","0.0-74.0","A29HNN7SWL3N31","img_art/23.jpg","3","","","","","","","","","","","","","","","","","","","","","","","","",""
"1019","","image-button-response","79","1561013","0.0-75.0","A29HNN7SWL3N31","img_art/23.jpg","4","","","","","","","","","","","","","","","","","","","","","","","","",""
"931","","image-button-response","80","1561948","0.0-76.0-0.0","A29HNN7SWL3N31","img_art/23.jpg","3","","","","","","","","","","","","","","","","","","","","","","","","",""
"1211","","image-button-response","81","1563169","0.0-77.0-0.0","A29HNN7SWL3N31","img_art/23.jpg","1","","","","","","","","","","","","","","","","","","","","","","","","",""
"null","","html-keyboard-response","82","1564671","0.0-78.0","A29HNN7SWL3N31","<p style=""font-size: 48px;"">+</p>","","","","","null","allTrialResponses","1500","1","5","img_art/23.jpg","40","I felt very interested","Jessica,Isabella,Courtney,Alyssa,Chloe,Gabrielle","This is very cool!,24,400,20","Love the line in the middle separating the two dark sides,50,280,20","Looks like fish fossils,12,280,20","Very bright and eye catching.The White silhouettes remind me of people celebrating.,31,160,20","Poster shop camp.,-40,220,20","it's OK, but just OK, kind of interesting but I wouldn't spend money on it,4,160,20","Chloe","Poster shop camp.,-40,220,20","Alyssa","Very bright and eye catching.The White silhouettes remind me of people celebrating.,31,160,20","Isabella","Love the line in the middle separating the two dark sides,50,280,20","5"
"6622","","survey-text","83","1571304","0.0-79.0-0.0","A29HNN7SWL3N31","","","","{""Q0"":""sky""}","","","","","","","","","","","","","","","","","","","","","","",""
"7398","","survey-text","84","1578709","0.0-80.0-0.0","A29HNN7SWL3N31","","","","{""Q0"":""I felt very interested""}","","","","","","","","","","","","","","","","","","","","","","",""
"2868","","image-slider-response","85","1581584","0.0-81.0","A29HNN7SWL3N31","","","","","23","","","","","","","","","","","","","","","","","","","","","",""
"1454","","image-button-response","86","1586589","0.0-82.0","A29HNN7SWL3N31","img_art/6.jpg","2","","","","","","","","","","","","","","","","","","","","","","","","",""
"837","","image-button-response","87","1587429","0.0-83.0","A29HNN7SWL3N31","img_art/6.jpg","2","","","","","","","","","","","","","","","","","","","","","","","","",""
"687","","image-button-response","88","1588116","0.0-84.0-0.0","A29HNN7SWL3N31","img_art/6.jpg","1","","","","","","","","","","","","","","","","","","","","","","","","",""
"1125","","image-button-response","89","1589268","0.0-85.0-0.0","A29HNN7SWL3N31","img_art/6.jpg","4","","","","","","","","","","","","","","","","","","","","","","","","",""
"null","","html-keyboard-response","90","1589773","0.0-86.0","A29HNN7SWL3N31","<p style=""font-size: 48px;"">+</p>","","","","","null","allTrialResponses","500","1","6","img_art/6.jpg","23","I felt very interested","Monica,Isabella,Abigail,Alyssa,Chloe,Kaylee","Maybe it's supposed to be a bird but it looks like a scary cloaked figure. it's just too simple and jarring,-23,360,20","A bird standing in the sun,37,280,20","This picture is weird,-6,20,20","It makes me stop and think about what the artist is trying to say.It creates a feeling of solitude and tranqulity,30,160,20","Cute and evocative,11,220,20","just an another tree on a desert?,9,200,20","Abigail","This picture is weird,-6,20,20","Isabella","A bird standing in the sun,37,280,20","Chloe","Cute and evocative,11,220,20","5"
"16704","","survey-text","91","1606488","0.0-87.0-0.0","A29HNN7SWL3N31","","","","{""Q0"":""I felt very involved""}","","","","","","","","","","","","","","","","","","","","","","",""
"5031","","image-slider-response","92","1611522","0.0-88.0","A29HNN7SWL3N31","","","","","37","","","","","","","","","","","","","","","","","","","","","",""
"3154","","image-button-response","93","1616537","0.0-89.0","A29HNN7SWL3N31","img_art/17.jpg","0","","","","","","","","","","","","","","","","","","","","","","","","",""
"2923","","image-button-response","94","1619467","0.0-90.0","A29HNN7SWL3N31","img_art/17.jpg","0","","","","","","","","","","","","","","","","","","","","","","","","",""
"1368","","image-button-response","95","1620836","0.0-91.0-0.0","A29HNN7SWL3N31","img_art/17.jpg","3","","","","","","","","","","","","","","","","","","","","","","","","",""
"1232","","image-button-response","96","1622092","0.0-92.0-0.0","A29HNN7SWL3N31","img_art/17.jpg","4","","","","","","","","","","","","","","","","","","","","","","","","",""
"null","","html-keyboard-response","97","1623095","0.0-93.0","A29HNN7SWL3N31","<p style=""font-size: 48px;"">+</p>","","","","","null","allTrialResponses","1000","1","7","img_art/17.jpg","37","I felt very involved","Maria,Isabella,Abigail,Erica,Chloe,Kayla","feel close to nature,30,120,20","Pleasant fall to winter day,22,280,20","Really love the branches. The bottom made it not perfect,42,20,20","Makes me warm and cozy just by looking at it,29,80,20","Pretty but a little cheesy,-10,220,20","I like the way the forest is taking over the buildings.,21,180,20","Maria","feel close to nature,30,120,20","Erica","Makes me warm and cozy just by looking at it,29,80,20","Chloe","Pretty but a little cheesy,-10,220,20","5"
"4517","","survey-text","98","1627616","0.0-94.0-0.0","A29HNN7SWL3N31","","","","{""Q0"":""I felt very interested""}","","","","","","","","","","","","","","","","","","","","","","",""
"2973","","image-slider-response","99","1630606","0.0-95.0","A29HNN7SWL3N31","","","","","26","","","","","","","","","","","","","","","","","","","","","",""
"2584","","image-button-response","100","1635619","0.0-96.0","A29HNN7SWL3N31","img_art/20.jpg","5","","","","","","","","","","","","","","","","","","","","","","","","",""
"2120","","image-button-response","101","1637754","0.0-97.0","A29HNN7SWL3N31","img_art/20.jpg","5","","","","","","","","","","","","","","","","","","","","","","","","",""
"1048","","image-button-response","102","1638809","0.0-98.0-0.0","A29HNN7SWL3N31","img_art/20.jpg","4","","","","","","","","","","","","","","","","","","","","","","","","",""
"1178","","image-button-response","103","1640004","0.0-99.0-0.0","A29HNN7SWL3N31","img_art/20.jpg","2","","","","","","","","","","","","","","","","","","","","","","","","",""
"null","","html-keyboard-response","104","1641506","0.0-100.0","A29HNN7SWL3N31","<p style=""font-size: 48px;"">+</p>","","","","","null","allTrialResponses","1500","1","8","img_art/20.jpg","26","I felt very interested","Maria,Crystal,Mackenzie,Erica,Chloe,Cassidy","just feels generic,-18,120,20","The pulling and sagging nature is very beautiful.,30,300,20","Shapes are fun to interpret,21,20,20","looks like an auto accident,-30,80,20","Mood setting if a little dreary,20,220,20","sort of pleasant to look at, but can't tell if it's supposed to be something,13,140,20","Cassidy","sort of pleasant to look at, but can't tell if it's supposed to be something,13,140,20","Chloe","Mood setting if a little dreary,20,220,20","Mackenzie","Shapes are fun to interpret,21,20,20","5"
"7904","","survey-text","105","1649415","0.0-101.0-0.0","A29HNN7SWL3N31","","","","{""Q0"":""I felt very nice""}","","","","","","","","","","","","","","","","","","","","","","",""
"3572","","image-slider-response","106","1652988","0.0-102.0","A29HNN7SWL3N31","","","","","42","","","","","","","","","","","","","","","","","","","","","",""
"2263","","image-button-response","107","1658147","0.0-103.0","A29HNN7SWL3N31","img_art/14.jpg","1","","","","","","","","","","","","","","","","","","","","","","","","",""
"2307","","image-button-response","108","1660455","0.0-104.0","A29HNN7SWL3N31","img_art/14.jpg","1","","","","","","","","","","","","","","","","","","","","","","","","",""
"1552","","image-button-response","109","1662011","0.0-105.0-0.0","A29HNN7SWL3N31","img_art/14.jpg","0","","","","","","","","","","","","","","","","","","","","","","","","",""
"729","","image-button-response","110","1662749","0.0-106.0-0.0","A29HNN7SWL3N31","img_art/14.jpg","0","","","","","","","","","","","","","","","","","","","","","","","","",""
"503","","image-button-response","111","1669887","0.0-106.1-0.1","A29HNN7SWL3N31","img_art/14.jpg","3","","","","","","","","","","","","","","","","","","","","","","","","",""
"null","","html-keyboard-response","112","1670389","0.0-107.0","A29HNN7SWL3N31","<p style=""font-size: 48px;"">+</p>","","","","","null","allTrialResponses","500","1","9","img_art/14.jpg","42","I felt very nice","Caitlin,Vanessa,Mackenzie,Molly,Chloe,Cassidy","Are they blowing up a tree?,-5,80,20","I don't like the colors, but I espeically don't like all the negative space.,-20,380,20","I like the combination of colors and textures.,35,20,20","In my opinion it's spectacular.,35,340,20","Like the brushstrokes but not the composition,9,220,20","Meh. Pleasant to look at. Colors are nice,6,140,20","Vanessa","I don't like the colors, but I espeically don't like all the negative space.,-20,380,20","Caitlin","Are they blowing up a tree?,-5,80,20","Molly","In my opinion it's spectacular.,35,340,20","7"
"4332","","survey-text","113","1674734","0.0-108.0-0.0","A29HNN7SWL3N31","","","","{""Q0"":""I felt very interested""}","","","","","","","","","","","","","","","","","","","","","","",""
"3472","","image-slider-response","114","1678207","0.0-109.0","A29HNN7SWL3N31","","","","","31","","","","","","","","","","","","","","","","","","","","","",""
"3828","","image-button-response","115","1683211","0.0-110.0","A29HNN7SWL3N31","img_art/19.jpg","3","","","","","","","","","","","","","","","","","","","","","","","","",""
"1015","","image-button-response","116","1684226","0.0-111.0","A29HNN7SWL3N31","img_art/19.jpg","5","","","","","","","","","","","","","","","","","","","","","","","","",""
"1024","","image-button-response","117","1685251","0.0-112.0-0.0","A29HNN7SWL3N31","img_art/19.jpg","4","","","","","","","","","","","","","","","","","","","","","","","","",""
"752","","image-button-response","118","1686008","0.0-113.0-0.0","A29HNN7SWL3N31","img_art/19.jpg","3","","","","","","","","","","","","","","","","","","","","","","","","",""
"null","","html-keyboard-response","119","1687010","0.0-114.0","A29HNN7SWL3N31","<p style=""font-size: 48px;"">+</p>","","","","","null","allTrialResponses","1000","1","10","img_art/19.jpg","31","I felt very interested","Caitlin,Vanessa,Gabriela,Molly,Brittany,Brianna","Looks like a homeless man and this painting should be too.,-5,80,20","Again, this is too abstract.,-10,380,20","it looks messy and non-unique.,-9,140,20","I can see kind of beach and sea full of people and buildings.,25,340,20","It looks too much of a rough sketch. Don't really enjoy looking at it.,-9,40,20","I don't know what's going on, and I realise that I don't like it,-21,20,20","Brianna","I don't know what's going on, and I realise that I don't like it,-21,20,20","Brittany","It looks too much of a rough sketch. Don't really enjoy looking at it.,-9,40,20","Molly","I can see kind of beach and sea full of people and buildings.,25,340,20","7"
"4980","","survey-text","120","1691998","0.0-115.0-0.0","A29HNN7SWL3N31","","","","{""Q0"":""our""}","","","","","","","","","","","","","","","","","","","","","","",""
"3488","","survey-text","121","1695490","0.0-116.0-0.0","A29HNN7SWL3N31","","","","{""Q0"":""I felt very interested""}","","","","","","","","","","","","","","","","","","","","","","",""
"3748","","image-slider-response","122","1699241","0.0-117.0","A29HNN7SWL3N31","","","","","38","","","","","","","","","","","","","","","","","","","","","",""
"4711","","image-button-response","123","1704264","0.0-118.0","A29HNN7SWL3N31","img_art/1.jpg","1","","","","","","","","","","","","","","","","","","","","","","","","",""
"886","","image-button-response","124","1705153","0.0-119.0","A29HNN7SWL3N31","img_art/1.jpg","1","","","","","","","","","","","","","","","","","","","","","","","","",""
"1587","","image-button-response","125","1706749","0.0-120.0-0.0","A29HNN7SWL3N31","img_art/1.jpg","0","","","","","","","","","","","","","","","","","","","","","","","","",""
"1155","","image-button-response","126","1707909","0.0-121.0-0.0","A29HNN7SWL3N31","img_art/1.jpg","3","","","","","","","","","","","","","","","","","","","","","","","","",""
"null","","html-keyboard-response","127","1709413","0.0-122.0","A29HNN7SWL3N31","<p style=""font-size: 48px;"">+</p>","","","","","null","allTrialResponses","1500","1","11","img_art/1.jpg","38","I felt very interested","Kathryn,Mary,Diana,Molly,Brittany,Brianna","For some reason this makes me want to go ice skating. It's whimsical and free but also very smooth.,20,140,20","This piece feels soft and romantic to me. I do not care for so much orange though.,3,180,20","Might be a person rowing their boat across the lake. Not sure if the background is trees or not.,12,380,20","The colors match and create a nice artistic disorder.,20,340,20","It reminds me of a sunset I once saw.,16,40,20","It's very colorful, and I like it,11,20,20","Mary","This piece feels soft and romantic to me. I do not care for so much orange though.,3,180,20","Kathryn","For some reason this makes me want to go ice skating. It's whimsical and free but also very smooth.,20,140,20","Molly","The colors match and create a nice artistic disorder.,20,340,20","7"
"12615","","survey-text","128","1722039","0.0-123.0-0.0","A29HNN7SWL3N31","","","","{""Q0"":""I felt very excellent""}","","","","","","","","","","","","","","","","","","","","","","",""
"3186","","image-slider-response","129","1725226","0.0-124.0","A29HNN7SWL3N31","","","","","33","","","","","","","","","","","","","","","","","","","","","",""
"1349","","image-button-response","130","1730242","0.0-125.0","A29HNN7SWL3N31","img_art/21.jpg","4","","","","","","","","","","","","","","","","","","","","","","","","",""
"655","","image-button-response","131","1730912","0.0-126.0","A29HNN7SWL3N31","img_art/21.jpg","4","","","","","","","","","","","","","","","","","","","","","","","","",""
"686","","image-button-response","132","1731600","0.0-127.0-0.0","A29HNN7SWL3N31","img_art/21.jpg","3","","","","","","","","","","","","","","","","","","","","","","","","",""
"1477","","image-button-response","133","1733080","0.0-128.0-0.0","A29HNN7SWL3N31","img_art/21.jpg","2","","","","","","","","","","","","","","","","","","","","","","","","",""
"null","","html-keyboard-response","134","1733586","0.0-129.0","A29HNN7SWL3N31","<p style=""font-size: 48px;"">+</p>","","","","","null","allTrialResponses","500","1","12","img_art/21.jpg","33","I felt very excellent","Kathryn,Mary,Mikayla,Molly,Victoria,Grace","This feels chaotic, like a battle or a storm.,-20,140,20","This is lovely. I like the mix of colors, the warn and cool slowly combining.,39,180,20","Nothing exciting in this one.,-36,300,20","Looks like a war. Many things happening on the painting, really enjoy it.,30,340,20","like the colors,30,400,20","Like the colors, the cloudy, airy effects. Nice.,46,180,20","Victoria","like the colors,30,400,20","Molly","Looks like a war. Many things happening on the painting, really enjoy it.,30,340,20","Mikayla","Nothing exciting in this one.,-36,300,20","7"
"5591","","survey-text","135","1739187","0.0-130.0-0.0","A29HNN7SWL3N31","","","","{""Q0"":""I felt very interested""}","","","","","","","","","","","","","","","","","","","","","","",""
"3002","","image-slider-response","136","1742191","0.0-131.0","A29HNN7SWL3N31","","","","","43","","","","","","","","","","","","","","","","","","","","","",""
"1530","","image-button-response","137","1747199","0.0-132.0","A29HNN7SWL3N31","img_art/2.jpg","4","","","","","","","","","","","","","","","","","","","","","","","","",""
"711","","image-button-response","138","1747929","0.0-133.0","A29HNN7SWL3N31","img_art/2.jpg","4","","","","","","","","","","","","","","","","","","","","","","","","",""
"591","","image-button-response","139","1748528","0.0-134.0-0.0","A29HNN7SWL3N31","img_art/2.jpg","3","","","","","","","","","","","","","","","","","","","","","","","","",""
"568","","image-button-response","140","1749101","0.0-135.0-0.0","A29HNN7SWL3N31","img_art/2.jpg","5","","","","","","","","","","","","","","","","","","","","","","","","",""
"null","","html-keyboard-response","141","1750116","0.0-136.0","A29HNN7SWL3N31","<p style=""font-size: 48px;"">+</p>","","","","","null","allTrialResponses","1000","1","13","img_art/2.jpg","43","I felt very interested","Katherine,Hannah,Mikayla,Molly,Victoria,Tiffany","The color combo is kind of ugly but there's something charming about it still,17,120,20","Looks like child's art.,-19,240,20","I love the colors in this.,29,300,20","Colorful, curious.,20,340,20","I like the colors,22,400,20","I feel claustrophobic. I'm looking at a busy shop, but the simple shapes and continuous colors make it hectic.,-8,360,20","Victoria","I like the colors,22,400,20","Molly","Colorful, curious.,20,340,20","Tiffany","I feel claustrophobic. I'm looking at a busy shop, but the simple shapes and continuous colors make it hectic.,-8,360,20","7"
"2980","","survey-text","142","1753104","0.0-137.0-0.0","A29HNN7SWL3N31","","","","{""Q0"":""I felt very interested""}","","","","","","","","","","","","","","","","","","","","","","",""
"3720","","image-slider-response","143","1756826","0.0-138.0","A29HNN7SWL3N31","","","","","42","","","","","","","","","","","","","","","","","","","","","",""
"2662","","image-button-response","144","1761835","0.0-139.0","A29HNN7SWL3N31","img_art/10.jpg","2","","","","","","","","","","","","","","","","","","","","","","","","",""
"824","","image-button-response","145","1762663","0.0-140.0","A29HNN7SWL3N31","img_art/10.jpg","2","","","","","","","","","","","","","","","","","","","","","","","","",""
"824","","image-button-response","146","1763487","0.0-141.0-0.0","A29HNN7SWL3N31","img_art/10.jpg","4","","","","","","","","","","","","","","","","","","","","","","","","",""
"693","","image-button-response","147","1764189","0.0-142.0-0.0","A29HNN7SWL3N31","img_art/10.jpg","3","","","","","","","","","","","","","","","","","","","","","","","","",""
"null","","html-keyboard-response","148","1765694","0.0-143.0","A29HNN7SWL3N31","<p style=""font-size: 48px;"">+</p>","","","","","null","allTrialResponses","1500","1","14","img_art/10.jpg","42","I felt very interested","Rachel,Makayla,Hailey,Molly,Victoria,Tiffany","Reminds me of a terrarium with cacti inside. It reminds me of home.,27,80,20","I don't hate but don't like it because it looks like a oil slick,2,80,20","a fast racetrack. go, go, go,5,200,20","For me, it looks like a giant ship on the sea and it's astonishing.,30,340,20","absolutely beautiful piece of art,49,400,20","I feel little to no emotion looking at this painting.,0,360,20","Hailey","a fast racetrack. go, go, go,5,200,20","Victoria","absolutely beautiful piece of art,49,400,20","Molly","For me, it looks like a giant ship on the sea and it's astonishing.,30,340,20","7"
"9037","","survey-text","149","1774743","0.0-144.0-0.0","A29HNN7SWL3N31","","","","{""Q0"":""I felt very good""}","","","","","","","","","","","","","","","","","","","","","","",""
"2914","","image-slider-response","150","1777668","0.0-145.0","A29HNN7SWL3N31","","","","","40","","","","","","","","","","","","","","","","","","","","","",""
"2881","","image-button-response","151","1782673","0.0-146.0","A29HNN7SWL3N31","img_art/22.jpg","4","","","","","","","","","","","","","","","","","","","","","","","","",""
"650","","image-button-response","152","1783328","0.0-147.0","A29HNN7SWL3N31","img_art/22.jpg","4","","","","","","","","","","","","","","","","","","","","","","","","",""
"517","","image-button-response","153","1783849","0.0-148.0-0.0","A29HNN7SWL3N31","img_art/22.jpg","3","","","","","","","","","","","","","","","","","","","","","","","","",""
"815","","image-button-response","154","1784669","0.0-149.0-0.0","A29HNN7SWL3N31","img_art/22.jpg","1","","","","","","","","","","","","","","","","","","","","","","","","",""
"null","","html-keyboard-response","155","1786172","0.0-150.0","A29HNN7SWL3N31","<p style=""font-size: 48px;"">+</p>","","","","","null","allTrialResponses","1500","1","15","img_art/22.jpg","40","I felt very good","Mariah,Natalie,Hailey,Molly,Victoria,Alexandria","The colors are pleasant, the shapes are inviting.,21,140,20","my reaction is that the picture is confusion,-9,400,20","a lost balloon in outer space,12,200,20","Unfortunately, I can't see anything special in this painting.,-20,340,20","love how the colors blend,42,400,20","the colors and shapes makes me want to keep looking at it,22,80,20","Victoria","love how the colors blend,42,400,20","Molly","Unfortunately, I can't see anything special in this painting.,-20,340,20","Natalie","my reaction is that the picture is confusion,-9,400,20","7"
"10632","","survey-text","156","1796828","0.0-151.0-0.0","A29HNN7SWL3N31","","","","{""Q0"":""course""}","","","","","","","","","","","","","","","","","","","","","","",""
"7256","","survey-text","157","1804089","0.0-152.0-0.0","A29HNN7SWL3N31","","","","{""Q0"":""I felt very interested""}","","","","","","","","","","","","","","","","","","","","","","",""
"3792","","image-slider-response","158","1807888","0.0-153.0","A29HNN7SWL3N31","","","","","33","","","","","","","","","","","","","","","","","","","","","",""
"3116","","image-button-response","159","1812892","0.0-154.0","A29HNN7SWL3N31","img_art/4.jpg","1","","","","","","","","","","","","","","","","","","","","","","","","",""
"1000","","image-button-response","160","1813895","0.0-155.0","A29HNN7SWL3N31","img_art/4.jpg","3","","","","","","","","","","","","","","","","","","","","","","","","",""
"1126","","image-button-response","161","1815030","0.0-156.0-0.0","A29HNN7SWL3N31","img_art/4.jpg","4","","","","","","","","","","","","","","","","","","","","","","","","",""
"1075","","image-button-response","162","1816108","0.0-157.0-0.0","A29HNN7SWL3N31","img_art/4.jpg","1","","","","","","","","","","","","","","","","","","","","","","","","",""
"null","","html-keyboard-response","163","1817115","0.0-158.0","A29HNN7SWL3N31","<p style=""font-size: 48px;"">+</p>","","","","","null","allTrialResponses","1000","1","16","img_art/4.jpg","33","I felt very interested","Breanna,Natalie,Kaitlyn,Molly,Victoria,Kelly","Looks like a hand, not very impressed,-22,380,20","dont know what im looking at,1,400,20","I don't understand this at all,3,80,20","Not bad at all.,20,340,20","dont like the colors,-31,400,20","The longer I stare at this the less I like it.,-19,220,20","Molly","Not bad at all.,20,340,20","Victoria","dont like the colors,-31,400,20","Natalie","dont know what im looking at,1,400,20","7"
"3301","","survey-text","164","1820426","0.0-159.0-0.0","A29HNN7SWL3N31","","","","{""Q0"":""I felt very interested""}","","","","","","","","","","","","","","","","","","","","","","",""
"3841","","image-slider-response","165","1824269","0.0-160.0","A29HNN7SWL3N31","","","","","40","","","","","","","","","","","","","","","","","","","","","",""
"null","","image-button-response","166","1829273","0.0-161.0","A29HNN7SWL3N31","img_art/8.jpg","null","","","","","","","","","","","","","","","","","","","","","","","","",""
"1554","","image-button-response","167","1830828","0.0-162.0","A29HNN7SWL3N31","img_art/8.jpg","3","","","","","","","","","","","","","","","","","","","","","","","","",""
"694","","image-button-response","168","1831529","0.0-163.0-0.0","A29HNN7SWL3N31","img_art/8.jpg","4","","","","","","","","","","","","","","","","","","","","","","","","",""
"695","","image-button-response","169","1832229","0.0-164.0-0.0","A29HNN7SWL3N31","img_art/8.jpg","5","","","","","","","","","","","","","","","","","","","","","","","","",""
"null","","html-keyboard-response","170","1833236","0.0-165.0","A29HNN7SWL3N31","<p style=""font-size: 48px;"">+</p>","","","","","null","allTrialResponses","1000","1","17","img_art/8.jpg","40","I felt very interested","Sophia,Natalie,Lauren,Molly,Victoria,Erin","Interesting but it has a bit of a dark feel to it.,6,280,20","looks nice, like the details,25,400,20","I like how the piece is showcasing emotion in relation to something.,25,340,20","Different styles make this picture outstanding.,20,340,20","makes me think of a busy city,-18,400,20","Lots of depth, faces, city, arch,3,120,20","Molly","Different styles make this picture outstanding.,20,340,20","Victoria","makes me think of a busy city,-18,400,20","Erin","Lots of depth, faces, city, arch,3,120,20","7"
"3181","","survey-text","171","1836428","0.0-166.0-0.0","A29HNN7SWL3N31","","","","{""Q0"":""I felt very interested""}","","","","","","","","","","","","","","","","","","","","","","",""
"3978","","image-slider-response","172","1840406","0.0-167.0","A29HNN7SWL3N31","","","","","38","","","","","","","","","","","","","","","","","","","","","",""
"3571","","image-button-response","173","1845406","0.0-168.0","A29HNN7SWL3N31","img_art/25.jpg","1","","","","","","","","","","","","","","","","","","","","","","","","",""
"1664","","image-button-response","174","1847072","0.0-169.0","A29HNN7SWL3N31","img_art/25.jpg","1","","","","","","","","","","","","","","","","","","","","","","","","",""
"4","","image-button-response","175","1847081","0.0-170.0-0.0","A29HNN7SWL3N31","img_art/25.jpg","0","","","","","","","","","","","","","","","","","","","","","","","","",""
"1192","","image-button-response","176","1848275","0.0-171.0-0.0","A29HNN7SWL3N31","img_art/25.jpg","4","","","","","","","","","","","","","","","","","","","","","","","","",""
"null","","html-keyboard-response","177","1848778","0.0-172.0","A29HNN7SWL3N31","<p style=""font-size: 48px;"">+</p>","","","","","null","allTrialResponses","500","1","18","img_art/25.jpg","38","I felt very interested","Samantha,Stephanie,Jamie,Molly,Victoria,Erin","It is interesting but too creapy for me,-29,140,20","It made me think of healing.,22,300,20","Cool color scheme and appears to be a statue of some type of revered god,40,320,20","Well-designed, interesting.,30,340,20","makes me think of a scary movie,-20,400,20","Looks like glow in the dark halloween decoration,-38,120,20","Stephanie","It made me think of healing.,22,300,20","Samantha","It is interesting but too creapy for me,-29,140,20","Victoria","makes me think of a scary movie,-20,400,20","7"
"3180","","survey-text","178","1851968","0.0-173.0-0.0","A29HNN7SWL3N31","","","","{""Q0"":""I felt very interested""}","","","","","","","","","","","","","","","","","","","","","","",""
"3209","","image-slider-response","179","1855191","0.0-174.0","A29HNN7SWL3N31","","","","","39","","","","","","","","","","","","","","","","","","","","","",""
"4088","","image-button-response","180","1860198","0.0-175.0","A29HNN7SWL3N31","img_art/27.jpg","5","","","","","","","","","","","","","","","","","","","","","","","","",""
"754","","image-button-response","181","1860954","0.0-176.0","A29HNN7SWL3N31","img_art/27.jpg","5","","","","","","","","","","","","","","","","","","","","","","","","",""
"885","","image-button-response","182","1861841","0.0-177.0-0.0","A29HNN7SWL3N31","img_art/27.jpg","4","","","","","","","","","","","","","","","","","","","","","","","","",""
"181","","image-button-response","183","1862022","0.0-178.0-0.0","A29HNN7SWL3N31","img_art/27.jpg","3","","","","","","","","","","","","","","","","","","","","","","","","",""
"null","","html-keyboard-response","184","1863543","0.0-179.0","A29HNN7SWL3N31","<p style=""font-size: 48px;"">+</p>","","","","","null","allTrialResponses","1500","1","19","img_art/27.jpg","39","I felt very interested","Samantha,Stephanie,Shannon,Melissa,Victoria,Brooke","I like all it has going but i wouldnt put it in my house unless my child did it,25,140,20","The black sketchy over the colors doesn't fit.,-4,300,20","This image could do a better job of showing what is going on and it could use more colors.,-42,220,20","reminds me of kandinsky,10,240,20","reminds me of fall,33,400,20","Like it, autumn colors, trees and foliage scene.,25,60,20","Brooke","Like it, autumn colors, trees and foliage scene.,25,60,20","Victoria","reminds me of fall,33,400,20","Melissa","reminds me of kandinsky,10,240,20","7"
"4737","","survey-text","185","1868286","0.0-180.0-0.0","A29HNN7SWL3N31","","","","{""Q0"":""I felt very interested""}","","","","","","","","","","","","","","","","","","","","","","",""
"2803","","image-slider-response","186","1871090","0.0-181.0","A29HNN7SWL3N31","","","","","42","","","","","","","","","","","","","","","","","","","","","",""
"989","","image-button-response","187","1876100","0.0-182.0","A29HNN7SWL3N31","img_art/13.jpg","1","","","","","","","","","","","","","","","","","","","","","","","","",""
"880","","image-button-response","188","1876981","0.0-183.0","A29HNN7SWL3N31","img_art/13.jpg","1","","","","","","","","","","","","","","","","","","","","","","","","",""
"407","","image-button-response","189","1877393","0.0-184.0-0.0","A29HNN7SWL3N31","img_art/13.jpg","4","","","","","","","","","","","","","","","","","","","","","","","","",""
"561","","image-button-response","190","1877962","0.0-185.0-0.0","A29HNN7SWL3N31","img_art/13.jpg","3","","","","","","","","","","","","","","","","","","","","","","","","",""
"null","","html-keyboard-response","191","1879465","0.0-186.0","A29HNN7SWL3N31","<p style=""font-size: 48px;"">+</p>","","","","","null","allTrialResponses","1500","1","20","img_art/13.jpg","42","I felt very interested","Jordan,Heather,Laura,Melissa,Victoria,Brooke","It's just paint splatter, no real meaning to me,-50,20,20","rain in blue black and white,1,260,20","water on my shower curtain - I feel refreshed, renewed,9,320,20","feels sterile/manufactured,1,240,20","reminds me of rain,36,400,20","Like the use of color, not a fan of the splatter,29,60,20","Heather","rain in blue black and white,1,260,20","Victoria","reminds me of rain,36,400,20","Melissa","feels sterile/manufactured,1,240,20","7"
"4345","","survey-text","192","1883833","0.0-187.0-0.0","A29HNN7SWL3N31","","","","{""Q0"":""we""}","","","","","","","","","","","","","","","","","","","","","","",""
"4149","","survey-text","193","1887988","0.0-188.0-0.0","A29HNN7SWL3N31","","","","{""Q0"":""I felt very interested""}","","","","","","","","","","","","","","","","","","","","","","",""
"3517","","image-slider-response","194","1891508","0.0-189.0","A29HNN7SWL3N31","","","","","35","","","","","","","","","","","","","","","","","","","","","",""
"4706","","image-button-response","195","1896523","0.0-190.0","A29HNN7SWL3N31","img_art/5.jpg","3","","","","","","","","","","","","","","","","","","","","","","","","",""
"744","","image-button-response","196","1897273","0.0-191.0","A29HNN7SWL3N31","img_art/5.jpg","4","","","","","","","","","","","","","","","","","","","","","","","","",""
"559","","image-button-response","197","1897836","0.0-192.0-0.0","A29HNN7SWL3N31","img_art/5.jpg","3","","","","","","","","","","","","","","","","","","","","","","","","",""
"312","","image-button-response","198","1898152","0.0-193.0-0.0","A29HNN7SWL3N31","img_art/5.jpg","0","","","","","","","","","","","","","","","","","","","","","","","","",""
"null","","html-keyboard-response","199","1899656","0.0-194.0","A29HNN7SWL3N31","<p style=""font-size: 48px;"">+</p>","","","","","null","allTrialResponses","1500","1","21","img_art/5.jpg","35","I felt very interested","Olivia,Heather,Taylor,Melissa,Victoria,Alexandra","a brush in time,-14,40,20","its something. i just dont know what it is.,1,260,20","Doesn't make me think anything,-1,340,20","strong appeal in contrast,27,240,20","very boring and plain,-35,400,20","This looks like a twelve year old did it,-40,60,20","Victoria","very boring and plain,-35,400,20","Melissa","strong appeal in contrast,27,240,20","Olivia","a brush in time,-14,40,20","7"
"12189","","survey-text","200","1911848","0.0-195.0-0.0","A29HNN7SWL3N31","","","","{""Q0"":""I felt very good""}","","","","","","","","","","","","","","","","","","","","","","",""
"4128","","image-slider-response","201","1915981","0.0-196.0","A29HNN7SWL3N31","","","","","40","","","","","","","","","","","","","","","","","","","","","",""
"3560","","image-button-response","202","1920990","0.0-197.0","A29HNN7SWL3N31","img_art/28.jpg","4","","","","","","","","","","","","","","","","","","","","","","","","",""
"955","","image-button-response","203","1921949","0.0-198.0","A29HNN7SWL3N31","img_art/28.jpg","3","","","","","","","","","","","","","","","","","","","","","","","","",""
"510","","image-button-response","204","1922459","0.0-199.0-0.0","A29HNN7SWL3N31","img_art/28.jpg","1","","","","","","","","","","","","","","","","","","","","","","","","",""
"1387","","image-button-response","205","1923846","0.0-200.0-0.0","A29HNN7SWL3N31","img_art/28.jpg","4","","","","","","","","","","","","","","","","","","","","","","","","",""
"null","","html-keyboard-response","206","1925349","0.0-201.0","A29HNN7SWL3N31","<p style=""font-size: 48px;"">+</p>","","","","","null","allTrialResponses","1500","1","22","img_art/28.jpg","40","I felt very good","Olivia,Jasmine,Meghan,Melissa,Victoria,Nicole","conversating means hope,15,40,20","Colors too dull for me,-10,340,20","I don't like the color choice,-30,220,20","reminds me of kandinsky,14,240,20","drab and dreary,-21,400,20","The lack of color variance leaves it looking ugly even if I like the brush strokes,-10,20,20","Melissa","reminds me of kandinsky,14,240,20","Jasmine","Colors too dull for me,-10,340,20","Victoria","drab and dreary,-21,400,20","7"
"2846","","survey-text","207","1928207","0.0-202.0-0.0","A29HNN7SWL3N31","","","","{""Q0"":""I felt very interested""}","","","","","","","","","","","","","","","","","","","","","","",""
"3932","","image-slider-response","208","1932142","0.0-203.0","A29HNN7SWL3N31","","","","","45","","","","","","","","","","","","","","","","","","","","","",""
"null","","image-button-response","209","1937147","0.0-204.0","A29HNN7SWL3N31","img_art/16.jpg","null","","","","","","","","","","","","","","","","","","","","","","","","",""
"596","","image-button-response","210","1937748","0.0-205.0","A29HNN7SWL3N31","img_art/16.jpg","4","","","","","","","","","","","","","","","","","","","","","","","","",""
"886","","image-button-response","211","1938642","0.0-206.0-0.0","A29HNN7SWL3N31","img_art/16.jpg","3","","","","","","","","","","","","","","","","","","","","","","","","",""
"593","","image-button-response","212","1939251","0.0-207.0-0.0","A29HNN7SWL3N31","img_art/16.jpg","5","","","","","","","","","","","","","","","","","","","","","","","","",""
"null","","html-keyboard-response","213","1939757","0.0-208.0","A29HNN7SWL3N31","<p style=""font-size: 48px;"">+</p>","","","","","null","allTrialResponses","500","1","23","img_art/16.jpg","45","I felt very interested","Sabrina,Jasmine,Kelsey,Melissa,Victoria,Morgan","Kind of an edgy teenager vibe,32,120,20","I like it because it's quite different from the rest,23,340,20","its disturbing! what the heck,-27,240,20","so close to feeling intentional,-4,240,20","liked the bear, nothing else made sense,10,400,20","Strange and bleak.,-20,380,20","Victoria","liked the bear, nothing else made sense,10,400,20","Melissa","so close to feeling intentional,-4,240,20","Morgan","Strange and bleak.,-20,380,20","7"
"3337","","survey-text","214","1943107","0.0-209.0-0.0","A29HNN7SWL3N31","","","","{""Q0"":""I felt very interested""}","","","","","","","","","","","","","","","","","","","","","","",""
"3059","","image-slider-response","215","1946168","0.0-210.0","A29HNN7SWL3N31","","","","","37","","","","","","","","","","","","","","","","","","","","","",""
"4070","","image-button-response","216","1951171","0.0-211.0","A29HNN7SWL3N31","img_art/30.jpg","5","","","","","","","","","","","","","","","","","","","","","","","","",""
"839","","image-button-response","217","1952019","0.0-212.0","A29HNN7SWL3N31","img_art/30.jpg","2","","","","","","","","","","","","","","","","","","","","","","","","",""
"368","","image-button-response","218","1952399","0.0-213.0-0.0","A29HNN7SWL3N31","img_art/30.jpg","4","","","","","","","","","","","","","","","","","","","","","","","","",""
"873","","image-button-response","219","1953274","0.0-214.0-0.0","A29HNN7SWL3N31","img_art/30.jpg","3","","","","","","","","","","","","","","","","","","","","","","","","",""
"null","","html-keyboard-response","220","1954276","0.0-215.0","A29HNN7SWL3N31","<p style=""font-size: 48px;"">+</p>","","","","","null","allTrialResponses","1000","1","24","img_art/30.jpg","37","I felt very interested","Kaitlin,Kimberly,Madeline,Melissa,Victoria,Morgan","the different roads to take in life,10,60,20","looks like eels,-20,260,20","A bit haphazard looking and lacking in vision,2,40,20","muddy, feels unintentional,-50,240,20","to dark and dreary,-28,400,20","Sleek eel in the abstract ocean.,30,380,20","Madeline","A bit haphazard looking and lacking in vision,2,40,20","Victoria","to dark and dreary,-28,400,20","Melissa","muddy, feels unintentional,-50,240,20","7"
"3784","","survey-text","221","1958070","0.0-216.0-0.0","A29HNN7SWL3N31","","","","{""Q0"":""I felt very interested""}","","","","","","","","","","","","","","","","","","","","","","",""
"2557","","image-slider-response","222","1960636","0.0-217.0","A29HNN7SWL3N31","","","","","39","","","","","","","","","","","","","","","","","","","","","",""
"4969","","image-button-response","223","1965638","0.0-218.0","A29HNN7SWL3N31","img_art/3.jpg","0","","","","","","","","","","","","","","","","","","","","","","","","",""
"1005","","image-button-response","224","1966654","0.0-219.0","A29HNN7SWL3N31","img_art/3.jpg","1","","","","","","","","","","","","","","","","","","","","","","","","",""
"650","","image-button-response","225","1967308","0.0-220.0-0.0","A29HNN7SWL3N31","img_art/3.jpg","4","","","","","","","","","","","","","","","","","","","","","","","","",""
"787","","image-button-response","226","1968107","0.0-221.0-0.0","A29HNN7SWL3N31","img_art/3.jpg","5","","","","","","","","","","","","","","","","","","","","","","","","",""
"null","","html-keyboard-response","227","1969116","0.0-222.0","A29HNN7SWL3N31","<p style=""font-size: 48px;"">+</p>","","","","","null","allTrialResponses","1000","1","25","img_art/3.jpg","39","I felt very interested","Destiny,Katelyn,Madeline,Melissa,Victoria,Alicia","im just getting more agitated and less appreciative of art. I have absolutely no scale to base on,-34,360,20","No substance or feeling to it,-20,100,20","Scribbly a bit too much,-30,40,20","strong color, interesting negative shapes,21,240,20","makes me think of anger,-33,400,20","scribbles in red. 2 minute piece.,-30,120,20","Katelyn","No substance or feeling to it,-20,100,20","Victoria","makes me think of anger,-33,400,20","Alicia","scribbles in red. 2 minute piece.,-30,120,20","7"
"5253","","survey-text","228","1974397","0.0-223.0-0.0","A29HNN7SWL3N31","","","","{""Q0"":""table""}","","","","","","","","","","","","","","","","","","","","","","",""
"4308","","survey-text","229","1978709","0.0-224.0-0.0","A29HNN7SWL3N31","","","","{""Q0"":""I felt very interested""}","","","","","","","","","","","","","","","","","","","","","","",""
"3037","","image-slider-response","230","1981747","0.0-225.0","A29HNN7SWL3N31","","","","","34","","","","","","","","","","","","","","","","","","","","","",""
"null","","image-button-response","231","1986754","0.0-226.0","A29HNN7SWL3N31","img_art/29.jpg","null","","","","","","","","","","","","","","","","","","","","","","","","",""
"3069","","image-button-response","232","1989825","0.0-227.0","A29HNN7SWL3N31","img_art/29.jpg","5","","","","","","","","","","","","","","","","","","","","","","","","",""
"3","","image-button-response","233","1989830","0.0-228.0-0.0","A29HNN7SWL3N31","img_art/29.jpg","4","","","","","","","","","","","","","","","","","","","","","","","","",""
"201","","image-button-response","234","1990037","0.0-229.0-0.0","A29HNN7SWL3N31","img_art/29.jpg","3","","","","","","","","","","","","","","","","","","","","","","","","",""
"null","","html-keyboard-response","235","1991538","0.0-230.0","A29HNN7SWL3N31","<p style=""font-size: 48px;"">+</p>","","","","","null","allTrialResponses","1500","1","26","img_art/29.jpg","34","I felt very interested","Michaela,Katelyn,Kristen,Alexa,Victoria,Alicia","Like a crime scene. It's neat and different,30,260,20","Grabs interest but then confuses me,6,100,20","danger, crime scene,,10,280,20","Very wild and I like it,20,40,20","makes me think of destruction,-20,400,20","easy, too abstract for me, don't get it.,-25,120,20","Alicia","easy, too abstract for me, don't get it.,-25,120,20","Victoria","makes me think of destruction,-20,400,20","Alexa","Very wild and I like it,20,40,20","7"
"3486","","survey-text","236","1995035","0.0-231.0-0.0","A29HNN7SWL3N31","","","","{""Q0"":""I felt very interested""}","","","","","","","","","","","","","","","","","","","","","","",""
"2463","","image-slider-response","237","1997499","0.0-232.0","A29HNN7SWL3N31","","","","","31","","","","","","","","","","","","","","","","","","","","","",""
"4867","","image-button-response","238","2002500","0.0-233.0","A29HNN7SWL3N31","img_art/15.jpg","4","","","","","","","","","","","","","","","","","","","","","","","","",""
"562","","image-button-response","239","2003067","0.0-234.0","A29HNN7SWL3N31","img_art/15.jpg","3","","","","","","","","","","","","","","","","","","","","","","","","",""
"1479","","image-button-response","240","2004552","0.0-235.0-0.0","A29HNN7SWL3N31","img_art/15.jpg","5","","","","","","","","","","","","","","","","","","","","","","","","",""
"497","","image-button-response","241","2005052","0.0-236.0-0.0","A29HNN7SWL3N31","img_art/15.jpg","4","","","","","","","","","","","","","","","","","","","","","","","","",""
"null","","html-keyboard-response","242","2006057","0.0-237.0","A29HNN7SWL3N31","<p style=""font-size: 48px;"">+</p>","","","","","null","allTrialResponses","1000","1","27","img_art/15.jpg","31","I felt very interested","Marissa,Christina,Amy,Alexa,Victoria,Alicia","I am reminded of spring flowers swaying in the dark night's breeze,9,160,20","I really like the colors,14,240,20","basic colors and pleasing shapes providing a calming effect,15,220,20","Although it looks a bit bland in terms of color, I really like the print/pattern,25,40,20","makes me feel calm,40,400,20","It's ok, it makes me think. That's something I guess.,8,120,20","Alexa","Although it looks a bit bland in terms of color, I really like the print/pattern,25,40,20","Alicia","It's ok, it makes me think. That's something I guess.,8,120,20","Victoria","makes me feel calm,40,400,20","7"
"4564","","survey-text","243","2010629","0.0-238.0-0.0","A29HNN7SWL3N31","","","","{""Q0"":""I felt very interested""}","","","","","","","","","","","","","","","","","","","","","","",""
"2839","","image-slider-response","244","2013470","0.0-239.0","A29HNN7SWL3N31","","","","","38","","","","","","","","","","","","","","","","","","","","","",""
"4641","","image-button-response","245","2018475","0.0-240.0","A29HNN7SWL3N31","img_art/26.jpg","2","","","","","","","","","","","","","","","","","","","","","","","","",""
"420","","image-button-response","246","2018910","0.0-241.0","A29HNN7SWL3N31","img_art/26.jpg","1","","","","","","","","","","","","","","","","","","","","","","","","",""
"398","","image-button-response","247","2019310","0.0-242.0-0.0","A29HNN7SWL3N31","img_art/26.jpg","0","","","","","","","","","","","","","","","","","","","","","","","","",""
"1193","","image-button-response","248","2020509","0.0-243.0-0.0","A29HNN7SWL3N31","img_art/26.jpg","5","","","","","","","","","","","","","","","","","","","","","","","","",""
"null","","html-keyboard-response","249","2021015","0.0-244.0","A29HNN7SWL3N31","<p style=""font-size: 48px;"">+</p>","","","","","null","allTrialResponses","500","1","28","img_art/26.jpg","38","I felt very interested","Bailey,Autumn,Jenna,Alexa,Victoria,Alicia","Too blocky and unfocused. It's like the inside of a house, and the outside.,-24,360,20","Murky, messy, kid like.,-45,340,20","soft colors & brush work. very easy to look at. makes me happy.,50,360,20","Looks messy and like it was painted by a small child,-48,40,20","feels a tad old,30,400,20","I like the simple watercolor colors, makes my mind work, thumbs up.,27,120,20","Autumn","Murky, messy, kid like.,-45,340,20","Bailey","Too blocky and unfocused. It's like the inside of a house, and the outside.,-24,360,20","Alicia","I like the simple watercolor colors, makes my mind work, thumbs up.,27,120,20","7"
"6864","","survey-text","250","2027888","0.0-245.0-0.0","A29HNN7SWL3N31","","","","{""Q0"":""I felt very interested""}","","","","","","","","","","","","","","","","","","","","","","",""
"2722","","image-slider-response","251","2030610","0.0-246.0","A29HNN7SWL3N31","","","","","36","","","","","","","","","","","","","","","","","","","","","",""
"4327","","image-button-response","252","2035615","0.0-247.0","A29HNN7SWL3N31","img_art/9.jpg","5","","","","","","","","","","","","","","","","","","","","","","","","",""
"782","","image-button-response","253","2036397","0.0-248.0","A29HNN7SWL3N31","img_art/9.jpg","3","","","","","","","","","","","","","","","","","","","","","","","","",""
"731","","image-button-response","254","2037137","0.0-249.0-0.0","A29HNN7SWL3N31","img_art/9.jpg","4","","","","","","","","","","","","","","","","","","","","","","","","",""
"945","","image-button-response","255","2038087","0.0-250.0-0.0","A29HNN7SWL3N31","img_art/9.jpg","5","","","","","","","","","","","","","","","","","","","","","","","","",""
"null","","html-keyboard-response","256","2039615","0.0-251.0","A29HNN7SWL3N31","<p style=""font-size: 48px;"">+</p>","","","","","null","allTrialResponses","1500","1","29","img_art/9.jpg","36","I felt very interested","Bailey,Autumn,Briana,Rebecca,Margaret,Alicia","Not very enticing. No real substance other than a lady laying down,-35,360,20","Abstract but not well made,-26,340,20","I see a foot. Idk colors are pleasant,12,400,20","love the color palette, but I'm gonna be honest, I don't really understand it,14,100,20","keeps me interested. like the colors,17,100,20","Abstract titanic scene. It's nice though. I like how it makes me feel.,28,120,20","Rebecca","love the color palette, but I'm gonna be honest, I don't really understand it,14,100,20","Margaret","keeps me interested. like the colors,17,100,20","Alicia","Abstract titanic scene. It's nice though. I like how it makes me feel.,28,120,20","7"
"5762","","survey-text","257","2045389","0.0-252.0-0.0","A29HNN7SWL3N31","","","","{""Q0"":""I felt very interested""}","","","","","","","","","","","","","","","","","","","","","","",""
"2516","","image-slider-response","258","2047909","0.0-253.0","A29HNN7SWL3N31","","","","","45","","","","","","","","","","","","","","","","","","","","","",""
"4515","","image-button-response","259","2052913","0.0-254.0","A29HNN7SWL3N31","img_art/12.jpg","4","","","","","","","","","","","","","","","","","","","","","","","","",""
"566","","image-button-response","260","2053487","0.0-255.0","A29HNN7SWL3N31","img_art/12.jpg","3","","","","","","","","","","","","","","","","","","","","","","","","",""
"680","","image-button-response","261","2054178","0.0-256.0-0.0","A29HNN7SWL3N31","img_art/12.jpg","2","","","","","","","","","","","","","","","","","","","","","","","","",""
"322","","image-button-response","262","2054501","0.0-257.0-0.0","A29HNN7SWL3N31","img_art/12.jpg","1","","","","","","","","","","","","","","","","","","","","","","","","",""
"null","","html-keyboard-response","263","2055006","0.0-258.0","A29HNN7SWL3N31","<p style=""font-size: 48px;"">+</p>","","","","","null","allTrialResponses","500","1","30","img_art/12.jpg","45","I felt very interested","Erika,Kylie,Elizabeth,Rebecca,Margaret,Alicia","I don't like it, but I appreciate the effort and technique,11,100,20","Night and day, light and dark,35,300,20","Explosion of texture,31,20,20","so many different available interpretations for this, would love to closer.,24,100,20","I like the bottom half and hate the top half,7,100,20","it's ok, but blocky, looks old.,3,120,20","Rebecca","so many different available interpretations for this, would love to closer.,24,100,20","Elizabeth","Explosion of texture,31,20,20","Kylie","Night and day, light and dark,35,300,20","7"
"3022","","image-button-response_instructions","264","2058035","0.0-259.0","A29HNN7SWL3N31","","0","instructions","","","","","","","","","","","","","","","","","","","","","","","",""
"1536","","image-button-response","265","2059620","0.0-260.0","A29HNN7SWL3N31","","0","","","","","","","","","","","","","","","","","","","","","","","","",""
