"rt","url","trial_type","trial_index","time_elapsed","internal_node_id","participant_id","stimulus","button_pressed","Name","responses","response","key_press","variableName","fixationTime","condition","trial","photo","subjectRating","subjectResponse","agentsNames","agent_1_Response","agent_2_Response","agent_3_Response","agent_4_Response","agent_5_Response","agent_6_Response","kept_1_name","kept_1_response","kept_2_name","kept_2_response","kept_3_name","kept_3_response","errorCounter"
"6809","external_page_harvard.html","external-html","0","6894","0.0-0.0","A2AMAU5O7O3AWX","","","","","","","","","","","","","","","","","","","","","","","","","","",""
"1252","","image-button-response","1","8149","0.0-1.0","A2AMAU5O7O3AWX","","1","","","","","","","","","","","","","","","","","","","","","","","","",""
"1515","","image-button-response","2","9673","0.0-2.0-0.0","A2AMAU5O7O3AWX","","1","phone","","","","","","","","","","","","","","","","","","","","","","","",""
"35828","","survey-text","3","45506","0.0-3.0-0.0","A2AMAU5O7O3AWX","","","","{""Q0"":""A2AMAU5O7O3AWX""}","","","","","","","","","","","","","","","","","","","","","","",""
"5297","","image-button-response_instructions","4","50807","0.0-4.0","A2AMAU5O7O3AWX","","0","instructions","","","","","","","","","","","","","","","","","","","","","","","",""
"11781","","image-button-response_instructions","5","62591","0.0-5.0","A2AMAU5O7O3AWX","img_art/ins/popularity/ins1.png","0","instructions","","","","","","","","","","","","","","","","","","","","","","","",""
"7319","","image-button-response_instructions","6","69913","0.0-6.0","A2AMAU5O7O3AWX","img_art/ins/popularity/ins2.png","0","instructions","","","","","","","","","","","","","","","","","","","","","","","",""
"7692","","image-button-response_instructions","7","77608","0.0-7.0","A2AMAU5O7O3AWX","img_art/ins/popularity/ins2Extreme.png","0","instructions","","","","","","","","","","","","","","","","","","","","","","","",""
"16092","","image-button-response_instructions","8","93702","0.0-8.0","A2AMAU5O7O3AWX","img_art/ins/popularity/ins3KEEPpop.PNG","0","instructions","","","","","","","","","","","","","","","","","","","","","","","",""
"2020","","image-button-response_instructions","9","95725","0.0-9.0","A2AMAU5O7O3AWX","img_art/ins/popularity/ins3ANamepop.PNG","0","instructions","","","","","","","","","","","","","","","","","","","","","","","",""
"2937","","image-button-response_instructions","10","98665","0.0-10.0","A2AMAU5O7O3AWX","img_art/ins/popularity/ins3ARatingpop.png","0","instructions","","","","","","","","","","","","","","","","","","","","","","","",""
"2745","","image-button-response_instructions","11","101412","0.0-11.0","A2AMAU5O7O3AWX","img_art/ins/popularity/ins3ATextpop.png","0","instructions","","","","","","","","","","","","","","","","","","","","","","","",""
"85560","","image-button-response_instructions","12","186975","0.0-12.0","A2AMAU5O7O3AWX","img_art/ins/popularity/ins3ALikespop.png","0","instructions","","","","","","","","","","","","","","","","","","","","","","","",""
"9356","","image-button-response_instructions","13","196335","0.0-13.0","A2AMAU5O7O3AWX","img_art/ins/popularity/ins3KEEPpop.PNG","0","instructions","","","","","","","","","","","","","","","","","","","","","","","",""
"7226","","image-button-response_instructions","14","203563","0.0-14.0","A2AMAU5O7O3AWX","img_art/ins/popularity/ins3_5RED.png","0","instructions","","","","","","","","","","","","","","","","","","","","","","","",""
"3977","","image-button-response_instructions","15","207543","0.0-15.0","A2AMAU5O7O3AWX","img_art/ins/popularity/ins3KEEPpop.PNG","0","instructions","","","","","","","","","","","","","","","","","","","","","","","",""
"12388","","image-button-response_instructions","16","219934","0.0-16.0","A2AMAU5O7O3AWX","img_art/ins/popularity/ins4KEEPpop.PNG","0","instructions","","","","","","","","","","","","","","","","","","","","","","","",""
"2085","","image-button-response_instructions","17","222021","0.0-17.0","A2AMAU5O7O3AWX","img_art/ins/popularity/ins5KEEPpop.PNG","0","instructions","","","","","","","","","","","","","","","","","","","","","","","",""
"1169","","image-button-response_instructions","18","223192","0.0-18.0","A2AMAU5O7O3AWX","","0","instructions","","","","","","","","","","","","","","","","","","","","","","","",""
"3787","","survey-text","19","227015","0.0-19.0-0.0","A2AMAU5O7O3AWX","","","","{""Q0"":""but""}","","","","","","","","","","","","","","","","","","","","","","",""
"17582","","survey-text","20","244599","0.0-20.0-0.0","A2AMAU5O7O3AWX","","","","{""Q0"":""I like the brushstrokes but I do not like the colors because they look harsh.""}","","","","","","","","","","","","","","","","","","","","","","",""
"4963.29999999702","","image-slider-response","21","249567","0.0-21.0","A2AMAU5O7O3AWX","","","","","-15","","","","","","","","","","","","","","","","","","","","","",""
"null","","image-button-response","22","254581","0.0-22.0","A2AMAU5O7O3AWX","img_art/ins/1.jpg","null","","","","","","","","","","","","","","","","","","","","","","","","",""
"5607","","image-button-response","23","260192","0.0-23.0","A2AMAU5O7O3AWX","img_art/ins/1.jpg","0","","","","","","","","","","","","","","","","","","","","","","","","",""
"2752","","image-button-response","24","262949","0.0-24.0-0.0","A2AMAU5O7O3AWX","img_art/ins/1.jpg","1","","","","","","","","","","","","","","","","","","","","","","","","",""
"5782","","image-button-response","25","268736","0.0-25.0-0.0","A2AMAU5O7O3AWX","img_art/ins/1.jpg","5","","","","","","","","","","","","","","","","","","","","","","","","",""
"null","","html-keyboard-response","26","270242","0.0-26.0","A2AMAU5O7O3AWX","<p style=""font-size: 48px;"">+</p>","","","","","null","allTrialResponses","1500","1","-2","img_art/ins/1.jpg","-15","I like the brushstrokes but I do not like the colors because they look harsh.","Allison,Ashley,Beth,Dora,Erika,Jen","looks like a lot of things going on in the mist,20,20,20","I just don't get why these type of art would be popular,-32,40,20","This color reminds me of poo,-46,60,20","looks like what my niece in 3rd grade did this afternoon,-50,80,20","I like the sophisticated brushwork,40,100,20","It reminds me of a candy land dream I had,36,120,20","Allison","looks like a lot of things going on in the mist,20,20,20","Ashley","I just don't get why these type of art would be popular,-32,40,20","Jen","It reminds me of a candy land dream I had,36,120,20","0"
"23261","","survey-text","27","293512","0.0-27.0-0.0","A2AMAU5O7O3AWX","","","","{""Q0"":""I feel like this is dark and moody""}","","","","","","","","","","","","","","","","","","","","","","",""
"4571.5","","image-slider-response","28","298088","0.0-28.0","A2AMAU5O7O3AWX","","","","","-8","","","","","","","","","","","","","","","","","","","","","",""
"null","","image-button-response","29","303094","0.0-29.0","A2AMAU5O7O3AWX","img_art/ins/2.jpg","null","","","","","","","","","","","","","","","","","","","","","","","","",""
"1202","","image-button-response","30","304301","0.0-30.0","A2AMAU5O7O3AWX","img_art/ins/2.jpg","4","","","","","","","","","","","","","","","","","","","","","","","","",""
"3276","","image-button-response","31","307581","0.0-31.0-0.0","A2AMAU5O7O3AWX","img_art/ins/2.jpg","5","","","","","","","","","","","","","","","","","","","","","","","","",""
"1208","","image-button-response","32","308794","0.0-32.0-0.0","A2AMAU5O7O3AWX","img_art/ins/2.jpg","0","","","","","","","","","","","","","","","","","","","","","","","","",""
"null","","html-keyboard-response","33","309304","0.0-33.0","A2AMAU5O7O3AWX","<p style=""font-size: 48px;"">+</p>","","","","","null","allTrialResponses","500","1","-1","img_art/ins/2.jpg","-8","I feel like this is dark and moody","Allison,Ashley,Katie,Jenna,Kara,Jen","I don't have strong feelings about this,10,20,20","Idk, it is just annoying,-32,40,20","too much color!,-28,180,20","One of my pet peevs,-48,140,20","I like the blocks of color arrangements,30,160,20","It reminds me of a fireplace,36,120,20","Kara","I like the blocks of color arrangements,30,160,20","Jen","It reminds me of a fireplace,36,120,20","Allison","I don't have strong feelings about this,10,20,20","0"
"10541","","survey-text","34","319853","0.0-34.0-0.0","A2AMAU5O7O3AWX","","","","{""Q0"":""I like the colors a lot, it reminds me of winter.""}","","","","","","","","","","","","","","","","","","","","","","",""
"3649.1999999955297","","image-slider-response","35","323505","0.0-35.0","A2AMAU5O7O3AWX","","","","","13","","","","","","","","","","","","","","","","","","","","","",""
"null","","image-button-response","36","328509","0.0-36.0","A2AMAU5O7O3AWX","img_art/ins/3.jpg","null","","","","","","","","","","","","","","","","","","","","","","","","",""
"1700","","image-button-response","37","330213","0.0-37.0","A2AMAU5O7O3AWX","img_art/ins/3.jpg","5","","","","","","","","","","","","","","","","","","","","","","","","",""
"7109","","image-button-response","38","337326","0.0-38.0-0.0","A2AMAU5O7O3AWX","img_art/ins/3.jpg","4","","","","","","","","","","","","","","","","","","","","","","","","",""
"1890","","image-button-response","39","339221","0.0-39.0-0.0","A2AMAU5O7O3AWX","img_art/ins/3.jpg","1","","","","","","","","","","","","","","","","","","","","","","","","",""
"null","","html-keyboard-response","40","340731","0.0-40.0","A2AMAU5O7O3AWX","<p style=""font-size: 48px;"">+</p>","","","","","null","allTrialResponses","1500","1","0","img_art/ins/3.jpg","13","I like the colors a lot, it reminds me of winter.","Allison,Rose,Mary,Leslie,Kara,Jen","enjoy the different shades of blue,22,20,20","My daily routine, it's depressing,-20,240,20","I like the overlapping of brushes,41,220,20","It's an alright work,15,200,20","calming blue is very nice,36,160,20","I can feel a rainy day from this painting,18,120,20","Jen","I can feel a rainy day from this painting,18,120,20","Kara","calming blue is very nice,36,160,20","Rose","My daily routine, it's depressing,-20,240,20","0"
"4284","","image-button-response_instructions","41","345023","0.0-41.0","A2AMAU5O7O3AWX","","0","instructions","","","","","","","","","","","","","","","","","","","","","","","",""
"10941","","survey-likert","42","355967","0.0-42.0-0.0","A2AMAU5O7O3AWX","","","","{""Q0"":"""",""Q1"":0,""Q2"":1}","","","","","","","","","","","","","","","","","","","","","","",""
"3382","","survey-text","43","359356","0.0-43.0-0.0","A2AMAU5O7O3AWX","","","","{""Q0"":""rock""}","","","","","","","","","","","","","","","","","","","","","","",""
"8264","","survey-text","44","367623","0.0-44.0-0.0","A2AMAU5O7O3AWX","","","","{""Q0"":""It reminds me of a dark rainy day.""}","","","","","","","","","","","","","","","","","","","","","","",""
"3925","","image-slider-response","45","371551","0.0-45.0","A2AMAU5O7O3AWX","","","","","27","","","","","","","","","","","","","","","","","","","","","",""
"null","","image-button-response","46","376585","0.0-46.0","A2AMAU5O7O3AWX","img_art/13.jpg","null","","","","","","","","","","","","","","","","","","","","","","","","",""
"5074","","image-button-response","47","381664","0.0-47.0","A2AMAU5O7O3AWX","img_art/13.jpg","1","","","","","","","","","","","","","","","","","","","","","","","","",""
"5590","","image-button-response","48","387257","0.0-48.0-0.0","A2AMAU5O7O3AWX","img_art/13.jpg","0","","","","","","","","","","","","","","","","","","","","","","","","",""
"2847","","image-button-response","49","390109","0.0-49.0-0.0","A2AMAU5O7O3AWX","img_art/13.jpg","2","","","","","","","","","","","","","","","","","","","","","","","","",""
"null","","html-keyboard-response","50","391615","0.0-50.0","A2AMAU5O7O3AWX","<p style=""font-size: 48px;"">+</p>","","","","","null","allTrialResponses","1500","1","1","img_art/13.jpg","27","It reminds me of a dark rainy day.","Katherine,Cassandra,Jenna,Madeline,Rebecca,Bailey","Best color combo. i love this.,50,120,20","I love the colors and the texture,37,120,20","exciting & chaotic. love the colors.,50,360,20","Really love the colors,11,40,20","love the style but not very novel,9,100,20","Looks like an upclose dried set of water droplets. Boring.,-25,360,20","Cassandra","I love the colors and the texture,37,120,20","Katherine","Best color combo. i love this.,50,120,20","Jenna","exciting & chaotic. love the colors.,50,360,20","0"
"53043","","survey-text","51","444666","0.0-51.0-0.0","A2AMAU5O7O3AWX","","","","{""Q0"":""It reminds me of the sea and a sunset. It's calming.""}","","","","","","","","","","","","","","","","","","","","","","",""
"6882.5","","image-slider-response","52","451551","0.0-52.0","A2AMAU5O7O3AWX","","","","","42","","","","","","","","","","","","","","","","","","","","","",""
"2786","","image-button-response","53","456557","0.0-53.0","A2AMAU5O7O3AWX","img_art/21.jpg","0","","","","","","","","","","","","","","","","","","","","","","","","",""
"6129","","image-button-response","54","462690","0.0-54.0","A2AMAU5O7O3AWX","img_art/21.jpg","1","","","","","","","","","","","","","","","","","","","","","","","","",""
"1504","","image-button-response","55","464198","0.0-55.0-0.0","A2AMAU5O7O3AWX","img_art/21.jpg","2","","","","","","","","","","","","","","","","","","","","","","","","",""
"4397","","image-button-response","56","468600","0.0-56.0-0.0","A2AMAU5O7O3AWX","img_art/21.jpg","0","","","","","","","","","","","","","","","","","","","","","","","","",""
"null","","html-keyboard-response","57","469608","0.0-57.0","A2AMAU5O7O3AWX","<p style=""font-size: 48px;"">+</p>","","","","","null","allTrialResponses","1000","1","2","img_art/21.jpg","42","It reminds me of the sea and a sunset. It's calming.","Katherine,Cassandra,Jenna,Erika,Mary,Sarah","I can't explain why this struck me as absolutely gorgeous. Like the clashing between 2 different worlds,43,120,20","I liked it...it looked like a storm raging.,12,120,20","beautiful. reminds me of a storm brewing over sea. i love the white dots.,45,360,20","Indistinct, but beautiful hues,10,100,20","This is lovely. I like the mix of colors, the warn and cool slowly combining.,39,180,20","I love the section of blues, the colors overall are really lovely,31,180,20","Cassandra","I liked it...it looked like a storm raging.,12,120,20","Jenna","beautiful. reminds me of a storm brewing over sea. i love the white dots.,45,360,20","Katherine","I can't explain why this struck me as absolutely gorgeous. Like the clashing between 2 different worlds,43,120,20","0"
"11834","","survey-text","58","481450","0.0-58.0-0.0","A2AMAU5O7O3AWX","","","","{""Q0"":""I'm not a huge fan of this, it's kind of dark and jarring.""}","","","","","","","","","","","","","","","","","","","","","","",""
"4249","","image-slider-response","59","485703","0.0-59.0","A2AMAU5O7O3AWX","","","","","-14","","","","","","","","","","","","","","","","","","","","","",""
"null","","image-button-response","60","490714","0.0-60.0","A2AMAU5O7O3AWX","img_art/20.jpg","null","","","","","","","","","","","","","","","","","","","","","","","","",""
"4927","","image-button-response","61","495646","0.0-61.0","A2AMAU5O7O3AWX","img_art/20.jpg","4","","","","","","","","","","","","","","","","","","","","","","","","",""
"8779","","image-button-response","62","504430","0.0-62.0-0.0","A2AMAU5O7O3AWX","img_art/20.jpg","1","","","","","","","","","","","","","","","","","","","","","","","","",""
"5269","","image-button-response","63","509704","0.0-63.0-0.0","A2AMAU5O7O3AWX","img_art/20.jpg","2","","","","","","","","","","","","","","","","","","","","","","","","",""
"null","","html-keyboard-response","64","510212","0.0-64.0","A2AMAU5O7O3AWX","<p style=""font-size: 48px;"">+</p>","","","","","null","allTrialResponses","500","1","3","img_art/20.jpg","-14","I'm not a huge fan of this, it's kind of dark and jarring.","Katherine,Cassandra,Jenna,Monica,Julia,Marissa","More dark colors and blurry objects.,13,120,20","I liked this...I liked the blue and the black and I liked the smoothness to it.,31,120,20","could look for hours. love the brush work. color choices look like a desert.,50,360,20","It looks like a junkyard and isn't appealing,-22,360,20","The colors are nice, and the shapes conjure the decay of the city in the face of natural entropy,19,40,20","I feel intrigued and impressed,34,160,20","Julia","The colors are nice, and the shapes conjure the decay of the city in the face of natural entropy,19,40,20","Cassandra","I liked this...I liked the blue and the black and I liked the smoothness to it.,31,120,20","Jenna","could look for hours. love the brush work. color choices look like a desert.,50,360,20","0"
"19915","","survey-text","65","530135","0.0-65.0-0.0","A2AMAU5O7O3AWX","","","","{""Q0"":""I don't know how I feel about this, it's chaotic but the brushwork is very cool.""}","","","","","","","","","","","","","","","","","","","","","","",""
"5834.29999999702","","image-slider-response","66","535973","0.0-66.0","A2AMAU5O7O3AWX","","","","","3","","","","","","","","","","","","","","","","","","","","","",""
"null","","image-button-response","67","540977","0.0-67.0","A2AMAU5O7O3AWX","img_art/23.jpg","null","","","","","","","","","","","","","","","","","","","","","","","","",""
"7434","","image-button-response","68","548416","0.0-68.0","A2AMAU5O7O3AWX","img_art/23.jpg","0","","","","","","","","","","","","","","","","","","","","","","","","",""
"4137","","image-button-response","69","552558","0.0-69.0-0.0","A2AMAU5O7O3AWX","img_art/23.jpg","4","","","","","","","","","","","","","","","","","","","","","","","","",""
"6077","","image-button-response","70","558640","0.0-70.0-0.0","A2AMAU5O7O3AWX","img_art/23.jpg","2","","","","","","","","","","","","","","","","","","","","","","","","",""
"null","","html-keyboard-response","71","559149","0.0-71.0","A2AMAU5O7O3AWX","<p style=""font-size: 48px;"">+</p>","","","","","null","allTrialResponses","500","1","4","img_art/23.jpg","3","I don't know how I feel about this, it's chaotic but the brushwork is very cool.","Leslie,Cassandra,Jenna,Samantha,Julia,Catherine","It reminds me of being in a crowded place.,-10,380,20","I had a very neutral feeling to this,no feelings at all.,1,120,20","awesome colors. love the white drawing the eye to the center. oddly comforting.,50,360,20","The more i look at it the more i like it  the dots of color and very interesting,50,140,20","this looks like a pop rock album cover,-10,40,20","Partying, dancing, delusion, kaus.,10,160,20","Leslie","It reminds me of being in a crowded place.,-10,380,20","Julia","this looks like a pop rock album cover,-10,40,20","Jenna","awesome colors. love the white drawing the eye to the center. oddly comforting.,50,360,20","0"
"20377","","survey-text","72","579534","0.0-72.0-0.0","A2AMAU5O7O3AWX","","","","{""Q0"":""I don't know why I like this, it reminds me of a child's drawing but it's kind of delusional.""}","","","","","","","","","","","","","","","","","","","","","","",""
"3366.10000000149","","image-slider-response","73","582904","0.0-73.0","A2AMAU5O7O3AWX","","","","","10","","","","","","","","","","","","","","","","","","","","","",""
"null","","image-button-response","74","587909","0.0-74.0","A2AMAU5O7O3AWX","img_art/9.jpg","null","","","","","","","","","","","","","","","","","","","","","","","","",""
"2185","","image-button-response","75","590098","0.0-75.0","A2AMAU5O7O3AWX","img_art/9.jpg","2","","","","","","","","","","","","","","","","","","","","","","","","",""
"4535","","image-button-response","76","594637","0.0-76.0-0.0","A2AMAU5O7O3AWX","img_art/9.jpg","4","","","","","","","","","","","","","","","","","","","","","","","","",""
"5672","","image-button-response","77","600314","0.0-77.0-0.0","A2AMAU5O7O3AWX","img_art/9.jpg","5","","","","","","","","","","","","","","","","","","","","","","","","",""
"null","","html-keyboard-response","78","601822","0.0-78.0","A2AMAU5O7O3AWX","<p style=""font-size: 48px;"">+</p>","","","","","null","allTrialResponses","1500","1","5","img_art/9.jpg","10","I don't know why I like this, it reminds me of a child's drawing but it's kind of delusional.","Leslie,Claire,Jenna,Alexandra,Julia,Emily","The colors are pretty, and remind me of a circus.,5,380,20","the colors are nice,6,260,20","gorgeous colors, love the little details,42,360,20","This picture is too busy and ugly,-20,60,20","I don't like the framing of this one,-25,40,20","Looks like a young child drew it.,-45,40,20","Jenna","gorgeous colors, love the little details,42,360,20","Julia","I don't like the framing of this one,-25,40,20","Emily","Looks like a young child drew it.,-45,40,20","0"
"4120","","survey-text","79","605954","0.0-79.0-0.0","A2AMAU5O7O3AWX","","","","{""Q0"":""sky""}","","","","","","","","","","","","","","","","","","","","","","",""
"19967","","survey-text","80","625923","0.0-80.0-0.0","A2AMAU5O7O3AWX","","","","{""Q0"":""It reminds me of a dirty city or junkyard.""}","","","","","","","","","","","","","","","","","","","","","","",""
"2731.10000000149","","image-slider-response","81","628658","0.0-81.0","A2AMAU5O7O3AWX","","","","","-15","","","","","","","","","","","","","","","","","","","","","",""
"3277","","image-button-response","82","633670","0.0-82.0","A2AMAU5O7O3AWX","img_art/29.jpg","3","","","","","","","","","","","","","","","","","","","","","","","","",""
"4801","","image-button-response","83","638475","0.0-83.0","A2AMAU5O7O3AWX","img_art/29.jpg","2","","","","","","","","","","","","","","","","","","","","","","","","",""
"4758","","image-button-response","84","643238","0.0-84.0-0.0","A2AMAU5O7O3AWX","img_art/29.jpg","1","","","","","","","","","","","","","","","","","","","","","","","","",""
"1943","","image-button-response","85","645185","0.0-85.0-0.0","A2AMAU5O7O3AWX","img_art/29.jpg","3","","","","","","","","","","","","","","","","","","","","","","","","",""
"null","","html-keyboard-response","86","646195","0.0-86.0","A2AMAU5O7O3AWX","<p style=""font-size: 48px;"">+</p>","","","","","null","allTrialResponses","1000","1","6","img_art/29.jpg","-15","It reminds me of a dirty city or junkyard.","Dominique,Melissa,Jenna,Kristen,Julia,Emily","Another great work of art and very conversational piece,33,400,20","abrasive and grotesque textures,-36,240,20","risks well taken. the brush is hilarious. feels like an artist's frustration, which is relatable.,50,360,20","danger, crime scene,,10,280,20","it looks like a top-down battle arena,26,40,20","Looks literally like garbage.,-45,40,20","Jenna","risks well taken. the brush is hilarious. feels like an artist's frustration, which is relatable.,50,360,20","Melissa","abrasive and grotesque textures,-36,240,20","Kristen","danger, crime scene,,10,280,20","0"
"16205","","survey-text","87","662406","0.0-87.0-0.0","A2AMAU5O7O3AWX","","","","{""Q0"":""I like this. It reminds me of a collage and seems vaguely antique.""}","","","","","","","","","","","","","","","","","","","","","","",""
"4123.60000000149","","image-slider-response","88","666534","0.0-88.0","A2AMAU5O7O3AWX","","","","","14","","","","","","","","","","","","","","","","","","","","","",""
"null","","image-button-response","89","671544","0.0-89.0","A2AMAU5O7O3AWX","img_art/12.jpg","null","","","","","","","","","","","","","","","","","","","","","","","","",""
"4238","","image-button-response","90","675786","0.0-90.0","A2AMAU5O7O3AWX","img_art/12.jpg","0","","","","","","","","","","","","","","","","","","","","","","","","",""
"1740","","image-button-response","91","677531","0.0-91.0-0.0","A2AMAU5O7O3AWX","img_art/12.jpg","5","","","","","","","","","","","","","","","","","","","","","","","","",""
"7738","","image-button-response","92","685272","0.0-92.0-0.0","A2AMAU5O7O3AWX","img_art/12.jpg","2","","","","","","","","","","","","","","","","","","","","","","","","",""
"null","","html-keyboard-response","93","685776","0.0-93.0","A2AMAU5O7O3AWX","<p style=""font-size: 48px;"">+</p>","","","","","null","allTrialResponses","500","1","7","img_art/12.jpg","14","I like this. It reminds me of a collage and seems vaguely antique.","Amber,Melissa,Jenna,Kristen,Andrea,Miranda","Like how all the colors seem to blend together.,15,200,20","reminds me of a dixie cup,3,240,20","interesting, but feels like someone cut up a picture and pasted it together wrong. want to see the original,15,360,20","stressful, upsetting,-10,280,20","It just feels like a jigsaw puzzle,-4,240,20","This is like going to a really old mcdoanlds in a tiny town and it's never been renovated so it's breaking down,-31,320,20","Amber","Like how all the colors seem to blend together.,15,200,20","Miranda","This is like going to a really old mcdoanlds in a tiny town and it's never been renovated so it's breaking down,-31,320,20","Jenna","interesting, but feels like someone cut up a picture and pasted it together wrong. want to see the original,15,360,20","0"
"15517","","survey-text","94","701302","0.0-94.0-0.0","A2AMAU5O7O3AWX","","","","{""Q0"":""I like this. It looks like a relaxing city street in the fall.""}","","","","","","","","","","","","","","","","","","","","","","",""
"3020.89999999851","","image-slider-response","95","704327","0.0-95.0","A2AMAU5O7O3AWX","","","","","31","","","","","","","","","","","","","","","","","","","","","",""
"3324","","image-button-response","96","709333","0.0-96.0","A2AMAU5O7O3AWX","img_art/26.jpg","1","","","","","","","","","","","","","","","","","","","","","","","","",""
"2951","","image-button-response","97","712288","0.0-97.0","A2AMAU5O7O3AWX","img_art/26.jpg","1","","","","","","","","","","","","","","","","","","","","","","","","",""
"3533","","image-button-response","98","715826","0.0-98.0-0.0","A2AMAU5O7O3AWX","img_art/26.jpg","2","","","","","","","","","","","","","","","","","","","","","","","","",""
"1969","","image-button-response","99","717801","0.0-99.0-0.0","A2AMAU5O7O3AWX","img_art/26.jpg","5","","","","","","","","","","","","","","","","","","","","","","","","",""
"null","","html-keyboard-response","100","718309","0.0-100.0","A2AMAU5O7O3AWX","<p style=""font-size: 48px;"">+</p>","","","","","null","allTrialResponses","500","1","8","img_art/26.jpg","31","I like this. It looks like a relaxing city street in the fall.","Amber,Sophia,Jenna,Cynthia,Jacqueline,Miranda","The colors are muted.,1,200,20","I like this. Looks like a city street and I can use my imagination to make it come alive.,15,280,20","soft colors & brush work. very easy to look at. makes me happy.,50,360,20","dull and boring,-6,320,20","I don't really see the point in this painting.,-16,300,20","This seems pretty and sweet, it's something I would like to actually see.,31,320,20","Sophia","I like this. Looks like a city street and I can use my imagination to make it come alive.,15,280,20","Jenna","soft colors & brush work. very easy to look at. makes me happy.,50,360,20","Miranda","This seems pretty and sweet, it's something I would like to actually see.,31,320,20","0"
"11742","","survey-text","101","730058","0.0-101.0-0.0","A2AMAU5O7O3AWX","","","","{""Q0"":""It's harsh and random.""}","","","","","","","","","","","","","","","","","","","","","","",""
"3353.5","","image-slider-response","102","733415","0.0-102.0","A2AMAU5O7O3AWX","","","","","-21","","","","","","","","","","","","","","","","","","","","","",""
"3212","","image-button-response","103","738419","0.0-103.0","A2AMAU5O7O3AWX","img_art/2.jpg","1","","","","","","","","","","","","","","","","","","","","","","","","",""
"4665","","image-button-response","104","743089","0.0-104.0","A2AMAU5O7O3AWX","img_art/2.jpg","5","","","","","","","","","","","","","","","","","","","","","","","","",""
"6104","","image-button-response","105","749196","0.0-105.0-0.0","A2AMAU5O7O3AWX","img_art/2.jpg","2","","","","","","","","","","","","","","","","","","","","","","","","",""
"2207","","image-button-response","106","751407","0.0-106.0-0.0","A2AMAU5O7O3AWX","img_art/2.jpg","1","","","","","","","","","","","","","","","","","","","","","","","","",""
"null","","html-keyboard-response","107","752414","0.0-107.0","A2AMAU5O7O3AWX","<p style=""font-size: 48px;"">+</p>","","","","","null","allTrialResponses","1000","1","9","img_art/2.jpg","-21","It's harsh and random.","Michelle,Sophia,Jenna,Paige,Grace,Miranda","Don't like the puke green color and also too abstact,-14,280,20","I'm not fond of the colors in this one.,-33,280,20","the colors are a bit odd, and the squiggly line at the top is distracting,0,360,20","Unhappy. I do not like it,-5,60,20","Like the colors but reminds me of a kids show done in cubism.,0,180,20","I don't really like this but at the same time it's cute. It looks like a little monster kid.,-9,320,20","Miranda","I don't really like this but at the same time it's cute. It looks like a little monster kid.,-9,320,20","Jenna","the colors are a bit odd, and the squiggly line at the top is distracting,0,360,20","Sophia","I'm not fond of the colors in this one.,-33,280,20","0"
"11548","","survey-text","108","763971","0.0-108.0-0.0","A2AMAU5O7O3AWX","","","","{""Q0"":""It reminds me of mars or the surface of another planet.""}","","","","","","","","","","","","","","","","","","","","","","",""
"2408.89999999851","","image-slider-response","109","766383","0.0-109.0","A2AMAU5O7O3AWX","","","","","8","","","","","","","","","","","","","","","","","","","","","",""
"null","","image-button-response","110","771387","0.0-110.0","A2AMAU5O7O3AWX","img_art/7.jpg","null","","","","","","","","","","","","","","","","","","","","","","","","",""
"1921","","image-button-response","111","773312","0.0-111.0","A2AMAU5O7O3AWX","img_art/7.jpg","2","","","","","","","","","","","","","","","","","","","","","","","","",""
"3864","","image-button-response","112","777181","0.0-112.0-0.0","A2AMAU5O7O3AWX","img_art/7.jpg","5","","","","","","","","","","","","","","","","","","","","","","","","",""
"2759","","image-button-response","113","779945","0.0-113.0-0.0","A2AMAU5O7O3AWX","img_art/7.jpg","0","","","","","","","","","","","","","","","","","","","","","","","","",""
"null","","html-keyboard-response","114","781450","0.0-114.0","A2AMAU5O7O3AWX","<p style=""font-size: 48px;"">+</p>","","","","","null","allTrialResponses","1500","1","10","img_art/7.jpg","8","It reminds me of mars or the surface of another planet.","Sabrina,Sophia,Jenna,Anna,Heather,Miranda","Not getting the vibe i would like from this,-30,120,20","Is this cookie dough?  Yum!,-10,280,20","reminds me of a desert from far above,23,360,20","It's kind of ugly but I like the texture.,10,300,20","i dont like it. it looks like rocks,-40,260,20","This looks like a literal picture of the ground so I'm really not too sure about this one.,-42,320,20","Jenna","reminds me of a desert from far above,23,360,20","Miranda","This looks like a literal picture of the ground so I'm really not too sure about this one.,-42,320,20","Sabrina","Not getting the vibe i would like from this,-30,120,20","0"
"2690","","survey-text","115","784152","0.0-115.0-0.0","A2AMAU5O7O3AWX","","","","{""Q0"":""our""}","","","","","","","","","","","","","","","","","","","","","","",""
"11098","","survey-text","116","795254","0.0-116.0-0.0","A2AMAU5O7O3AWX","","","","{""Q0"":""This is chaotic but I like it. It's interesting.""}","","","","","","","","","","","","","","","","","","","","","","",""
"2915","","image-slider-response","117","798172","0.0-117.0","A2AMAU5O7O3AWX","","","","","16","","","","","","","","","","","","","","","","","","","","","",""
"1914","","image-button-response","118","803177","0.0-118.0","A2AMAU5O7O3AWX","img_art/14.jpg","0","","","","","","","","","","","","","","","","","","","","","","","","",""
"1926","","image-button-response","119","805107","0.0-119.0","A2AMAU5O7O3AWX","img_art/14.jpg","0","","","","","","","","","","","","","","","","","","","","","","","","",""
"5972","","image-button-response","120","811082","0.0-120.0-0.0","A2AMAU5O7O3AWX","img_art/14.jpg","1","","","","","","","","","","","","","","","","","","","","","","","","",""
"1914","","image-button-response","121","813002","0.0-121.0-0.0","A2AMAU5O7O3AWX","img_art/14.jpg","2","","","","","","","","","","","","","","","","","","","","","","","","",""
"null","","html-keyboard-response","122","813511","0.0-122.0","A2AMAU5O7O3AWX","<p style=""font-size: 48px;"">+</p>","","","","","null","allTrialResponses","500","1","11","img_art/14.jpg","16","This is chaotic but I like it. It's interesting.","Sabrina,Jasmine,Jenna,Caitlin,Tiffany,Miranda","Love the assortment of colors and flowers, expressing gentle and caring,50,120,20","The colors are nice and it reminds me of a shrub or tree,10,340,20","love the colors. despite their brightness it seems sad somehow.,41,360,20","Are they blowing up a tree?,-5,80,20","I feel uncomfortable looking at this painting, it is a mess that needs to be cleaned up.,-16,360,20","This just looks like a kids watercolor painting.,-30,320,20","Sabrina","Love the assortment of colors and flowers, expressing gentle and caring,50,120,20","Jasmine","The colors are nice and it reminds me of a shrub or tree,10,340,20","Jenna","love the colors. despite their brightness it seems sad somehow.,41,360,20","0"
"9658","","survey-text","123","823178","0.0-123.0-0.0","A2AMAU5O7O3AWX","","","","{""Q0"":""I'm not a fan of this, it doesn't seem intentional.""}","","","","","","","","","","","","","","","","","","","","","","",""
"2689.89999999851","","image-slider-response","124","825871","0.0-124.0","A2AMAU5O7O3AWX","","","","","-16","","","","","","","","","","","","","","","","","","","","","",""
"4160","","image-button-response","125","830876","0.0-125.0","A2AMAU5O7O3AWX","img_art/30.jpg","1","","","","","","","","","","","","","","","","","","","","","","","","",""
"1697","","image-button-response","126","832578","0.0-126.0","A2AMAU5O7O3AWX","img_art/30.jpg","1","","","","","","","","","","","","","","","","","","","","","","","","",""
"2572","","image-button-response","127","835155","0.0-127.0-0.0","A2AMAU5O7O3AWX","img_art/30.jpg","5","","","","","","","","","","","","","","","","","","","","","","","","",""
"3672","","image-button-response","128","838830","0.0-128.0-0.0","A2AMAU5O7O3AWX","img_art/30.jpg","0","","","","","","","","","","","","","","","","","","","","","","","","",""
"null","","html-keyboard-response","129","839838","0.0-129.0","A2AMAU5O7O3AWX","<p style=""font-size: 48px;"">+</p>","","","","","null","allTrialResponses","1000","1","12","img_art/30.jpg","-16","I'm not a fan of this, it doesn't seem intentional.","Sabrina,Jasmine,Jenna,Cheyenne,Amanda,Victoria","Flowing freely of the rest of the world,42,120,20","Pretty neutral about this one,0,340,20","love the movement of the brush strokes. very interesting piece.,38,360,20","A bit too dark for my liking,-10,200,20","Love how the red stands out,20,180,20","to dark and dreary,-28,400,20","Jasmine","Pretty neutral about this one,0,340,20","Victoria","to dark and dreary,-28,400,20","Sabrina","Flowing freely of the rest of the world,42,120,20","0"
"17948","","survey-text","130","857792","0.0-130.0-0.0","A2AMAU5O7O3AWX","","","","{""Q0"":""I kind of like this. Could imagine it as a lot of different abstract things and I like the colors.""}","","","","","","","","","","","","","","","","","","","","","","",""
"4749.5","","image-slider-response","131","862545","0.0-131.0","A2AMAU5O7O3AWX","","","","","8","","","","","","","","","","","","","","","","","","","","","",""
"null","","image-button-response","132","867550","0.0-132.0","A2AMAU5O7O3AWX","img_art/5.jpg","null","","","","","","","","","","","","","","","","","","","","","","","","",""
"2602","","image-button-response","133","870156","0.0-133.0","A2AMAU5O7O3AWX","img_art/5.jpg","1","","","","","","","","","","","","","","","","","","","","","","","","",""
"3291","","image-button-response","134","873450","0.0-134.0-0.0","A2AMAU5O7O3AWX","img_art/5.jpg","4","","","","","","","","","","","","","","","","","","","","","","","","",""
"2379","","image-button-response","135","875832","0.0-135.0-0.0","A2AMAU5O7O3AWX","img_art/5.jpg","2","","","","","","","","","","","","","","","","","","","","","","","","",""
"null","","html-keyboard-response","136","876338","0.0-136.0","A2AMAU5O7O3AWX","<p style=""font-size: 48px;"">+</p>","","","","","null","allTrialResponses","500","1","13","img_art/5.jpg","8","I kind of like this. Could imagine it as a lot of different abstract things and I like the colors.","Sabrina,Jasmine,Kelsey,Alicia,Diana,Victoria","Very messy and not a lot of thought,-29,120,20","Not sure what to say about this piece honestly. It's okay I guess.,0,340,20","too abstract, looks like a pyramid,-22,240,20","pointless, ugly, not creative.,-50,120,20","I didn't care for this art piece. I wasn't sure about the color choice.,-15,380,20","very boring and plain,-35,400,20","Jasmine","Not sure what to say about this piece honestly. It's okay I guess.,0,340,20","Diana","I didn't care for this art piece. I wasn't sure about the color choice.,-15,380,20","Kelsey","too abstract, looks like a pyramid,-22,240,20","0"
"10934","","survey-text","137","887281","0.0-137.0-0.0","A2AMAU5O7O3AWX","","","","{""Q0"":""This reminds me of a busy city street or town square.""}","","","","","","","","","","","","","","","","","","","","","","",""
"3333.89999999851","","image-slider-response","138","890619","0.0-138.0","A2AMAU5O7O3AWX","","","","","27","","","","","","","","","","","","","","","","","","","","","",""
"4255","","image-button-response","139","895628","0.0-139.0","A2AMAU5O7O3AWX","img_art/19.jpg","1","","","","","","","","","","","","","","","","","","","","","","","","",""
"1492","","image-button-response","140","897125","0.0-140.0","A2AMAU5O7O3AWX","img_art/19.jpg","1","","","","","","","","","","","","","","","","","","","","","","","","",""
"4849","","image-button-response","141","901978","0.0-141.0-0.0","A2AMAU5O7O3AWX","img_art/19.jpg","4","","","","","","","","","","","","","","","","","","","","","","","","",""
"2487","","image-button-response","142","904470","0.0-142.0-0.0","A2AMAU5O7O3AWX","img_art/19.jpg","0","","","","","","","","","","","","","","","","","","","","","","","","",""
"null","","html-keyboard-response","143","905473","0.0-143.0","A2AMAU5O7O3AWX","<p style=""font-size: 48px;"">+</p>","","","","","null","allTrialResponses","1000","1","14","img_art/19.jpg","27","This reminds me of a busy city street or town square.","Mackenzie,Jasmine,Kelsey,Elizabeth,Diana,Ashley","Shapes give it a feeling of being crowded,-18,20,20","Just stirred a negative reaction. Don't really like it perhaps because of the structure?,-8,340,20","not sure if i like it or not,1,240,20","Like the painting strokes,39,20,20","I wasn't sure if I liked it or hated it. It oddly reminds me of a clothing store.,11,380,20","someone at the beach maybe?,27,320,20","Jasmine","Just stirred a negative reaction. Don't really like it perhaps because of the structure?,-8,340,20","Diana","I wasn't sure if I liked it or hated it. It oddly reminds me of a clothing store.,11,380,20","Mackenzie","Shapes give it a feeling of being crowded,-18,20,20","0"
"8675","","survey-text","144","914156","0.0-144.0-0.0","A2AMAU5O7O3AWX","","","","{""Q0"":""I don't like this. It's dark and harsh.""}","","","","","","","","","","","","","","","","","","","","","","",""
"2407.1999999955297","","image-slider-response","145","916567","0.0-145.0","A2AMAU5O7O3AWX","","","","","-29","","","","","","","","","","","","","","","","","","","","","",""
"3221","","image-button-response","146","921571","0.0-146.0","A2AMAU5O7O3AWX","img_art/15.jpg","3","","","","","","","","","","","","","","","","","","","","","","","","",""
"2729","","image-button-response","147","924303","0.0-147.0","A2AMAU5O7O3AWX","img_art/15.jpg","2","","","","","","","","","","","","","","","","","","","","","","","","",""
"2731","","image-button-response","148","927039","0.0-148.0-0.0","A2AMAU5O7O3AWX","img_art/15.jpg","3","","","","","","","","","","","","","","","","","","","","","","","","",""
"2730","","image-button-response","149","929773","0.0-149.0-0.0","A2AMAU5O7O3AWX","img_art/15.jpg","4","","","","","","","","","","","","","","","","","","","","","","","","",""
"null","","html-keyboard-response","150","930278","0.0-150.0","A2AMAU5O7O3AWX","<p style=""font-size: 48px;"">+</p>","","","","","null","allTrialResponses","500","1","15","img_art/15.jpg","-29","I don't like this. It's dark and harsh.","Mackenzie,Jasmine,Gabrielle,Brooke,Diana,Nicole","I like the colors and textures.,32,20,20","I like it as the colors complement each other well,21,340,20","dark and provoking,-50,160,20","This one reminds me of a postage stamp, but branches and leaves. Kind of fun.,15,60,20","There should be more space between the black marks. The black comes off harsh and the blue between the trees can barely be seen.,-21,380,20","Very cool, i want it in my living room,50,20,20","Gabrielle","dark and provoking,-50,160,20","Brooke","This one reminds me of a postage stamp, but branches and leaves. Kind of fun.,15,60,20","Diana","There should be more space between the black marks. The black comes off harsh and the blue between the trees can barely be seen.,-21,380,20","0"
"3262","","survey-text","151","933554","0.0-151.0-0.0","A2AMAU5O7O3AWX","","","","{""Q0"":""course""}","","","","","","","","","","","","","","","","","","","","","","",""
"16945","","survey-text","152","950502","0.0-152.0-0.0","A2AMAU5O7O3AWX","","","","{""Q0"":""I like this. Reminds me of train tracks or music. Something flowy.""}","","","","","","","","","","","","","","","","","","","","","","",""
"2567.60000000149","","image-slider-response","153","953073","0.0-153.0","A2AMAU5O7O3AWX","","","","","38","","","","","","","","","","","","","","","","","","","","","",""
"2598","","image-button-response","154","958080","0.0-154.0","A2AMAU5O7O3AWX","img_art/11.jpg","3","","","","","","","","","","","","","","","","","","","","","","","","",""
"983","","image-button-response","155","959068","0.0-155.0","A2AMAU5O7O3AWX","img_art/11.jpg","3","","","","","","","","","","","","","","","","","","","","","","","","",""
"2521","","image-button-response","156","961593","0.0-156.0-0.0","A2AMAU5O7O3AWX","img_art/11.jpg","2","","","","","","","","","","","","","","","","","","","","","","","","",""
"3244","","image-button-response","157","964842","0.0-157.0-0.0","A2AMAU5O7O3AWX","img_art/11.jpg","0","","","","","","","","","","","","","","","","","","","","","","","","",""
"null","","html-keyboard-response","158","965351","0.0-158.0","A2AMAU5O7O3AWX","<p style=""font-size: 48px;"">+</p>","","","","","null","allTrialResponses","500","1","16","img_art/11.jpg","38","I like this. Reminds me of train tracks or music. Something flowy.","Margaret,Olivia,Gabrielle,Brooke,Diana,Autumn","dont like the colors. Its a gloomy day in london and this is the transit system,-26,100,20","business of traffic,10,40,20","I like this one mostly a good combination of colors and light and dark,12,160,20","futuristic arching railways,25,60,20","It makes my head feel dizzy. So I rated it lower.,-25,380,20","Good but not eye catching,14,340,20","Brooke","futuristic arching railways,25,60,20","Gabrielle","I like this one mostly a good combination of colors and light and dark,12,160,20","Margaret","dont like the colors. Its a gloomy day in london and this is the transit system,-26,100,20","0"
"11666","","survey-text","159","977025","0.0-159.0-0.0","A2AMAU5O7O3AWX","","","","{""Q0"":""I'm pretty neutral about this. Colors are nice though.""}","","","","","","","","","","","","","","","","","","","","","","",""
"5215.29999999702","","image-slider-response","160","982244","0.0-160.0","A2AMAU5O7O3AWX","","","","","-4","","","","","","","","","","","","","","","","","","","","","",""
"2242","","image-button-response","161","987250","0.0-161.0","A2AMAU5O7O3AWX","img_art/27.jpg","3","","","","","","","","","","","","","","","","","","","","","","","","",""
"535","","image-button-response","162","987790","0.0-162.0","A2AMAU5O7O3AWX","img_art/27.jpg","3","","","","","","","","","","","","","","","","","","","","","","","","",""
"7343","","image-button-response","163","995136","0.0-163.0-0.0","A2AMAU5O7O3AWX","img_art/27.jpg","1","","","","","","","","","","","","","","","","","","","","","","","","",""
"2602","","image-button-response","164","997743","0.0-164.0-0.0","A2AMAU5O7O3AWX","img_art/27.jpg","4","","","","","","","","","","","","","","","","","","","","","","","","",""
"null","","html-keyboard-response","165","999247","0.0-165.0","A2AMAU5O7O3AWX","<p style=""font-size: 48px;"">+</p>","","","","","null","allTrialResponses","1500","1","17","img_art/27.jpg","-4","I'm pretty neutral about this. Colors are nice though.","Margaret,Jennifer,Gabrielle,Brooke,Shelby,Danielle","this is ugly and does nothing for me,-35,100,20","Somewhat boring piece,-3,380,20","like the patterns and colors all but the orange blob on the right,32,160,20","Like it, autumn colors, trees and foliage scene.,25,60,20","The colors in this one are wonderful,20,240,20","Looks a bit like a child's project with unsatisfying colors,-31,340,20","Brooke","Like it, autumn colors, trees and foliage scene.,25,60,20","Jennifer","Somewhat boring piece,-3,380,20","Shelby","The colors in this one are wonderful,20,240,20","0"
"7691","","survey-text","166","1006948","0.0-166.0-0.0","A2AMAU5O7O3AWX","","","","{""Q0"":""Reminds me of a waterfall. I like it.""}","","","","","","","","","","","","","","","","","","","","","","",""
"4552.69999999553","","image-slider-response","167","1011504","0.0-167.0","A2AMAU5O7O3AWX","","","","","17","","","","","","","","","","","","","","","","","","","","","",""
"2780","","image-button-response","168","1016508","0.0-168.0","A2AMAU5O7O3AWX","img_art/24.jpg","3","","","","","","","","","","","","","","","","","","","","","","","","",""
"1644","","image-button-response","169","1018157","0.0-169.0","A2AMAU5O7O3AWX","img_art/24.jpg","1","","","","","","","","","","","","","","","","","","","","","","","","",""
"2429","","image-button-response","170","1020590","0.0-170.0-0.0","A2AMAU5O7O3AWX","img_art/24.jpg","4","","","","","","","","","","","","","","","","","","","","","","","","",""
"1767","","image-button-response","171","1022362","0.0-171.0-0.0","A2AMAU5O7O3AWX","img_art/24.jpg","0","","","","","","","","","","","","","","","","","","","","","","","","",""
"null","","html-keyboard-response","172","1022868","0.0-172.0","A2AMAU5O7O3AWX","<p style=""font-size: 48px;"">+</p>","","","","","null","allTrialResponses","500","1","18","img_art/24.jpg","17","Reminds me of a waterfall. I like it.","Meghan,Jennifer,Laura,Brooke,Shelby,Hannah","pretty like a waterfall,22,220,20","This piece resembles a waterfall surrounded by trees.,21,380,20","chunky fresh color,27,320,20","Mountain stream pineapple texture?,30,60,20","Earthy wonderful, love everything about it,50,240,20","It's okay but don't love it.,7,240,20","Jennifer","This piece resembles a waterfall surrounded by trees.,21,380,20","Shelby","Earthy wonderful, love everything about it,50,240,20","Meghan","pretty like a waterfall,22,220,20","0"
"9559","","survey-text","173","1032435","0.0-173.0-0.0","A2AMAU5O7O3AWX","","","","{""Q0"":""Very odd and dark. ""}","","","","","","","","","","","","","","","","","","","","","","",""
"3950.5","","image-slider-response","174","1036389","0.0-174.0","A2AMAU5O7O3AWX","","","","","-40","","","","","","","","","","","","","","","","","","","","","",""
"2563","","image-button-response","175","1041393","0.0-175.0","A2AMAU5O7O3AWX","img_art/16.jpg","3","","","","","","","","","","","","","","","","","","","","","","","","",""
"2042","","image-button-response","176","1043440","0.0-176.0","A2AMAU5O7O3AWX","img_art/16.jpg","3","","","","","","","","","","","","","","","","","","","","","","","","",""
"2861","","image-button-response","177","1046305","0.0-177.0-0.0","A2AMAU5O7O3AWX","img_art/16.jpg","5","","","","","","","","","","","","","","","","","","","","","","","","",""
"2234","","image-button-response","178","1048543","0.0-178.0-0.0","A2AMAU5O7O3AWX","img_art/16.jpg","1","","","","","","","","","","","","","","","","","","","","","","","","",""
"null","","html-keyboard-response","179","1050046","0.0-179.0","A2AMAU5O7O3AWX","<p style=""font-size: 48px;"">+</p>","","","","","null","allTrialResponses","1500","1","19","img_art/16.jpg","-40","Very odd and dark. ","Meghan,Jennifer,Kaylee,Gabriela,Shelby,Rachel","feels chaotic and morbid,-39,220,20","Very creepy, it makes me feel uneasy,-31,380,20","cool teddy bear,50,200,20","It looks very generic, like items were pasted onto the background,-38,140,20","This feels like images of a painful childhood,-50,240,20","Not pleasing to the eyes. I do like that the gun is broken though.,-28,80,20","Gabriela","It looks very generic, like items were pasted onto the background,-38,140,20","Rachel","Not pleasing to the eyes. I do like that the gun is broken though.,-28,80,20","Jennifer","Very creepy, it makes me feel uneasy,-31,380,20","0"
"10821","","survey-text","180","1060876","0.0-180.0-0.0","A2AMAU5O7O3AWX","","","","{""Q0"":""I like it. Reminds me of a music note or instrument.""}","","","","","","","","","","","","","","","","","","","","","","",""
"2661.5999999940395","","image-slider-response","181","1063541","0.0-181.0","A2AMAU5O7O3AWX","","","","","29","","","","","","","","","","","","","","","","","","","","","",""
"1712","","image-button-response","182","1068545","0.0-182.0","A2AMAU5O7O3AWX","img_art/10.jpg","0","","","","","","","","","","","","","","","","","","","","","","","","",""
"959","","image-button-response","183","1069508","0.0-183.0","A2AMAU5O7O3AWX","img_art/10.jpg","0","","","","","","","","","","","","","","","","","","","","","","","","",""
"3039","","image-button-response","184","1072552","0.0-184.0-0.0","A2AMAU5O7O3AWX","img_art/10.jpg","5","","","","","","","","","","","","","","","","","","","","","","","","",""
"3862","","image-button-response","185","1076418","0.0-185.0-0.0","A2AMAU5O7O3AWX","img_art/10.jpg","3","","","","","","","","","","","","","","","","","","","","","","","","",""
"null","","html-keyboard-response","186","1077427","0.0-186.0","A2AMAU5O7O3AWX","<p style=""font-size: 48px;"">+</p>","","","","","null","allTrialResponses","1000","1","20","img_art/10.jpg","29","I like it. Reminds me of a music note or instrument.","Lindsey,Jennifer,Shannon,Gabriela,Courtney,Rachel","Looks like a violin. Not a fan of the smudges and smears, but my initial reaction was positive.,11,400,20","I am neutral towards the artwork,1,380,20","I can't tell what this picture is supposed to mean and I think the colors are lacking variety.,-42,220,20","It looks like a sea monster overtaking a ship,21,140,20","Thats a horses head,10,280,20","Reminds me of a terrarium with cacti inside. It reminds me of home.,27,80,20","Lindsey","Looks like a violin. Not a fan of the smudges and smears, but my initial reaction was positive.,11,400,20","Rachel","Reminds me of a terrarium with cacti inside. It reminds me of home.,27,80,20","Gabriela","It looks like a sea monster overtaking a ship,21,140,20","0"
"2311","","survey-text","187","1079752","0.0-187.0-0.0","A2AMAU5O7O3AWX","","","","{""Q0"":""we""}","","","","","","","","","","","","","","","","","","","","","","",""
"9526","","survey-text","188","1089280","0.0-188.0-0.0","A2AMAU5O7O3AWX","","","","{""Q0"":""Not really a fan. Pretty neutral.""}","","","","","","","","","","","","","","","","","","","","","","",""
"2204.39999999851","","image-slider-response","189","1091487","0.0-189.0","A2AMAU5O7O3AWX","","","","","-2","","","","","","","","","","","","","","","","","","","","","",""
"null","","image-button-response","190","1096492","0.0-190.0","A2AMAU5O7O3AWX","img_art/4.jpg","null","","","","","","","","","","","","","","","","","","","","","","","","",""
"242","","image-button-response","191","1096737","0.0-191.0","A2AMAU5O7O3AWX","img_art/4.jpg","4","","","","","","","","","","","","","","","","","","","","","","","","",""
"2537","","image-button-response","192","1099278","0.0-192.0-0.0","A2AMAU5O7O3AWX","img_art/4.jpg","5","","","","","","","","","","","","","","","","","","","","","","","","",""
"5206","","image-button-response","193","1104488","0.0-193.0-0.0","A2AMAU5O7O3AWX","img_art/4.jpg","2","","","","","","","","","","","","","","","","","","","","","","","","",""
"null","","html-keyboard-response","194","1105493","0.0-194.0","A2AMAU5O7O3AWX","<p style=""font-size: 48px;"">+</p>","","","","","null","allTrialResponses","1000","1","21","img_art/4.jpg","-2","Not really a fan. Pretty neutral.","Lindsey,Kaitlyn,Savannah,Gabriela,Briana,Rachel","Looks like feces smeared on the canvas. I hate it.,-50,400,20","I don't understand this at all,3,80,20","Colors are horrendous, look like bodily fluids have been smeared.,-50,200,20","The bold colors are exciting. It looks like a statue on someone's mantle.,18,140,20","Fingerpaint of a hand?,-30,400,20","Not a huge fan of the color story, but it reminds me of a child finger-painting.,12,80,20","Briana","Fingerpaint of a hand?,-30,400,20","Rachel","Not a huge fan of the color story, but it reminds me of a child finger-painting.,12,80,20","Savannah","Colors are horrendous, look like bodily fluids have been smeared.,-50,200,20","0"
"11349","","survey-text","195","1116851","0.0-195.0-0.0","A2AMAU5O7O3AWX","","","","{""Q0"":""Seems too messy and busy to me. Not pleasing.""}","","","","","","","","","","","","","","","","","","","","","","",""
"4039.39999999851","","image-slider-response","196","1120894","0.0-196.0","A2AMAU5O7O3AWX","","","","","-21","","","","","","","","","","","","","","","","","","","","","",""
"null","","image-button-response","197","1125898","0.0-197.0","A2AMAU5O7O3AWX","img_art/28.jpg","null","","","","","","","","","","","","","","","","","","","","","","","","",""
"1621","","image-button-response","198","1127522","0.0-198.0","A2AMAU5O7O3AWX","img_art/28.jpg","5","","","","","","","","","","","","","","","","","","","","","","","","",""
"1900","","image-button-response","199","1129426","0.0-199.0-0.0","A2AMAU5O7O3AWX","img_art/28.jpg","0","","","","","","","","","","","","","","","","","","","","","","","","",""
"2098","","image-button-response","200","1131528","0.0-200.0-0.0","A2AMAU5O7O3AWX","img_art/28.jpg","1","","","","","","","","","","","","","","","","","","","","","","","","",""
"null","","html-keyboard-response","201","1132032","0.0-201.0","A2AMAU5O7O3AWX","<p style=""font-size: 48px;"">+</p>","","","","","null","allTrialResponses","500","1","22","img_art/28.jpg","-21","Seems too messy and busy to me. Not pleasing.","Crystal,Stephanie,Savannah,Angela,Briana,Rachel","I like the flow and abstract nature of what seems to be humans,40,300,20","The colors are neutral but I see a mother helping her child,31,300,20","White and dark balance is way off- Seems dull.,-33,200,20","This reminds me of internal organs.,-10,260,20","Is this anything?,-20,400,20","Too muted and bland. I like my art to be vivid.,-11,80,20","Rachel","Too muted and bland. I like my art to be vivid.,-11,80,20","Crystal","I like the flow and abstract nature of what seems to be humans,40,300,20","Stephanie","The colors are neutral but I see a mother helping her child,31,300,20","0"
"11770","","survey-text","202","1143812","0.0-202.0-0.0","A2AMAU5O7O3AWX","","","","{""Q0"":""It reminds me of a crime scene.""}","","","","","","","","","","","","","","","","","","","","","","",""
"2615.39999999851","","image-slider-response","203","1146432","0.0-203.0","A2AMAU5O7O3AWX","","","","","3","","","","","","","","","","","","","","","","","","","","","",""
"1961","","image-button-response","204","1151436","0.0-204.0","A2AMAU5O7O3AWX","img_art/3.jpg","3","","","","","","","","","","","","","","","","","","","","","","","","",""
"4358","","image-button-response","205","1155798","0.0-205.0","A2AMAU5O7O3AWX","img_art/3.jpg","1","","","","","","","","","","","","","","","","","","","","","","","","",""
"3074","","image-button-response","206","1158875","0.0-206.0-0.0","A2AMAU5O7O3AWX","img_art/3.jpg","3","","","","","","","","","","","","","","","","","","","","","","","","",""
"2204","","image-button-response","207","1161083","0.0-207.0-0.0","A2AMAU5O7O3AWX","img_art/3.jpg","5","","","","","","","","","","","","","","","","","","","","","","","","",""
"null","","html-keyboard-response","208","1162592","0.0-208.0","A2AMAU5O7O3AWX","<p style=""font-size: 48px;"">+</p>","","","","","null","allTrialResponses","1500","1","23","img_art/3.jpg","3","It reminds me of a crime scene.","Crystal,Stephanie,Alexandria,Isabella,Kaitlin,Rachel","I like the abstract flowing lines. It lacks hard rigid marks and flow nicely into a piece of calamity.,32,300,20","I think of an angry child,-50,300,20","it makes me feel really angry,-20,80,20","Too much red or blood,-28,280,20","good choice of color,12,60,20","Too red and chaotic. Not calming.,-41,80,20","Stephanie","I think of an angry child,-50,300,20","Isabella","Too much red or blood,-28,280,20","Rachel","Too red and chaotic. Not calming.,-41,80,20","0"
"16207","","survey-text","209","1178809","0.0-209.0-0.0","A2AMAU5O7O3AWX","","","","{""Q0"":""I like it. It seems like a storm around a building in a fantasy world.""}","","","","","","","","","","","","","","","","","","","","","","",""
"2535.2999999970198","","image-slider-response","210","1181348","0.0-210.0","A2AMAU5O7O3AWX","","","","","19","","","","","","","","","","","","","","","","","","","","","",""
"3531","","image-button-response","211","1186354","0.0-211.0","A2AMAU5O7O3AWX","img_art/8.jpg","3","","","","","","","","","","","","","","","","","","","","","","","","",""
"676","","image-button-response","212","1187035","0.0-212.0","A2AMAU5O7O3AWX","img_art/8.jpg","3","","","","","","","","","","","","","","","","","","","","","","","","",""
"2407","","image-button-response","213","1189446","0.0-213.0-0.0","A2AMAU5O7O3AWX","img_art/8.jpg","4","","","","","","","","","","","","","","","","","","","","","","","","",""
"1704","","image-button-response","214","1191154","0.0-214.0-0.0","A2AMAU5O7O3AWX","img_art/8.jpg","0","","","","","","","","","","","","","","","","","","","","","","","","",""
"null","","html-keyboard-response","215","1192163","0.0-215.0","A2AMAU5O7O3AWX","<p style=""font-size: 48px;"">+</p>","","","","","null","allTrialResponses","1000","1","24","img_art/8.jpg","19","I like it. It seems like a storm around a building in a fantasy world.","Caroline,Stephanie,Sydney,Isabella,Kylie,Rachel","I love the colors in it and also the faces and door ways. Made me feel hopeful,35,100,20","I like the colors and geometrical shapes but the face in the sky makes it look scary,-10,300,20","I love the colors in this piece.,25,320,20","Ancient city looked after by diety,38,280,20","Very abstract and seems symbolic,45,300,20","I like all of the faces that can be found in this piece. Interesting.,35,80,20","Isabella","Ancient city looked after by diety,38,280,20","Kylie","Very abstract and seems symbolic,45,300,20","Caroline","I love the colors in it and also the faces and door ways. Made me feel hopeful,35,100,20","0"
"7023","","survey-text","216","1199197","0.0-216.0-0.0","A2AMAU5O7O3AWX","","","","{""Q0"":""Reminds me of a sunset. Pretty colors.""}","","","","","","","","","","","","","","","","","","","","","","",""
"2795","","image-slider-response","217","1201996","0.0-217.0","A2AMAU5O7O3AWX","","","","","24","","","","","","","","","","","","","","","","","","","","","",""
"null","","image-button-response","218","1207000","0.0-218.0","A2AMAU5O7O3AWX","img_art/22.jpg","null","","","","","","","","","","","","","","","","","","","","","","","","",""
"2832","","image-button-response","219","1209837","0.0-219.0","A2AMAU5O7O3AWX","img_art/22.jpg","2","","","","","","","","","","","","","","","","","","","","","","","","",""
"1003","","image-button-response","220","1210843","0.0-220.0-0.0","A2AMAU5O7O3AWX","img_art/22.jpg","3","","","","","","","","","","","","","","","","","","","","","","","","",""
"2945","","image-button-response","221","1213791","0.0-221.0-0.0","A2AMAU5O7O3AWX","img_art/22.jpg","1","","","","","","","","","","","","","","","","","","","","","","","","",""
"null","","html-keyboard-response","222","1215301","0.0-222.0","A2AMAU5O7O3AWX","<p style=""font-size: 48px;"">+</p>","","","","","null","allTrialResponses","1500","1","25","img_art/22.jpg","24","Reminds me of a sunset. Pretty colors.","Caroline,Lauren,Jamie,Isabella,Kylie,Alyssa","Felt blah. Bunch of nothingness,-42,100,20","This doesn't invoke anything, since I can't tell what the piece represents.,0,340,20","Like the mix of warm and cool colors,15,320,20","Sunsets at the beach,42,280,20","Climate change in a big city,35,300,20","Its okay,it doesnt make me feel any sort of strong emotion,1,160,20","Jamie","Like the mix of warm and cool colors,15,320,20","Isabella","Sunsets at the beach,42,280,20","Lauren","This doesn't invoke anything, since I can't tell what the piece represents.,0,340,20","0"
"3395","","survey-text","223","1218711","0.0-223.0-0.0","A2AMAU5O7O3AWX","","","","{""Q0"":""table""}","","","","","","","","","","","","","","","","","","","","","","",""
"7061","","survey-text","224","1225774","0.0-224.0-0.0","A2AMAU5O7O3AWX","","","","{""Q0"":""Reminds me of a storm or a tornado.""}","","","","","","","","","","","","","","","","","","","","","","",""
"2850.8000000044703","","image-slider-response","225","1228628","0.0-225.0","A2AMAU5O7O3AWX","","","","","20","","","","","","","","","","","","","","","","","","","","","",""
"null","","image-button-response","226","1233633","0.0-226.0","A2AMAU5O7O3AWX","img_art/18.jpg","null","","","","","","","","","","","","","","","","","","","","","","","","",""
"779","","image-button-response","227","1234416","0.0-227.0","A2AMAU5O7O3AWX","img_art/18.jpg","0","","","","","","","","","","","","","","","","","","","","","","","","",""
"2709","","image-button-response","228","1237128","0.0-228.0-0.0","A2AMAU5O7O3AWX","img_art/18.jpg","4","","","","","","","","","","","","","","","","","","","","","","","","",""
"2990","","image-button-response","229","1240122","0.0-229.0-0.0","A2AMAU5O7O3AWX","img_art/18.jpg","3","","","","","","","","","","","","","","","","","","","","","","","","",""
"null","","html-keyboard-response","230","1240626","0.0-230.0","A2AMAU5O7O3AWX","<p style=""font-size: 48px;"">+</p>","","","","","null","allTrialResponses","500","1","26","img_art/18.jpg","20","Reminds me of a storm or a tornado.","Brittany,Lauren,Jamie,Isabella,Megan,Abigail","This is really interesting to look at. I like the colors and the spectral look.,27,40,20","I like how the image gives off an impression of bravery.,25,340,20","Mash up of colors and don't see a grander picture,-10,320,20","Feels like a story of ancient war of the gods,26,280,20","Nice palette with complexity becoming nice at the center,34,200,20","Interesting and capitvating to look at,19,20,20","Brittany","This is really interesting to look at. I like the colors and the spectral look.,27,40,20","Megan","Nice palette with complexity becoming nice at the center,34,200,20","Isabella","Feels like a story of ancient war of the gods,26,280,20","0"
"4910","","survey-text","231","1245546","0.0-231.0-0.0","A2AMAU5O7O3AWX","","","","{""Q0"":""Neutral""}","","","","","","","","","","","","","","","","","","","","","","",""
"2459","","image-slider-response","232","1248009","0.0-232.0","A2AMAU5O7O3AWX","","","","","-3","","","","","","","","","","","","","","","","","","","","","",""
"null","","image-button-response","233","1253020","0.0-233.0","A2AMAU5O7O3AWX","img_art/6.jpg","null","","","","","","","","","","","","","","","","","","","","","","","","",""
"318467","","image-button-response","234","1571490","0.0-234.0","A2AMAU5O7O3AWX","img_art/6.jpg","0","","","","","","","","","","","","","","","","","","","","","","","","",""
"1994","","image-button-response","235","1573487","0.0-235.0-0.0","A2AMAU5O7O3AWX","img_art/6.jpg","3","","","","","","","","","","","","","","","","","","","","","","","","",""
"3622","","image-button-response","236","1577110","0.0-236.0-0.0","A2AMAU5O7O3AWX","img_art/6.jpg","5","","","","","","","","","","","","","","","","","","","","","","","","",""
"null","","html-keyboard-response","237","1577612","0.0-237.0","A2AMAU5O7O3AWX","<p style=""font-size: 48px;"">+</p>","","","","","null","allTrialResponses","500","1","27","img_art/6.jpg","-3","Neutral","Brittany,Natalie,Haley,Isabella,Megan,Christina","It's alright. I imagined the peach from James and the Giant Peach.,1,40,20","reminds me a giant peach,19,400,20","I like the color and the gradient,10,220,20","A bird standing in the sun,37,280,20","Odd desert, nice sand color with headless bird,11,200,20","i like the simplicity of the tree and the colors,50,240,20","Brittany","It's alright. I imagined the peach from James and the Giant Peach.,1,40,20","Isabella","A bird standing in the sun,37,280,20","Christina","i like the simplicity of the tree and the colors,50,240,20","0"
"5857","","survey-text","238","1583478","0.0-238.0-0.0","A2AMAU5O7O3AWX","","","","{""Q0"":""Looks like a skeleton.""}","","","","","","","","","","","","","","","","","","","","","","",""
"2745.0999999940395","","image-slider-response","239","1586225","0.0-239.0","A2AMAU5O7O3AWX","","","","","-8","","","","","","","","","","","","","","","","","","","","","",""
"null","","image-button-response","240","1591233","0.0-240.0","A2AMAU5O7O3AWX","img_art/25.jpg","null","","","","","","","","","","","","","","","","","","","","","","","","",""
"39949","","image-button-response","241","1631185","0.0-241.0","A2AMAU5O7O3AWX","img_art/25.jpg","3","","","","","","","","","","","","","","","","","","","","","","","","",""
"3808","","image-button-response","242","1634995","0.0-242.0-0.0","A2AMAU5O7O3AWX","img_art/25.jpg","4","","","","","","","","","","","","","","","","","","","","","","","","",""
"1754","","image-button-response","243","1636751","0.0-243.0-0.0","A2AMAU5O7O3AWX","img_art/25.jpg","0","","","","","","","","","","","","","","","","","","","","","","","","",""
"null","","html-keyboard-response","244","1637252","0.0-244.0","A2AMAU5O7O3AWX","<p style=""font-size: 48px;"">+</p>","","","","","null","allTrialResponses","500","1","28","img_art/25.jpg","-8","Looks like a skeleton.","Brittany,Mariah,Molly,Isabella,Chelsea,Christina","It's a rather intriguing design,12,40,20","The proportions are unpleasant.,-30,140,20","Well-designed, interesting.,30,340,20","I love the green and the figure is black but the green makes it pop,29,280,20","The color and image are unsettling.,-29,180,20","nice colors and it looks like a native work,32,240,20","Isabella","I love the green and the figure is black but the green makes it pop,29,280,20","Chelsea","The color and image are unsettling.,-29,180,20","Brittany","It's a rather intriguing design,12,40,20","0"
"133893","","survey-text","245","1771151","0.0-245.0-0.0","A2AMAU5O7O3AWX","","","","{""Q0"":""It reminds me of a sunset.""}","","","","","","","","","","","","","","","","","","","","","","",""
"4433","","image-slider-response","246","1775588","0.0-246.0","A2AMAU5O7O3AWX","","","","","31","","","","","","","","","","","","","","","","","","","","","",""
"null","","image-button-response","247","1780599","0.0-247.0","A2AMAU5O7O3AWX","img_art/1.jpg","null","","","","","","","","","","","","","","","","","","","","","","","","",""
"3704","","image-button-response","248","1784308","0.0-248.0","A2AMAU5O7O3AWX","img_art/1.jpg","3","","","","","","","","","","","","","","","","","","","","","","","","",""
"3918","","image-button-response","249","1788231","0.0-249.0-0.0","A2AMAU5O7O3AWX","img_art/1.jpg","5","","","","","","","","","","","","","","","","","","","","","","","","",""
"3034","","image-button-response","250","1791270","0.0-250.0-0.0","A2AMAU5O7O3AWX","img_art/1.jpg","1","","","","","","","","","","","","","","","","","","","","","","","","",""
"null","","html-keyboard-response","251","1791773","0.0-251.0","A2AMAU5O7O3AWX","<p style=""font-size: 48px;"">+</p>","","","","","null","allTrialResponses","500","1","29","img_art/1.jpg","31","It reminds me of a sunset.","Brittany,Chloe,Mikayla,Isabella,Chelsea,Madison","It reminds me of a sunset I once saw.,16,40,20","Powerful colors.,31,220,20","Again kind a boring.,-38,300,20","Warmth of the sun,22,280,20","The colors are a little too intense.,1,180,20","This looks like the same artist as the first picture, but cropped? Looks incomplete.,28,60,20","Isabella","Warmth of the sun,22,280,20","Madison","This looks like the same artist as the first picture, but cropped? Looks incomplete.,28,60,20","Chloe","Powerful colors.,31,220,20","0"
"35281","","survey-text","252","1827066","0.0-252.0-0.0","A2AMAU5O7O3AWX","","","","{""Q0"":""It reminds me of a misty tree, I like it.""}","","","","","","","","","","","","","","","","","","","","","","",""
"7825.19999999553","","image-slider-response","253","1834895","0.0-253.0","A2AMAU5O7O3AWX","","","","","40","","","","","","","","","","","","","","","","","","","","","",""
"null","","image-button-response","254","1839907","0.0-254.0","A2AMAU5O7O3AWX","img_art/17.jpg","null","","","","","","","","","","","","","","","","","","","","","","","","",""
"1344","","image-button-response","255","1841256","0.0-255.0","A2AMAU5O7O3AWX","img_art/17.jpg","3","","","","","","","","","","","","","","","","","","","","","","","","",""
"6592","","image-button-response","256","1847853","0.0-256.0-0.0","A2AMAU5O7O3AWX","img_art/17.jpg","2","","","","","","","","","","","","","","","","","","","","","","","","",""
"3454","","image-button-response","257","1851313","0.0-257.0-0.0","A2AMAU5O7O3AWX","img_art/17.jpg","0","","","","","","","","","","","","","","","","","","","","","","","","",""
"null","","html-keyboard-response","258","1852321","0.0-258.0","A2AMAU5O7O3AWX","<p style=""font-size: 48px;"">+</p>","","","","","null","allTrialResponses","1000","1","30","img_art/17.jpg","40","It reminds me of a misty tree, I like it.","Alexis,Chloe,Erin,Isabella,Kimberly,Madison","Love the color and nature motif,36,100,20","Pretty but a little cheesy,-10,220,20","Windows indoor tree, weird palette,-11,120,20","Pleasant fall to winter day,22,280,20","I like the trees, but the doors less so,19,260,20","No strong reaction. Beautiful design, but hue appears taciturn. Bad photograph?,1,60,20","Isabella","Pleasant fall to winter day,22,280,20","Erin","Windows indoor tree, weird palette,-11,120,20","Alexis","Love the color and nature motif,36,100,20","0"
"5158","","image-button-response_instructions","259","1857488","0.0-259.0","A2AMAU5O7O3AWX","","0","instructions","","","","","","","","","","","","","","","","","","","","","","","",""
"1354","","image-button-response","260","1858851","0.0-260.0","A2AMAU5O7O3AWX","","0","","","","","","","","","","","","","","","","","","","","","","","","",""
