"rt","url","trial_type","trial_index","time_elapsed","internal_node_id","participant_id","stimulus","button_pressed","Name","responses","response","key_press","variableName","fixationTime","condition","trial","photo","subjectRating","subjectResponse","agentsNames","agent_1_Response","agent_2_Response","agent_3_Response","agent_4_Response","agent_5_Response","agent_6_Response","kept_1_name","kept_1_response","kept_2_name","kept_2_response","kept_3_name","kept_3_response","errorCounter"
"24003","external_page_harvard.html","external-html","0","24146","0.0-0.0","A2ATBS6XTIZE89","","","","","","","","","","","","","","","","","","","","","","","","","","",""
"2086","","image-button-response","1","26234","0.0-1.0","A2ATBS6XTIZE89","","0","","","","","","","","","","","","","","","","","","","","","","","","",""
"2794","","image-button-response","2","29033","0.0-2.0-0.0","A2ATBS6XTIZE89","","1","phone","","","","","","","","","","","","","","","","","","","","","","","",""
"8478","","survey-text","3","37514","0.0-3.0-0.0","A2ATBS6XTIZE89","","","","{""Q0"":""A2ATBS6XTIZE89""}","","","","","","","","","","","","","","","","","","","","","","",""
"8876","","image-button-response_instructions","4","46394","0.0-4.0","A2ATBS6XTIZE89","","0","instructions","","","","","","","","","","","","","","","","","","","","","","","",""
"25279","","image-button-response_instructions","5","71674","0.0-5.0","A2ATBS6XTIZE89","img_art/ins/popularity/ins1.png","0","instructions","","","","","","","","","","","","","","","","","","","","","","","",""
"5101","","image-button-response_instructions","6","76778","0.0-6.0","A2ATBS6XTIZE89","img_art/ins/popularity/ins2.png","0","instructions","","","","","","","","","","","","","","","","","","","","","","","",""
"6798","","image-button-response_instructions","7","83577","0.0-7.0","A2ATBS6XTIZE89","img_art/ins/popularity/ins2Extreme.png","0","instructions","","","","","","","","","","","","","","","","","","","","","","","",""
"33311","","image-button-response_instructions","8","116890","0.0-8.0","A2ATBS6XTIZE89","img_art/ins/popularity/ins3KEEPpop.PNG","0","instructions","","","","","","","","","","","","","","","","","","","","","","","",""
"5790","","image-button-response_instructions","9","122682","0.0-9.0","A2ATBS6XTIZE89","img_art/ins/popularity/ins3ANamepop.PNG","0","instructions","","","","","","","","","","","","","","","","","","","","","","","",""
"5054","","image-button-response_instructions","10","127737","0.0-10.0","A2ATBS6XTIZE89","img_art/ins/popularity/ins3ARatingpop.png","0","instructions","","","","","","","","","","","","","","","","","","","","","","","",""
"2638","","image-button-response_instructions","11","130378","0.0-11.0","A2ATBS6XTIZE89","img_art/ins/popularity/ins3ATextpop.png","0","instructions","","","","","","","","","","","","","","","","","","","","","","","",""
"6470","","image-button-response_instructions","12","136850","0.0-12.0","A2ATBS6XTIZE89","img_art/ins/popularity/ins3ALikespop.png","0","instructions","","","","","","","","","","","","","","","","","","","","","","","",""
"20007","","image-button-response_instructions","13","156858","0.0-13.0","A2ATBS6XTIZE89","img_art/ins/popularity/ins3KEEPpop.PNG","0","instructions","","","","","","","","","","","","","","","","","","","","","","","",""
"6430","","image-button-response_instructions","14","163289","0.0-14.0","A2ATBS6XTIZE89","img_art/ins/popularity/ins3_5RED.png","0","instructions","","","","","","","","","","","","","","","","","","","","","","","",""
"3247","","image-button-response_instructions","15","166538","0.0-15.0","A2ATBS6XTIZE89","img_art/ins/popularity/ins3KEEPpop.PNG","0","instructions","","","","","","","","","","","","","","","","","","","","","","","",""
"8254","","image-button-response_instructions","16","174795","0.0-16.0","A2ATBS6XTIZE89","img_art/ins/popularity/ins4KEEPpop.PNG","0","instructions","","","","","","","","","","","","","","","","","","","","","","","",""
"3517","","image-button-response_instructions","17","178314","0.0-17.0","A2ATBS6XTIZE89","img_art/ins/popularity/ins5KEEPpop.PNG","0","instructions","","","","","","","","","","","","","","","","","","","","","","","",""
"1790","","image-button-response_instructions","18","180106","0.0-18.0","A2ATBS6XTIZE89","","0","instructions","","","","","","","","","","","","","","","","","","","","","","","",""
"6890","","survey-text","19","187018","0.0-19.0-0.0","A2ATBS6XTIZE89","","","","{""Q0"":""but""}","","","","","","","","","","","","","","","","","","","","","","",""
"59063","","survey-text","20","246082","0.0-20.0-0.0","A2ATBS6XTIZE89","","","","{""Q0"":""Like an abstract mixture of candy flowers and mud.""}","","","","","","","","","","","","","","","","","","","","","","",""
"19102","","image-slider-response","21","265186","0.0-21.0","A2ATBS6XTIZE89","","","","","-15","","","","","","","","","","","","","","","","","","","","","",""
"null","","image-button-response","22","270195","0.0-22.0","A2ATBS6XTIZE89","img_art/ins/1.jpg","null","","","","","","","","","","","","","","","","","","","","","","","","",""
"14151","","image-button-response","23","284346","0.0-23.0","A2ATBS6XTIZE89","img_art/ins/1.jpg","1","","","","","","","","","","","","","","","","","","","","","","","","",""
"854","","image-button-response","24","285203","0.0-24.0-0.0","A2ATBS6XTIZE89","img_art/ins/1.jpg","3","","","","","","","","","","","","","","","","","","","","","","","","",""
"684","","image-button-response","25","285890","0.0-25.0-0.0","A2ATBS6XTIZE89","img_art/ins/1.jpg","5","","","","","","","","","","","","","","","","","","","","","","","","",""
"null","","html-keyboard-response","26","287394","0.0-26.0","A2ATBS6XTIZE89","<p style=""font-size: 48px;"">+</p>","","","","","null","allTrialResponses","1500","1","-2","img_art/ins/1.jpg","-15","Like an abstract mixture of candy flowers and mud.","Adam,Alex,Ben,Carl,Daniel,Jack","Seems like doodles,-20,20,20","very creative work.,36,40,20","This color reminds me of poo,-46,60,20","very calming artwork,42,80,20","It looks like a murder scene.,-48,100,20","I like the sophisticated brushwork,40,120,20","Alex","very creative work.,36,40,20","Carl","very calming artwork,42,80,20","Jack","I like the sophisticated brushwork,40,120,20","0"
"59430","","survey-text","27","346850","0.0-27.0-0.0","A2ATBS6XTIZE89","","","","{""Q0"":""It's... textured colors. If it weren't in a frame, I wouldn't know it was supposed to be art.""}","","","","","","","","","","","","","","","","","","","","","","",""
"7798","","image-slider-response","28","354650","0.0-28.0","A2ATBS6XTIZE89","","","","","-30","","","","","","","","","","","","","","","","","","","","","",""
"null","","image-button-response","29","359664","0.0-29.0","A2ATBS6XTIZE89","img_art/ins/2.jpg","null","","","","","","","","","","","","","","","","","","","","","","","","",""
"13401","","image-button-response","30","373066","0.0-30.0","A2ATBS6XTIZE89","img_art/ins/2.jpg","1","","","","","","","","","","","","","","","","","","","","","","","","",""
"1765","","image-button-response","31","374835","0.0-31.0-0.0","A2ATBS6XTIZE89","img_art/ins/2.jpg","2","","","","","","","","","","","","","","","","","","","","","","","","",""
"942","","image-button-response","32","375779","0.0-32.0-0.0","A2ATBS6XTIZE89","img_art/ins/2.jpg","0","","","","","","","","","","","","","","","","","","","","","","","","",""
"null","","html-keyboard-response","33","376290","0.0-33.0","A2ATBS6XTIZE89","<p style=""font-size: 48px;"">+</p>","","","","","null","allTrialResponses","500","1","-1","img_art/ins/2.jpg","-30","It's... textured colors. If it weren't in a frame, I wouldn't know it was supposed to be art.","James,Alex,Kyle,Carl,John,Jack","looks too angry,-50,140,20","I like the blocks of color arrangements,30,40,20","Idk, it is just annoying,-32,180,20","I can feel the artist's passion in it,45,80,20","love the texture of paint,48,160,20","I would never be able to compose a sophisticated pallete like this,48,120,20","Alex","I like the blocks of color arrangements,30,40,20","Kyle","Idk, it is just annoying,-32,180,20","James","looks too angry,-50,140,20","0"
"39060","","survey-text","34","415355","0.0-34.0-0.0","A2ATBS6XTIZE89","","","","{""Q0"":""It's interesting in active way? I don't mind it.""}","","","","","","","","","","","","","","","","","","","","","","",""
"5958","","image-slider-response","35","421315","0.0-35.0","A2ATBS6XTIZE89","","","","","10","","","","","","","","","","","","","","","","","","","","","",""
"3828","","image-button-response","36","426334","0.0-36.0","A2ATBS6XTIZE89","img_art/ins/3.jpg","1","","","","","","","","","","","","","","","","","","","","","","","","",""
"1579","","image-button-response","37","427915","0.0-37.0","A2ATBS6XTIZE89","img_art/ins/3.jpg","1","","","","","","","","","","","","","","","","","","","","","","","","",""
"8405","","image-button-response","38","436322","0.0-38.0-0.0","A2ATBS6XTIZE89","img_art/ins/3.jpg","5","","","","","","","","","","","","","","","","","","","","","","","","",""
"4773","","image-button-response","39","441098","0.0-39.0-0.0","A2ATBS6XTIZE89","img_art/ins/3.jpg","4","","","","","","","","","","","","","","","","","","","","","","","","",""
"null","","html-keyboard-response","40","442626","0.0-40.0","A2ATBS6XTIZE89","<p style=""font-size: 48px;"">+</p>","","","","","null","allTrialResponses","1500","1","0","img_art/ins/3.jpg","10","It's interesting in active way? I don't mind it.","James,Alex,Kyle,Mike,Ron,Sam","My worst nightmare,-42,140,20","calming blue is very nice,36,40,20","It looks like a playground for bats,-36,180,20","enjoy the different shades of blue,22,200,20","It looks depressing,-26,220,20","I can feel a rainy day from this painting,18,240,20","Alex","calming blue is very nice,36,40,20","Sam","I can feel a rainy day from this painting,18,240,20","Ron","It looks depressing,-26,220,20","0"
"7015","","image-button-response_instructions","41","449658","0.0-41.0","A2ATBS6XTIZE89","","0","instructions","","","","","","","","","","","","","","","","","","","","","","","",""
"11058","","survey-likert","42","460718","0.0-42.0-0.0","A2ATBS6XTIZE89","","","","{""Q0"":"""",""Q1"":0,""Q2"":1}","","","","","","","","","","","","","","","","","","","","","","",""
"10729","","survey-text","43","471450","0.0-43.0-0.0","A2ATBS6XTIZE89","","","","{""Q0"":""rock""}","","","","","","","","","","","","","","","","","","","","","","",""
"40711","","survey-text","44","512162","0.0-44.0-0.0","A2ATBS6XTIZE89","","","","{""Q0"":""Too much going on on too many different scales.""}","","","","","","","","","","","","","","","","","","","","","","",""
"11246","","image-slider-response","45","523410","0.0-45.0","A2ATBS6XTIZE89","","","","","-35","","","","","","","","","","","","","","","","","","","","","",""
"null","","image-button-response","46","528434","0.0-46.0","A2ATBS6XTIZE89","img_art/19.jpg","null","","","","","","","","","","","","","","","","","","","","","","","","",""
"12374","","image-button-response","47","540810","0.0-47.0","A2ATBS6XTIZE89","img_art/19.jpg","4","","","","","","","","","","","","","","","","","","","","","","","","",""
"2182","","image-button-response","48","542995","0.0-48.0-0.0","A2ATBS6XTIZE89","img_art/19.jpg","5","","","","","","","","","","","","","","","","","","","","","","","","",""
"6630","","image-button-response","49","549626","0.0-49.0-0.0","A2ATBS6XTIZE89","img_art/19.jpg","1","","","","","","","","","","","","","","","","","","","","","","","","",""
"null","","html-keyboard-response","50","550634","0.0-50.0","A2ATBS6XTIZE89","<p style=""font-size: 48px;"">+</p>","","","","","null","allTrialResponses","1000","1","1","img_art/19.jpg","-35","Too much going on on too many different scales.","Jordan,Richard,Taylor,Luis,Blake,Robert","I dont like the gray shadows, ruins it,-7,160,20","not professional looking but not bad either,13,340,20","Looks like a homeless man and this painting should be too.,-5,200,20","Gives a very open and freeing vibe,42,400,20","an old cityfrom many years ago. its ok,6,280,20","A dreary town in the fall.,-4,360,20","Blake","an old cityfrom many years ago. its ok,6,280,20","Robert","A dreary town in the fall.,-4,360,20","Richard","not professional looking but not bad either,13,340,20","0"
"34947","","survey-text","51","585586","0.0-51.0-0.0","A2ATBS6XTIZE89","","","","{""Q0"":""I have no idea what this is supposed to be, but it feels unpleasant.""}","","","","","","","","","","","","","","","","","","","","","","",""
"8629","","image-slider-response","52","594218","0.0-52.0","A2ATBS6XTIZE89","","","","","-45","","","","","","","","","","","","","","","","","","","","","",""
"null","","image-button-response","53","599234","0.0-53.0","A2ATBS6XTIZE89","img_art/20.jpg","null","","","","","","","","","","","","","","","","","","","","","","","","",""
"6111","","image-button-response","54","605346","0.0-54.0","A2ATBS6XTIZE89","img_art/20.jpg","1","","","","","","","","","","","","","","","","","","","","","","","","",""
"7175","","image-button-response","55","612523","0.0-55.0-0.0","A2ATBS6XTIZE89","img_art/20.jpg","4","","","","","","","","","","","","","","","","","","","","","","","","",""
"11222","","image-button-response","56","623748","0.0-56.0-0.0","A2ATBS6XTIZE89","img_art/20.jpg","0","","","","","","","","","","","","","","","","","","","","","","","","",""
"null","","html-keyboard-response","57","624755","0.0-57.0","A2ATBS6XTIZE89","<p style=""font-size: 48px;"">+</p>","","","","","null","allTrialResponses","1000","1","2","img_art/20.jpg","-45","I have no idea what this is supposed to be, but it feels unpleasant.","Bradley,Richard,Kenneth,Ian,Blake,Robert","A truck rolled over?  I do like the pictures and the technique though.,25,300,20","The white blob on the left seems out of place,-34,340,20","I want to like this more, but i wish it was more detailed. It's hard for me to see what it is.,5,300,20","A painting within a painting, the inner painting looks like a car crash with a semi truck.,21,260,20","reminds me of a dead animal in the west. ugly,-25,280,20","Looks like an old gold mining down now deserted.,11,360,20","Richard","The white blob on the left seems out of place,-34,340,20","Blake","reminds me of a dead animal in the west. ugly,-25,280,20","Bradley","A truck rolled over?  I do like the pictures and the technique though.,25,300,20","0"
"48772","","survey-text","58","673530","0.0-58.0-0.0","A2ATBS6XTIZE89","","","","{""Q0"":""I like the contrast. I dislike this art style, but this particular work is... ok?""}","","","","","","","","","","","","","","","","","","","","","","",""
"5262","","image-slider-response","59","678795","0.0-59.0","A2ATBS6XTIZE89","","","","","5","","","","","","","","","","","","","","","","","","","","","",""
"2790","","image-button-response","60","683816","0.0-60.0","A2ATBS6XTIZE89","img_art/13.jpg","1","","","","","","","","","","","","","","","","","","","","","","","","",""
"2154","","image-button-response","61","685971","0.0-61.0","A2ATBS6XTIZE89","img_art/13.jpg","0","","","","","","","","","","","","","","","","","","","","","","","","",""
"12952","","image-button-response","62","698925","0.0-62.0-0.0","A2ATBS6XTIZE89","img_art/13.jpg","4","","","","","","","","","","","","","","","","","","","","","","","","",""
"2467","","image-button-response","63","701395","0.0-63.0-0.0","A2ATBS6XTIZE89","img_art/13.jpg","1","","","","","","","","","","","","","","","","","","","","","","","","",""
"null","","html-keyboard-response","64","702402","0.0-64.0","A2ATBS6XTIZE89","<p style=""font-size: 48px;"">+</p>","","","","","null","allTrialResponses","1000","1","3","img_art/13.jpg","5","I like the contrast. I dislike this art style, but this particular work is... ok?","Bradley,Richard,Eric,Spencer,Blake,Brandon","I like the colors used in this piece.,2,300,20","kind of like the pattern and colors but don't love it,13,340,20","I love the style of this piece, but the color choice could've been more eye catching or calming.,40,100,20","Like it a lot, reminds me of rainy day on glass,43,120,20","warm splash of salt water from ocean,16,280,20","Simple, but pleasing. The blue gradient is a favorite of mine,32,320,20","Bradley","I like the colors used in this piece.,2,300,20","Blake","warm splash of salt water from ocean,16,280,20","Richard","kind of like the pattern and colors but don't love it,13,340,20","0"
"77323","","survey-text","65","779730","0.0-65.0-0.0","A2ATBS6XTIZE89","","","","{""Q0"":""There's probably something sophisticated going on here that would excite someone who enjoys modern art. That's not me.""}","","","","","","","","","","","","","","","","","","","","","","",""
"6543","","image-slider-response","66","786274","0.0-66.0","A2ATBS6XTIZE89","","","","","-30","","","","","","","","","","","","","","","","","","","","","",""
"null","","image-button-response","67","791293","0.0-67.0","A2ATBS6XTIZE89","img_art/6.jpg","null","","","","","","","","","","","","","","","","","","","","","","","","",""
"12637","","image-button-response","68","803931","0.0-68.0","A2ATBS6XTIZE89","img_art/6.jpg","4","","","","","","","","","","","","","","","","","","","","","","","","",""
"2358","","image-button-response","69","806290","0.0-69.0-0.0","A2ATBS6XTIZE89","img_art/6.jpg","1","","","","","","","","","","","","","","","","","","","","","","","","",""
"3406","","image-button-response","70","809699","0.0-70.0-0.0","A2ATBS6XTIZE89","img_art/6.jpg","0","","","","","","","","","","","","","","","","","","","","","","","","",""
"null","","html-keyboard-response","71","811206","0.0-71.0","A2ATBS6XTIZE89","<p style=""font-size: 48px;"">+</p>","","","","","null","allTrialResponses","1500","1","4","img_art/6.jpg","-30","There's probably something sophisticated going on here that would excite someone who enjoys modern art. That's not me.","Bradley,Richard,Nathan,Stephen,Blake,Steven","It's okay. It kind of looks like a bird with his head buried in his feathers.,2,300,20","simplistic but reminds me of a crow in a field,-10,340,20","Not a fan of anything in this,-43,200,20","Good painting but too simple to care about it for very long.,-15,140,20","one lonely thing trying to grow,-24,280,20","This is interesting, I feel solitude, and loneliness from this.,13,160,20","Blake","one lonely thing trying to grow,-24,280,20","Richard","simplistic but reminds me of a crow in a field,-10,340,20","Bradley","It's okay. It kind of looks like a bird with his head buried in his feathers.,2,300,20","0"
"34516","","survey-text","72","845738","0.0-72.0-0.0","A2ATBS6XTIZE89","","","","{""Q0"":""Like a painting of a sketch of a dream. I like this one.""}","","","","","","","","","","","","","","","","","","","","","","",""
"11453","","image-slider-response","73","857195","0.0-73.0","A2ATBS6XTIZE89","","","","","25","","","","","","","","","","","","","","","","","","","","","",""
"3478","","image-button-response","74","862198","0.0-74.0","A2ATBS6XTIZE89","img_art/17.jpg","0","","","","","","","","","","","","","","","","","","","","","","","","",""
"10787","","image-button-response","75","872986","0.0-75.0","A2ATBS6XTIZE89","img_art/17.jpg","1","","","","","","","","","","","","","","","","","","","","","","","","",""
"1320","","image-button-response","76","874307","0.0-76.0-0.0","A2ATBS6XTIZE89","img_art/17.jpg","0","","","","","","","","","","","","","","","","","","","","","","","","",""
"8855","","image-button-response","77","883163","0.0-77.0-0.0","A2ATBS6XTIZE89","img_art/17.jpg","4","","","","","","","","","","","","","","","","","","","","","","","","",""
"null","","html-keyboard-response","78","884667","0.0-78.0","A2ATBS6XTIZE89","<p style=""font-size: 48px;"">+</p>","","","","","null","allTrialResponses","1500","1","5","img_art/17.jpg","25","Like a painting of a sketch of a dream. I like this one.","Bradley,Richard,Joseph,Justin,Blake,Dustin","It kind of pulls you in to float away with it.,9,300,20","nice composition and colors, fairy land,28,340,20","I like the way the forest is taking over the buildings.,21,220,20","I like the colors and the design.,20,280,20","soft and warm light colors are relaxing,12,280,20","Is it a tree/plant of some sort?  Or, I see hair?  I don't get it. But, the colors are pleasing to me.,1,20,20","Richard","nice composition and colors, fairy land,28,340,20","Bradley","It kind of pulls you in to float away with it.,9,300,20","Blake","soft and warm light colors are relaxing,12,280,20","0"
"4664","","survey-text","79","889339","0.0-79.0-0.0","A2ATBS6XTIZE89","","","","{""Q0"":""sky""}","","","","","","","","","","","","","","","","","","","","","","",""
"40735","","survey-text","80","930075","0.0-80.0-0.0","A2ATBS6XTIZE89","","","","{""Q0"":""It looks like a badly defaced painting of a man on a horse.""}","","","","","","","","","","","","","","","","","","","","","","",""
"6223","","image-slider-response","81","936300","0.0-81.0","A2ATBS6XTIZE89","","","","","-35","","","","","","","","","","","","","","","","","","","","","",""
"null","","image-button-response","82","941306","0.0-82.0","A2ATBS6XTIZE89","img_art/18.jpg","null","","","","","","","","","","","","","","","","","","","","","","","","",""
"1048","","image-button-response","83","942355","0.0-83.0","A2ATBS6XTIZE89","img_art/18.jpg","0","","","","","","","","","","","","","","","","","","","","","","","","",""
"7479","","image-button-response","84","949835","0.0-84.0-0.0","A2ATBS6XTIZE89","img_art/18.jpg","5","","","","","","","","","","","","","","","","","","","","","","","","",""
"8542","","image-button-response","85","958380","0.0-85.0-0.0","A2ATBS6XTIZE89","img_art/18.jpg","2","","","","","","","","","","","","","","","","","","","","","","","","",""
"null","","html-keyboard-response","86","959385","0.0-86.0","A2ATBS6XTIZE89","<p style=""font-size: 48px;"">+</p>","","","","","null","allTrialResponses","1000","1","6","img_art/18.jpg","-35","It looks like a badly defaced painting of a man on a horse.","Bradley,Richard,Mason,William,Blake,James","This one is very dark and apocalyptic indeed!,-30,300,20","interesting piece, I like the horse and people inserted in spots,22,340,20","Skeletons, death, bleak colors, still kinda like it.,16,100,20","Makes me think of stormy oceans,20,380,20","i like the colors. outerspace,21,280,20","Very eerie and it's spooky,11,380,20","Bradley","This one is very dark and apocalyptic indeed!,-30,300,20","James","Very eerie and it's spooky,11,380,20","Mason","Skeletons, death, bleak colors, still kinda like it.,16,100,20","0"
"28140","","survey-text","87","987531","0.0-87.0-0.0","A2ATBS6XTIZE89","","","","{""Q0"":""Too abstract, but I like the colors. Very warm.""}","","","","","","","","","","","","","","","","","","","","","","",""
"5006","","image-slider-response","88","992539","0.0-88.0","A2ATBS6XTIZE89","","","","","5","","","","","","","","","","","","","","","","","","","","","",""
"null","","image-button-response","89","997555","0.0-89.0","A2ATBS6XTIZE89","img_art/1.jpg","null","","","","","","","","","","","","","","","","","","","","","","","","",""
"4991","","image-button-response","90","1002547","0.0-90.0","A2ATBS6XTIZE89","img_art/1.jpg","2","","","","","","","","","","","","","","","","","","","","","","","","",""
"4775","","image-button-response","91","1007324","0.0-91.0-0.0","A2ATBS6XTIZE89","img_art/1.jpg","5","","","","","","","","","","","","","","","","","","","","","","","","",""
"5359","","image-button-response","92","1012684","0.0-92.0-0.0","A2ATBS6XTIZE89","img_art/1.jpg","3","","","","","","","","","","","","","","","","","","","","","","","","",""
"null","","html-keyboard-response","93","1013189","0.0-93.0","A2ATBS6XTIZE89","<p style=""font-size: 48px;"">+</p>","","","","","null","allTrialResponses","500","1","7","img_art/1.jpg","5","Too abstract, but I like the colors. Very warm.","Bradley,Bryan,Mason,Caleb,Jake,James","This is a great piece that has a lot more going on the longer you look at it. I like it!,30,300,20","Again, like the colors & abstractness.,29,400,20","just colors mixed together. not interesting.,5,100,20","Its simply okay.,3,40,20","This is ugly with bad colors.,-6,360,20","It's very colorful, and I like it,11,380,20","Mason","just colors mixed together. not interesting.,5,100,20","James","It's very colorful, and I like it,11,380,20","Caleb","Its simply okay.,3,40,20","0"
"72939","","survey-text","94","1086131","0.0-94.0-0.0","A2ATBS6XTIZE89","","","","{""Q0"":""I get what their going for, and it feels pretentious. Art for edgelords.""}","","","","","","","","","","","","","","","","","","","","","","",""
"7447","","image-slider-response","95","1093579","0.0-95.0","A2ATBS6XTIZE89","","","","","-45","","","","","","","","","","","","","","","","","","","","","",""
"null","","image-button-response","96","1098594","0.0-96.0","A2ATBS6XTIZE89","img_art/16.jpg","null","","","","","","","","","","","","","","","","","","","","","","","","",""
"5609","","image-button-response","97","1104203","0.0-97.0","A2ATBS6XTIZE89","img_art/16.jpg","3","","","","","","","","","","","","","","","","","","","","","","","","",""
"2159","","image-button-response","98","1106364","0.0-98.0-0.0","A2ATBS6XTIZE89","img_art/16.jpg","5","","","","","","","","","","","","","","","","","","","","","","","","",""
"10271","","image-button-response","99","1116636","0.0-99.0-0.0","A2ATBS6XTIZE89","img_art/16.jpg","1","","","","","","","","","","","","","","","","","","","","","","","","",""
"null","","html-keyboard-response","100","1117643","0.0-100.0","A2ATBS6XTIZE89","<p style=""font-size: 48px;"">+</p>","","","","","null","allTrialResponses","1000","1","8","img_art/16.jpg","-45","I get what their going for, and it feels pretentious. Art for edgelords.","Mark,Samuel,Mason,Caleb,Kyle,James","I think it's about child abuse. The teddy bear represents innocence and the dark shape is approaching it.,40,80,20","childhood horror,3,400,20","Don't get it. Hate it. ugly.,-44,100,20","A strange collage made by a child. Do not like the colored face of the bear.,-29,40,20","I like it because it's quite different from the rest,23,340,20","It is interesting to say the least,0,380,20","Caleb","A strange collage made by a child. Do not like the colored face of the bear.,-29,40,20","James","It is interesting to say the least,0,380,20","Samuel","childhood horror,3,400,20","0"
"42146","","survey-text","101","1159795","0.0-101.0-0.0","A2ATBS6XTIZE89","","","","{""Q0"":""It feels pleasant but unfinished.""}","","","","","","","","","","","","","","","","","","","","","","",""
"7622","","image-slider-response","102","1167419","0.0-102.0","A2ATBS6XTIZE89","","","","","15","","","","","","","","","","","","","","","","","","","","","",""
"null","","image-button-response","103","1172425","0.0-103.0","A2ATBS6XTIZE89","img_art/26.jpg","null","","","","","","","","","","","","","","","","","","","","","","","","",""
"4281","","image-button-response","104","1176708","0.0-104.0","A2ATBS6XTIZE89","img_art/26.jpg","5","","","","","","","","","","","","","","","","","","","","","","","","",""
"3910","","image-button-response","105","1180620","0.0-105.0-0.0","A2ATBS6XTIZE89","img_art/26.jpg","1","","","","","","","","","","","","","","","","","","","","","","","","",""
"2990","","image-button-response","106","1183611","0.0-106.0-0.0","A2ATBS6XTIZE89","img_art/26.jpg","4","","","","","","","","","","","","","","","","","","","","","","","","",""
"null","","html-keyboard-response","107","1184114","0.0-107.0","A2ATBS6XTIZE89","<p style=""font-size: 48px;"">+</p>","","","","","null","allTrialResponses","500","1","9","img_art/26.jpg","15","It feels pleasant but unfinished.","Travis,Samuel,Gabriel,Caleb,Charles,James","Neutral...nothing to say.,3,260,20","reminds me of a hometown,7,400,20","this is nice!! i like the muted colors,34,160,20","Appears childish and unfinished.,-20,40,20","It looks like I'm staring out of the window of a nice house, but the house is mine,20,100,20","This picture is ok; just a normal city,11,380,20","James","This picture is ok; just a normal city,11,380,20","Samuel","reminds me of a hometown,7,400,20","Charles","It looks like I'm staring out of the window of a nice house, but the house is mine,20,100,20","0"
"89293","","survey-text","108","1273412","0.0-108.0-0.0","A2ATBS6XTIZE89","","","","{""Q0"":""I think it's childish to compare modern art to something a child could do, but I actually think my niece has done basically this before.""}","","","","","","","","","","","","","","","","","","","","","","",""
"10798","","image-slider-response","109","1284212","0.0-109.0","A2ATBS6XTIZE89","","","","","-25","","","","","","","","","","","","","","","","","","","","","",""
"null","","image-button-response","110","1289217","0.0-110.0","A2ATBS6XTIZE89","img_art/15.jpg","null","","","","","","","","","","","","","","","","","","","","","","","","",""
"5522","","image-button-response","111","1294740","0.0-111.0","A2ATBS6XTIZE89","img_art/15.jpg","2","","","","","","","","","","","","","","","","","","","","","","","","",""
"6439","","image-button-response","112","1301180","0.0-112.0-0.0","A2ATBS6XTIZE89","img_art/15.jpg","1","","","","","","","","","","","","","","","","","","","","","","","","",""
"17158","","image-button-response","113","1318340","0.0-113.0-0.0","A2ATBS6XTIZE89","img_art/15.jpg","4","","","","","","","","","","","","","","","","","","","","","","","","",""
"null","","html-keyboard-response","114","1319842","0.0-114.0","A2ATBS6XTIZE89","<p style=""font-size: 48px;"">+</p>","","","","","null","allTrialResponses","1500","1","10","img_art/15.jpg","-25","I think it's childish to compare modern art to something a child could do, but I actually think my niece has done basically this before.","Mitchell,Samuel,Adrian,Derek,Charles,James","ants on the ground playing with bubble gum. They may be thinking of how they can use it to build something,-30,180,20","Black reminds me of darkness,-18,400,20","Not a fan. This piece would only go with very specific decor in a modern home.,-35,60,20","Although it looks a bit bland in terms of color, I really like the print/pattern,25,360,20","it looks like lavender,10,100,20","No opinion truthfully,1,380,20","Adrian","Not a fan. This piece would only go with very specific decor in a modern home.,-35,60,20","Samuel","Black reminds me of darkness,-18,400,20","Charles","it looks like lavender,10,100,20","0"
"3406","","survey-text","115","1323259","0.0-115.0-0.0","A2ATBS6XTIZE89","","","","{""Q0"":""our""}","","","","","","","","","","","","","","","","","","","","","","",""
"48463","","survey-text","116","1371724","0.0-116.0-0.0","A2ATBS6XTIZE89","","","","{""Q0"":""It's 3 colors that clash. Not sure what else to say.""}","","","","","","","","","","","","","","","","","","","","","","",""
"4902","","image-slider-response","117","1376628","0.0-117.0","A2ATBS6XTIZE89","","","","","-35","","","","","","","","","","","","","","","","","","","","","",""
"4998","","image-button-response","118","1381636","0.0-118.0","A2ATBS6XTIZE89","img_art/5.jpg","0","","","","","","","","","","","","","","","","","","","","","","","","",""
"8047","","image-button-response","119","1389685","0.0-119.0","A2ATBS6XTIZE89","img_art/5.jpg","2","","","","","","","","","","","","","","","","","","","","","","","","",""
"6076","","image-button-response","120","1395764","0.0-120.0-0.0","A2ATBS6XTIZE89","img_art/5.jpg","3","","","","","","","","","","","","","","","","","","","","","","","","",""
"1246","","image-button-response","121","1397011","0.0-121.0-0.0","A2ATBS6XTIZE89","img_art/5.jpg","0","","","","","","","","","","","","","","","","","","","","","","","","",""
"null","","html-keyboard-response","122","1398026","0.0-122.0","A2ATBS6XTIZE89","<p style=""font-size: 48px;"">+</p>","","","","","null","allTrialResponses","1000","1","11","img_art/5.jpg","-35","It's 3 colors that clash. Not sure what else to say.","Chase,Samuel,Adrian,Christopher,Charles,Dylan","Seems very basic and uninteresting.,-15,120,20","a brush in time,-14,400,20","Black bit reminds me of a giant splinter. Yellow bit reminds me of urine. I hate it.,-50,60,20","looks very childish,-35,160,20","It feels positive and kind of uplifting,24,100,20","This looks like a twelve year old did it,-40,40,20","Adrian","Black bit reminds me of a giant splinter. Yellow bit reminds me of urine. I hate it.,-50,60,20","Christopher","looks very childish,-35,160,20","Chase","Seems very basic and uninteresting.,-15,120,20","0"
"40070","","survey-text","123","1438100","0.0-123.0-0.0","A2ATBS6XTIZE89","","","","{""Q0"":""This kind of sums up why I don't like modern art. What is the point of this?""}","","","","","","","","","","","","","","","","","","","","","","",""
"3230","","image-slider-response","124","1441332","0.0-124.0","A2ATBS6XTIZE89","","","","","-50","","","","","","","","","","","","","","","","","","","","","",""
"2607","","image-button-response","125","1446345","0.0-125.0","A2ATBS6XTIZE89","img_art/3.jpg","1","","","","","","","","","","","","","","","","","","","","","","","","",""
"4411","","image-button-response","126","1450758","0.0-126.0","A2ATBS6XTIZE89","img_art/3.jpg","2","","","","","","","","","","","","","","","","","","","","","","","","",""
"7404","","image-button-response","127","1458164","0.0-127.0-0.0","A2ATBS6XTIZE89","img_art/3.jpg","0","","","","","","","","","","","","","","","","","","","","","","","","",""
"1541","","image-button-response","128","1459708","0.0-128.0-0.0","A2ATBS6XTIZE89","img_art/3.jpg","1","","","","","","","","","","","","","","","","","","","","","","","","",""
"null","","html-keyboard-response","129","1460716","0.0-129.0","A2ATBS6XTIZE89","<p style=""font-size: 48px;"">+</p>","","","","","null","allTrialResponses","1000","1","12","img_art/3.jpg","-50","This kind of sums up why I don't like modern art. What is the point of this?","Chase,Benjamin,Adrian,Christopher,Sean,Devon","Looks like a bloody head with teeth.,-16,120,20","seems to be a lot of angry scribble.,-20,260,20","Angry red crayons, like a child throwing a tantrum. No thanks.,-10,60,20","the red is impactful but the work overall doesn't say anything to me,-8,160,20","my response to the picture is a lot of red, danger,,-21,40,20","good choice of color,12,400,20","Adrian","Angry red crayons, like a child throwing a tantrum. No thanks.,-10,60,20","Chase","Looks like a bloody head with teeth.,-16,120,20","Benjamin","seems to be a lot of angry scribble.,-20,260,20","0"
"47399","","survey-text","130","1508124","0.0-130.0-0.0","A2ATBS6XTIZE89","","","","{""Q0"":""I like the theme, the dropped brush and the wall, but there are too many things going on. ""}","","","","","","","","","","","","","","","","","","","","","","",""
"5774","","image-slider-response","131","1513900","0.0-131.0","A2ATBS6XTIZE89","","","","","-5","","","","","","","","","","","","","","","","","","","","","",""
"3095","","image-button-response","132","1518906","0.0-132.0","A2ATBS6XTIZE89","img_art/29.jpg","1","","","","","","","","","","","","","","","","","","","","","","","","",""
"2584","","image-button-response","133","1521492","0.0-133.0","A2ATBS6XTIZE89","img_art/29.jpg","1","","","","","","","","","","","","","","","","","","","","","","","","",""
"4879","","image-button-response","134","1526372","0.0-134.0-0.0","A2ATBS6XTIZE89","img_art/29.jpg","5","","","","","","","","","","","","","","","","","","","","","","","","",""
"3302","","image-button-response","135","1529676","0.0-135.0-0.0","A2ATBS6XTIZE89","img_art/29.jpg","4","","","","","","","","","","","","","","","","","","","","","","","","",""
"null","","html-keyboard-response","136","1530182","0.0-136.0","A2ATBS6XTIZE89","<p style=""font-size: 48px;"">+</p>","","","","","null","allTrialResponses","500","1","13","img_art/29.jpg","-5","I like the theme, the dropped brush and the wall, but there are too many things going on. ","Chase,Benjamin,Adrian,Jeffrey,John,Paul","This is ugly as fuck,-50,120,20","Don't like the red X across the painting.,-15,260,20","Again, ugly colors and I'm not a fan of abstract. This looks like the view into a garbage dump.,-50,60,20","Looks like an accident more than an art to me,-26,40,20","Its interesting although doesnt illicit any strong emotions from me,10,120,20","There's too much black and it looks sloppy,-35,300,20","Benjamin","Don't like the red X across the painting.,-15,260,20","Paul","There's too much black and it looks sloppy,-35,300,20","John","Its interesting although doesnt illicit any strong emotions from me,10,120,20","0"
"48816","","survey-text","137","1579004","0.0-137.0-0.0","A2ATBS6XTIZE89","","","","{""Q0"":""I kind of like the colors and the picture in picture of framing. It doesn't offend me.""}","","","","","","","","","","","","","","","","","","","","","","",""
"3351","","image-slider-response","138","1582356","0.0-138.0","A2ATBS6XTIZE89","","","","","2","","","","","","","","","","","","","","","","","","","","","",""
"null","","image-button-response","139","1587364","0.0-139.0","A2ATBS6XTIZE89","img_art/9.jpg","null","","","","","","","","","","","","","","","","","","","","","","","","",""
"1623","","image-button-response","140","1588988","0.0-140.0","A2ATBS6XTIZE89","img_art/9.jpg","1","","","","","","","","","","","","","","","","","","","","","","","","",""
"2870","","image-button-response","141","1591860","0.0-141.0-0.0","A2ATBS6XTIZE89","img_art/9.jpg","3","","","","","","","","","","","","","","","","","","","","","","","","",""
"2622","","image-button-response","142","1594484","0.0-142.0-0.0","A2ATBS6XTIZE89","img_art/9.jpg","5","","","","","","","","","","","","","","","","","","","","","","","","",""
"null","","html-keyboard-response","143","1594986","0.0-143.0","A2ATBS6XTIZE89","<p style=""font-size: 48px;"">+</p>","","","","","null","allTrialResponses","500","1","14","img_art/9.jpg","2","I kind of like the colors and the picture in picture of framing. It doesn't offend me.","Angel,Benjamin,Noah,Devin,John,Paul","This feels dreamy. Like I'm seeing inside someone's head while they're sleeping.,20,180,20","looks like sleeping beauty in a garden,10,260,20","while I don't dispute the art, it feels childish,-20,260,20","I really like the colors and details.,8,380,20","Unpleasant, alot of dark colors and strange lines,-26,120,20","I like the greens and blues around the sides and the person reclining in the center makes me feel relaxed,24,300,20","Benjamin","looks like sleeping beauty in a garden,10,260,20","Devin","I really like the colors and details.,8,380,20","Paul","I like the greens and blues around the sides and the person reclining in the center makes me feel relaxed,24,300,20","0"
"54837","","survey-text","144","1649828","0.0-144.0-0.0","A2ATBS6XTIZE89","","","","{""Q0"":""The badly done sticky figures make me feel like I should be an artist. That's not a compliment.""}","","","","","","","","","","","","","","","","","","","","","","",""
"6229","","image-slider-response","145","1656060","0.0-145.0","A2ATBS6XTIZE89","","","","","-20","","","","","","","","","","","","","","","","","","","","","",""
"null","","image-button-response","146","1661066","0.0-146.0","A2ATBS6XTIZE89","img_art/27.jpg","null","","","","","","","","","","","","","","","","","","","","","","","","",""
"641","","image-button-response","147","1661708","0.0-147.0","A2ATBS6XTIZE89","img_art/27.jpg","3","","","","","","","","","","","","","","","","","","","","","","","","",""
"1103","","image-button-response","148","1662812","0.0-148.0-0.0","A2ATBS6XTIZE89","img_art/27.jpg","4","","","","","","","","","","","","","","","","","","","","","","","","",""
"1703","","image-button-response","149","1664517","0.0-149.0-0.0","A2ATBS6XTIZE89","img_art/27.jpg","5","","","","","","","","","","","","","","","","","","","","","","","","",""
"null","","html-keyboard-response","150","1665527","0.0-150.0","A2ATBS6XTIZE89","<p style=""font-size: 48px;"">+</p>","","","","","null","allTrialResponses","1000","1","15","img_art/27.jpg","-20","The badly done sticky figures make me feel like I should be an artist. That's not a compliment.","Matthew,Benjamin,Ethan,Devin,Kevin,Paul","Lots of activity, layers, imagination at work here.,29,120,20","I like the colors.,6,260,20","I like the layer upon layer of different mediums used here.,21,120,20","Looks like the green bits were added on later,-1,380,20","A fall mess going on here,2,320,20","It tries to remind me of the autumn season but it's grey and looks dirty,-5,300,20","Devin","Looks like the green bits were added on later,-1,380,20","Kevin","A fall mess going on here,2,320,20","Paul","It tries to remind me of the autumn season but it's grey and looks dirty,-5,300,20","0"
"4766","","survey-text","151","1670324","0.0-151.0-0.0","A2ATBS6XTIZE89","","","","{""Q0"":""course""}","","","","","","","","","","","","","","","","","","","","","","",""
"50935","","survey-text","152","1721260","0.0-152.0-0.0","A2ATBS6XTIZE89","","","","{""Q0"":""Congratulations on using every color of paint on hand?""}","","","","","","","","","","","","","","","","","","","","","","",""
"2430","","image-slider-response","153","1723692","0.0-153.0","A2ATBS6XTIZE89","","","","","-10","","","","","","","","","","","","","","","","","","","","","",""
"null","","image-button-response","154","1728696","0.0-154.0","A2ATBS6XTIZE89","img_art/23.jpg","null","","","","","","","","","","","","","","","","","","","","","","","","",""
"1395","","image-button-response","155","1730092","0.0-155.0","A2ATBS6XTIZE89","img_art/23.jpg","3","","","","","","","","","","","","","","","","","","","","","","","","",""
"4862","","image-button-response","156","1734956","0.0-156.0-0.0","A2ATBS6XTIZE89","img_art/23.jpg","1","","","","","","","","","","","","","","","","","","","","","","","","",""
"3910","","image-button-response","157","1738868","0.0-157.0-0.0","A2ATBS6XTIZE89","img_art/23.jpg","4","","","","","","","","","","","","","","","","","","","","","","","","",""
"null","","html-keyboard-response","158","1739876","0.0-158.0","A2ATBS6XTIZE89","<p style=""font-size: 48px;"">+</p>","","","","","null","allTrialResponses","1000","1","16","img_art/23.jpg","-10","Congratulations on using every color of paint on hand?","Brett,Elijah,Tanner,Devin,Kevin,Paul","Universal celebration,40,360,20","Makes me worried,10,80,20","fsiries, happy, spiritual,16,180,20","background is great but the white is a bit weird,3,380,20","Looks like fish fossils,12,320,20","I like the sharp contrast of the white on the colorful background,27,300,20","Devin","background is great but the white is a bit weird,3,380,20","Elijah","Makes me worried,10,80,20","Kevin","Looks like fish fossils,12,320,20","0"
"33691","","survey-text","159","1773580","0.0-159.0-0.0","A2ATBS6XTIZE89","","","","{""Q0"":""I kind of like this. Nice colors, a vague impression of a balloon floating past buildings.""}","","","","","","","","","","","","","","","","","","","","","","",""
"8886","","image-slider-response","160","1782468","0.0-160.0","A2ATBS6XTIZE89","","","","","20","","","","","","","","","","","","","","","","","","","","","",""
"null","","image-button-response","161","1787477","0.0-161.0","A2ATBS6XTIZE89","img_art/22.jpg","null","","","","","","","","","","","","","","","","","","","","","","","","",""
"4957","","image-button-response","162","1792436","0.0-162.0","A2ATBS6XTIZE89","img_art/22.jpg","3","","","","","","","","","","","","","","","","","","","","","","","","",""
"1415","","image-button-response","163","1793852","0.0-163.0-0.0","A2ATBS6XTIZE89","img_art/22.jpg","5","","","","","","","","","","","","","","","","","","","","","","","","",""
"9215","","image-button-response","164","1803068","0.0-164.0-0.0","A2ATBS6XTIZE89","img_art/22.jpg","0","","","","","","","","","","","","","","","","","","","","","","","","",""
"null","","html-keyboard-response","165","1803575","0.0-165.0","A2ATBS6XTIZE89","<p style=""font-size: 48px;"">+</p>","","","","","null","allTrialResponses","500","1","17","img_art/22.jpg","20","I kind of like this. Nice colors, a vague impression of a balloon floating past buildings.","Daniel,Elijah,Tristan,Devin,Kevin,Cole","Organic sun spot on a flexible grid,18,320,20","Makes me feel a bit anxious,6,80,20","I appreciate the shapes but the abundance of primary colors make it seem garrish.,-10,300,20","I really like the colors here,3,380,20","Looks hot where ever that is.,-8,320,20","Bright colors feel warm,22,200,20","Devin","I really like the colors here,3,380,20","Cole","Bright colors feel warm,22,200,20","Daniel","Organic sun spot on a flexible grid,18,320,20","0"
"56817","","survey-text","166","1860396","0.0-166.0-0.0","A2ATBS6XTIZE89","","","","{""Q0"":""This is just a closeup photo of a marble counter, right?""}","","","","","","","","","","","","","","","","","","","","","","",""
"6087","","image-slider-response","167","1866484","0.0-167.0","A2ATBS6XTIZE89","","","","","0","","","","","","","","","","","","","","","","","","","","","",""
"null","","image-button-response","168","1871506","0.0-168.0","A2ATBS6XTIZE89","img_art/7.jpg","null","","","","","","","","","","","","","","","","","","","","","","","","",""
"13739","","image-button-response","169","1885245","0.0-169.0","A2ATBS6XTIZE89","img_art/7.jpg","0","","","","","","","","","","","","","","","","","","","","","","","","",""
"1511","","image-button-response","170","1886758","0.0-170.0-0.0","A2ATBS6XTIZE89","img_art/7.jpg","1","","","","","","","","","","","","","","","","","","","","","","","","",""
"3878","","image-button-response","171","1890637","0.0-171.0-0.0","A2ATBS6XTIZE89","img_art/7.jpg","3","","","","","","","","","","","","","","","","","","","","","","","","",""
"null","","html-keyboard-response","172","1892148","0.0-172.0","A2ATBS6XTIZE89","<p style=""font-size: 48px;"">+</p>","","","","","null","allTrialResponses","1500","1","18","img_art/7.jpg","0","This is just a closeup photo of a marble counter, right?","Daniel,Brendan,Malik,Devin,Jack,Cole","Great portrayal of solid surface,19,320,20","some rocks on a mars?,7,340,20","Detail oriented, like cracked paint wall,15,40,20","Not very big on the sameness here,-20,380,20","reminds me of a desert from far above,23,320,20","Are these ancient cave paintings?,-7,200,20","Daniel","Great portrayal of solid surface,19,320,20","Brendan","some rocks on a mars?,7,340,20","Devin","Not very big on the sameness here,-20,380,20","0"
"39468","","survey-text","173","1931621","0.0-173.0-0.0","A2ATBS6XTIZE89","","","","{""Q0"":""It feels a bit musical like scales? I don't like the colors or scratchiness, though.""}","","","","","","","","","","","","","","","","","","","","","","",""
"7694","","image-slider-response","174","1939317","0.0-174.0","A2ATBS6XTIZE89","","","","","-15","","","","","","","","","","","","","","","","","","","","","",""
"4766","","image-button-response","175","1944325","0.0-175.0","A2ATBS6XTIZE89","img_art/11.jpg","0","","","","","","","","","","","","","","","","","","","","","","","","",""
"1300","","image-button-response","176","1945629","0.0-176.0","A2ATBS6XTIZE89","img_art/11.jpg","0","","","","","","","","","","","","","","","","","","","","","","","","",""
"6685","","image-button-response","177","1952317","0.0-177.0-0.0","A2ATBS6XTIZE89","img_art/11.jpg","1","","","","","","","","","","","","","","","","","","","","","","","","",""
"7934","","image-button-response","178","1960252","0.0-178.0-0.0","A2ATBS6XTIZE89","img_art/11.jpg","5","","","","","","","","","","","","","","","","","","","","","","","","",""
"null","","html-keyboard-response","179","1960755","0.0-179.0","A2ATBS6XTIZE89","<p style=""font-size: 48px;"">+</p>","","","","","null","allTrialResponses","500","1","19","img_art/11.jpg","-15","It feels a bit musical like scales? I don't like the colors or scratchiness, though.","Daniel,Brendan,Cameron,Devin,Edward,Tyler","Some interesting color but scratchy train mess.,-14,320,20","i dont understand this painting,-1,340,20","futuristic arching railways,25,60,20","I like the vibe of the painting,-3,380,20","Reminds me of a city and how chaotic it can be,22,60,20","Rainy day at an urban sea port. Portugal?,30,320,20","Daniel","Some interesting color but scratchy train mess.,-14,320,20","Brendan","i dont understand this painting,-1,340,20","Tyler","Rainy day at an urban sea port. Portugal?,30,320,20","0"
"34676","","survey-text","180","1995438","0.0-180.0-0.0","A2ATBS6XTIZE89","","","","{""Q0"":""Slenderman is coming for you. I would not want this in my house.""}","","","","","","","","","","","","","","","","","","","","","","",""
"3756","","image-slider-response","181","1999196","0.0-181.0","A2ATBS6XTIZE89","","","","","-50","","","","","","","","","","","","","","","","","","","","","",""
"4335","","image-button-response","182","2004206","0.0-182.0","A2ATBS6XTIZE89","img_art/25.jpg","2","","","","","","","","","","","","","","","","","","","","","","","","",""
"1070","","image-button-response","183","2005277","0.0-183.0","A2ATBS6XTIZE89","img_art/25.jpg","2","","","","","","","","","","","","","","","","","","","","","","","","",""
"6638","","image-button-response","184","2011916","0.0-184.0-0.0","A2ATBS6XTIZE89","img_art/25.jpg","1","","","","","","","","","","","","","","","","","","","","","","","","",""
"3014","","image-button-response","185","2014933","0.0-185.0-0.0","A2ATBS6XTIZE89","img_art/25.jpg","5","","","","","","","","","","","","","","","","","","","","","","","","",""
"null","","html-keyboard-response","186","2016446","0.0-186.0","A2ATBS6XTIZE89","<p style=""font-size: 48px;"">+</p>","","","","","null","allTrialResponses","1500","1","20","img_art/25.jpg","-50","Slenderman is coming for you. I would not want this in my house.","Daniel,Brendan,Shawn,Brian,Alexis,Tyler","Beautiful color with an interesting otherworldly figure,29,320,20","is this an ancient woman?,-16,340,20","Cheesy and unprofessional,-30,100,20","the color is pleasing and draws out the contrast of the lines,10,380,20","It looks like a person at a graveyard,18,140,20","Meh. Hardly abstract, though.,-40,320,20","Shawn","Cheesy and unprofessional,-30,100,20","Brendan","is this an ancient woman?,-16,340,20","Tyler","Meh. Hardly abstract, though.,-40,320,20","0"
"3275","","survey-text","187","2019732","0.0-187.0-0.0","A2ATBS6XTIZE89","","","","{""Q0"":""we""}","","","","","","","","","","","","","","","","","","","","","","",""
"37207","","survey-text","188","2056941","0.0-188.0-0.0","A2ATBS6XTIZE89","","","","{""Q0"":""Slurs of paint. No real reaction to this.""}","","","","","","","","","","","","","","","","","","","","","","",""
"4278","","image-slider-response","189","2061221","0.0-189.0","A2ATBS6XTIZE89","","","","","-2","","","","","","","","","","","","","","","","","","","","","",""
"4470","","image-button-response","190","2066225","0.0-190.0","A2ATBS6XTIZE89","img_art/30.jpg","0","","","","","","","","","","","","","","","","","","","","","","","","",""
"491","","image-button-response","191","2066717","0.0-191.0","A2ATBS6XTIZE89","img_art/30.jpg","0","","","","","","","","","","","","","","","","","","","","","","","","",""
"4407","","image-button-response","192","2071126","0.0-192.0-0.0","A2ATBS6XTIZE89","img_art/30.jpg","3","","","","","","","","","","","","","","","","","","","","","","","","",""
"3244","","image-button-response","193","2074373","0.0-193.0-0.0","A2ATBS6XTIZE89","img_art/30.jpg","1","","","","","","","","","","","","","","","","","","","","","","","","",""
"null","","html-keyboard-response","194","2075887","0.0-194.0","A2ATBS6XTIZE89","<p style=""font-size: 48px;"">+</p>","","","","","null","allTrialResponses","1500","1","21","img_art/30.jpg","-2","Slurs of paint. No real reaction to this.","Isaac,Brendan,Shawn,Corey,Vincent,Tyler","It looks like it was painted in 5 minutes.,-32,280,20","i cant really get it,-35,340,20","Muddy, sloppy, unprofessional,-44,100,20","I dont like the colors whatsoever,-15,260,20","Personal , calming conservative signature business ideal.,32,360,20","Interesting brushstroke work, but not particularly memorable.,21,320,20","Isaac","It looks like it was painted in 5 minutes.,-32,280,20","Corey","I dont like the colors whatsoever,-15,260,20","Brendan","i cant really get it,-35,340,20","0"
"65881","","survey-text","195","2141773","0.0-195.0-0.0","A2ATBS6XTIZE89","","","","{""Q0"":""Muddy colors. A vague impression of a man sitting across from someone's intestinal track.""}","","","","","","","","","","","","","","","","","","","","","","",""
"2847","","image-slider-response","196","2144620","0.0-196.0","A2ATBS6XTIZE89","","","","","-41","","","","","","","","","","","","","","","","","","","","","",""
"null","","image-button-response","197","2149626","0.0-197.0","A2ATBS6XTIZE89","img_art/28.jpg","null","","","","","","","","","","","","","","","","","","","","","","","","",""
"2992","","image-button-response","198","2152621","0.0-198.0","A2ATBS6XTIZE89","img_art/28.jpg","1","","","","","","","","","","","","","","","","","","","","","","","","",""
"551","","image-button-response","199","2153173","0.0-199.0-0.0","A2ATBS6XTIZE89","img_art/28.jpg","0","","","","","","","","","","","","","","","","","","","","","","","","",""
"662","","image-button-response","200","2153836","0.0-200.0-0.0","A2ATBS6XTIZE89","img_art/28.jpg","2","","","","","","","","","","","","","","","","","","","","","","","","",""
"null","","html-keyboard-response","201","2155350","0.0-201.0","A2ATBS6XTIZE89","<p style=""font-size: 48px;"">+</p>","","","","","null","allTrialResponses","1500","1","22","img_art/28.jpg","-41","Muddy colors. A vague impression of a man sitting across from someone's intestinal track.","Isaac,Brendan,Aaron,Corey,Alex,Trevor","It is too messy.,-38,280,20","i dont understand it,-34,340,20","It's drab and looks like stereotypical abstract art.,-30,20,20","i like the neutral color pallette but i dont know what i am looking at,26,260,20","This piece is depressing to me, reminds me of German paintings,-6,100,20","very blah colors and it's not fun,-27,280,20","Brendan","i dont understand it,-34,340,20","Isaac","It is too messy.,-38,280,20","Aaron","It's drab and looks like stereotypical abstract art.,-30,20,20","0"
"34319","","survey-text","202","2189685","0.0-202.0-0.0","A2ATBS6XTIZE89","","","","{""Q0"":""Clearly an abstraction of a waterfall. A bit garish, but it's alright.""}","","","","","","","","","","","","","","","","","","","","","","",""
"4342","","image-slider-response","203","2194029","0.0-203.0","A2ATBS6XTIZE89","","","","","10","","","","","","","","","","","","","","","","","","","","","",""
"null","","image-button-response","204","2199034","0.0-204.0","A2ATBS6XTIZE89","img_art/24.jpg","null","","","","","","","","","","","","","","","","","","","","","","","","",""
"1570","","image-button-response","205","2200605","0.0-205.0","A2ATBS6XTIZE89","img_art/24.jpg","4","","","","","","","","","","","","","","","","","","","","","","","","",""
"5183","","image-button-response","206","2205789","0.0-206.0-0.0","A2ATBS6XTIZE89","img_art/24.jpg","5","","","","","","","","","","","","","","","","","","","","","","","","",""
"2925","","image-button-response","207","2208716","0.0-207.0-0.0","A2ATBS6XTIZE89","img_art/24.jpg","0","","","","","","","","","","","","","","","","","","","","","","","","",""
"null","","html-keyboard-response","208","2209736","0.0-208.0","A2ATBS6XTIZE89","<p style=""font-size: 48px;"">+</p>","","","","","null","allTrialResponses","1000","1","23","img_art/24.jpg","10","Clearly an abstraction of a waterfall. A bit garish, but it's alright.","Isaac,Brendan,Aaron,Victor,Peter,Thomas","The colors are relaxing and cheerful.,32,280,20","lovely forest vibes,36,340,20","I like how it evokes the feeling of being in a forest. The colors are pretty,31,20,20","I don't even know. It's just kind of meh,1,340,20","Looks like a serene waterfall and woods,29,320,20","Beautiful colors and texture,20,220,20","Peter","Looks like a serene waterfall and woods,29,320,20","Thomas","Beautiful colors and texture,20,220,20","Isaac","The colors are relaxing and cheerful.,32,280,20","0"
"42071","","survey-text","209","2251813","0.0-209.0-0.0","A2ATBS6XTIZE89","","","","{""Q0"":""It's two clashing paintings pushed together, neither of which I like to start with.""}","","","","","","","","","","","","","","","","","","","","","","",""
"5943","","image-slider-response","210","2257758","0.0-210.0","A2ATBS6XTIZE89","","","","","-26","","","","","","","","","","","","","","","","","","","","","",""
"null","","image-button-response","211","2262768","0.0-211.0","A2ATBS6XTIZE89","img_art/12.jpg","null","","","","","","","","","","","","","","","","","","","","","","","","",""
"579","","image-button-response","212","2263349","0.0-212.0","A2ATBS6XTIZE89","img_art/12.jpg","1","","","","","","","","","","","","","","","","","","","","","","","","",""
"1791","","image-button-response","213","2265141","0.0-213.0-0.0","A2ATBS6XTIZE89","img_art/12.jpg","3","","","","","","","","","","","","","","","","","","","","","","","","",""
"1847","","image-button-response","214","2266990","0.0-214.0-0.0","A2ATBS6XTIZE89","img_art/12.jpg","4","","","","","","","","","","","","","","","","","","","","","","","","",""
"null","","html-keyboard-response","215","2267996","0.0-215.0","A2ATBS6XTIZE89","<p style=""font-size: 48px;"">+</p>","","","","","null","allTrialResponses","1000","1","24","img_art/12.jpg","-26","It's two clashing paintings pushed together, neither of which I like to start with.","Isaac,Nathaniel,Andrew,Patrick,Peter,Thomas","I like the gradient of little color on the top to colorful on the bottom.,24,280,20","Too many blocks. I can't see a purpose or a focal point,-44,220,20","It's kind of ominous,-15,160,20","I don't like the blocking,-20,280,20","Reminds me Early 2000's decor, don't favor it,-10,320,20","Very interesting. Makes me want to look at it for a long time.,16,220,20","Nathaniel","Too many blocks. I can't see a purpose or a focal point,-44,220,20","Patrick","I don't like the blocking,-20,280,20","Peter","Reminds me Early 2000's decor, don't favor it,-10,320,20","0"
"58540","","survey-text","216","2326541","0.0-216.0-0.0","A2ATBS6XTIZE89","","","","{""Q0"":""Two muddy clashing themes. Bit on the right feels like the artist just got lazy and mixed paints on the canvas.""}","","","","","","","","","","","","","","","","","","","","","","",""
"5182","","image-slider-response","217","2331725","0.0-217.0","A2ATBS6XTIZE89","","","","","-35","","","","","","","","","","","","","","","","","","","","","",""
"null","","image-button-response","218","2336738","0.0-218.0","A2ATBS6XTIZE89","img_art/21.jpg","null","","","","","","","","","","","","","","","","","","","","","","","","",""
"2474","","image-button-response","219","2339214","0.0-219.0","A2ATBS6XTIZE89","img_art/21.jpg","4","","","","","","","","","","","","","","","","","","","","","","","","",""
"4125","","image-button-response","220","2343342","0.0-220.0-0.0","A2ATBS6XTIZE89","img_art/21.jpg","2","","","","","","","","","","","","","","","","","","","","","","","","",""
"2455","","image-button-response","221","2345798","0.0-221.0-0.0","A2ATBS6XTIZE89","img_art/21.jpg","5","","","","","","","","","","","","","","","","","","","","","","","","",""
"null","","html-keyboard-response","222","2346814","0.0-222.0","A2ATBS6XTIZE89","<p style=""font-size: 48px;"">+</p>","","","","","null","allTrialResponses","1000","1","25","img_art/21.jpg","-35","Two muddy clashing themes. Bit on the right feels like the artist just got lazy and mixed paints on the canvas.","Cody,Nathaniel,Jacob,Patrick,Peter,Christian","Pretty, good colors,30,180,20","Looks like two ships on fire. Cool image.,12,220,20","I like how the colors blend together like a beautiful sunset.,25,340,20","It looks confusing,-21,280,20","I like the two sides meeting, like a movie scene,15,320,20","stormy with gold lining,0,140,20","Peter","I like the two sides meeting, like a movie scene,15,320,20","Jacob","I like how the colors blend together like a beautiful sunset.,25,340,20","Christian","stormy with gold lining,0,140,20","0"
"5805","","survey-text","223","2352653","0.0-223.0-0.0","A2ATBS6XTIZE89","","","","{""Q0"":""table""}","","","","","","","","","","","","","","","","","","","","","","",""
"56823","","survey-text","224","2409478","0.0-224.0-0.0","A2ATBS6XTIZE89","","","","{""Q0"":""Ugly clashing colors. Vague impression of a child's picture of hearts and smiles, but the awful colors ruin it.""}","","","","","","","","","","","","","","","","","","","","","","",""
"6462","","image-slider-response","225","2415941","0.0-225.0","A2ATBS6XTIZE89","","","","","-29","","","","","","","","","","","","","","","","","","","","","",""
"3407","","image-button-response","226","2420947","0.0-226.0","A2ATBS6XTIZE89","img_art/2.jpg","1","","","","","","","","","","","","","","","","","","","","","","","","",""
"3873","","image-button-response","227","2424821","0.0-227.0","A2ATBS6XTIZE89","img_art/2.jpg","1","","","","","","","","","","","","","","","","","","","","","","","","",""
"1655","","image-button-response","228","2426478","0.0-228.0-0.0","A2ATBS6XTIZE89","img_art/2.jpg","3","","","","","","","","","","","","","","","","","","","","","","","","",""
"3085","","image-button-response","229","2429565","0.0-229.0-0.0","A2ATBS6XTIZE89","img_art/2.jpg","2","","","","","","","","","","","","","","","","","","","","","","","","",""
"null","","html-keyboard-response","230","2431067","0.0-230.0","A2ATBS6XTIZE89","<p style=""font-size: 48px;"">+</p>","","","","","null","allTrialResponses","1500","1","26","img_art/2.jpg","-29","Ugly clashing colors. Vague impression of a child's picture of hearts and smiles, but the awful colors ruin it.","Jared,Jesus,Jacob,Jason,Peter,Christian","looks like a happy child,15,400,20","Muted green is overpowering,-10,100,20","I don't get the meaning of this piece either.,-13,340,20","Too jumbled and disorienting,-13,20,20","I don't feel indifferent,4,320,20","do not understand,-21,140,20","Jesus","Muted green is overpowering,-10,100,20","Jason","Too jumbled and disorienting,-13,20,20","Jacob","I don't get the meaning of this piece either.,-13,340,20","0"
"45906","","survey-text","231","2476981","0.0-231.0-0.0","A2ATBS6XTIZE89","","","","{""Q0"":""I kind of like it, typical abstract blockiness arranged in way that suggests something. I don't care for the face, though.""}","","","","","","","","","","","","","","","","","","","","","","",""
"5303","","image-slider-response","232","2482286","0.0-232.0","A2ATBS6XTIZE89","","","","","5","","","","","","","","","","","","","","","","","","","","","",""
"4421","","image-button-response","233","2487289","0.0-233.0","A2ATBS6XTIZE89","img_art/8.jpg","0","","","","","","","","","","","","","","","","","","","","","","","","",""
"691","","image-button-response","234","2487982","0.0-234.0","A2ATBS6XTIZE89","img_art/8.jpg","0","","","","","","","","","","","","","","","","","","","","","","","","",""
"2190","","image-button-response","235","2490173","0.0-235.0-0.0","A2ATBS6XTIZE89","img_art/8.jpg","2","","","","","","","","","","","","","","","","","","","","","","","","",""
"766","","image-button-response","236","2490942","0.0-236.0-0.0","A2ATBS6XTIZE89","img_art/8.jpg","0","","","","","","","","","","","","","","","","","","","","","","","","",""
"4936","","image-button-response","237","2503389","0.0-236.1-0.1","A2ATBS6XTIZE89","img_art/8.jpg","4","","","","","","","","","","","","","","","","","","","","","","","","",""
"null","","html-keyboard-response","238","2504402","0.0-237.0","A2ATBS6XTIZE89","<p style=""font-size: 48px;"">+</p>","","","","","null","allTrialResponses","1000","1","27","img_art/8.jpg","5","I kind of like it, typical abstract blockiness arranged in way that suggests something. I don't care for the face, though.","Alexander,Jesus,Jacob,Jason,Hunter,Isaiah","Falling into a city's heart.,10,120,20","The different shapes are fun to look for.,30,100,20","Very cool! I like this piece,9,340,20","There are a lot of different interesting elements in the picture.,12,20,20","crisp shapes, find more things the longer you look,17,240,20","It makes me feel nervous. I can't tell ifI'm looking at an apartment, or a hellscape.,-18,300,20","Alexander","Falling into a city's heart.,10,120,20","Jacob","Very cool! I like this piece,9,340,20","Hunter","crisp shapes, find more things the longer you look,17,240,20","2"
"16460","","survey-text","239","2520870","0.0-238.0-0.0","A2ATBS6XTIZE89","","","","{""Q0"":""It's a badly drawn roller coaster.""}","","","","","","","","","","","","","","","","","","","","","","",""
"2640","","image-slider-response","240","2523510","0.0-239.0","A2ATBS6XTIZE89","","","","","-7","","","","","","","","","","","","","","","","","","","","","",""
"1814","","image-button-response","241","2528527","0.0-240.0","A2ATBS6XTIZE89","img_art/10.jpg","0","","","","","","","","","","","","","","","","","","","","","","","","",""
"2550","","image-button-response","242","2531078","0.0-241.0","A2ATBS6XTIZE89","img_art/10.jpg","2","","","","","","","","","","","","","","","","","","","","","","","","",""
"3477","","image-button-response","243","2534558","0.0-242.0-0.0","A2ATBS6XTIZE89","img_art/10.jpg","3","","","","","","","","","","","","","","","","","","","","","","","","",""
"1542","","image-button-response","244","2536102","0.0-243.0-0.0","A2ATBS6XTIZE89","img_art/10.jpg","0","","","","","","","","","","","","","","","","","","","","","","","","",""
"null","","html-keyboard-response","245","2537619","0.0-244.0","A2ATBS6XTIZE89","<p style=""font-size: 48px;"">+</p>","","","","","null","allTrialResponses","1500","1","28","img_art/10.jpg","-7","It's a badly drawn roller coaster.","Alexander,Shane,Jacob,Timothy,Hunter,Garrett","Roller coaster on an island.,9,120,20","Like a decision making process,46,80,20","I feel like this has a cool concept behind it.,11,340,20","Love the monotonal texture,20,240,20","shapes are appealing/relationship between the beige square and the black lines,24,240,20","I can't tell what this picture is supposed to mean and I think the colors are lacking variety.,-42,180,20","Jacob","I feel like this has a cool concept behind it.,11,340,20","Timothy","Love the monotonal texture,20,240,20","Alexander","Roller coaster on an island.,9,120,20","2"
"35779","","survey-text","246","2573430","0.0-245.0-0.0","A2ATBS6XTIZE89","","","","{""Q0"":""Like a right handed person trying to paint a portrait of their right hand.""}","","","","","","","","","","","","","","","","","","","","","","",""
"3998","","image-slider-response","247","2577430","0.0-246.0","A2ATBS6XTIZE89","","","","","-10","","","","","","","","","","","","","","","","","","","","","",""
"2895","","image-button-response","248","2582434","0.0-247.0","A2ATBS6XTIZE89","img_art/4.jpg","1","","","","","","","","","","","","","","","","","","","","","","","","",""
"1954","","image-button-response","249","2584391","0.0-248.0","A2ATBS6XTIZE89","img_art/4.jpg","3","","","","","","","","","","","","","","","","","","","","","","","","",""
"2326","","image-button-response","250","2586719","0.0-249.0-0.0","A2ATBS6XTIZE89","img_art/4.jpg","1","","","","","","","","","","","","","","","","","","","","","","","","",""
"2628","","image-button-response","251","2589349","0.0-250.0-0.0","A2ATBS6XTIZE89","img_art/4.jpg","2","","","","","","","","","","","","","","","","","","","","","","","","",""
"null","","html-keyboard-response","252","2590359","0.0-251.0","A2ATBS6XTIZE89","<p style=""font-size: 48px;"">+</p>","","","","","null","allTrialResponses","1000","1","29","img_art/4.jpg","-10","Like a right handed person trying to paint a portrait of their right hand.","Alexander,Adam,Jacob,Timothy,Jesse,Ryan","Pretzel noodles.,7,120,20","McDonald's French Fries.,-10,40,20","Looks like they just smothered on some paint and called it a day.,-17,340,20","The colors feel a bit off to me,-10,240,20","I like the warmth in the colors. Its reassuring.,9,80,20","Looks like an abstract version of the Scream painting,-50,380,20","Timothy","The colors feel a bit off to me,-10,240,20","Adam","McDonald's French Fries.,-10,40,20","Jacob","Looks like they just smothered on some paint and called it a day.,-17,340,20","2"
"18213","","survey-text","253","2608590","0.0-252.0-0.0","A2ATBS6XTIZE89","","","","{""Q0"":""Kind of nice. A bush in the desert. I don't mind it.""}","","","","","","","","","","","","","","","","","","","","","","",""
"2054","","image-slider-response","254","2610646","0.0-253.0","A2ATBS6XTIZE89","","","","","5","","","","","","","","","","","","","","","","","","","","","",""
"4712","","image-button-response","255","2615657","0.0-254.0","A2ATBS6XTIZE89","img_art/14.jpg","1","","","","","","","","","","","","","","","","","","","","","","","","",""
"2179","","image-button-response","256","2617838","0.0-255.0","A2ATBS6XTIZE89","img_art/14.jpg","1","","","","","","","","","","","","","","","","","","","","","","","","",""
"4718","","image-button-response","257","2622558","0.0-256.0-0.0","A2ATBS6XTIZE89","img_art/14.jpg","3","","","","","","","","","","","","","","","","","","","","","","","","",""
"2215","","image-button-response","258","2624774","0.0-257.0-0.0","A2ATBS6XTIZE89","img_art/14.jpg","2","","","","","","","","","","","","","","","","","","","","","","","","",""
"null","","html-keyboard-response","259","2625277","0.0-258.0","A2ATBS6XTIZE89","<p style=""font-size: 48px;"">+</p>","","","","","null","allTrialResponses","500","1","30","img_art/14.jpg","5","Kind of nice. A bush in the desert. I don't mind it.","Dalton,Adam,Jacob,Timothy,Bryce,Colton","nice simple art piece,2,300,20","Very abstract. Unsure of what I'm looking at. No emotions towards it.,-6,40,20","I kind of like it!,6,340,20","Something about the cahotic imagery makes me uncomfortable,-15,240,20","The red looks like blood and im not a huge fan,15,20,20","mythical and nature like,37,220,20","Adam","Very abstract. Unsure of what I'm looking at. No emotions towards it.,-6,40,20","Timothy","Something about the cahotic imagery makes me uncomfortable,-15,240,20","Jacob","I kind of like it!,6,340,20","2"
"3297","","image-button-response_instructions","260","2628589","0.0-259.0","A2ATBS6XTIZE89","","0","instructions","","","","","","","","","","","","","","","","","","","","","","","",""
