"rt","url","trial_type","trial_index","time_elapsed","internal_node_id","participant_id","stimulus","button_pressed","Name","responses","response","key_press","variableName","fixationTime","condition","trial","photo","subjectRating","subjectResponse","agentsNames","agent_1_Response","agent_2_Response","agent_3_Response","agent_4_Response","agent_5_Response","agent_6_Response","kept_1_name","kept_1_response","kept_2_name","kept_2_response","kept_3_name","kept_3_response","errorCounter"
"12048","external_page_harvard.html","external-html","0","12161","0.0-0.0","A2B153AHPWHLH1","","","","","","","","","","","","","","","","","","","","","","","","","","",""
"1930","","image-button-response","1","14095","0.0-1.0","A2B153AHPWHLH1","","0","","","","","","","","","","","","","","","","","","","","","","","","",""
"2421","","image-button-response","2","16526","0.0-2.0-0.0","A2B153AHPWHLH1","","1","phone","","","","","","","","","","","","","","","","","","","","","","","",""
"11685","","survey-text","3","28215","0.0-3.0-0.0","A2B153AHPWHLH1","","","","{""Q0"":""A2B153AHPWHLH1""}","","","","","","","","","","","","","","","","","","","","","","",""
"15531","","image-button-response_instructions","4","43751","0.0-4.0","A2B153AHPWHLH1","","0","instructions","","","","","","","","","","","","","","","","","","","","","","","",""
"48453","","image-button-response_instructions","5","92205","0.0-5.0","A2B153AHPWHLH1","img_art/ins/popularity/ins1.png","0","instructions","","","","","","","","","","","","","","","","","","","","","","","",""
"10852","","image-button-response_instructions","6","103061","0.0-6.0","A2B153AHPWHLH1","img_art/ins/popularity/ins2.png","0","instructions","","","","","","","","","","","","","","","","","","","","","","","",""
"14709","","image-button-response_instructions","7","117774","0.0-7.0","A2B153AHPWHLH1","img_art/ins/popularity/ins2Extreme.png","0","instructions","","","","","","","","","","","","","","","","","","","","","","","",""
"7165","","image-button-response_instructions","8","124942","0.0-8.0","A2B153AHPWHLH1","img_art/ins/popularity/ins3KEEPpop.PNG","0","instructions","","","","","","","","","","","","","","","","","","","","","","","",""
"5373","","image-button-response_instructions","9","130317","0.0-9.0","A2B153AHPWHLH1","img_art/ins/popularity/ins3ANamepop.PNG","0","instructions","","","","","","","","","","","","","","","","","","","","","","","",""
"8670","","image-button-response_instructions","10","138989","0.0-10.0","A2B153AHPWHLH1","img_art/ins/popularity/ins3ARatingpop.png","0","instructions","","","","","","","","","","","","","","","","","","","","","","","",""
"2303","","image-button-response_instructions","11","141295","0.0-11.0","A2B153AHPWHLH1","img_art/ins/popularity/ins3ATextpop.png","0","instructions","","","","","","","","","","","","","","","","","","","","","","","",""
"2612","","image-button-response_instructions","12","143910","0.0-12.0","A2B153AHPWHLH1","img_art/ins/popularity/ins3ALikespop.png","0","instructions","","","","","","","","","","","","","","","","","","","","","","","",""
"1246","","image-button-response_instructions","13","145157","0.0-13.0","A2B153AHPWHLH1","img_art/ins/popularity/ins3KEEPpop.PNG","0","instructions","","","","","","","","","","","","","","","","","","","","","","","",""
"1278","","image-button-response_instructions","14","146437","0.0-14.0","A2B153AHPWHLH1","img_art/ins/popularity/ins3_5RED.png","0","instructions","","","","","","","","","","","","","","","","","","","","","","","",""
"1958","","image-button-response_instructions","15","148397","0.0-15.0","A2B153AHPWHLH1","img_art/ins/popularity/ins3KEEPpop.PNG","0","instructions","","","","","","","","","","","","","","","","","","","","","","","",""
"774","","image-button-response_instructions","16","149173","0.0-16.0","A2B153AHPWHLH1","img_art/ins/popularity/ins4KEEPpop.PNG","0","instructions","","","","","","","","","","","","","","","","","","","","","","","",""
"822","","image-button-response_instructions","17","149997","0.0-17.0","A2B153AHPWHLH1","img_art/ins/popularity/ins5KEEPpop.PNG","0","instructions","","","","","","","","","","","","","","","","","","","","","","","",""
"2342","","image-button-response_instructions","18","152341","0.0-18.0","A2B153AHPWHLH1","","0","instructions","","","","","","","","","","","","","","","","","","","","","","","",""
"8092","","survey-text","19","160470","0.0-19.0-0.0","A2B153AHPWHLH1","","","","{""Q0"":""but""}","","","","","","","","","","","","","","","","","","","","","","",""
"26021","","survey-text","20","186494","0.0-20.0-0.0","A2B153AHPWHLH1","","","","{""Q0"":""Looks like something a child made.""}","","","","","","","","","","","","","","","","","","","","","","",""
"4371","","image-slider-response","21","190870","0.0-21.0","A2B153AHPWHLH1","","","","","-35","","","","","","","","","","","","","","","","","","","","","",""
"null","","image-button-response","22","195893","0.0-22.0","A2B153AHPWHLH1","img_art/ins/1.jpg","null","","","","","","","","","","","","","","","","","","","","","","","","",""
"15238","","image-button-response","23","211134","0.0-23.0","A2B153AHPWHLH1","img_art/ins/1.jpg","0","","","","","","","","","","","","","","","","","","","","","","","","",""
"7326","","image-button-response","24","218461","0.0-24.0-0.0","A2B153AHPWHLH1","img_art/ins/1.jpg","4","","","","","","","","","","","","","","","","","","","","","","","","",""
"4723","","image-button-response","25","223189","0.0-25.0-0.0","A2B153AHPWHLH1","img_art/ins/1.jpg","2","","","","","","","","","","","","","","","","","","","","","","","","",""
"null","","html-keyboard-response","26","223707","0.0-26.0","A2B153AHPWHLH1","<p style=""font-size: 48px;"">+</p>","","","","","null","allTrialResponses","500","1","-2","img_art/ins/1.jpg","-35","Looks like something a child made.","Adam,Alex,Ben,Carl,Daniel,Jack","Seems like doodles,-20,20,20","very creative work.,36,40,20","This color reminds me of poo,-46,60,20","very calming artwork,42,80,20","It looks like a murder scene.,-48,100,20","I like the sophisticated brushwork,40,120,20","Adam","Seems like doodles,-20,20,20","Daniel","It looks like a murder scene.,-48,100,20","Ben","This color reminds me of poo,-46,60,20","0"
"28392","","survey-text","27","252116","0.0-27.0-0.0","A2B153AHPWHLH1","","","","{""Q0"":""Just looks like patchwork.""}","","","","","","","","","","","","","","","","","","","","","","",""
"5719","","image-slider-response","28","257836","0.0-28.0","A2B153AHPWHLH1","","","","","-20","","","","","","","","","","","","","","","","","","","","","",""
"4781","","image-button-response","29","262852","0.0-29.0","A2B153AHPWHLH1","img_art/ins/2.jpg","2","","","","","","","","","","","","","","","","","","","","","","","","",""
"5115","","image-button-response","30","267973","0.0-30.0","A2B153AHPWHLH1","img_art/ins/2.jpg","5","","","","","","","","","","","","","","","","","","","","","","","","",""
"3023","","image-button-response","31","270997","0.0-31.0-0.0","A2B153AHPWHLH1","img_art/ins/2.jpg","3","","","","","","","","","","","","","","","","","","","","","","","","",""
"9951","","image-button-response","32","280949","0.0-32.0-0.0","A2B153AHPWHLH1","img_art/ins/2.jpg","2","","","","","","","","","","","","","","","","","","","","","","","","",""
"null","","html-keyboard-response","33","281451","0.0-33.0","A2B153AHPWHLH1","<p style=""font-size: 48px;"">+</p>","","","","","null","allTrialResponses","500","1","-1","img_art/ins/2.jpg","-20","Just looks like patchwork.","Adam,John,Ben,James,Daniel,Kyle","too much color,-18,20,20","love the texture of paint,48,160,20","meaningless painting,-45,60,20","looks too angry,-50,140,20","One of my pet peevs,-48,100,20","Idk, it is just annoying,-32,180,20","Kyle","Idk, it is just annoying,-32,180,20","James","looks too angry,-50,140,20","Ben","meaningless painting,-45,60,20","0"
"51639","","survey-text","34","333109","0.0-34.0-0.0","A2B153AHPWHLH1","","","","{""Q0"":""Doesn't really look like anything.""}","","","","","","","","","","","","","","","","","","","","","","",""
"4325","","image-slider-response","35","337436","0.0-35.0","A2B153AHPWHLH1","","","","","-19","","","","","","","","","","","","","","","","","","","","","",""
"null","","image-button-response","36","342460","0.0-36.0","A2B153AHPWHLH1","img_art/ins/3.jpg","null","","","","","","","","","","","","","","","","","","","","","","","","",""
"5855","","image-button-response","37","348316","0.0-37.0","A2B153AHPWHLH1","img_art/ins/3.jpg","4","","","","","","","","","","","","","","","","","","","","","","","","",""
"3414","","image-button-response","38","351732","0.0-38.0-0.0","A2B153AHPWHLH1","img_art/ins/3.jpg","5","","","","","","","","","","","","","","","","","","","","","","","","",""
"8468","","image-button-response","39","360204","0.0-39.0-0.0","A2B153AHPWHLH1","img_art/ins/3.jpg","0","","","","","","","","","","","","","","","","","","","","","","","","",""
"null","","html-keyboard-response","40","361221","0.0-40.0","A2B153AHPWHLH1","<p style=""font-size: 48px;"">+</p>","","","","","null","allTrialResponses","1000","1","0","img_art/ins/3.jpg","-19","Doesn't really look like anything.","Sam,Mike,Ben,James,Ron,Kyle","I can feel a rainy day from this painting,18,240,20","enjoy the different shades of blue,22,200,20","This thing gives me anxiety,-41,60,20","My worst nightmare,-42,140,20","It looks depressing,-26,220,20","It looks like a playground for bats,-36,180,20","Ron","It looks depressing,-26,220,20","Kyle","It looks like a playground for bats,-36,180,20","Sam","I can feel a rainy day from this painting,18,240,20","0"
"4262","","image-button-response_instructions","41","365492","0.0-41.0","A2B153AHPWHLH1","","0","instructions","","","","","","","","","","","","","","","","","","","","","","","",""
"14440","","survey-likert","42","379935","0.0-42.0-0.0","A2B153AHPWHLH1","","","","{""Q0"":"""",""Q1"":0,""Q2"":1}","","","","","","","","","","","","","","","","","","","","","","",""
"5580","","survey-text","43","385523","0.0-43.0-0.0","A2B153AHPWHLH1","","","","{""Q0"":""rock""}","","","","","","","","","","","","","","","","","","","","","","",""
"32366","","survey-text","44","417891","0.0-44.0-0.0","A2B153AHPWHLH1","","","","{""Q0"":""Looks like several small paintings in one.""}","","","","","","","","","","","","","","","","","","","","","","",""
"14389","","image-slider-response","45","432283","0.0-45.0","A2B153AHPWHLH1","","","","","-2","","","","","","","","","","","","","","","","","","","","","",""
"3268","","image-button-response","46","437320","0.0-46.0","A2B153AHPWHLH1","img_art/12.jpg","0","","","","","","","","","","","","","","","","","","","","","","","","",""
"6328","","image-button-response","47","443652","0.0-47.0","A2B153AHPWHLH1","img_art/12.jpg","2","","","","","","","","","","","","","","","","","","","","","","","","",""
"1821","","image-button-response","48","445476","0.0-48.0-0.0","A2B153AHPWHLH1","img_art/12.jpg","0","","","","","","","","","","","","","","","","","","","","","","","","",""
"6349","","image-button-response","49","451827","0.0-49.0-0.0","A2B153AHPWHLH1","img_art/12.jpg","4","","","","","","","","","","","","","","","","","","","","","","","","",""
"null","","html-keyboard-response","50","452330","0.0-50.0","A2B153AHPWHLH1","<p style=""font-size: 48px;"">+</p>","","","","","null","allTrialResponses","500","1","1","img_art/12.jpg","-2","Looks like several small paintings in one.","Bradley,Caleb,Isaiah,Jordan,Andrew,Brendan","Good technique. It's just not my thing.,2,300,20","Almost natural flowing between abstract sections.,27,40,20","The painting makes me uncomfortable. The smears in the boxes feel like a giant mess.,-16,300,20","Made me uncomfortable, reminded me of the 90s,-9,160,20","It's kind of ominous,-15,160,20","wtf is that i dont get it,-50,340,20","Isaiah","The painting makes me uncomfortable. The smears in the boxes feel like a giant mess.,-16,300,20","Bradley","Good technique. It's just not my thing.,2,300,20","Andrew","It's kind of ominous,-15,160,20","0"
"24207","","survey-text","51","476555","0.0-51.0-0.0","A2B153AHPWHLH1","","","","{""Q0"":""Looks like a strange bush, or tree.""}","","","","","","","","","","","","","","","","","","","","","","",""
"4580","","image-slider-response","52","481138","0.0-52.0","A2B153AHPWHLH1","","","","","-16","","","","","","","","","","","","","","","","","","","","","",""
"null","","image-button-response","53","486152","0.0-53.0","A2B153AHPWHLH1","img_art/15.jpg","null","","","","","","","","","","","","","","","","","","","","","","","","",""
"10305","","image-button-response","54","496459","0.0-54.0","A2B153AHPWHLH1","img_art/15.jpg","3","","","","","","","","","","","","","","","","","","","","","","","","",""
"21430","","image-button-response","55","517891","0.0-55.0-0.0","A2B153AHPWHLH1","img_art/15.jpg","0","","","","","","","","","","","","","","","","","","","","","","","","",""
"6471","","image-button-response","56","524366","0.0-56.0-0.0","A2B153AHPWHLH1","img_art/15.jpg","1","","","","","","","","","","","","","","","","","","","","","","","","",""
"null","","html-keyboard-response","57","524870","0.0-57.0","A2B153AHPWHLH1","<p style=""font-size: 48px;"">+</p>","","","","","null","allTrialResponses","500","1","2","img_art/15.jpg","-16","Looks like a strange bush, or tree.","Bradley,Thomas,Isaiah,Benjamin,Andrew,Tristan","I feel like there's ski jumping going on here.,2,300,20","Interesting, and I don't dislike it.,9,220,20","The painting is very relaxing, I'm reminded of sitting in a garden in the evening.,8,300,20","Reminds me of blueberry bushes.,7,260,20","The blues are soothing,21,160,20","basic colors and pleasing shapes providing a calming effect,15,300,20","Benjamin","Reminds me of blueberry bushes.,7,260,20","Bradley","I feel like there's ski jumping going on here.,2,300,20","Thomas","Interesting, and I don't dislike it.,9,220,20","0"
"28653","","survey-text","58","553538","0.0-58.0-0.0","A2B153AHPWHLH1","","","","{""Q0"":""looks like some clouds on another planet.""}","","","","","","","","","","","","","","","","","","","","","","",""
"3852","","image-slider-response","59","557394","0.0-59.0","A2B153AHPWHLH1","","","","","-19","","","","","","","","","","","","","","","","","","","","","",""
"3678","","image-button-response","60","562400","0.0-60.0","A2B153AHPWHLH1","img_art/27.jpg","0","","","","","","","","","","","","","","","","","","","","","","","","",""
"570","","image-button-response","61","562971","0.0-61.0","A2B153AHPWHLH1","img_art/27.jpg","0","","","","","","","","","","","","","","","","","","","","","","","","",""
"4845","","image-button-response","62","567818","0.0-62.0-0.0","A2B153AHPWHLH1","img_art/27.jpg","1","","","","","","","","","","","","","","","","","","","","","","","","",""
"11806","","image-button-response","63","579627","0.0-63.0-0.0","A2B153AHPWHLH1","img_art/27.jpg","2","","","","","","","","","","","","","","","","","","","","","","","","",""
"null","","html-keyboard-response","64","580629","0.0-64.0","A2B153AHPWHLH1","<p style=""font-size: 48px;"">+</p>","","","","","null","allTrialResponses","1000","1","3","img_art/27.jpg","-19","looks like some clouds on another planet.","Bradley,Thomas,Adam,Benjamin,Antonio,Samuel","Yikes. I think I made this in kindergarten.,-20,300,20","First thought is again, that this looks like a child's art assignment,-20,220,20","Warn colors are pretty, but too blotchy for me.,3,40,20","I like the colors.,6,260,20","Didnt actually make me feel anything, sort of bland,3,220,20","city at sunset brings happyness,10,400,20","Bradley","Yikes. I think I made this in kindergarten.,-20,300,20","Thomas","First thought is again, that this looks like a child's art assignment,-20,220,20","Adam","Warn colors are pretty, but too blotchy for me.,3,40,20","0"
"32858","","survey-text","65","613498","0.0-65.0-0.0","A2B153AHPWHLH1","","","","{""Q0"":""looks like a storm is coming.""}","","","","","","","","","","","","","","","","","","","","","","",""
"3589","","image-slider-response","66","617090","0.0-66.0","A2B153AHPWHLH1","","","","","-24","","","","","","","","","","","","","","","","","","","","","",""
"3862","","image-button-response","67","622100","0.0-67.0","A2B153AHPWHLH1","img_art/21.jpg","0","","","","","","","","","","","","","","","","","","","","","","","","",""
"589","","image-button-response","68","622690","0.0-68.0","A2B153AHPWHLH1","img_art/21.jpg","0","","","","","","","","","","","","","","","","","","","","","","","","",""
"10846","","image-button-response","69","633538","0.0-69.0-0.0","A2B153AHPWHLH1","img_art/21.jpg","2","","","","","","","","","","","","","","","","","","","","","","","","",""
"1294","","image-button-response","70","634834","0.0-70.0-0.0","A2B153AHPWHLH1","img_art/21.jpg","1","","","","","","","","","","","","","","","","","","","","","","","","",""
"null","","html-keyboard-response","71","635340","0.0-71.0","A2B153AHPWHLH1","<p style=""font-size: 48px;"">+</p>","","","","","null","allTrialResponses","500","1","4","img_art/21.jpg","-24","looks like a storm is coming.","Bradley,Thomas,Adam,Jake,Edward,Steven","Indifferent toward this one.,6,300,20","Again, I love the use of color,50,220,20","I like color mix here,15,40,20","It looks epic and is nice to look at in terms of colors/style.,23,360,20","I love how vague it is but how you can imagine a story anyway, like clouds,45,60,20","Okay, I love the color schemes, I can't quite figure it out though,14,160,20","Bradley","Indifferent toward this one.,6,300,20","Adam","I like color mix here,15,40,20","Thomas","Again, I love the use of color,50,220,20","0"
"25344","","survey-text","72","660698","0.0-72.0-0.0","A2B153AHPWHLH1","","","","{""Q0"":""Kind of like a ghostly tree.""}","","","","","","","","","","","","","","","","","","","","","","",""
"4252","","image-slider-response","73","664953","0.0-73.0","A2B153AHPWHLH1","","","","","23","","","","","","","","","","","","","","","","","","","","","",""
"3574","","image-button-response","74","669973","0.0-74.0","A2B153AHPWHLH1","img_art/17.jpg","0","","","","","","","","","","","","","","","","","","","","","","","","",""
"866","","image-button-response","75","670842","0.0-75.0","A2B153AHPWHLH1","img_art/17.jpg","0","","","","","","","","","","","","","","","","","","","","","","","","",""
"12397","","image-button-response","76","683241","0.0-76.0-0.0","A2B153AHPWHLH1","img_art/17.jpg","5","","","","","","","","","","","","","","","","","","","","","","","","",""
"7630","","image-button-response","77","690874","0.0-77.0-0.0","A2B153AHPWHLH1","img_art/17.jpg","4","","","","","","","","","","","","","","","","","","","","","","","","",""
"null","","html-keyboard-response","78","692388","0.0-78.0","A2B153AHPWHLH1","<p style=""font-size: 48px;"">+</p>","","","","","null","allTrialResponses","1500","1","5","img_art/17.jpg","23","Kind of like a ghostly tree.","Bradley,Thomas,Adam,Nathan,Travis,Juan","It kind of pulls you in to float away with it.,9,300,20","Colors and composition are beautiful. I would hang this in my home.,50,220,20","Very washed out.,-10,40,20","It's alright, nothing I particularly like but it's just fine,-10,200,20","Very pretty...the colors and good and flow well.,33,260,20","I want to know more about this picture and where it leads if you could get inside it.,27,260,20","Bradley","It kind of pulls you in to float away with it.,9,300,20","Juan","I want to know more about this picture and where it leads if you could get inside it.,27,260,20","Travis","Very pretty...the colors and good and flow well.,33,260,20","0"
"5091","","survey-text","79","697489","0.0-79.0-0.0","A2B153AHPWHLH1","","","","{""Q0"":""sky""}","","","","","","","","","","","","","","","","","","","","","","",""
"15143","","survey-text","80","712633","0.0-80.0-0.0","A2B153AHPWHLH1","","","","{""Q0"":""this just looks like puke.""}","","","","","","","","","","","","","","","","","","","","","","",""
"5324","","image-slider-response","81","717961","0.0-81.0","A2B153AHPWHLH1","","","","","-50","","","","","","","","","","","","","","","","","","","","","",""
"4862","","image-button-response","82","722969","0.0-82.0","A2B153AHPWHLH1","img_art/7.jpg","1","","","","","","","","","","","","","","","","","","","","","","","","",""
"916","","image-button-response","83","723890","0.0-83.0","A2B153AHPWHLH1","img_art/7.jpg","1","","","","","","","","","","","","","","","","","","","","","","","","",""
"8478","","image-button-response","84","732370","0.0-84.0-0.0","A2B153AHPWHLH1","img_art/7.jpg","2","","","","","","","","","","","","","","","","","","","","","","","","",""
"1781","","image-button-response","85","734153","0.0-85.0-0.0","A2B153AHPWHLH1","img_art/7.jpg","5","","","","","","","","","","","","","","","","","","","","","","","","",""
"null","","html-keyboard-response","86","734658","0.0-86.0","A2B153AHPWHLH1","<p style=""font-size: 48px;"">+</p>","","","","","null","allTrialResponses","500","1","6","img_art/7.jpg","-50","this just looks like puke.","Bradley,Kyle,Michael,Austin,Travis,Juan","Is this cookie dough?  Yum!,-10,300,20","It just reminds me of dirt,-10,340,20","Ugly. I don't like the colors or the scattering.,-50,140,20","The picture is just random,-8,240,20","Just neutral...looks like sand at the beach.,3,260,20","This is borning and lifeless.,-50,260,20","Kyle","It just reminds me of dirt,-10,340,20","Michael","Ugly. I don't like the colors or the scattering.,-50,140,20","Juan","This is borning and lifeless.,-50,260,20","0"
"26285","","survey-text","87","760961","0.0-87.0-0.0","A2B153AHPWHLH1","","","","{""Q0"":""looks like weird little highways.""}","","","","","","","","","","","","","","","","","","","","","","",""
"4645","","image-slider-response","88","765610","0.0-88.0","A2B153AHPWHLH1","","","","","6","","","","","","","","","","","","","","","","","","","","","",""
"5006","","image-button-response","89","770627","0.0-89.0","A2B153AHPWHLH1","img_art/11.jpg","0","","","","","","","","","","","","","","","","","","","","","","","","",""
"771","","image-button-response","90","771402","0.0-90.0","A2B153AHPWHLH1","img_art/11.jpg","0","","","","","","","","","","","","","","","","","","","","","","","","",""
"2716","","image-button-response","91","774121","0.0-91.0-0.0","A2B153AHPWHLH1","img_art/11.jpg","1","","","","","","","","","","","","","","","","","","","","","","","","",""
"9995","","image-button-response","92","784121","0.0-92.0-0.0","A2B153AHPWHLH1","img_art/11.jpg","5","","","","","","","","","","","","","","","","","","","","","","","","",""
"null","","html-keyboard-response","93","785638","0.0-93.0","A2B153AHPWHLH1","<p style=""font-size: 48px;"">+</p>","","","","","null","allTrialResponses","1500","1","7","img_art/11.jpg","6","looks like weird little highways.","Gabriel,Kyle,Michael,Jeffrey,Shane,Juan","its like telephone wires, or mountains,-17,160,20","Reminds me of a city on a grey/rainy winter's day,25,340,20","It's kind of cool and I see it looks clean.,22,140,20","a lot of dark colours,-8,40,20","City on a hill, tranquility,42,80,20","It makes me think of a rainy day and I like the colors. Also like the wavy lines.,22,260,20","Gabriel","its like telephone wires, or mountains,-17,160,20","Kyle","Reminds me of a city on a grey/rainy winter's day,25,340,20","Juan","It makes me think of a rainy day and I like the colors. Also like the wavy lines.,22,260,20","0"
"23619","","survey-text","94","809272","0.0-94.0-0.0","A2B153AHPWHLH1","","","","{""Q0"":""Looks like a kid tried to paint a robot.""}","","","","","","","","","","","","","","","","","","","","","","",""
"3652","","image-slider-response","95","812929","0.0-95.0","A2B153AHPWHLH1","","","","","-36","","","","","","","","","","","","","","","","","","","","","",""
"3190","","image-button-response","96","817947","0.0-96.0","A2B153AHPWHLH1","img_art/2.jpg","0","","","","","","","","","","","","","","","","","","","","","","","","",""
"596","","image-button-response","97","818544","0.0-97.0","A2B153AHPWHLH1","img_art/2.jpg","0","","","","","","","","","","","","","","","","","","","","","","","","",""
"10783","","image-button-response","98","829329","0.0-98.0-0.0","A2B153AHPWHLH1","img_art/2.jpg","3","","","","","","","","","","","","","","","","","","","","","","","","",""
"9653","","image-button-response","99","838985","0.0-99.0-0.0","A2B153AHPWHLH1","img_art/2.jpg","1","","","","","","","","","","","","","","","","","","","","","","","","",""
"null","","html-keyboard-response","100","839488","0.0-100.0","A2B153AHPWHLH1","<p style=""font-size: 48px;"">+</p>","","","","","null","allTrialResponses","500","1","8","img_art/2.jpg","-36","Looks like a kid tried to paint a robot.","Gabriel,Kyle,Alexis,Matthew,Aaron,Juan","i dont like it, no thank you,-28,160,20","Color picks are a bad mesh with each other,-17,340,20","The people look blurred together,-21,140,20","I think I can make out a face in there.,25,120,20","The colors are pretty but I don't really like the shapes in it.,-20,20,20","I don't like the abstract nature of this painting or the colors used.,-50,260,20","Gabriel","i dont like it, no thank you,-28,160,20","Matthew","I think I can make out a face in there.,25,120,20","Kyle","Color picks are a bad mesh with each other,-17,340,20","0"
"105920","","survey-text","101","945416","0.0-101.0-0.0","A2B153AHPWHLH1","","","","{""Q0"":""looks like the apocalypse.""}","","","","","","","","","","","","","","","","","","","","","","",""
"7926","","image-slider-response","102","953344","0.0-102.0","A2B153AHPWHLH1","","","","","10","","","","","","","","","","","","","","","","","","","","","",""
"null","","image-button-response","103","958358","0.0-103.0","A2B153AHPWHLH1","img_art/22.jpg","null","","","","","","","","","","","","","","","","","","","","","","","","",""
"960","","image-button-response","104","959321","0.0-104.0","A2B153AHPWHLH1","img_art/22.jpg","2","","","","","","","","","","","","","","","","","","","","","","","","",""
"8911","","image-button-response","105","968232","0.0-105.0-0.0","A2B153AHPWHLH1","img_art/22.jpg","5","","","","","","","","","","","","","","","","","","","","","","","","",""
"1430","","image-button-response","106","969664","0.0-106.0-0.0","A2B153AHPWHLH1","img_art/22.jpg","3","","","","","","","","","","","","","","","","","","","","","","","","",""
"null","","html-keyboard-response","107","970666","0.0-107.0","A2B153AHPWHLH1","<p style=""font-size: 48px;"">+</p>","","","","","null","allTrialResponses","1000","1","9","img_art/22.jpg","10","looks like the apocalypse.","Gabriel,Kyle,Nicholas,Matthew,James,Mason","its messy, like a child painted it,-14,160,20","I appreciate the artistic effort but it's not for me,0,340,20","Pretty colors but something seems sinister about it,25,240,20","Another servicable piece of abstract art?,20,120,20","Like the black key and the rainbow color theme.,31,380,20","Could be interpreted so many ways, bold. I like it.,29,100,20","Nicholas","Pretty colors but something seems sinister about it,25,240,20","Mason","Could be interpreted so many ways, bold. I like it.,29,100,20","Matthew","Another servicable piece of abstract art?,20,120,20","0"
"23127","","survey-text","108","993807","0.0-108.0-0.0","A2B153AHPWHLH1","","","","{""Q0"":""Rain on  a window.""}","","","","","","","","","","","","","","","","","","","","","","",""
"4462","","image-slider-response","109","998272","0.0-109.0","A2B153AHPWHLH1","","","","","13","","","","","","","","","","","","","","","","","","","","","",""
"null","","image-button-response","110","1003287","0.0-110.0","A2B153AHPWHLH1","img_art/13.jpg","null","","","","","","","","","","","","","","","","","","","","","","","","",""
"10726","","image-button-response","111","1014015","0.0-111.0","A2B153AHPWHLH1","img_art/13.jpg","0","","","","","","","","","","","","","","","","","","","","","","","","",""
"5182","","image-button-response","112","1019199","0.0-112.0-0.0","A2B153AHPWHLH1","img_art/13.jpg","4","","","","","","","","","","","","","","","","","","","","","","","","",""
"3413","","image-button-response","113","1022616","0.0-113.0-0.0","A2B153AHPWHLH1","img_art/13.jpg","2","","","","","","","","","","","","","","","","","","","","","","","","",""
"null","","html-keyboard-response","114","1024126","0.0-114.0","A2B153AHPWHLH1","<p style=""font-size: 48px;"">+</p>","","","","","null","allTrialResponses","1500","1","10","img_art/13.jpg","13","Rain on  a window.","Devin,Cameron,Nicholas,Matthew,Kevin,Mason","Really love the colors,11,380,20","Like the use of color, not a fan of the splatter,29,60,20","Nice colors. beautiful blue,50,240,20","AWESOME! Pollack but with more direction.,32,120,20","Debree on top of a calm pond.,18,320,20","meh, 80's. retro,-9,100,20","Devin","Really love the colors,11,380,20","Kevin","Debree on top of a calm pond.,18,320,20","Nicholas","Nice colors. beautiful blue,50,240,20","0"
"4417","","survey-text","115","1028583","0.0-115.0-0.0","A2B153AHPWHLH1","","","","{""Q0"":""our""}","","","","","","","","","","","","","","","","","","","","","","",""
"56767","","survey-text","116","1085351","0.0-116.0-0.0","A2B153AHPWHLH1","","","","{""Q0"":""Kind of Van Gogh ish.""}","","","","","","","","","","","","","","","","","","","","","","",""
"4262","","image-slider-response","117","1089614","0.0-117.0","A2B153AHPWHLH1","","","","","17","","","","","","","","","","","","","","","","","","","","","",""
"2814","","image-button-response","118","1094626","0.0-118.0","A2B153AHPWHLH1","img_art/20.jpg","0","","","","","","","","","","","","","","","","","","","","","","","","",""
"826","","image-button-response","119","1095455","0.0-119.0","A2B153AHPWHLH1","img_art/20.jpg","0","","","","","","","","","","","","","","","","","","","","","","","","",""
"9846","","image-button-response","120","1105303","0.0-120.0-0.0","A2B153AHPWHLH1","img_art/20.jpg","4","","","","","","","","","","","","","","","","","","","","","","","","",""
"15165","","image-button-response","121","1120471","0.0-121.0-0.0","A2B153AHPWHLH1","img_art/20.jpg","5","","","","","","","","","","","","","","","","","","","","","","","","",""
"null","","html-keyboard-response","122","1121487","0.0-122.0","A2B153AHPWHLH1","<p style=""font-size: 48px;"">+</p>","","","","","null","allTrialResponses","1000","1","11","img_art/20.jpg","17","Kind of Van Gogh ish.","Devin,Jacob,Nicholas,Paul,Kevin,Kenneth","Looks somewhat dark and emotional,-10,380,20","It looks painted really nicely.,5,340,20","Use of white on foreground is too big and steals eyes away from rest of painting,2,240,20","It looks like a junkyard and isn't appealing,-22,300,20","The beast is running after you.,33,320,20","I want to like this more, but i wish it was more detailed. It's hard for me to see what it is.,5,300,20","Devin","Looks somewhat dark and emotional,-10,380,20","Kevin","The beast is running after you.,33,320,20","Kenneth","I want to like this more, but i wish it was more detailed. It's hard for me to see what it is.,5,300,20","0"
"16720","","survey-text","123","1138223","0.0-123.0-0.0","A2B153AHPWHLH1","","","","{""Q0"":""waterfall in the forest.""}","","","","","","","","","","","","","","","","","","","","","","",""
"3596","","image-slider-response","124","1141822","0.0-124.0","A2B153AHPWHLH1","","","","","8","","","","","","","","","","","","","","","","","","","","","",""
"null","","image-button-response","125","1146836","0.0-125.0","A2B153AHPWHLH1","img_art/24.jpg","null","","","","","","","","","","","","","","","","","","","","","","","","",""
"4641","","image-button-response","126","1151479","0.0-126.0","A2B153AHPWHLH1","img_art/24.jpg","3","","","","","","","","","","","","","","","","","","","","","","","","",""
"1974","","image-button-response","127","1153454","0.0-127.0-0.0","A2B153AHPWHLH1","img_art/24.jpg","4","","","","","","","","","","","","","","","","","","","","","","","","",""
"4278","","image-button-response","128","1157734","0.0-128.0-0.0","A2B153AHPWHLH1","img_art/24.jpg","2","","","","","","","","","","","","","","","","","","","","","","","","",""
"null","","html-keyboard-response","129","1159246","0.0-129.0","A2B153AHPWHLH1","<p style=""font-size: 48px;"">+</p>","","","","","null","allTrialResponses","1500","1","12","img_art/24.jpg","8","waterfall in the forest.","Devin,Dakota,Shawn,Dustin,Kevin,Kenneth","colors are good but the style is iffy,12,380,20","chunky fresh color,27,280,20","Pretty but cheesy,-15,100,20","I see a waterfall, which is relaxing and peaceful!  I like the blue coloring,30,20,20","What a nice refreshing waterfall.,39,320,20","Cute; I like what the image itself & the colors.,25,300,20","Dustin","I see a waterfall, which is relaxing and peaceful!  I like the blue coloring,30,20,20","Kevin","What a nice refreshing waterfall.,39,320,20","Shawn","Pretty but cheesy,-15,100,20","0"
"38765","","survey-text","130","1198031","0.0-130.0-0.0","A2B153AHPWHLH1","","","","{""Q0"":""Some kinda weird, McDonalds french fries.""}","","","","","","","","","","","","","","","","","","","","","","",""
"3965","","image-slider-response","131","1201999","0.0-131.0","A2B153AHPWHLH1","","","","","-25","","","","","","","","","","","","","","","","","","","","","",""
"3108","","image-button-response","132","1207011","0.0-132.0","A2B153AHPWHLH1","img_art/4.jpg","0","","","","","","","","","","","","","","","","","","","","","","","","",""
"266","","image-button-response","133","1207278","0.0-133.0","A2B153AHPWHLH1","img_art/4.jpg","0","","","","","","","","","","","","","","","","","","","","","","","","",""
"7982","","image-button-response","134","1215263","0.0-134.0-0.0","A2B153AHPWHLH1","img_art/4.jpg","1","","","","","","","","","","","","","","","","","","","","","","","","",""
"4077","","image-button-response","135","1219343","0.0-135.0-0.0","A2B153AHPWHLH1","img_art/4.jpg","2","","","","","","","","","","","","","","","","","","","","","","","","",""
"null","","html-keyboard-response","136","1220854","0.0-136.0","A2B153AHPWHLH1","<p style=""font-size: 48px;"">+</p>","","","","","null","allTrialResponses","1500","1","13","img_art/4.jpg","-25","Some kinda weird, McDonalds french fries.","Jorge,Chase,Shawn,Dustin,Kevin,Vincent","creepy as it looks like fingernails,-23,180,20","It looks like smeared poop.,-27,120,20","Great movement but don't love the yellowy tones.,31,100,20","Warm colors, but too random. I feel like I'm seeing something mangled. It is unpleasant.,-30,20,20","A leaning trophy,-9,320,20","I like it not sure much of how I feel about it,7,360,20","Jorge","creepy as it looks like fingernails,-23,180,20","Chase","It looks like smeared poop.,-27,120,20","Shawn","Great movement but don't love the yellowy tones.,31,100,20","0"
"23492","","survey-text","137","1244366","0.0-137.0-0.0","A2B153AHPWHLH1","","","","{""Q0"":""It's just red scribble.""}","","","","","","","","","","","","","","","","","","","","","","",""
"4245","","image-slider-response","138","1248613","0.0-138.0","A2B153AHPWHLH1","","","","","-50","","","","","","","","","","","","","","","","","","","","","",""
"null","","image-button-response","139","1253625","0.0-139.0","A2B153AHPWHLH1","img_art/3.jpg","null","","","","","","","","","","","","","","","","","","","","","","","","",""
"1603","","image-button-response","140","1255230","0.0-140.0","A2B153AHPWHLH1","img_art/3.jpg","1","","","","","","","","","","","","","","","","","","","","","","","","",""
"9142","","image-button-response","141","1264374","0.0-141.0-0.0","A2B153AHPWHLH1","img_art/3.jpg","4","","","","","","","","","","","","","","","","","","","","","","","","",""
"1365","","image-button-response","142","1265742","0.0-142.0-0.0","A2B153AHPWHLH1","img_art/3.jpg","5","","","","","","","","","","","","","","","","","","","","","","","","",""
"null","","html-keyboard-response","143","1266745","0.0-143.0","A2B153AHPWHLH1","<p style=""font-size: 48px;"">+</p>","","","","","null","allTrialResponses","1000","1","14","img_art/3.jpg","-50","It's just red scribble.","Jorge,Chase,Shawn,Tyler,Derek,Luke","This makes me feel vulnerable,-32,180,20","Looks like a bloody head with teeth.,-16,120,20","Powerful lines but seems incomplete,-10,100,20","This doesn't grab me. Perhaps the red is meant to be provocative; I find it gimmicky.,-9,320,20","Looks messy and too much for my eyes,-35,360,20","it makes me feel really angry,-20,20,20","Chase","Looks like a bloody head with teeth.,-16,120,20","Derek","Looks messy and too much for my eyes,-35,360,20","Luke","it makes me feel really angry,-20,20,20","0"
"35164","","survey-text","144","1301917","0.0-144.0-0.0","A2B153AHPWHLH1","","","","{""Q0"":""Guy on a horse being chased by demons.""}","","","","","","","","","","","","","","","","","","","","","","",""
"3156","","image-slider-response","145","1305077","0.0-145.0","A2B153AHPWHLH1","","","","","9","","","","","","","","","","","","","","","","","","","","","",""
"4374","","image-button-response","146","1310085","0.0-146.0","A2B153AHPWHLH1","img_art/18.jpg","1","","","","","","","","","","","","","","","","","","","","","","","","",""
"204","","image-button-response","147","1310294","0.0-147.0","A2B153AHPWHLH1","img_art/18.jpg","1","","","","","","","","","","","","","","","","","","","","","","","","",""
"3646","","image-button-response","148","1313941","0.0-148.0-0.0","A2B153AHPWHLH1","img_art/18.jpg","3","","","","","","","","","","","","","","","","","","","","","","","","",""
"6525","","image-button-response","149","1320470","0.0-149.0-0.0","A2B153AHPWHLH1","img_art/18.jpg","2","","","","","","","","","","","","","","","","","","","","","","","","",""
"null","","html-keyboard-response","150","1321484","0.0-150.0","A2B153AHPWHLH1","<p style=""font-size: 48px;"">+</p>","","","","","null","allTrialResponses","1000","1","15","img_art/18.jpg","9","Guy on a horse being chased by demons.","Stephen,Chase,Charles,Timothy,Derek,Luke","Too abstract to me,-30,140,20","Kinda neat, looks like cavalry, or a knight.,15,120,20","I enjoy the detailed line work in this one,21,100,20","This gives a very ominous feeling,-30,240,20","Very wild and abstract. I love it and would definitely hang this up in my home,50,360,20","the harsh lines with the smooth lines makes me think of wild animals,20,20,20","Chase","Kinda neat, looks like cavalry, or a knight.,15,120,20","Timothy","This gives a very ominous feeling,-30,240,20","Charles","I enjoy the detailed line work in this one,21,100,20","0"
"5490","","survey-text","151","1326998","0.0-151.0-0.0","A2B153AHPWHLH1","","","","{""Q0"":""course""}","","","","","","","","","","","","","","","","","","","","","","",""
"27069","","survey-text","152","1354069","0.0-152.0-0.0","A2B153AHPWHLH1","","","","{""Q0"":""Ancient city with a god looking over.""}","","","","","","","","","","","","","","","","","","","","","","",""
"2973","","image-slider-response","153","1357045","0.0-153.0","A2B153AHPWHLH1","","","","","8","","","","","","","","","","","","","","","","","","","","","",""
"null","","image-button-response","154","1362055","0.0-154.0","A2B153AHPWHLH1","img_art/8.jpg","null","","","","","","","","","","","","","","","","","","","","","","","","",""
"6716","","image-button-response","155","1368773","0.0-155.0","A2B153AHPWHLH1","img_art/8.jpg","0","","","","","","","","","","","","","","","","","","","","","","","","",""
"4902","","image-button-response","156","1373677","0.0-156.0-0.0","A2B153AHPWHLH1","img_art/8.jpg","1","","","","","","","","","","","","","","","","","","","","","","","","",""
"11421","","image-button-response","157","1385101","0.0-157.0-0.0","A2B153AHPWHLH1","img_art/8.jpg","4","","","","","","","","","","","","","","","","","","","","","","","","",""
"null","","html-keyboard-response","158","1385607","0.0-158.0","A2B153AHPWHLH1","<p style=""font-size: 48px;"">+</p>","","","","","null","allTrialResponses","500","1","16","img_art/8.jpg","8","Ancient city with a god looking over.","Anthony,Chase,Charles,Timothy,Marcus,Ethan","Not my favorite but has an interesting concept,32,200,20","This is kind of neat. I really like how things are oriented and the shapes used.,18,120,20","Feels very 90's but I like the doorway,15,100,20","Too much going on, too many colors, makes me feel uneasy,-20,240,20","Like the colors and the energy, but the face feels jarring to me,13,60,20","Very inspiring piece. I love how it's at angle. It gives it character.,23,120,20","Anthony","Not my favorite but has an interesting concept,32,200,20","Chase","This is kind of neat. I really like how things are oriented and the shapes used.,18,120,20","Marcus","Like the colors and the energy, but the face feels jarring to me,13,60,20","0"
"28964","","survey-text","159","1414596","0.0-159.0-0.0","A2B153AHPWHLH1","","","","{""Q0"":""looks like a struggling shrub bush.""}","","","","","","","","","","","","","","","","","","","","","","",""
"4341","","image-slider-response","160","1418940","0.0-160.0","A2B153AHPWHLH1","","","","","-21","","","","","","","","","","","","","","","","","","","","","",""
"null","","image-button-response","161","1423954","0.0-161.0","A2B153AHPWHLH1","img_art/14.jpg","null","","","","","","","","","","","","","","","","","","","","","","","","",""
"1616","","image-button-response","162","1425573","0.0-162.0","A2B153AHPWHLH1","img_art/14.jpg","1","","","","","","","","","","","","","","","","","","","","","","","","",""
"7421","","image-button-response","163","1432997","0.0-163.0-0.0","A2B153AHPWHLH1","img_art/14.jpg","0","","","","","","","","","","","","","","","","","","","","","","","","",""
"1038","","image-button-response","164","1434036","0.0-164.0-0.0","A2B153AHPWHLH1","img_art/14.jpg","5","","","","","","","","","","","","","","","","","","","","","","","","",""
"null","","html-keyboard-response","165","1435554","0.0-165.0","A2B153AHPWHLH1","<p style=""font-size: 48px;"">+</p>","","","","","null","allTrialResponses","1500","1","17","img_art/14.jpg","-21","looks like a struggling shrub bush.","Anthony,Chase,Justin,Brett,Marcus,Jeremy","This piece is average compared to the others.,1,200,20","It kind of looks like a tree but I feel very netural.,0,120,20","The colors are good and the design is intriguing.,15,280,20","Confusion or an explosion,40,360,20","I like the colors and the shapes are interesting,11,60,20","It didn't really do anything to excite me.,21,60,20","Chase","It kind of looks like a tree but I feel very netural.,0,120,20","Anthony","This piece is average compared to the others.,1,200,20","Jeremy","It didn't really do anything to excite me.,21,60,20","0"
"23935","","survey-text","166","1459500","0.0-166.0-0.0","A2B153AHPWHLH1","","","","{""Q0"":""someone spilled the paint.""}","","","","","","","","","","","","","","","","","","","","","","",""
"3494","","image-slider-response","167","1462996","0.0-167.0","A2B153AHPWHLH1","","","","","-37","","","","","","","","","","","","","","","","","","","","","",""
"2726","","image-button-response","168","1468014","0.0-168.0","A2B153AHPWHLH1","img_art/29.jpg","1","","","","","","","","","","","","","","","","","","","","","","","","",""
"820","","image-button-response","169","1468837","0.0-169.0","A2B153AHPWHLH1","img_art/29.jpg","1","","","","","","","","","","","","","","","","","","","","","","","","",""
"9717","","image-button-response","170","1478556","0.0-170.0-0.0","A2B153AHPWHLH1","img_art/29.jpg","4","","","","","","","","","","","","","","","","","","","","","","","","",""
"878","","image-button-response","171","1479437","0.0-171.0-0.0","A2B153AHPWHLH1","img_art/29.jpg","3","","","","","","","","","","","","","","","","","","","","","","","","",""
"null","","html-keyboard-response","172","1480943","0.0-172.0","A2B153AHPWHLH1","<p style=""font-size: 48px;"">+</p>","","","","","null","allTrialResponses","1500","1","18","img_art/29.jpg","-37","someone spilled the paint.","Anthony,Chase,Alex,Brian,Alexander,Jeremy","Very interesting composition,41,200,20","This is ugly as fuck,-50,120,20","The texture really stands out, this is an interesting composition,6,100,20","it looks like a top-down battle arena,26,380,20","Tested and failed a lot of ideas.,-20,120,20","unhappy. Looking at this all the time would depress me.,-11,60,20","Chase","This is ugly as fuck,-50,120,20","Alexander","Tested and failed a lot of ideas.,-20,120,20","Brian","it looks like a top-down battle arena,26,380,20","0"
"32918","","survey-text","173","1513884","0.0-173.0-0.0","A2B153AHPWHLH1","","","","{""Q0"":""Grim Reaper with a small pumpkin head.""}","","","","","","","","","","","","","","","","","","","","","","",""
"3166","","image-slider-response","174","1517052","0.0-174.0","A2B153AHPWHLH1","","","","","-11","","","","","","","","","","","","","","","","","","","","","",""
"2877","","image-button-response","175","1522064","0.0-175.0","A2B153AHPWHLH1","img_art/25.jpg","0","","","","","","","","","","","","","","","","","","","","","","","","",""
"4865","","image-button-response","176","1526933","0.0-176.0","A2B153AHPWHLH1","img_art/25.jpg","4","","","","","","","","","","","","","","","","","","","","","","","","",""
"5476","","image-button-response","177","1532412","0.0-177.0-0.0","A2B153AHPWHLH1","img_art/25.jpg","1","","","","","","","","","","","","","","","","","","","","","","","","",""
"1861","","image-button-response","178","1534276","0.0-178.0-0.0","A2B153AHPWHLH1","img_art/25.jpg","0","","","","","","","","","","","","","","","","","","","","","","","","",""
"null","","html-keyboard-response","179","1534793","0.0-179.0","A2B153AHPWHLH1","<p style=""font-size: 48px;"">+</p>","","","","","null","allTrialResponses","500","1","19","img_art/25.jpg","-11","Grim Reaper with a small pumpkin head.","Bryan,Chase,Taylor,Brian,Alexander,Gregory","Scary. Something out of a Stephen King book/movie.,-31,400,20","Not particularly interesting for me. The green color is strange mixed with this.,-11,120,20","Wish I was that thin.,-5,200,20","the color is pleasing and draws out the contrast of the lines,10,380,20","Ancient gods above you.,20,120,20","Cool color scheme and appears to be a statue of some type of revered god,40,220,20","Alexander","Ancient gods above you.,20,120,20","Chase","Not particularly interesting for me. The green color is strange mixed with this.,-11,120,20","Bryan","Scary. Something out of a Stephen King book/movie.,-31,400,20","0"
"35321","","survey-text","180","1570139","0.0-180.0-0.0","A2B153AHPWHLH1","","","","{""Q0"":""looks like a bird standing on the desert ground.""}","","","","","","","","","","","","","","","","","","","","","","",""
"2541","","image-slider-response","181","1572684","0.0-181.0","A2B153AHPWHLH1","","","","","-28","","","","","","","","","","","","","","","","","","","","","",""
"3293","","image-button-response","182","1577703","0.0-182.0","A2B153AHPWHLH1","img_art/6.jpg","0","","","","","","","","","","","","","","","","","","","","","","","","",""
"608","","image-button-response","183","1578315","0.0-183.0","A2B153AHPWHLH1","img_art/6.jpg","0","","","","","","","","","","","","","","","","","","","","","","","","",""
"3477","","image-button-response","184","1581795","0.0-184.0-0.0","A2B153AHPWHLH1","img_art/6.jpg","1","","","","","","","","","","","","","","","","","","","","","","","","",""
"6168","","image-button-response","185","1587966","0.0-185.0-0.0","A2B153AHPWHLH1","img_art/6.jpg","4","","","","","","","","","","","","","","","","","","","","","","","","",""
"null","","html-keyboard-response","186","1588968","0.0-186.0","A2B153AHPWHLH1","<p style=""font-size: 48px;"">+</p>","","","","","null","allTrialResponses","1000","1","20","img_art/6.jpg","-28","looks like a bird standing on the desert ground.","Bryan,Chase,Jesus,Mitchell,Alexander,Garrett","Growth in the desert?  Don't care for it very much.,-26,400,20","It's a bit bland, but looks like a bird standing.,11,120,20","I enjoy the color contrast.,20,100,20","Looking, searching at the same time being content.,30,180,20","Desert that's too simple.,-15,120,20","I can't tell what this image is, but it's boring because of lack of color variety and nothing in it,-41,180,20","Bryan","Growth in the desert?  Don't care for it very much.,-26,400,20","Chase","It's a bit bland, but looks like a bird standing.,11,120,20","Alexander","Desert that's too simple.,-15,120,20","0"
"3484","","survey-text","187","1592499","0.0-187.0-0.0","A2B153AHPWHLH1","","","","{""Q0"":""we""}","","","","","","","","","","","","","","","","","","","","","","",""
"24885","","survey-text","188","1617387","0.0-188.0-0.0","A2B153AHPWHLH1","","","","{""Q0"":""A kids ship on the ocean.""}","","","","","","","","","","","","","","","","","","","","","","",""
"3101","","image-slider-response","189","1620492","0.0-189.0","A2B153AHPWHLH1","","","","","-30","","","","","","","","","","","","","","","","","","","","","",""
"2253","","image-button-response","190","1625503","0.0-190.0","A2B153AHPWHLH1","img_art/9.jpg","0","","","","","","","","","","","","","","","","","","","","","","","","",""
"475","","image-button-response","191","1625979","0.0-191.0","A2B153AHPWHLH1","img_art/9.jpg","0","","","","","","","","","","","","","","","","","","","","","","","","",""
"6725","","image-button-response","192","1632708","0.0-192.0-0.0","A2B153AHPWHLH1","img_art/9.jpg","4","","","","","","","","","","","","","","","","","","","","","","","","",""
"1518","","image-button-response","193","1634228","0.0-193.0-0.0","A2B153AHPWHLH1","img_art/9.jpg","1","","","","","","","","","","","","","","","","","","","","","","","","",""
"null","","html-keyboard-response","194","1635732","0.0-194.0","A2B153AHPWHLH1","<p style=""font-size: 48px;"">+</p>","","","","","null","allTrialResponses","1500","1","21","img_art/9.jpg","-30","A kids ship on the ocean.","Bryan,Chase,Trevor,Hunter,Alexander,Carlos","Huh?  Doesn't invoke much.,-37,400,20","Looks like a sloppy iguana.,-11,120,20","nice colors but it looks like it's from the 80s,10,280,20","strong focal point, appealing use of selective line,11,240,20","The mouth of an ugly beast.,-25,120,20","Pleasant in all ways.,27,80,20","Bryan","Huh?  Doesn't invoke much.,-37,400,20","Alexander","The mouth of an ugly beast.,-25,120,20","Chase","Looks like a sloppy iguana.,-11,120,20","0"
"41205","","survey-text","195","1676947","0.0-195.0-0.0","A2B153AHPWHLH1","","","","{""Q0"":""The bear is in shock because Santa is killing a deer.""}","","","","","","","","","","","","","","","","","","","","","","",""
"4462","","image-slider-response","196","1681411","0.0-196.0","A2B153AHPWHLH1","","","","","-11","","","","","","","","","","","","","","","","","","","","","",""
"4893","","image-button-response","197","1686432","0.0-197.0","A2B153AHPWHLH1","img_art/16.jpg","0","","","","","","","","","","","","","","","","","","","","","","","","",""
"820","","image-button-response","198","1687259","0.0-198.0","A2B153AHPWHLH1","img_art/16.jpg","0","","","","","","","","","","","","","","","","","","","","","","","","",""
"2095","","image-button-response","199","1689356","0.0-199.0-0.0","A2B153AHPWHLH1","img_art/16.jpg","1","","","","","","","","","","","","","","","","","","","","","","","","",""
"5188","","image-button-response","200","1694547","0.0-200.0-0.0","A2B153AHPWHLH1","img_art/16.jpg","4","","","","","","","","","","","","","","","","","","","","","","","","",""
"null","","html-keyboard-response","201","1695059","0.0-201.0","A2B153AHPWHLH1","<p style=""font-size: 48px;"">+</p>","","","","","null","allTrialResponses","500","1","22","img_art/16.jpg","-11","The bear is in shock because Santa is killing a deer.","Bryan,Chase,Christopher,Zachary,Alexander,Miguel","Something terrible happened. Either the figure on the right is the victim or another shredded toy.,-49,400,20","Seems very twisted and dark.,-35,120,20","i don't like the collage aspect,-25,160,20","Not pleasing to the eyes. I do like that the gun is broken though.,-28,400,20","Strange and bleak.,-20,120,20","Very cool abstraction.,19,160,20","Bryan","Something terrible happened. Either the figure on the right is the victim or another shredded toy.,-49,400,20","Chase","Seems very twisted and dark.,-35,120,20","Alexander","Strange and bleak.,-20,120,20","0"
"25784","","survey-text","202","1720866","0.0-202.0-0.0","A2B153AHPWHLH1","","","","{""Q0"":""this is nothing.""}","","","","","","","","","","","","","","","","","","","","","","",""
"3052","","image-slider-response","203","1723923","0.0-203.0","A2B153AHPWHLH1","","","","","-50","","","","","","","","","","","","","","","","","","","","","",""
"2949","","image-button-response","204","1728933","0.0-204.0","A2B153AHPWHLH1","img_art/5.jpg","0","","","","","","","","","","","","","","","","","","","","","","","","",""
"217","","image-button-response","205","1729155","0.0-205.0","A2B153AHPWHLH1","img_art/5.jpg","0","","","","","","","","","","","","","","","","","","","","","","","","",""
"5599","","image-button-response","206","1734755","0.0-206.0-0.0","A2B153AHPWHLH1","img_art/5.jpg","3","","","","","","","","","","","","","","","","","","","","","","","","",""
"5334","","image-button-response","207","1740091","0.0-207.0-0.0","A2B153AHPWHLH1","img_art/5.jpg","2","","","","","","","","","","","","","","","","","","","","","","","","",""
"null","","html-keyboard-response","208","1741102","0.0-208.0","A2B153AHPWHLH1","<p style=""font-size: 48px;"">+</p>","","","","","null","allTrialResponses","1000","1","23","img_art/5.jpg","-50","this is nothing.","Bryan,Chase,William,Richard,Alexander,John","Looks like a yellow plastic trash bag.,-42,400,20","Seems very basic and uninteresting.,-15,120,20","very boring and plain,-35,380,20","looks like a 2nd grader did it,-50,340,20","Dull pyramid that says nothing.,7,120,20","It has a sense of vague familiarity that i like.Like a stick starting a fire at a campsite.,30,120,20","Bryan","Looks like a yellow plastic trash bag.,-42,400,20","Richard","looks like a 2nd grader did it,-50,340,20","William","very boring and plain,-35,380,20","0"
"21745","","survey-text","209","1762859","0.0-209.0-0.0","A2B153AHPWHLH1","","","","{""Q0"":""The white worm.""}","","","","","","","","","","","","","","","","","","","","","","",""
"3701","","image-slider-response","210","1766562","0.0-210.0","A2B153AHPWHLH1","","","","","-20","","","","","","","","","","","","","","","","","","","","","",""
"null","","image-button-response","211","1771572","0.0-211.0","A2B153AHPWHLH1","img_art/23.jpg","null","","","","","","","","","","","","","","","","","","","","","","","","",""
"3171","","image-button-response","212","1774746","0.0-212.0","A2B153AHPWHLH1","img_art/23.jpg","3","","","","","","","","","","","","","","","","","","","","","","","","",""
"3360","","image-button-response","213","1778108","0.0-213.0-0.0","A2B153AHPWHLH1","img_art/23.jpg","4","","","","","","","","","","","","","","","","","","","","","","","","",""
"3291","","image-button-response","214","1781403","0.0-214.0-0.0","A2B153AHPWHLH1","img_art/23.jpg","0","","","","","","","","","","","","","","","","","","","","","","","","",""
"null","","html-keyboard-response","215","1781909","0.0-215.0","A2B153AHPWHLH1","<p style=""font-size: 48px;"">+</p>","","","","","null","allTrialResponses","500","1","24","img_art/23.jpg","-20","The white worm.","Bryan,Robert,William,Richard,Eric,Malik","Looks like fireworks.,21,400,20","This makes me think of an orchestra playing a forth of july song,12,360,20","enjoy the colors,23,380,20","it's OK, but just OK, kind of interesting but I wouldn't spend money on it,4,340,20","The piece seems chaotic, and I dislike the random pop of white within so many colors.,-10,100,20","Very intense and unique,3,40,20","Richard","it's OK, but just OK, kind of interesting but I wouldn't spend money on it,4,340,20","Eric","The piece seems chaotic, and I dislike the random pop of white within so many colors.,-10,100,20","Bryan","Looks like fireworks.,21,400,20","0"
"30940","","survey-text","216","1812874","0.0-216.0-0.0","A2B153AHPWHLH1","","","","{""Q0"":""abstract living room, boring.""}","","","","","","","","","","","","","","","","","","","","","","",""
"3589","","image-slider-response","217","1816465","0.0-217.0","A2B153AHPWHLH1","","","","","-30","","","","","","","","","","","","","","","","","","","","","",""
"null","","image-button-response","218","1821482","0.0-218.0","A2B153AHPWHLH1","img_art/26.jpg","null","","","","","","","","","","","","","","","","","","","","","","","","",""
"1284","","image-button-response","219","1822770","0.0-219.0","A2B153AHPWHLH1","img_art/26.jpg","2","","","","","","","","","","","","","","","","","","","","","","","","",""
"10549","","image-button-response","220","1833322","0.0-220.0-0.0","A2B153AHPWHLH1","img_art/26.jpg","1","","","","","","","","","","","","","","","","","","","","","","","","",""
"5670","","image-button-response","221","1838994","0.0-221.0-0.0","A2B153AHPWHLH1","img_art/26.jpg","3","","","","","","","","","","","","","","","","","","","","","","","","",""
"null","","html-keyboard-response","222","1839505","0.0-222.0","A2B153AHPWHLH1","<p style=""font-size: 48px;"">+</p>","","","","","null","allTrialResponses","500","1","25","img_art/26.jpg","-30","abstract living room, boring.","Bryan,Angel,Corey,Richard,Eric,Devon","Like the muted colors & the scene which seems to be serene.,14,400,20","This piece feels pretty chill like it's just a normal day in the city.,10,180,20","its boring and i dont like the color palette,3,260,20","subtle use of colors, city street view?,8,340,20","I wish there was more detail, but I really like this simple piece.,35,100,20","i can feel the warmth,12,400,20","Corey","its boring and i dont like the color palette,3,260,20","Angel","This piece feels pretty chill like it's just a normal day in the city.,10,180,20","Richard","subtle use of colors, city street view?,8,340,20","0"
"4668","","survey-text","223","1844210","0.0-223.0-0.0","A2B153AHPWHLH1","","","","{""Q0"":""table""}","","","","","","","","","","","","","","","","","","","","","","",""
"35566","","survey-text","224","1879778","0.0-224.0-0.0","A2B153AHPWHLH1","","","","{""Q0"":""I see golf clubs.  Very dull.""}","","","","","","","","","","","","","","","","","","","","","","",""
"3581","","image-slider-response","225","1883362","0.0-225.0","A2B153AHPWHLH1","","","","","-29","","","","","","","","","","","","","","","","","","","","","",""
"null","","image-button-response","226","1888380","0.0-226.0","A2B153AHPWHLH1","img_art/28.jpg","null","","","","","","","","","","","","","","","","","","","","","","","","",""
"733","","image-button-response","227","1889114","0.0-227.0","A2B153AHPWHLH1","img_art/28.jpg","1","","","","","","","","","","","","","","","","","","","","","","","","",""
"10684","","image-button-response","228","1899801","0.0-228.0-0.0","A2B153AHPWHLH1","img_art/28.jpg","4","","","","","","","","","","","","","","","","","","","","","","","","",""
"781","","image-button-response","229","1900586","0.0-229.0-0.0","A2B153AHPWHLH1","img_art/28.jpg","5","","","","","","","","","","","","","","","","","","","","","","","","",""
"null","","html-keyboard-response","230","1902101","0.0-230.0","A2B153AHPWHLH1","<p style=""font-size: 48px;"">+</p>","","","","","null","allTrialResponses","1500","1","26","img_art/28.jpg","-29","I see golf clubs.  Very dull.","Ian,Angel,Corey,Richard,Joseph,Evan","This one looks very dark and seems like it has a lot of depth to it.,31,260,20","My immediate reaction was to think of smog. It recalls choking on dirty air.,-20,180,20","i like the neutral color pallette but i dont know what i am looking at,26,260,20","bland coloring but pattern interesting,2,340,20","Don't love it, don't hate it. It's just there.,1,220,20","It feels very blah,-10,140,20","Angel","My immediate reaction was to think of smog. It recalls choking on dirty air.,-20,180,20","Joseph","Don't love it, don't hate it. It's just there.,1,220,20","Evan","It feels very blah,-10,140,20","0"
"50489","","survey-text","231","1952602","0.0-231.0-0.0","A2B153AHPWHLH1","","","","{""Q0"":""an explosion in space.""}","","","","","","","","","","","","","","","","","","","","","","",""
"3989","","image-slider-response","232","1956593","0.0-232.0","A2B153AHPWHLH1","","","","","-16","","","","","","","","","","","","","","","","","","","","","",""
"null","","image-button-response","233","1961600","0.0-233.0","A2B153AHPWHLH1","img_art/1.jpg","null","","","","","","","","","","","","","","","","","","","","","","","","",""
"3414","","image-button-response","234","1965017","0.0-234.0","A2B153AHPWHLH1","img_art/1.jpg","2","","","","","","","","","","","","","","","","","","","","","","","","",""
"6014","","image-button-response","235","1971034","0.0-235.0-0.0","A2B153AHPWHLH1","img_art/1.jpg","3","","","","","","","","","","","","","","","","","","","","","","","","",""
"11694","","image-button-response","236","1982729","0.0-236.0-0.0","A2B153AHPWHLH1","img_art/1.jpg","0","","","","","","","","","","","","","","","","","","","","","","","","",""
"null","","html-keyboard-response","237","1984250","0.0-237.0","A2B153AHPWHLH1","<p style=""font-size: 48px;"">+</p>","","","","","null","allTrialResponses","1500","1","27","img_art/1.jpg","-16","an explosion in space.","Connor,Angel,Nathaniel,Logan,Joseph,Evan","Love the coloration and abstract figures,18,240,20","For some reason this makes me want to go ice skating. It's whimsical and free but also very smooth.,20,180,20","A bit of a smokey mess, but it does have an air of mystery I like,7,220,20","looks like an earlier painting. I wish I gave it -20 but oh well,21,360,20","Happy! Reminds me of hiking in tennesee.,18,220,20","It is beautiful, I really enjoy the colors,32,140,20","Nathaniel","A bit of a smokey mess, but it does have an air of mystery I like,7,220,20","Logan","looks like an earlier painting. I wish I gave it -20 but oh well,21,360,20","Connor","Love the coloration and abstract figures,18,240,20","0"
"45692","","survey-text","238","2029968","0.0-238.0-0.0","A2B153AHPWHLH1","","","","{""Q0"":""taking your large dog for a walk on a winters day.""}","","","","","","","","","","","","","","","","","","","","","","",""
"3188","","image-slider-response","239","2033161","0.0-239.0","A2B153AHPWHLH1","","","","","3","","","","","","","","","","","","","","","","","","","","","",""
"null","","image-button-response","240","2038171","0.0-240.0","A2B153AHPWHLH1","img_art/19.jpg","null","","","","","","","","","","","","","","","","","","","","","","","","",""
"5043","","image-button-response","241","2043216","0.0-241.0","A2B153AHPWHLH1","img_art/19.jpg","4","","","","","","","","","","","","","","","","","","","","","","","","",""
"2558","","image-button-response","242","2045778","0.0-242.0-0.0","A2B153AHPWHLH1","img_art/19.jpg","5","","","","","","","","","","","","","","","","","","","","","","","","",""
"1517","","image-button-response","243","2047297","0.0-243.0-0.0","A2B153AHPWHLH1","img_art/19.jpg","2","","","","","","","","","","","","","","","","","","","","","","","","",""
"null","","html-keyboard-response","244","2048309","0.0-244.0","A2B153AHPWHLH1","<p style=""font-size: 48px;"">+</p>","","","","","null","allTrialResponses","1000","1","28","img_art/19.jpg","3","taking your large dog for a walk on a winters day.","Connor,Noah,Nathaniel,Logan,Jesse,Joshua","Childish music hall,-20,240,20","the way the landscape is portrayed captivates me - I enjoy studying the structure,32,260,20","Horrible. Squiggly lines everywhere.,-50,220,20","this flow I just really like how everything blends but also doesn't,45,360,20","I dont like the smudge effect,-7,80,20","Just don't like this one.,-9,240,20","Jesse","I dont like the smudge effect,-7,80,20","Joshua","Just don't like this one.,-9,240,20","Nathaniel","Horrible. Squiggly lines everywhere.,-50,220,20","0"
"40551","","survey-text","245","2088872","0.0-245.0-0.0","A2B153AHPWHLH1","","","","{""Q0"":""An old 3 stringed guitar.""}","","","","","","","","","","","","","","","","","","","","","","",""
"5204","","image-slider-response","246","2094080","0.0-246.0","A2B153AHPWHLH1","","","","","6","","","","","","","","","","","","","","","","","","","","","",""
"null","","image-button-response","247","2099085","0.0-247.0","A2B153AHPWHLH1","img_art/10.jpg","null","","","","","","","","","","","","","","","","","","","","","","","","",""
"746","","image-button-response","248","2099832","0.0-248.0","A2B153AHPWHLH1","img_art/10.jpg","1","","","","","","","","","","","","","","","","","","","","","","","","",""
"7414","","image-button-response","249","2107248","0.0-249.0-0.0","A2B153AHPWHLH1","img_art/10.jpg","4","","","","","","","","","","","","","","","","","","","","","","","","",""
"1756","","image-button-response","250","2109008","0.0-250.0-0.0","A2B153AHPWHLH1","img_art/10.jpg","5","","","","","","","","","","","","","","","","","","","","","","","","",""
"null","","html-keyboard-response","251","2110529","0.0-251.0","A2B153AHPWHLH1","<p style=""font-size: 48px;"">+</p>","","","","","null","allTrialResponses","1500","1","29","img_art/10.jpg","6","An old 3 stringed guitar.","Jonathan,Jose,Nathaniel,Blake,Jesse,Joshua","Too much negative space makes it feel unfinished,-25,140,20","This is pretty rad. The outline looks like a music staff,15,200,20","For black and white, this is pretty vibrant and cool. I like this.,39,220,20","a fast racetrack. go, go, go,5,280,20","It makes me think of music and i love the reflective aspect,29,80,20","This one is interesting. I like it.,11,240,20","Jose","This is pretty rad. The outline looks like a music staff,15,200,20","Jesse","It makes me think of music and i love the reflective aspect,29,80,20","Joshua","This one is interesting. I like it.,11,240,20","0"
"33128","","survey-text","252","2143680","0.0-252.0-0.0","A2B153AHPWHLH1","","","","{""Q0"":""An eggplant srrounded by red snakes.""}","","","","","","","","","","","","","","","","","","","","","","",""
"3717","","image-slider-response","253","2147400","0.0-253.0","A2B153AHPWHLH1","","","","","14","","","","","","","","","","","","","","","","","","","","","",""
"null","","image-button-response","254","2152419","0.0-254.0","A2B153AHPWHLH1","img_art/30.jpg","null","","","","","","","","","","","","","","","","","","","","","","","","",""
"874","","image-button-response","255","2153296","0.0-255.0","A2B153AHPWHLH1","img_art/30.jpg","1","","","","","","","","","","","","","","","","","","","","","","","","",""
"7318","","image-button-response","256","2160615","0.0-256.0-0.0","A2B153AHPWHLH1","img_art/30.jpg","0","","","","","","","","","","","","","","","","","","","","","","","","",""
"1014","","image-button-response","257","2161632","0.0-257.0-0.0","A2B153AHPWHLH1","img_art/30.jpg","2","","","","","","","","","","","","","","","","","","","","","","","","",""
"null","","html-keyboard-response","258","2162138","0.0-258.0","A2B153AHPWHLH1","<p style=""font-size: 48px;"">+</p>","","","","","null","allTrialResponses","500","1","30","img_art/30.jpg","14","An eggplant srrounded by red snakes.","Dalton,Jose,Tanner,Alejandro,Jesse,Joshua","beautiful paint brush strokes,1,300,20","For some reason I like the red in this one. Maybe it's the style of lines/blurs,46,200,20","makes me think of a tunnel filled with graffiti,19,180,20","An interesting design but don't like the colors. I value the time and effort put into it, but not a huge fan.,10,80,20","I do like the multi-dimensional aspect of this piece,10,80,20","It's just all right.,5,240,20","Jose","For some reason I like the red in this one. Maybe it's the style of lines/blurs,46,200,20","Dalton","beautiful paint brush strokes,1,300,20","Tanner","makes me think of a tunnel filled with graffiti,19,180,20","0"
"5517","","image-button-response_instructions","259","2167671","0.0-259.0","A2B153AHPWHLH1","","0","instructions","","","","","","","","","","","","","","","","","","","","","","","",""
