"rt","url","trial_type","trial_index","time_elapsed","internal_node_id","participant_id","stimulus","button_pressed","Name","responses","response","key_press","variableName","fixationTime","condition","trial","photo","subjectRating","subjectResponse","agentsNames","agent_1_Response","agent_2_Response","agent_3_Response","agent_4_Response","agent_5_Response","agent_6_Response","kept_1_name","kept_1_response","kept_2_name","kept_2_response","kept_3_name","kept_3_response","errorCounter"
"6323","external_page_harvard.html","external-html","0","6455","0.0-0.0","A2BF7JF6NROA0T","","","","","","","","","","","","","","","","","","","","","","","","","","",""
"1814","","image-button-response","1","8271","0.0-1.0","A2BF7JF6NROA0T","","1","","","","","","","","","","","","","","","","","","","","","","","","",""
"1382","","image-button-response","2","9660","0.0-2.0-0.0","A2BF7JF6NROA0T","","1","phone","","","","","","","","","","","","","","","","","","","","","","","",""
"2921","","survey-text","3","12585","0.0-3.0-0.0","A2BF7JF6NROA0T","","","","{""Q0"":""A2BF7JF6NROA0T""}","","","","","","","","","","","","","","","","","","","","","","",""
"3548","","image-button-response_instructions","4","16137","0.0-4.0","A2BF7JF6NROA0T","","0","instructions","","","","","","","","","","","","","","","","","","","","","","","",""
"8137","","image-button-response_instructions","5","24276","0.0-5.0","A2BF7JF6NROA0T","img_art/ins/popularity/ins1.png","0","instructions","","","","","","","","","","","","","","","","","","","","","","","",""
"2374","","image-button-response_instructions","6","26653","0.0-6.0","A2BF7JF6NROA0T","img_art/ins/popularity/ins2.png","0","instructions","","","","","","","","","","","","","","","","","","","","","","","",""
"2140","","image-button-response_instructions","7","28795","0.0-7.0","A2BF7JF6NROA0T","img_art/ins/popularity/ins2Extreme.png","0","instructions","","","","","","","","","","","","","","","","","","","","","","","",""
"2602","","image-button-response_instructions","8","31400","0.0-8.0","A2BF7JF6NROA0T","img_art/ins/popularity/ins3KEEPpop.PNG","0","instructions","","","","","","","","","","","","","","","","","","","","","","","",""
"3012","","image-button-response_instructions","9","34414","0.0-9.0","A2BF7JF6NROA0T","img_art/ins/popularity/ins3ANamepop.PNG","0","instructions","","","","","","","","","","","","","","","","","","","","","","","",""
"1482","","image-button-response_instructions","10","35898","0.0-10.0","A2BF7JF6NROA0T","img_art/ins/popularity/ins3ARatingpop.png","0","instructions","","","","","","","","","","","","","","","","","","","","","","","",""
"2115","","image-button-response_instructions","11","38014","0.0-11.0","A2BF7JF6NROA0T","img_art/ins/popularity/ins3ATextpop.png","0","instructions","","","","","","","","","","","","","","","","","","","","","","","",""
"2103","","image-button-response_instructions","12","40122","0.0-12.0","A2BF7JF6NROA0T","img_art/ins/popularity/ins3ALikespop.png","0","instructions","","","","","","","","","","","","","","","","","","","","","","","",""
"4237","","image-button-response_instructions","13","44361","0.0-13.0","A2BF7JF6NROA0T","img_art/ins/popularity/ins3KEEPpop.PNG","0","instructions","","","","","","","","","","","","","","","","","","","","","","","",""
"2453","","image-button-response_instructions","14","46816","0.0-14.0","A2BF7JF6NROA0T","img_art/ins/popularity/ins3_5RED.png","0","instructions","","","","","","","","","","","","","","","","","","","","","","","",""
"1632","","image-button-response_instructions","15","48449","0.0-15.0","A2BF7JF6NROA0T","img_art/ins/popularity/ins3KEEPpop.PNG","0","instructions","","","","","","","","","","","","","","","","","","","","","","","",""
"4930","","image-button-response_instructions","16","53381","0.0-16.0","A2BF7JF6NROA0T","img_art/ins/popularity/ins4KEEPpop.PNG","0","instructions","","","","","","","","","","","","","","","","","","","","","","","",""
"1787","","image-button-response_instructions","17","55169","0.0-17.0","A2BF7JF6NROA0T","img_art/ins/popularity/ins5KEEPpop.PNG","0","instructions","","","","","","","","","","","","","","","","","","","","","","","",""
"1577","","image-button-response_instructions","18","56748","0.0-18.0","A2BF7JF6NROA0T","","0","instructions","","","","","","","","","","","","","","","","","","","","","","","",""
"3343","","survey-text","19","60124","0.0-19.0-0.0","A2BF7JF6NROA0T","","","","{""Q0"":""but""}","","","","","","","","","","","","","","","","","","","","","","",""
"24410","","survey-text","20","84538","0.0-20.0-0.0","A2BF7JF6NROA0T","","","","{""Q0"":""The colors are fun and interesting. I feel calm and happy. ""}","","","","","","","","","","","","","","","","","","","","","","",""
"3648.9000000953674","","image-slider-response","21","88190","0.0-21.0","A2BF7JF6NROA0T","","","","","45","","","","","","","","","","","","","","","","","","","","","",""
"null","","image-button-response","22","93196","0.0-22.0","A2BF7JF6NROA0T","img_art/ins/1.jpg","null","","","","","","","","","","","","","","","","","","","","","","","","",""
"5639","","image-button-response","23","98838","0.0-23.0","A2BF7JF6NROA0T","img_art/ins/1.jpg","3","","","","","","","","","","","","","","","","","","","","","","","","",""
"886","","image-button-response","24","99727","0.0-24.0-0.0","A2BF7JF6NROA0T","img_art/ins/1.jpg","5","","","","","","","","","","","","","","","","","","","","","","","","",""
"990","","image-button-response","25","100722","0.0-25.0-0.0","A2BF7JF6NROA0T","img_art/ins/1.jpg","0","","","","","","","","","","","","","","","","","","","","","","","","",""
"null","","html-keyboard-response","26","101729","0.0-26.0","A2BF7JF6NROA0T","<p style=""font-size: 48px;"">+</p>","","","","","null","allTrialResponses","1000","1","-2","img_art/ins/1.jpg","45","The colors are fun and interesting. I feel calm and happy. ","Allison,Ashley,Beth,Dora,Erika,Jen","looks like a lot of things going on in the mist,20,20,20","I just don't get why these type of art would be popular,-32,40,20","This color reminds me of poo,-46,60,20","looks like what my niece in 3rd grade did this afternoon,-50,80,20","I like the sophisticated brushwork,40,100,20","It reminds me of a candy land dream I had,36,120,20","Dora","looks like what my niece in 3rd grade did this afternoon,-50,80,20","Jen","It reminds me of a candy land dream I had,36,120,20","Allison","looks like a lot of things going on in the mist,20,20,20","0"
"11899","","survey-text","27","113635","0.0-27.0-0.0","A2BF7JF6NROA0T","","","","{""Q0"":""This is a bold look that seems aggressive. ""}","","","","","","","","","","","","","","","","","","","","","","",""
"2703.9000000953674","","image-slider-response","28","116343","0.0-28.0","A2BF7JF6NROA0T","","","","","18","","","","","","","","","","","","","","","","","","","","","",""
"4301","","image-button-response","29","121352","0.0-29.0","A2BF7JF6NROA0T","img_art/ins/2.jpg","4","","","","","","","","","","","","","","","","","","","","","","","","",""
"1429","","image-button-response","30","122784","0.0-30.0","A2BF7JF6NROA0T","img_art/ins/2.jpg","5","","","","","","","","","","","","","","","","","","","","","","","","",""
"924","","image-button-response","31","123711","0.0-31.0-0.0","A2BF7JF6NROA0T","img_art/ins/2.jpg","3","","","","","","","","","","","","","","","","","","","","","","","","",""
"677","","image-button-response","32","124393","0.0-32.0-0.0","A2BF7JF6NROA0T","img_art/ins/2.jpg","4","","","","","","","","","","","","","","","","","","","","","","","","",""
"null","","html-keyboard-response","33","125896","0.0-33.0","A2BF7JF6NROA0T","<p style=""font-size: 48px;"">+</p>","","","","","null","allTrialResponses","1500","1","-1","img_art/ins/2.jpg","18","This is a bold look that seems aggressive. ","Allison,Jenna,Katie,Dora,Kara,Jen","I don't have strong feelings about this,10,20,20","One of my pet peevs,-48,140,20","too much color!,-28,180,20","looks too angry,-50,80,20","I like the blocks of color arrangements,30,160,20","It reminds me of a fireplace,36,120,20","Jen","It reminds me of a fireplace,36,120,20","Dora","looks too angry,-50,80,20","Kara","I like the blocks of color arrangements,30,160,20","0"
"17484","","survey-text","34","143385","0.0-34.0-0.0","A2BF7JF6NROA0T","","","","{""Q0"":""The brush strokes remind me of waves. ""}","","","","","","","","","","","","","","","","","","","","","","",""
"7380.400000095367","","image-slider-response","35","150768","0.0-35.0","A2BF7JF6NROA0T","","","","","45","","","","","","","","","","","","","","","","","","","","","",""
"2154","","image-button-response","36","155774","0.0-36.0","A2BF7JF6NROA0T","img_art/ins/3.jpg","3","","","","","","","","","","","","","","","","","","","","","","","","",""
"730","","image-button-response","37","156507","0.0-37.0","A2BF7JF6NROA0T","img_art/ins/3.jpg","1","","","","","","","","","","","","","","","","","","","","","","","","",""
"561","","image-button-response","38","157072","0.0-38.0-0.0","A2BF7JF6NROA0T","img_art/ins/3.jpg","2","","","","","","","","","","","","","","","","","","","","","","","","",""
"918","","image-button-response","39","157994","0.0-39.0-0.0","A2BF7JF6NROA0T","img_art/ins/3.jpg","4","","","","","","","","","","","","","","","","","","","","","","","","",""
"null","","html-keyboard-response","40","158996","0.0-40.0","A2BF7JF6NROA0T","<p style=""font-size: 48px;"">+</p>","","","","","null","allTrialResponses","1000","1","0","img_art/ins/3.jpg","45","The brush strokes remind me of waves. ","Leslie,Rose,Mary,Dora,Kara,Jen","It's an alright work,15,200,20","My daily routine, it's depressing,-20,240,20","I like the overlapping of brushes,41,220,20","My worst nightmare,-42,80,20","calming blue is very nice,36,160,20","I can feel a rainy day from this painting,18,120,20","Rose","My daily routine, it's depressing,-20,240,20","Mary","I like the overlapping of brushes,41,220,20","Kara","calming blue is very nice,36,160,20","0"
"4567","","image-button-response_instructions","41","163572","0.0-41.0","A2BF7JF6NROA0T","","0","instructions","","","","","","","","","","","","","","","","","","","","","","","",""
"9970","","survey-likert","42","173545","0.0-42.0-0.0","A2BF7JF6NROA0T","","","","{""Q0"":"""",""Q1"":0,""Q2"":1}","","","","","","","","","","","","","","","","","","","","","","",""
"2769","","survey-text","43","176320","0.0-43.0-0.0","A2BF7JF6NROA0T","","","","{""Q0"":""rock""}","","","","","","","","","","","","","","","","","","","","","","",""
"11561","","survey-text","44","187883","0.0-44.0-0.0","A2BF7JF6NROA0T","","","","{""Q0"":""This looks kind of gross, like poop. ""}","","","","","","","","","","","","","","","","","","","","","","",""
"4021.5999999046326","","image-slider-response","45","191909","0.0-45.0","A2BF7JF6NROA0T","","","","","-48","","","","","","","","","","","","","","","","","","","","","",""
"null","","image-button-response","46","196939","0.0-46.0","A2BF7JF6NROA0T","img_art/4.jpg","null","","","","","","","","","","","","","","","","","","","","","","","","",""
"58","","image-button-response","47","197000","0.0-47.0","A2BF7JF6NROA0T","img_art/4.jpg","4","","","","","","","","","","","","","","","","","","","","","","","","",""
"2142","","image-button-response","48","199145","0.0-48.0-0.0","A2BF7JF6NROA0T","img_art/4.jpg","5","","","","","","","","","","","","","","","","","","","","","","","","",""
"1026","","image-button-response","49","200175","0.0-49.0-0.0","A2BF7JF6NROA0T","img_art/4.jpg","0","","","","","","","","","","","","","","","","","","","","","","","","",""
"null","","html-keyboard-response","50","200679","0.0-50.0","A2BF7JF6NROA0T","<p style=""font-size: 48px;"">+</p>","","","","","null","allTrialResponses","500","1","1","img_art/4.jpg","-48","This looks kind of gross, like poop. ","Margaret,Briana,Andrea,Meghan,Jacqueline,Lauren","doesn't do anything for me,-4,100,20","Fingerpaint of a hand?,-30,400,20","I think it speaks to familial closeness but the tonality is offputting to me.,-10,240,20","feels free flowing and relaxed,21,220,20","It looks like smeared poop.,-27,300,20","I like the design. It can be interpreted in various ways, such as a hand of horror or still piece.,15,340,20","Jacqueline","It looks like smeared poop.,-27,300,20","Lauren","I like the design. It can be interpreted in various ways, such as a hand of horror or still piece.,15,340,20","Margaret","doesn't do anything for me,-4,100,20","0"
"12081","","survey-text","51","212764","0.0-51.0-0.0","A2BF7JF6NROA0T","","","","{""Q0"":""This piece seems rushed. ""}","","","","","","","","","","","","","","","","","","","","","","",""
"5327.699999809265","","image-slider-response","52","218095","0.0-52.0","A2BF7JF6NROA0T","","","","","-38","","","","","","","","","","","","","","","","","","","","","",""
"3118","","image-button-response","53","223099","0.0-53.0","A2BF7JF6NROA0T","img_art/30.jpg","1","","","","","","","","","","","","","","","","","","","","","","","","",""
"810","","image-button-response","54","223913","0.0-54.0","A2BF7JF6NROA0T","img_art/30.jpg","1","","","","","","","","","","","","","","","","","","","","","","","","",""
"934","","image-button-response","55","224850","0.0-55.0-0.0","A2BF7JF6NROA0T","img_art/30.jpg","2","","","","","","","","","","","","","","","","","","","","","","","","",""
"2636","","image-button-response","56","227490","0.0-56.0-0.0","A2BF7JF6NROA0T","img_art/30.jpg","0","","","","","","","","","","","","","","","","","","","","","","","","",""
"null","","html-keyboard-response","57","227993","0.0-57.0","A2BF7JF6NROA0T","<p style=""font-size: 48px;"">+</p>","","","","","null","allTrialResponses","500","1","2","img_art/30.jpg","-38","This piece seems rushed. ","Margaret,Mariah,Madeline,Vanessa,Jacqueline,Lauren","I dont like the colors whatsoever,-15,100,20","It just feels hasty and not well composed. Has an angsty teen feel,-31,140,20","A bit haphazard looking and lacking in vision,2,40,20","I like the red against the blue, but otherwise, it's not really my taste,4,380,20","Too dark and ugly with all the black smears,-20,300,20","I like how the strokes invokes a sense of fluidity.,20,340,20","Mariah","It just feels hasty and not well composed. Has an angsty teen feel,-31,140,20","Madeline","A bit haphazard looking and lacking in vision,2,40,20","Margaret","I dont like the colors whatsoever,-15,100,20","0"
"28247","","survey-text","58","256248","0.0-58.0-0.0","A2BF7JF6NROA0T","","","","{""Q0"":""The scene looks very interesting!""}","","","","","","","","","","","","","","","","","","","","","","",""
"2830.699999809265","","image-slider-response","59","259083","0.0-59.0","A2BF7JF6NROA0T","","","","","40","","","","","","","","","","","","","","","","","","","","","",""
"null","","image-button-response","60","264088","0.0-60.0","A2BF7JF6NROA0T","img_art/26.jpg","null","","","","","","","","","","","","","","","","","","","","","","","","",""
"266","","image-button-response","61","264358","0.0-61.0","A2BF7JF6NROA0T","img_art/26.jpg","4","","","","","","","","","","","","","","","","","","","","","","","","",""
"838","","image-button-response","62","265199","0.0-62.0-0.0","A2BF7JF6NROA0T","img_art/26.jpg","5","","","","","","","","","","","","","","","","","","","","","","","","",""
"1149","","image-button-response","63","266352","0.0-63.0-0.0","A2BF7JF6NROA0T","img_art/26.jpg","2","","","","","","","","","","","","","","","","","","","","","","","","",""
"null","","html-keyboard-response","64","267860","0.0-64.0","A2BF7JF6NROA0T","<p style=""font-size: 48px;"">+</p>","","","","","null","allTrialResponses","1500","1","3","img_art/26.jpg","40","The scene looks very interesting!","Margaret,Mariah,Madeline,Natalie,Mackenzie,Alexandra","its boring and i dont like the color palette,3,100,20","Pleasant but bland.,10,140,20","I like the shapes but needs more detail i think,3,40,20","picture looks alright,1,400,20","Very interesting to look at, I like the shapes, textures and colors.,30,20,20","I like the colors but it is still a little boring,22,60,20","Mackenzie","Very interesting to look at, I like the shapes, textures and colors.,30,20,20","Alexandra","I like the colors but it is still a little boring,22,60,20","Madeline","I like the shapes but needs more detail i think,3,40,20","0"
"6856","","survey-text","65","274722","0.0-65.0-0.0","A2BF7JF6NROA0T","","","","{""Q0"":""This reminds me of a crow. ""}","","","","","","","","","","","","","","","","","","","","","","",""
"4438.299999713898","","image-slider-response","66","279164","0.0-66.0","A2BF7JF6NROA0T","","","","","30","","","","","","","","","","","","","","","","","","","","","",""
"4393","","image-button-response","67","284172","0.0-67.0","A2BF7JF6NROA0T","img_art/6.jpg","1","","","","","","","","","","","","","","","","","","","","","","","","",""
"619","","image-button-response","68","284794","0.0-68.0","A2BF7JF6NROA0T","img_art/6.jpg","3","","","","","","","","","","","","","","","","","","","","","","","","",""
"574","","image-button-response","69","285370","0.0-69.0-0.0","A2BF7JF6NROA0T","img_art/6.jpg","4","","","","","","","","","","","","","","","","","","","","","","","","",""
"2435","","image-button-response","70","287810","0.0-70.0-0.0","A2BF7JF6NROA0T","img_art/6.jpg","1","","","","","","","","","","","","","","","","","","","","","","","","",""
"null","","html-keyboard-response","71","289317","0.0-71.0","A2BF7JF6NROA0T","<p style=""font-size: 48px;"">+</p>","","","","","null","allTrialResponses","1500","1","4","img_art/6.jpg","30","This reminds me of a crow. ","Nicole,Anna,Madeline,Sara,Mackenzie,Alexandra","The colors and rough brush strokes make me nervous,-10,20,20","It reminds me of a simplistic bird. I like the colors used.,40,300,20","Looks a bit like a pickle or something?,-16,40,20","It looks sad and scary at the same time,11,160,20","I enjoy the color contrast.,20,20,20","this is interesting and unique,11,60,20","Sara","It looks sad and scary at the same time,11,160,20","Mackenzie","I enjoy the color contrast.,20,20,20","Anna","It reminds me of a simplistic bird. I like the colors used.,40,300,20","0"
"8364","","survey-text","72","297689","0.0-72.0-0.0","A2BF7JF6NROA0T","","","","{""Q0"":""This is very complex and detailed!""}","","","","","","","","","","","","","","","","","","","","","","",""
"2364.5","","image-slider-response","73","300056","0.0-73.0","A2BF7JF6NROA0T","","","","","17","","","","","","","","","","","","","","","","","","","","","",""
"4068","","image-button-response","74","305063","0.0-74.0","A2BF7JF6NROA0T","img_art/8.jpg","5","","","","","","","","","","","","","","","","","","","","","","","","",""
"504","","image-button-response","75","305571","0.0-75.0","A2BF7JF6NROA0T","img_art/8.jpg","5","","","","","","","","","","","","","","","","","","","","","","","","",""
"2087","","image-button-response","76","307662","0.0-76.0-0.0","A2BF7JF6NROA0T","img_art/8.jpg","1","","","","","","","","","","","","","","","","","","","","","","","","",""
"520","","image-button-response","77","308186","0.0-77.0-0.0","A2BF7JF6NROA0T","img_art/8.jpg","2","","","","","","","","","","","","","","","","","","","","","","","","",""
"null","","html-keyboard-response","78","309193","0.0-78.0","A2BF7JF6NROA0T","<p style=""font-size: 48px;"">+</p>","","","","","null","allTrialResponses","1000","1","5","img_art/8.jpg","17","This is very complex and detailed!","Cynthia,Anna,Alexa,Sara,Mackenzie,Angela","New power in the community,22,320,20","The shapes and colors work well together.,40,300,20","It's simply gorgeous. This artist is very talented,50,40,20","Very interesting use of blocks,21,160,20","The different shapes are fun to look for.,30,20,20","Like the colors and the energy, but the face feels jarring to me,13,260,20","Angela","Like the colors and the energy, but the face feels jarring to me,13,260,20","Anna","The shapes and colors work well together.,40,300,20","Alexa","It's simply gorgeous. This artist is very talented,50,40,20","0"
"2835","","survey-text","79","312039","0.0-79.0-0.0","A2BF7JF6NROA0T","","","","{""Q0"":""sky""}","","","","","","","","","","","","","","","","","","","","","","",""
"12136","","survey-text","80","324177","0.0-80.0-0.0","A2BF7JF6NROA0T","","","","{""Q0"":""This just looks like a random paint splatter. ""}","","","","","","","","","","","","","","","","","","","","","","",""
"3290","","image-slider-response","81","327471","0.0-81.0","A2BF7JF6NROA0T","","","","","-43","","","","","","","","","","","","","","","","","","","","","",""
"null","","image-button-response","82","332478","0.0-82.0","A2BF7JF6NROA0T","img_art/13.jpg","null","","","","","","","","","","","","","","","","","","","","","","","","",""
"2281","","image-button-response","83","334762","0.0-83.0","A2BF7JF6NROA0T","img_art/13.jpg","4","","","","","","","","","","","","","","","","","","","","","","","","",""
"644","","image-button-response","84","335410","0.0-84.0-0.0","A2BF7JF6NROA0T","img_art/13.jpg","5","","","","","","","","","","","","","","","","","","","","","","","","",""
"1842","","image-button-response","85","337257","0.0-85.0-0.0","A2BF7JF6NROA0T","img_art/13.jpg","2","","","","","","","","","","","","","","","","","","","","","","","","",""
"null","","html-keyboard-response","86","338260","0.0-86.0","A2BF7JF6NROA0T","<p style=""font-size: 48px;"">+</p>","","","","","null","allTrialResponses","1000","1","6","img_art/13.jpg","-43","This just looks like a random paint splatter. ","Amber,Anna,Alexa,Cassandra,Bailey,Angela","Reminds me of rain running down a window.,35,200,20","It reminds me of a window on a rainy day.,40,300,20","This looks like a staple bedroom or bathroom piece,41,40,20","I love the colors and the texture,37,120,20","Looks like an upclose dried set of water droplets. Boring.,-25,360,20","It's okay. Feels like a blander take on a Jackson Pollack,11,260,20","Bailey","Looks like an upclose dried set of water droplets. Boring.,-25,360,20","Angela","It's okay. Feels like a blander take on a Jackson Pollack,11,260,20","Alexa","This looks like a staple bedroom or bathroom piece,41,40,20","0"
"12150","","survey-text","87","350417","0.0-87.0-0.0","A2BF7JF6NROA0T","","","","{""Q0"":""Looks child-like but I still like it. ""}","","","","","","","","","","","","","","","","","","","","","","",""
"2352.300000190735","","image-slider-response","88","352772","0.0-88.0","A2BF7JF6NROA0T","","","","","13","","","","","","","","","","","","","","","","","","","","","",""
"null","","image-button-response","89","357776","0.0-89.0","A2BF7JF6NROA0T","img_art/27.jpg","null","","","","","","","","","","","","","","","","","","","","","","","","",""
"83","","image-button-response","90","357862","0.0-90.0","A2BF7JF6NROA0T","img_art/27.jpg","1","","","","","","","","","","","","","","","","","","","","","","","","",""
"1666","","image-button-response","91","359531","0.0-91.0-0.0","A2BF7JF6NROA0T","img_art/27.jpg","3","","","","","","","","","","","","","","","","","","","","","","","","",""
"990","","image-button-response","92","360525","0.0-92.0-0.0","A2BF7JF6NROA0T","img_art/27.jpg","4","","","","","","","","","","","","","","","","","","","","","","","","",""
"null","","html-keyboard-response","93","362027","0.0-93.0","A2BF7JF6NROA0T","<p style=""font-size: 48px;"">+</p>","","","","","null","allTrialResponses","1500","1","7","img_art/27.jpg","13","Looks child-like but I still like it. ","Monica,Lindsey,Alexa,Chelsea,Bailey,Angela","It tries to remind me of the autumn season but it's grey and looks dirty,-5,360,20","Looks like my niece's doodles.,-50,400,20","I love the mood of this painting,30,40,20","The green lines look like a child drew over a painting.,-36,180,20","Looks like a splash of different colors and designs without purpose,-44,360,20","It's okay. Not really interesting to me.,-10,260,20","Lindsey","Looks like my niece's doodles.,-50,400,20","Chelsea","The green lines look like a child drew over a painting.,-36,180,20","Bailey","Looks like a splash of different colors and designs without purpose,-44,360,20","0"
"18367","","survey-text","94","380400","0.0-94.0-0.0","A2BF7JF6NROA0T","","","","{""Q0"":""This looks too angsty. I don't like the message.""}","","","","","","","","","","","","","","","","","","","","","","",""
"2443.199999809265","","image-slider-response","95","382847","0.0-95.0","A2BF7JF6NROA0T","","","","","-50","","","","","","","","","","","","","","","","","","","","","",""
"null","","image-button-response","96","387857","0.0-96.0","A2BF7JF6NROA0T","img_art/29.jpg","null","","","","","","","","","","","","","","","","","","","","","","","","",""
"990","","image-button-response","97","388850","0.0-97.0","A2BF7JF6NROA0T","img_art/29.jpg","4","","","","","","","","","","","","","","","","","","","","","","","","",""
"1253","","image-button-response","98","390106","0.0-98.0-0.0","A2BF7JF6NROA0T","img_art/29.jpg","5","","","","","","","","","","","","","","","","","","","","","","","","",""
"764","","image-button-response","99","390875","0.0-99.0-0.0","A2BF7JF6NROA0T","img_art/29.jpg","0","","","","","","","","","","","","","","","","","","","","","","","","",""
"null","","html-keyboard-response","100","391878","0.0-100.0","A2BF7JF6NROA0T","<p style=""font-size: 48px;"">+</p>","","","","","null","allTrialResponses","1000","1","8","img_art/29.jpg","-50","This looks too angsty. I don't like the message.","Gabrielle,Lindsey,Jamie,Chelsea,Bailey,Julia","it's OK, no clue to what's going on but good use of light and dark,4,160,20","Again, ugly colors and I'm not a fan of abstract. This looks like the view into a garbage dump.,-50,400,20","3D looks is really cool,30,320,20","It is intriguing but I don't like the red X.,6,180,20","Giant messy blob. Looks like it tries to be edgy, but fails.,-40,360,20","it looks like a top-down battle arena,26,40,20","Bailey","Giant messy blob. Looks like it tries to be edgy, but fails.,-40,360,20","Julia","it looks like a top-down battle arena,26,40,20","Gabrielle","it's OK, no clue to what's going on but good use of light and dark,4,160,20","0"
"15189","","survey-text","101","407072","0.0-101.0-0.0","A2BF7JF6NROA0T","","","","{""Q0"":""It looks like a guitar, interesting details. ""}","","","","","","","","","","","","","","","","","","","","","","",""
"4110.099999904633","","image-slider-response","102","411185","0.0-102.0","A2BF7JF6NROA0T","","","","","28","","","","","","","","","","","","","","","","","","","","","",""
"3710","","image-button-response","103","416195","0.0-103.0","A2BF7JF6NROA0T","img_art/10.jpg","5","","","","","","","","","","","","","","","","","","","","","","","","",""
"1373","","image-button-response","104","417571","0.0-104.0","A2BF7JF6NROA0T","img_art/10.jpg","0","","","","","","","","","","","","","","","","","","","","","","","","",""
"1496","","image-button-response","105","419069","0.0-105.0-0.0","A2BF7JF6NROA0T","img_art/10.jpg","0","","","","","","","","","","","","","","","","","","","","","","","","",""
"1284","","image-button-response","106","423947","0.0-105.1-0.1","A2BF7JF6NROA0T","img_art/10.jpg","0","","","","","","","","","","","","","","","","","","","","","","","","",""
"1532","","image-button-response","107","429197","0.0-105.2-0.2","A2BF7JF6NROA0T","img_art/10.jpg","4","","","","","","","","","","","","","","","","","","","","","","","","",""
"966","","image-button-response","108","430166","0.0-106.0-0.0","A2BF7JF6NROA0T","img_art/10.jpg","3","","","","","","","","","","","","","","","","","","","","","","","","",""
"null","","html-keyboard-response","109","430669","0.0-107.0","A2BF7JF6NROA0T","<p style=""font-size: 48px;"">+</p>","","","","","null","allTrialResponses","500","1","9","img_art/10.jpg","28","It looks like a guitar, interesting details. ","Gabrielle,Kelly,Molly,Maria,Bailey,Julia","interesting portrayal of a violin?,10,160,20","I cant tell what this is supposed to be, but I enjoy the simplicity of it.,28,220,20","For me, it looks like a giant ship on the sea and it's astonishing.,30,340,20","not sure what to make of this one,0,120,20","For black and white, this is pretty vibrant and cool. I like this.,39,360,20","this is a good painting, but feels musical in a way that I don't connect with.,-14,40,20","Gabrielle","interesting portrayal of a violin?,10,160,20","Bailey","For black and white, this is pretty vibrant and cool. I like this.,39,360,20","Maria","not sure what to make of this one,0,120,20","4"
"11670","","survey-text","110","442347","0.0-108.0-0.0","A2BF7JF6NROA0T","","","","{""Q0"":""This looks very intricate, like a man on a horse. ""}","","","","","","","","","","","","","","","","","","","","","","",""
"3082.4000000953674","","image-slider-response","111","445432","0.0-109.0","A2BF7JF6NROA0T","","","","","-20","","","","","","","","","","","","","","","","","","","","","",""
"null","","image-button-response","112","450440","0.0-110.0","A2BF7JF6NROA0T","img_art/18.jpg","null","","","","","","","","","","","","","","","","","","","","","","","","",""
"1744","","image-button-response","113","452186","0.0-111.0","A2BF7JF6NROA0T","img_art/18.jpg","1","","","","","","","","","","","","","","","","","","","","","","","","",""
"669","","image-button-response","114","452859","0.0-112.0-0.0","A2BF7JF6NROA0T","img_art/18.jpg","0","","","","","","","","","","","","","","","","","","","","","","","","",""
"842","","image-button-response","115","453704","0.0-113.0-0.0","A2BF7JF6NROA0T","img_art/18.jpg","2","","","","","","","","","","","","","","","","","","","","","","","","",""
"null","","html-keyboard-response","116","455212","0.0-114.0","A2BF7JF6NROA0T","<p style=""font-size: 48px;"">+</p>","","","","","null","allTrialResponses","1500","1","10","img_art/18.jpg","-20","This looks very intricate, like a man on a horse. ","Gabrielle,Angelica,Katelyn,Maria,Bailey,Melissa","interesting piece, I like the horse and people inserted in spots,22,160,20","It looks grotesque and violent.,-50,280,20","It reminds me of ghosts on a boat. Makes me nervous.,-27,100,20","enjoy the juxtaposition of abstract with tangible elements & the use of color,10,120,20","Looks like a jumbled mess. I prefer a clearer picture,-18,360,20","creamy color, feels like organized chaos,23,240,20","Angelica","It looks grotesque and violent.,-50,280,20","Gabrielle","interesting piece, I like the horse and people inserted in spots,22,160,20","Katelyn","It reminds me of ghosts on a boat. Makes me nervous.,-27,100,20","4"
"3352","","survey-text","117","458575","0.0-115.0-0.0","A2BF7JF6NROA0T","","","","{""Q0"":""our""}","","","","","","","","","","","","","","","","","","","","","","",""
"9352","","survey-text","118","467928","0.0-116.0-0.0","A2BF7JF6NROA0T","","","","{""Q0"":""I love the colors here, it looks like autumn. ""}","","","","","","","","","","","","","","","","","","","","","","",""
"2851.7999997138977","","image-slider-response","119","470783","0.0-117.0","A2BF7JF6NROA0T","","","","","50","","","","","","","","","","","","","","","","","","","","","",""
"3399","","image-button-response","120","475787","0.0-118.0","A2BF7JF6NROA0T","img_art/1.jpg","0","","","","","","","","","","","","","","","","","","","","","","","","",""
"435","","image-button-response","121","476225","0.0-119.0","A2BF7JF6NROA0T","img_art/1.jpg","1","","","","","","","","","","","","","","","","","","","","","","","","",""
"3020","","image-button-response","122","479247","0.0-120.0-0.0","A2BF7JF6NROA0T","img_art/1.jpg","1","","","","","","","","","","","","","","","","","","","","","","","","",""
"796","","image-button-response","123","483490","0.0-120.1-0.1","A2BF7JF6NROA0T","img_art/1.jpg","0","","","","","","","","","","","","","","","","","","","","","","","","",""
"1013","","image-button-response","124","484506","0.0-121.0-0.0","A2BF7JF6NROA0T","img_art/1.jpg","2","","","","","","","","","","","","","","","","","","","","","","","","",""
"null","","html-keyboard-response","125","485512","0.0-122.0","A2BF7JF6NROA0T","<p style=""font-size: 48px;"">+</p>","","","","","null","allTrialResponses","1000","1","11","img_art/1.jpg","50","I love the colors here, it looks like autumn. ","Gabrielle,Angelica,Katelyn,Brianna,Catherine,Shannon","nice piece, fall like,31,160,20","This is ugly with bad colors.,-6,280,20","Im not a fan of the bluriness,-18,100,20","It's very colorful, and I like it,11,20,20","confused,animal like brain fog,0,160,20","I think that this picture has nice colors and its pleasing to the eyes.,20,220,20","Angelica","This is ugly with bad colors.,-6,280,20","Gabrielle","nice piece, fall like,31,160,20","Katelyn","Im not a fan of the bluriness,-18,100,20","6"
"10073","","survey-text","126","495593","0.0-123.0-0.0","A2BF7JF6NROA0T","","","","{""Q0"":""The white parts are distracting. ""}","","","","","","","","","","","","","","","","","","","","","","",""
"3878.800000190735","","image-slider-response","127","499475","0.0-124.0","A2BF7JF6NROA0T","","","","","-35","","","","","","","","","","","","","","","","","","","","","",""
"4933","","image-button-response","128","504484","0.0-125.0","A2BF7JF6NROA0T","img_art/23.jpg","5","","","","","","","","","","","","","","","","","","","","","","","","",""
"374","","image-button-response","129","504862","0.0-126.0","A2BF7JF6NROA0T","img_art/23.jpg","5","","","","","","","","","","","","","","","","","","","","","","","","",""
"702","","image-button-response","130","505566","0.0-127.0-0.0","A2BF7JF6NROA0T","img_art/23.jpg","4","","","","","","","","","","","","","","","","","","","","","","","","",""
"950","","image-button-response","131","506520","0.0-128.0-0.0","A2BF7JF6NROA0T","img_art/23.jpg","1","","","","","","","","","","","","","","","","","","","","","","","","",""
"null","","html-keyboard-response","132","507023","0.0-129.0","A2BF7JF6NROA0T","<p style=""font-size: 48px;"">+</p>","","","","","null","allTrialResponses","500","1","12","img_art/23.jpg","-35","The white parts are distracting. ","Gabrielle,Angelica,Katelyn,Rebecca,Morgan,Stephanie","it's OK, but just OK, kind of interesting but I wouldn't spend money on it,4,160,20","This looks like hotel room art, it's ugly and odd.,-2,280,20","Makes me want to stare at it for hours. Like there is something deeper to find.,37,100,20","love the contrast (was this painted by a left-handed artist?),7,100,20","Unicorns flying through a colorful space.,25,380,20","This makes me think of an orchestra playing a forth of july song,12,300,20","Stephanie","This makes me think of an orchestra playing a forth of july song,12,300,20","Morgan","Unicorns flying through a colorful space.,25,380,20","Angelica","This looks like hotel room art, it's ugly and odd.,-2,280,20","6"
"9901","","survey-text","133","516931","0.0-130.0-0.0","A2BF7JF6NROA0T","","","","{""Q0"":""This looks very eerie. ""}","","","","","","","","","","","","","","","","","","","","","","",""
"3209.9000000953674","","image-slider-response","134","520144","0.0-131.0","A2BF7JF6NROA0T","","","","","-28","","","","","","","","","","","","","","","","","","","","","",""
"4697","","image-button-response","135","525149","0.0-132.0","A2BF7JF6NROA0T","img_art/20.jpg","2","","","","","","","","","","","","","","","","","","","","","","","","",""
"5","","image-button-response","136","525157","0.0-133.0","A2BF7JF6NROA0T","img_art/20.jpg","2","","","","","","","","","","","","","","","","","","","","","","","","",""
"300","","image-button-response","137","525460","0.0-134.0-0.0","A2BF7JF6NROA0T","img_art/20.jpg","2","","","","","","","","","","","","","","","","","","","","","","","","",""
"847","","image-button-response","138","529430","0.0-134.1-0.1","A2BF7JF6NROA0T","img_art/20.jpg","5","","","","","","","","","","","","","","","","","","","","","","","","",""
"981","","image-button-response","139","530414","0.0-135.0-0.0","A2BF7JF6NROA0T","img_art/20.jpg","1","","","","","","","","","","","","","","","","","","","","","","","","",""
"null","","html-keyboard-response","140","530917","0.0-136.0","A2BF7JF6NROA0T","<p style=""font-size: 48px;"">+</p>","","","","","null","allTrialResponses","500","1","13","img_art/20.jpg","-28","This looks very eerie. ","Kathryn,Angelica,Olivia,Amy,Morgan,Stephanie","This looks like a ruin of what was once a thriving city.,-9,140,20","It's too brash and loud and ugly.,-21,280,20","crash after traffic causing grief,-11,40,20","Elements that are more defined are incongruous to the soft and melting nature of this painting,5,220,20","The beach and industry.,12,380,20","Looks like an old gold mining down now deserted.,11,300,20","Olivia","crash after traffic causing grief,-11,40,20","Stephanie","Looks like an old gold mining down now deserted.,11,300,20","Angelica","It's too brash and loud and ugly.,-21,280,20","8"
"14638","","survey-text","141","545562","0.0-137.0-0.0","A2BF7JF6NROA0T","","","","{""Q0"":""This seems interesting but unorganized. ""}","","","","","","","","","","","","","","","","","","","","","","",""
"3362.7999997138977","","image-slider-response","142","548927","0.0-138.0","A2BF7JF6NROA0T","","","","","-38","","","","","","","","","","","","","","","","","","","","","",""
"2570","","image-button-response","143","553936","0.0-139.0","A2BF7JF6NROA0T","img_art/3.jpg","5","","","","","","","","","","","","","","","","","","","","","","","","",""
"698","","image-button-response","144","554637","0.0-140.0","A2BF7JF6NROA0T","img_art/3.jpg","5","","","","","","","","","","","","","","","","","","","","","","","","",""
"1654","","image-button-response","145","556294","0.0-141.0-0.0","A2BF7JF6NROA0T","img_art/3.jpg","3","","","","","","","","","","","","","","","","","","","","","","","","",""
"1302","","image-button-response","146","557600","0.0-142.0-0.0","A2BF7JF6NROA0T","img_art/3.jpg","1","","","","","","","","","","","","","","","","","","","","","","","","",""
"null","","html-keyboard-response","147","558102","0.0-143.0","A2BF7JF6NROA0T","<p style=""font-size: 48px;"">+</p>","","","","","null","allTrialResponses","500","1","14","img_art/3.jpg","-38","This seems interesting but unorganized. ","Dominique,Angelica,Olivia,Diana,Taylor,Stephanie","Iike this one it's a piece that I need to spend more time with to understand how i feel about it,20,400,20","This is angry and childish looking.,-49,280,20","confusing taking over,-15,40,20","I didn't feel the color choice when I first looked. I did however like the placement of the gray.,-28,380,20","It doesn't make me think of art,-20,340,20","I think of an angry child,-50,300,20","Stephanie","I think of an angry child,-50,300,20","Diana","I didn't feel the color choice when I first looked. I did however like the placement of the gray.,-28,380,20","Angelica","This is angry and childish looking.,-49,280,20","8"
"9268","","survey-text","148","567377","0.0-144.0-0.0","A2BF7JF6NROA0T","","","","{""Q0"":""This reminds me of a planet, but I don't like the key. ""}","","","","","","","","","","","","","","","","","","","","","","",""
"3282.300000190735","","image-slider-response","149","570663","0.0-145.0","A2BF7JF6NROA0T","","","","","-31","","","","","","","","","","","","","","","","","","","","","",""
"3504","","image-button-response","150","575669","0.0-146.0","A2BF7JF6NROA0T","img_art/22.jpg","2","","","","","","","","","","","","","","","","","","","","","","","","",""
"2522","","image-button-response","151","578195","0.0-147.0","A2BF7JF6NROA0T","img_art/22.jpg","4","","","","","","","","","","","","","","","","","","","","","","","","",""
"600","","image-button-response","152","578797","0.0-148.0-0.0","A2BF7JF6NROA0T","img_art/22.jpg","5","","","","","","","","","","","","","","","","","","","","","","","","",""
"813","","image-button-response","153","579614","0.0-149.0-0.0","A2BF7JF6NROA0T","img_art/22.jpg","2","","","","","","","","","","","","","","","","","","","","","","","","",""
"null","","html-keyboard-response","154","580616","0.0-150.0","A2BF7JF6NROA0T","<p style=""font-size: 48px;"">+</p>","","","","","null","allTrialResponses","1000","1","15","img_art/22.jpg","-31","This reminds me of a planet, but I don't like the key. ","Shelby,Angelica,Alyssa,Diana,Sabrina,Stephanie","This painting has a very nostalgic feel,20,240,20","It's bland and ugly.,-21,280,20","Its okay,it doesnt make me feel any sort of strong emotion,1,160,20","I think the colors are beautiful they remind me of a sunset.,13,380,20","Just not feeling it,-19,120,20","I don't get much of a reaction.,11,300,20","Sabrina","Just not feeling it,-19,120,20","Stephanie","I don't get much of a reaction.,11,300,20","Alyssa","Its okay,it doesnt make me feel any sort of strong emotion,1,160,20","8"
"3095","","survey-text","155","583721","0.0-151.0-0.0","A2BF7JF6NROA0T","","","","{""Q0"":""course""}","","","","","","","","","","","","","","","","","","","","","","",""
"15364","","survey-text","156","599087","0.0-152.0-0.0","A2BF7JF6NROA0T","","","","{""Q0"":""This makes me feel like I'm in the room. ""}","","","","","","","","","","","","","","","","","","","","","","",""
"3955","","image-slider-response","157","603044","0.0-153.0","A2BF7JF6NROA0T","","","","","46","","","","","","","","","","","","","","","","","","","","","",""
"3252","","image-button-response","158","608049","0.0-154.0","A2BF7JF6NROA0T","img_art/17.jpg","3","","","","","","","","","","","","","","","","","","","","","","","","",""
"711","","image-button-response","159","608763","0.0-155.0","A2BF7JF6NROA0T","img_art/17.jpg","3","","","","","","","","","","","","","","","","","","","","","","","","",""
"2255","","image-button-response","160","611021","0.0-156.0-0.0","A2BF7JF6NROA0T","img_art/17.jpg","2","","","","","","","","","","","","","","","","","","","","","","","","",""
"1013","","image-button-response","161","612038","0.0-157.0-0.0","A2BF7JF6NROA0T","img_art/17.jpg","5","","","","","","","","","","","","","","","","","","","","","","","","",""
"null","","html-keyboard-response","162","613540","0.0-158.0","A2BF7JF6NROA0T","<p style=""font-size: 48px;"">+</p>","","","","","null","allTrialResponses","1500","1","16","img_art/17.jpg","46","This makes me feel like I'm in the room. ","Miranda,Savannah,Alyssa,Alicia,Sabrina,Stephanie","It seems a little dark but it is very beautiful,28,320,20","Not even abstract to me, very clear meaning.,44,200,20","It gorgeous and i love how the tree is almost 3 dimensional.So many elements to it.,50,160,20","Like this one, super creative, calming.,43,120,20","Messy shadow of loss and love,50,120,20","The wispy trees caught my eye.,42,300,20","Alicia","Like this one, super creative, calming.,43,120,20","Alyssa","It gorgeous and i love how the tree is almost 3 dimensional.So many elements to it.,50,160,20","Stephanie","The wispy trees caught my eye.,42,300,20","8"
"10427","","survey-text","163","623973","0.0-159.0-0.0","A2BF7JF6NROA0T","","","","{""Q0"":""Looks like the Wicker Man. ""}","","","","","","","","","","","","","","","","","","","","","","",""
"2972.5","","image-slider-response","164","626949","0.0-160.0","A2BF7JF6NROA0T","","","","","-34","","","","","","","","","","","","","","","","","","","","","",""
"3853","","image-button-response","165","631953","0.0-161.0","A2BF7JF6NROA0T","img_art/25.jpg","2","","","","","","","","","","","","","","","","","","","","","","","","",""
"642","","image-button-response","166","632598","0.0-162.0","A2BF7JF6NROA0T","img_art/25.jpg","2","","","","","","","","","","","","","","","","","","","","","","","","",""
"1857","","image-button-response","167","634458","0.0-163.0-0.0","A2BF7JF6NROA0T","img_art/25.jpg","4","","","","","","","","","","","","","","","","","","","","","","","","",""
"640","","image-button-response","168","635102","0.0-164.0-0.0","A2BF7JF6NROA0T","img_art/25.jpg","3","","","","","","","","","","","","","","","","","","","","","","","","",""
"null","","html-keyboard-response","169","636610","0.0-165.0","A2BF7JF6NROA0T","<p style=""font-size: 48px;"">+</p>","","","","","null","allTrialResponses","1500","1","17","img_art/25.jpg","-34","Looks like the Wicker Man. ","Cheyenne,Breanna,Alyssa,Alicia,Kylie,Stephanie","It's nice but nothing special.,7,200,20","Makes me feel intrigued,13,380,20","Dark silhouette against the murky background Illicites an ominous feeling. Don't really like it.,-20,160,20","death. childish nightmare.,-29,120,20","Egyptian heiroglyphics and painting,15,300,20","It made me think of healing.,22,300,20","Alyssa","Dark silhouette against the murky background Illicites an ominous feeling. Don't really like it.,-20,160,20","Kylie","Egyptian heiroglyphics and painting,15,300,20","Alicia","death. childish nightmare.,-29,120,20","8"
"10295","","survey-text","170","646912","0.0-166.0-0.0","A2BF7JF6NROA0T","","","","{""Q0"":""creepy teddy bear, I hate it.""}","","","","","","","","","","","","","","","","","","","","","","",""
"2748.5999999046326","","image-slider-response","171","649663","0.0-167.0","A2BF7JF6NROA0T","","","","","-50","","","","","","","","","","","","","","","","","","","","","",""
"2571","","image-button-response","172","654667","0.0-168.0","A2BF7JF6NROA0T","img_art/16.jpg","0","","","","","","","","","","","","","","","","","","","","","","","","",""
"1174","","image-button-response","173","655844","0.0-169.0","A2BF7JF6NROA0T","img_art/16.jpg","0","","","","","","","","","","","","","","","","","","","","","","","","",""
"640","","image-button-response","174","656486","0.0-170.0-0.0","A2BF7JF6NROA0T","img_art/16.jpg","2","","","","","","","","","","","","","","","","","","","","","","","","",""
"933","","image-button-response","175","657423","0.0-171.0-0.0","A2BF7JF6NROA0T","img_art/16.jpg","3","","","","","","","","","","","","","","","","","","","","","","","","",""
"null","","html-keyboard-response","176","657926","0.0-172.0","A2BF7JF6NROA0T","<p style=""font-size: 48px;"">+</p>","","","","","null","allTrialResponses","500","1","18","img_art/16.jpg","-50","creepy teddy bear, I hate it.","Sierra,Jordan,Alyssa,Alicia,Kylie,Heather","it looks psychotic,-31,260,20","Not interested at all,-15,20,20","It creeps me out.,-50,160,20","Don't get it. Hate it. ugly.,-44,120,20","Mixed feelings. Warm and comfy yet somewhat violent. A stark contrast,0,300,20","lol i dont know how i feel about this.,1,260,20","Sierra","it looks psychotic,-31,260,20","Alyssa","It creeps me out.,-50,160,20","Alicia","Don't get it. Hate it. ugly.,-44,120,20","8"
"13080","","survey-text","177","671014","0.0-173.0-0.0","A2BF7JF6NROA0T","","","","{""Q0"":""I like the colors but it's not very inspired. ""}","","","","","","","","","","","","","","","","","","","","","","",""
"2207.7000002861023","","image-slider-response","178","673224","0.0-174.0","A2BF7JF6NROA0T","","","","","-30","","","","","","","","","","","","","","","","","","","","","",""
"null","","image-button-response","179","678229","0.0-175.0","A2BF7JF6NROA0T","img_art/7.jpg","null","","","","","","","","","","","","","","","","","","","","","","","","",""
"551","","image-button-response","180","678783","0.0-176.0","A2BF7JF6NROA0T","img_art/7.jpg","1","","","","","","","","","","","","","","","","","","","","","","","","",""
"2448","","image-button-response","181","681234","0.0-177.0-0.0","A2BF7JF6NROA0T","img_art/7.jpg","3","","","","","","","","","","","","","","","","","","","","","","","","",""
"790","","image-button-response","182","682027","0.0-178.0-0.0","A2BF7JF6NROA0T","img_art/7.jpg","5","","","","","","","","","","","","","","","","","","","","","","","","",""
"null","","html-keyboard-response","183","682530","0.0-179.0","A2BF7JF6NROA0T","<p style=""font-size: 48px;"">+</p>","","","","","null","allTrialResponses","500","1","19","img_art/7.jpg","-30","I like the colors but it's not very inspired. ","Sierra,Claire,Alyssa,Alicia,Katherine,Jasmine","it looks like a dog ran through some wet cement,-22,260,20","reminds me of a cave wall,-21,260,20","It looks like someone took a picture of a muddy ground and called it art.,-41,160,20","I don't get it. looks like a picture of the ground.,-42,120,20","Reminds me of bugs, I hate bugs,-7,120,20","It just reminds me of dirt,-10,340,20","Claire","reminds me of a cave wall,-21,260,20","Alicia","I don't get it. looks like a picture of the ground.,-42,120,20","Jasmine","It just reminds me of dirt,-10,340,20","8"
"13074","","survey-text","184","695612","0.0-180.0-0.0","A2BF7JF6NROA0T","","","","{""Q0"":""I love how the woman is posing, very beautiful. ""}","","","","","","","","","","","","","","","","","","","","","","",""
"2296.4000000953674","","image-slider-response","185","697911","0.0-181.0","A2BF7JF6NROA0T","","","","","50","","","","","","","","","","","","","","","","","","","","","",""
"null","","image-button-response","186","702918","0.0-182.0","A2BF7JF6NROA0T","img_art/9.jpg","null","","","","","","","","","","","","","","","","","","","","","","","","",""
"1932","","image-button-response","187","704853","0.0-183.0","A2BF7JF6NROA0T","img_art/9.jpg","3","","","","","","","","","","","","","","","","","","","","","","","","",""
"1454","","image-button-response","188","706309","0.0-184.0-0.0","A2BF7JF6NROA0T","img_art/9.jpg","5","","","","","","","","","","","","","","","","","","","","","","","","",""
"941","","image-button-response","189","707254","0.0-185.0-0.0","A2BF7JF6NROA0T","img_art/9.jpg","2","","","","","","","","","","","","","","","","","","","","","","","","",""
"null","","html-keyboard-response","190","708756","0.0-186.0","A2BF7JF6NROA0T","<p style=""font-size: 48px;"">+</p>","","","","","null","allTrialResponses","1500","1","20","img_art/9.jpg","50","I love how the woman is posing, very beautiful. ","Isabella,Claire,Megan,Alicia,Tiffany,Jasmine","Angry beast mouth,-37,280,20","the colors are nice,6,260,20","A troubled painter was influenced by anger and mad at the woman in the middle, color not bad,-32,200,20","Abstract titanic scene. It's nice though. I like how it makes me feel.,28,120,20","The piece of art makes me happy, it reminds me of a lively carnival.,15,360,20","I like abstract art that looks that there is more than random brush strokes. This one looks the former,10,340,20","Alicia","Abstract titanic scene. It's nice though. I like how it makes me feel.,28,120,20","Jasmine","I like abstract art that looks that there is more than random brush strokes. This one looks the former,10,340,20","Megan","A troubled painter was influenced by anger and mad at the woman in the middle, color not bad,-32,200,20","8"
"2893","","survey-text","191","711662","0.0-187.0-0.0","A2BF7JF6NROA0T","","","","{""Q0"":""we""}","","","","","","","","","","","","","","","","","","","","","","",""
"9871","","survey-text","192","721534","0.0-188.0-0.0","A2BF7JF6NROA0T","","","","{""Q0"":""Nicely done but boring. ""}","","","","","","","","","","","","","","","","","","","","","","",""
"4136.10000038147","","image-slider-response","193","725673","0.0-189.0","A2BF7JF6NROA0T","","","","","-25","","","","","","","","","","","","","","","","","","","","","",""
"3468","","image-button-response","194","730682","0.0-190.0","A2BF7JF6NROA0T","img_art/12.jpg","2","","","","","","","","","","","","","","","","","","","","","","","","",""
"1594","","image-button-response","195","732279","0.0-191.0","A2BF7JF6NROA0T","img_art/12.jpg","2","","","","","","","","","","","","","","","","","","","","","","","","",""
"1025","","image-button-response","196","733307","0.0-192.0-0.0","A2BF7JF6NROA0T","img_art/12.jpg","3","","","","","","","","","","","","","","","","","","","","","","","","",""
"573","","image-button-response","197","733884","0.0-193.0-0.0","A2BF7JF6NROA0T","img_art/12.jpg","4","","","","","","","","","","","","","","","","","","","","","","","","",""
"null","","html-keyboard-response","198","734387","0.0-194.0","A2BF7JF6NROA0T","<p style=""font-size: 48px;"">+</p>","","","","","null","allTrialResponses","500","1","21","img_art/12.jpg","-25","Nicely done but boring. ","Jenna,Alexandria,Megan,Alicia,Autumn,Jasmine","interesting, but feels like someone cut up a picture and pasted it together wrong. want to see the original,15,360,20","don't feel a lot but it seems very simple,-6,80,20","Blocky windowed, safe and selfish,-41,200,20","it's ok, but blocky, looks old.,3,120,20","Good too basic.,18,340,20","It's just not my style,-18,340,20","Megan","Blocky windowed, safe and selfish,-41,200,20","Alicia","it's ok, but blocky, looks old.,3,120,20","Autumn","Good too basic.,18,340,20","8"
"13593","","survey-text","199","747988","0.0-195.0-0.0","A2BF7JF6NROA0T","","","","{""Q0"":""I love this, it looks like a street market. ""}","","","","","","","","","","","","","","","","","","","","","","",""
"4283.099999904633","","image-slider-response","200","752273","0.0-196.0","A2BF7JF6NROA0T","","","","","47","","","","","","","","","","","","","","","","","","","","","",""
"4990","","image-button-response","201","757278","0.0-197.0","A2BF7JF6NROA0T","img_art/19.jpg","3","","","","","","","","","","","","","","","","","","","","","","","","",""
"776","","image-button-response","202","758057","0.0-198.0","A2BF7JF6NROA0T","img_art/19.jpg","3","","","","","","","","","","","","","","","","","","","","","","","","",""
"3902","","image-button-response","203","761961","0.0-199.0-0.0","A2BF7JF6NROA0T","img_art/19.jpg","0","","","","","","","","","","","","","","","","","","","","","","","","",""
"485","","image-button-response","204","762450","0.0-200.0-0.0","A2BF7JF6NROA0T","img_art/19.jpg","1","","","","","","","","","","","","","","","","","","","","","","","","",""
"null","","html-keyboard-response","205","762952","0.0-201.0","A2BF7JF6NROA0T","<p style=""font-size: 48px;"">+</p>","","","","","null","allTrialResponses","500","1","22","img_art/19.jpg","47","I love this, it looks like a street market. ","Cassidy,Kaitlyn,Megan,Alicia,Autumn,Laura","too much going on, can't tell what it is,-14,140,20","The picture contains a lot of brown and weird drips,-4,80,20","Simple, scratchy lack of negative space.,-10,200,20","calming, like the drips,25,120,20","Messy and kid like.,-36,340,20","confusion, scattered and diffuse,-4,320,20","Alicia","calming, like the drips,25,120,20","Cassidy","too much going on, can't tell what it is,-14,140,20","Kaitlyn","The picture contains a lot of brown and weird drips,-4,80,20","8"
"12217","","survey-text","206","775179","0.0-202.0-0.0","A2BF7JF6NROA0T","","","","{""Q0"":""A little too abstract for my liking. ""}","","","","","","","","","","","","","","","","","","","","","","",""
"3342.2000002861023","","image-slider-response","207","778524","0.0-203.0","A2BF7JF6NROA0T","","","","","-36","","","","","","","","","","","","","","","","","","","","","",""
"4067","","image-button-response","208","783528","0.0-204.0","A2BF7JF6NROA0T","img_art/28.jpg","1","","","","","","","","","","","","","","","","","","","","","","","","",""
"634","","image-button-response","209","784166","0.0-205.0","A2BF7JF6NROA0T","img_art/28.jpg","1","","","","","","","","","","","","","","","","","","","","","","","","",""
"2223","","image-button-response","210","786393","0.0-206.0-0.0","A2BF7JF6NROA0T","img_art/28.jpg","4","","","","","","","","","","","","","","","","","","","","","","","","",""
"1081","","image-button-response","211","787479","0.0-207.0-0.0","A2BF7JF6NROA0T","img_art/28.jpg","5","","","","","","","","","","","","","","","","","","","","","","","","",""
"null","","html-keyboard-response","212","787981","0.0-208.0","A2BF7JF6NROA0T","<p style=""font-size: 48px;"">+</p>","","","","","null","allTrialResponses","500","1","23","img_art/28.jpg","-36","A little too abstract for my liking. ","Cassidy,Kaitlyn,Allison,Alicia,Elizabeth,Kristen","Almost looks like child's artwork, sloppy and chaotic,6,140,20","Not sure what way this picture is suppose to be oriented,-5,80,20","Dislike the colors.,-20,140,20","bland busy ugly,-31,120,20","Not really exciting,23,20,20","almost reminds me of thomas becket getting his head cut off,21,280,20","Kaitlyn","Not sure what way this picture is suppose to be oriented,-5,80,20","Elizabeth","Not really exciting,23,20,20","Kristen","almost reminds me of thomas becket getting his head cut off,21,280,20","8"
"8950","","survey-text","213","796939","0.0-209.0-0.0","A2BF7JF6NROA0T","","","","{""Q0"":""Looks like traffic in LA. ""}","","","","","","","","","","","","","","","","","","","","","","",""
"10741.599999904633","","image-slider-response","214","807684","0.0-210.0","A2BF7JF6NROA0T","","","","","-15","","","","","","","","","","","","","","","","","","","","","",""
"2858","","image-button-response","215","812689","0.0-211.0","A2BF7JF6NROA0T","img_art/11.jpg","0","","","","","","","","","","","","","","","","","","","","","","","","",""
"566","","image-button-response","216","813259","0.0-212.0","A2BF7JF6NROA0T","img_art/11.jpg","0","","","","","","","","","","","","","","","","","","","","","","","","",""
"1407","","image-button-response","217","814669","0.0-213.0-0.0","A2BF7JF6NROA0T","img_art/11.jpg","3","","","","","","","","","","","","","","","","","","","","","","","","",""
"1775","","image-button-response","218","816447","0.0-214.0-0.0","A2BF7JF6NROA0T","img_art/11.jpg","2","","","","","","","","","","","","","","","","","","","","","","","","",""
"null","","html-keyboard-response","219","816949","0.0-215.0","A2BF7JF6NROA0T","<p style=""font-size: 48px;"">+</p>","","","","","null","allTrialResponses","500","1","24","img_art/11.jpg","-15","Looks like traffic in LA. ","Amanda,Kaitlyn,Madison,Makayla,Elizabeth,Kristen","It makes me feel angry and overwhelmed,-29,180,20","Interesting use of color,9,80,20","Rainy day at an urban sea port. Portugal?,30,60,20","Smoggy, oily, industrial. Don't like,1,80,20","Very unique piece of art,50,20,20","small town, friendly. calm,35,280,20","Amanda","It makes me feel angry and overwhelmed,-29,180,20","Makayla","Smoggy, oily, industrial. Don't like,1,80,20","Madison","Rainy day at an urban sea port. Portugal?,30,60,20","8"
"15978","","survey-text","220","832936","0.0-216.0-0.0","A2BF7JF6NROA0T","","","","{""Q0"":""Just looks like unorganized dots. ""}","","","","","","","","","","","","","","","","","","","","","","",""
"2425.9000000953674","","image-slider-response","221","835365","0.0-217.0","A2BF7JF6NROA0T","","","","","-40","","","","","","","","","","","","","","","","","","","","","",""
"null","","image-button-response","222","840372","0.0-218.0","A2BF7JF6NROA0T","img_art/15.jpg","null","","","","","","","","","","","","","","","","","","","","","","","","",""
"6399","","image-button-response","223","846774","0.0-219.0","A2BF7JF6NROA0T","img_art/15.jpg","1","","","","","","","","","","","","","","","","","","","","","","","","",""
"1166","","image-button-response","224","847943","0.0-220.0-0.0","A2BF7JF6NROA0T","img_art/15.jpg","0","","","","","","","","","","","","","","","","","","","","","","","","",""
"862","","image-button-response","225","848810","0.0-221.0-0.0","A2BF7JF6NROA0T","img_art/15.jpg","2","","","","","","","","","","","","","","","","","","","","","","","","",""
"null","","html-keyboard-response","226","849816","0.0-222.0","A2BF7JF6NROA0T","<p style=""font-size: 48px;"">+</p>","","","","","null","allTrialResponses","1000","1","25","img_art/15.jpg","-40","Just looks like unorganized dots. ","Amanda,Abigail,Madison,Makayla,Marissa,Katie","It triggers my tripophobia,-50,180,20","This also has nice contrast,34,20,20","I am starting to feel description fatigue. This would be pleasant enough in a doctor's office waiting room.,15,60,20","It's just dots. Doesn't bring any positive or negative feelings,2,80,20","I am reminded of spring flowers swaying in the dark night's breeze,9,160,20","Too much black. I see weeds or dead/dying flowers.,-40,160,20","Abigail","This also has nice contrast,34,20,20","Amanda","It triggers my tripophobia,-50,180,20","Madison","I am starting to feel description fatigue. This would be pleasant enough in a doctor's office waiting room.,15,60,20","8"
"6212","","survey-text","227","856042","0.0-223.0-0.0","A2BF7JF6NROA0T","","","","{""Q0"":""table""}","","","","","","","","","","","","","","","","","","","","","","",""
"32850","","survey-text","228","888894","0.0-224.0-0.0","A2BF7JF6NROA0T","","","","{""Q0"":""soothing waterfall but lacks detail""}","","","","","","","","","","","","","","","","","","","","","","",""
"3019.5999999046326","","image-slider-response","229","891917","0.0-225.0","A2BF7JF6NROA0T","","","","","29","","","","","","","","","","","","","","","","","","","","","",""
"null","","image-button-response","230","896920","0.0-226.0","A2BF7JF6NROA0T","img_art/24.jpg","null","","","","","","","","","","","","","","","","","","","","","","","","",""
"446","","image-button-response","231","897369","0.0-227.0","A2BF7JF6NROA0T","img_art/24.jpg","0","","","","","","","","","","","","","","","","","","","","","","","","",""
"533","","image-button-response","232","897906","0.0-228.0-0.0","A2BF7JF6NROA0T","img_art/24.jpg","1","","","","","","","","","","","","","","","","","","","","","","","","",""
"1975","","image-button-response","233","899884","0.0-229.0-0.0","A2BF7JF6NROA0T","img_art/24.jpg","4","","","","","","","","","","","","","","","","","","","","","","","","",""
"null","","html-keyboard-response","234","900891","0.0-230.0","A2BF7JF6NROA0T","<p style=""font-size: 48px;"">+</p>","","","","","null","allTrialResponses","1000","1","26","img_art/24.jpg","29","soothing waterfall but lacks detail","Amanda,Abigail,Madison,Sophia,Kaitlin,Kimberly","Beautiful,  peaceful,50,180,20","Beautiful waterfall I like waterfalls,39,20,20","Exceedingly garish,-19,60,20","Hmm. Don't know what to make of this one.,1,280,20","Aww. I love the peace brought by this picture.,40,60,20","It just feels a little bland for me,-23,260,20","Amanda","Beautiful,  peaceful,50,180,20","Abigail","Beautiful waterfall I like waterfalls,39,20,20","Kaitlin","Aww. I love the peace brought by this picture.,40,60,20","8"
"8350","","survey-text","235","909250","0.0-231.0-0.0","A2BF7JF6NROA0T","","","","{""Q0"":""This is so boring. ""}","","","","","","","","","","","","","","","","","","","","","","",""
"3469.5","","image-slider-response","236","912722","0.0-232.0","A2BF7JF6NROA0T","","","","","-50","","","","","","","","","","","","","","","","","","","","","",""
"2856","","image-button-response","237","917731","0.0-233.0","A2BF7JF6NROA0T","img_art/5.jpg","1","","","","","","","","","","","","","","","","","","","","","","","","",""
"857","","image-button-response","238","918590","0.0-234.0","A2BF7JF6NROA0T","img_art/5.jpg","1","","","","","","","","","","","","","","","","","","","","","","","","",""
"822","","image-button-response","239","919416","0.0-235.0-0.0","A2BF7JF6NROA0T","img_art/5.jpg","2","","","","","","","","","","","","","","","","","","","","","","","","",""
"974","","image-button-response","240","920394","0.0-236.0-0.0","A2BF7JF6NROA0T","img_art/5.jpg","5","","","","","","","","","","","","","","","","","","","","","","","","",""
"null","","html-keyboard-response","241","921896","0.0-237.0","A2BF7JF6NROA0T","<p style=""font-size: 48px;"">+</p>","","","","","null","allTrialResponses","1500","1","27","img_art/5.jpg","-50","This is so boring. ","Amanda,Abigail,Ashley,Christina,Kaitlin,Sarah","Very good color coordination,41,180,20","Reminds me of a broken umbrella,-9,20,20","I like the simple shapes and colors.,23,320,20","looks like a little kids painting,-50,240,20","a bit confused about this picture,-9,60,20","looks very childish,-35,180,20","Abigail","Reminds me of a broken umbrella,-9,20,20","Ashley","I like the simple shapes and colors.,23,320,20","Sarah","looks very childish,-35,180,20","8"
"12931","","survey-text","242","934835","0.0-238.0-0.0","A2BF7JF6NROA0T","","","","{""Q0"":""this makes me think of a storybook tale""}","","","","","","","","","","","","","","","","","","","","","","",""
"3066","","image-slider-response","243","937904","0.0-239.0","A2BF7JF6NROA0T","","","","","-28","","","","","","","","","","","","","","","","","","","","","",""
"4664","","image-button-response","244","942913","0.0-240.0","A2BF7JF6NROA0T","img_art/2.jpg","4","","","","","","","","","","","","","","","","","","","","","","","","",""
"169","","image-button-response","245","943084","0.0-241.0","A2BF7JF6NROA0T","img_art/2.jpg","4","","","","","","","","","","","","","","","","","","","","","","","","",""
"2504","","image-button-response","246","945591","0.0-242.0-0.0","A2BF7JF6NROA0T","img_art/2.jpg","1","","","","","","","","","","","","","","","","","","","","","","","","",""
"657","","image-button-response","247","946252","0.0-243.0-0.0","A2BF7JF6NROA0T","img_art/2.jpg","2","","","","","","","","","","","","","","","","","","","","","","","","",""
"null","","html-keyboard-response","248","947259","0.0-244.0","A2BF7JF6NROA0T","<p style=""font-size: 48px;"">+</p>","","","","","null","allTrialResponses","1000","1","28","img_art/2.jpg","-28","this makes me think of a storybook tale","Alexis,Abigail,Ashley,Emily,Hailey,Sarah","Do not like this type of abstract work,-50,100,20","Reminds me of my baby brother,11,20,20","I think I can make out a face in there.,25,320,20","Random colors and shapes mashed together. Nothing artistic, but better than some of the other ones.,-37,40,20","ugly green color and makes me sick,-29,200,20","nope. just looks like a mess,-28,180,20","Hailey","ugly green color and makes me sick,-29,200,20","Abigail","Reminds me of my baby brother,11,20,20","Ashley","I think I can make out a face in there.,25,320,20","8"
"10619","","survey-text","249","957888","0.0-245.0-0.0","A2BF7JF6NROA0T","","","","{""Q0"":""I love how the colors are blended together ""}","","","","","","","","","","","","","","","","","","","","","","",""
"2604.2999997138977","","image-slider-response","250","960495","0.0-246.0","A2BF7JF6NROA0T","","","","","42","","","","","","","","","","","","","","","","","","","","","",""
"2573","","image-button-response","251","965504","0.0-247.0","A2BF7JF6NROA0T","img_art/21.jpg","5","","","","","","","","","","","","","","","","","","","","","","","","",""
"1260","","image-button-response","252","966767","0.0-248.0","A2BF7JF6NROA0T","img_art/21.jpg","5","","","","","","","","","","","","","","","","","","","","","","","","",""
"867","","image-button-response","253","967637","0.0-249.0-0.0","A2BF7JF6NROA0T","img_art/21.jpg","2","","","","","","","","","","","","","","","","","","","","","","","","",""
"861","","image-button-response","254","968502","0.0-250.0-0.0","A2BF7JF6NROA0T","img_art/21.jpg","3","","","","","","","","","","","","","","","","","","","","","","","","",""
"null","","html-keyboard-response","255","969509","0.0-251.0","A2BF7JF6NROA0T","<p style=""font-size: 48px;"">+</p>","","","","","null","allTrialResponses","1000","1","29","img_art/21.jpg","42","I love how the colors are blended together ","Grace,Abigail,Ashley,Jessica,Hailey,Emma","Like the colors, the cloudy, airy effects. Nice.,46,180,20","Beautiful colors, remind me of my yoga studio,50,20,20","Disturbing, land meets ocean, lvoely really.,43,320,20","I like how the colors blend together like a beautiful sunset.,25,400,20","ocean and rocks at the beach,11,200,20","Pretty, good colors,30,60,20","Emma","Pretty, good colors,30,60,20","Ashley","Disturbing, land meets ocean, lvoely really.,43,320,20","Jessica","I like how the colors blend together like a beautiful sunset.,25,400,20","8"
"23234","","survey-text","256","992752","0.0-252.0-0.0","A2BF7JF6NROA0T","","","","{""Q0"":""looks like a tree in bloom, very pretty""}","","","","","","","","","","","","","","","","","","","","","","",""
"2208","","image-slider-response","257","994963","0.0-253.0","A2BF7JF6NROA0T","","","","","30","","","","","","","","","","","","","","","","","","","","","",""
"3917","","image-button-response","258","999970","0.0-254.0","A2BF7JF6NROA0T","img_art/14.jpg","0","","","","","","","","","","","","","","","","","","","","","","","","",""
"1134","","image-button-response","259","1001107","0.0-255.0","A2BF7JF6NROA0T","img_art/14.jpg","0","","","","","","","","","","","","","","","","","","","","","","","","",""
"2898","","image-button-response","260","1004008","0.0-256.0-0.0","A2BF7JF6NROA0T","img_art/14.jpg","3","","","","","","","","","","","","","","","","","","","","","","","","",""
"1186","","image-button-response","261","1005198","0.0-257.0-0.0","A2BF7JF6NROA0T","img_art/14.jpg","1","","","","","","","","","","","","","","","","","","","","","","","","",""
"null","","html-keyboard-response","262","1005701","0.0-258.0","A2BF7JF6NROA0T","<p style=""font-size: 48px;"">+</p>","","","","","null","allTrialResponses","500","1","30","img_art/14.jpg","30","looks like a tree in bloom, very pretty","Kayla,Courtney,Ashley,Jessica,Mikayla,Emma","I like that it looks like plants on a table, which reminds me of life.,4,180,20","The pirates ship is sinking.,27,280,20","I like the color tone, it's kind of disturbing.,35,320,20","I kind of like it!,6,400,20","The red looks like blood and im not a huge fan,15,300,20","Don't love it.,-10,60,20","Kayla","I like that it looks like plants on a table, which reminds me of life.,4,180,20","Jessica","I kind of like it!,6,400,20","Courtney","The pirates ship is sinking.,27,280,20","8"
"2507","","image-button-response_instructions","263","1008218","0.0-259.0","A2BF7JF6NROA0T","","0","instructions","","","","","","","","","","","","","","","","","","","","","","","",""
"1326","","image-button-response","264","1009551","0.0-260.0","A2BF7JF6NROA0T","","0","","","","","","","","","","","","","","","","","","","","","","","","",""
