"rt","url","trial_type","trial_index","time_elapsed","internal_node_id","participant_id","stimulus","button_pressed","Name","responses","response","key_press","variableName","fixationTime","condition","trial","photo","subjectRating","subjectResponse","agentsNames","agent_1_Response","agent_2_Response","agent_3_Response","agent_4_Response","agent_5_Response","agent_6_Response","kept_1_name","kept_1_response","kept_2_name","kept_2_response","kept_3_name","kept_3_response","errorCounter"
"166901","external_page_harvard.html","external-html","0","166944","0.0-0.0","A2BK9RMC0NOIH8","","","","","","","","","","","","","","","","","","","","","","","","","","",""
"2933","","image-button-response","1","169879","0.0-1.0","A2BK9RMC0NOIH8","","0","","","","","","","","","","","","","","","","","","","","","","","","",""
"2460","","image-button-response","2","172344","0.0-2.0-0.0","A2BK9RMC0NOIH8","","1","phone","","","","","","","","","","","","","","","","","","","","","","","",""
"7688","","survey-text","3","180034","0.0-3.0-0.0","A2BK9RMC0NOIH8","","","","{""Q0"":""A2BK9RMC0NOIH8""}","","","","","","","","","","","","","","","","","","","","","","",""
"7789","","image-button-response_instructions","4","187824","0.0-4.0","A2BK9RMC0NOIH8","","0","instructions","","","","","","","","","","","","","","","","","","","","","","","",""
"20513","","image-button-response_instructions","5","208339","0.0-5.0","A2BK9RMC0NOIH8","img_art/ins/popularity/ins1.png","0","instructions","","","","","","","","","","","","","","","","","","","","","","","",""
"9349","","image-button-response_instructions","6","217688","0.0-6.0","A2BK9RMC0NOIH8","img_art/ins/popularity/ins2.png","0","instructions","","","","","","","","","","","","","","","","","","","","","","","",""
"9933","","image-button-response_instructions","7","227623","0.0-7.0","A2BK9RMC0NOIH8","img_art/ins/popularity/ins2Extreme.png","0","instructions","","","","","","","","","","","","","","","","","","","","","","","",""
"16276","","image-button-response_instructions","8","243899","0.0-8.0","A2BK9RMC0NOIH8","img_art/ins/popularity/ins3KEEPpop.PNG","0","instructions","","","","","","","","","","","","","","","","","","","","","","","",""
"5075","","image-button-response_instructions","9","248976","0.0-9.0","A2BK9RMC0NOIH8","img_art/ins/popularity/ins3ANamepop.PNG","0","instructions","","","","","","","","","","","","","","","","","","","","","","","",""
"7469","","image-button-response_instructions","10","256445","0.0-10.0","A2BK9RMC0NOIH8","img_art/ins/popularity/ins3ARatingpop.png","0","instructions","","","","","","","","","","","","","","","","","","","","","","","",""
"4470","","image-button-response_instructions","11","260917","0.0-11.0","A2BK9RMC0NOIH8","img_art/ins/popularity/ins3ATextpop.png","0","instructions","","","","","","","","","","","","","","","","","","","","","","","",""
"9134","","image-button-response_instructions","12","270051","0.0-12.0","A2BK9RMC0NOIH8","img_art/ins/popularity/ins3ALikespop.png","0","instructions","","","","","","","","","","","","","","","","","","","","","","","",""
"14685","","image-button-response_instructions","13","284737","0.0-13.0","A2BK9RMC0NOIH8","img_art/ins/popularity/ins3KEEPpop.PNG","0","instructions","","","","","","","","","","","","","","","","","","","","","","","",""
"10936","","image-button-response_instructions","14","295675","0.0-14.0","A2BK9RMC0NOIH8","img_art/ins/popularity/ins3_5RED.png","0","instructions","","","","","","","","","","","","","","","","","","","","","","","",""
"7705","","image-button-response_instructions","15","303381","0.0-15.0","A2BK9RMC0NOIH8","img_art/ins/popularity/ins3KEEPpop.PNG","0","instructions","","","","","","","","","","","","","","","","","","","","","","","",""
"11956","","image-button-response_instructions","16","315339","0.0-16.0","A2BK9RMC0NOIH8","img_art/ins/popularity/ins4KEEPpop.PNG","0","instructions","","","","","","","","","","","","","","","","","","","","","","","",""
"7276","","image-button-response_instructions","17","322616","0.0-17.0","A2BK9RMC0NOIH8","img_art/ins/popularity/ins5KEEPpop.PNG","0","instructions","","","","","","","","","","","","","","","","","","","","","","","",""
"3265","","image-button-response_instructions","18","325881","0.0-18.0","A2BK9RMC0NOIH8","","0","instructions","","","","","","","","","","","","","","","","","","","","","","","",""
"9896","","survey-text","19","335795","0.0-19.0-0.0","A2BK9RMC0NOIH8","","","","{""Q0"":""but""}","","","","","","","","","","","","","","","","","","","","","","",""
"42056","","survey-text","20","377853","0.0-20.0-0.0","A2BK9RMC0NOIH8","","","","{""Q0"":""The colors remind me of graffiti.""}","","","","","","","","","","","","","","","","","","","","","","",""
"6159","","image-slider-response","21","384014","0.0-21.0","A2BK9RMC0NOIH8","","","","","-1","","","","","","","","","","","","","","","","","","","","","",""
"null","","image-button-response","22","389027","0.0-22.0","A2BK9RMC0NOIH8","img_art/ins/1.jpg","null","","","","","","","","","","","","","","","","","","","","","","","","",""
"12962","","image-button-response","23","401992","0.0-23.0","A2BK9RMC0NOIH8","img_art/ins/1.jpg","1","","","","","","","","","","","","","","","","","","","","","","","","",""
"3022","","image-button-response","24","405017","0.0-24.0-0.0","A2BK9RMC0NOIH8","img_art/ins/1.jpg","0","","","","","","","","","","","","","","","","","","","","","","","","",""
"3999","","image-button-response","25","409018","0.0-25.0-0.0","A2BK9RMC0NOIH8","img_art/ins/1.jpg","0","","","","","","","","","","","","","","","","","","","","","","","","",""
"1113","","image-button-response","26","415989","0.0-25.1-0.1","A2BK9RMC0NOIH8","img_art/ins/1.jpg","3","","","","","","","","","","","","","","","","","","","","","","","","",""
"null","","html-keyboard-response","27","416491","0.0-26.0","A2BK9RMC0NOIH8","<p style=""font-size: 48px;"">+</p>","","","","","null","allTrialResponses","500","1","-2","img_art/ins/1.jpg","-1","The colors remind me of graffiti.","Adam,Alex,Ben,Carl,Daniel,Jack","Seems like doodles,-20,20,20","very creative work.,36,40,20","This color reminds me of poo,-46,60,20","very calming artwork,42,80,20","It looks like a murder scene.,-48,100,20","I like the sophisticated brushwork,40,120,20","Alex","very creative work.,36,40,20","Adam","Seems like doodles,-20,20,20","Carl","very calming artwork,42,80,20","2"
"45187","","survey-text","28","461687","0.0-27.0-0.0","A2BK9RMC0NOIH8","","","","{""Q0"":""The colors look vibrant and sharp.""}","","","","","","","","","","","","","","","","","","","","","","",""
"4696.799999982119","","image-slider-response","29","466386","0.0-28.0","A2BK9RMC0NOIH8","","","","","37","","","","","","","","","","","","","","","","","","","","","",""
"null","","image-button-response","30","471401","0.0-29.0","A2BK9RMC0NOIH8","img_art/ins/2.jpg","null","","","","","","","","","","","","","","","","","","","","","","","","",""
"4294","","image-button-response","31","475696","0.0-30.0","A2BK9RMC0NOIH8","img_art/ins/2.jpg","1","","","","","","","","","","","","","","","","","","","","","","","","",""
"4676","","image-button-response","32","480374","0.0-31.0-0.0","A2BK9RMC0NOIH8","img_art/ins/2.jpg","4","","","","","","","","","","","","","","","","","","","","","","","","",""
"3017","","image-button-response","33","483392","0.0-32.0-0.0","A2BK9RMC0NOIH8","img_art/ins/2.jpg","3","","","","","","","","","","","","","","","","","","","","","","","","",""
"null","","html-keyboard-response","34","483894","0.0-33.0","A2BK9RMC0NOIH8","<p style=""font-size: 48px;"">+</p>","","","","","null","allTrialResponses","500","1","-1","img_art/ins/2.jpg","37","The colors look vibrant and sharp.","Adam,Alex,James,Carl,John,Kyle","too much color,-18,20,20","I like the blocks of color arrangements,30,40,20","looks too angry,-50,140,20","I can feel the artist's passion in it,45,80,20","love the texture of paint,48,160,20","Idk, it is just annoying,-32,180,20","Alex","I like the blocks of color arrangements,30,40,20","John","love the texture of paint,48,160,20","Carl","I can feel the artist's passion in it,45,80,20","2"
"52089","","survey-text","35","535987","0.0-34.0-0.0","A2BK9RMC0NOIH8","","","","{""Q0"":""The different shades of blue complement each other.""}","","","","","","","","","","","","","","","","","","","","","","",""
"4587.5","","image-slider-response","36","540576","0.0-35.0","A2BK9RMC0NOIH8","","","","","28","","","","","","","","","","","","","","","","","","","","","",""
"2870","","image-button-response","37","545579","0.0-36.0","A2BK9RMC0NOIH8","img_art/ins/3.jpg","0","","","","","","","","","","","","","","","","","","","","","","","","",""
"768","","image-button-response","38","546349","0.0-37.0","A2BK9RMC0NOIH8","img_art/ins/3.jpg","0","","","","","","","","","","","","","","","","","","","","","","","","",""
"4405","","image-button-response","39","550756","0.0-38.0-0.0","A2BK9RMC0NOIH8","img_art/ins/3.jpg","1","","","","","","","","","","","","","","","","","","","","","","","","",""
"12176","","image-button-response","40","562934","0.0-39.0-0.0","A2BK9RMC0NOIH8","img_art/ins/3.jpg","3","","","","","","","","","","","","","","","","","","","","","","","","",""
"null","","html-keyboard-response","41","564436","0.0-40.0","A2BK9RMC0NOIH8","<p style=""font-size: 48px;"">+</p>","","","","","null","allTrialResponses","1500","1","0","img_art/ins/3.jpg","28","The different shades of blue complement each other.","Mike,Alex,Ron,Carl,John,Sam","enjoy the different shades of blue,22,200,20","calming blue is very nice,36,40,20","It looks depressing,-26,220,20","It's an alright work,15,80,20","I like the overlapping of brushes,41,160,20","I can feel a rainy day from this painting,18,240,20","Mike","enjoy the different shades of blue,22,200,20","Alex","calming blue is very nice,36,40,20","Carl","It's an alright work,15,80,20","2"
"14267","","image-button-response_instructions","42","578705","0.0-41.0","A2BK9RMC0NOIH8","","0","instructions","","","","","","","","","","","","","","","","","","","","","","","",""
"23581","","survey-likert","43","602288","0.0-42.0-0.0","A2BK9RMC0NOIH8","","","","{""Q0"":"""",""Q1"":0,""Q2"":1}","","","","","","","","","","","","","","","","","","","","","","",""
"9396","","survey-text","44","611688","0.0-43.0-0.0","A2BK9RMC0NOIH8","","","","{""Q0"":""rock""}","","","","","","","","","","","","","","","","","","","","","","",""
"32180","","survey-text","45","643870","0.0-44.0-0.0","A2BK9RMC0NOIH8","","","","{""Q0"":""The painting reminds me of clouds""}","","","","","","","","","","","","","","","","","","","","","","",""
"2723","","image-slider-response","46","646595","0.0-45.0","A2BK9RMC0NOIH8","","","","","14","","","","","","","","","","","","","","","","","","","","","",""
"null","","image-button-response","47","651612","0.0-46.0","A2BK9RMC0NOIH8","img_art/21.jpg","null","","","","","","","","","","","","","","","","","","","","","","","","",""
"2231","","image-button-response","48","653843","0.0-47.0","A2BK9RMC0NOIH8","img_art/21.jpg","2","","","","","","","","","","","","","","","","","","","","","","","","",""
"3748","","image-button-response","49","657593","0.0-48.0-0.0","A2BK9RMC0NOIH8","img_art/21.jpg","3","","","","","","","","","","","","","","","","","","","","","","","","",""
"7169","","image-button-response","50","664763","0.0-49.0-0.0","A2BK9RMC0NOIH8","img_art/21.jpg","4","","","","","","","","","","","","","","","","","","","","","","","","",""
"null","","html-keyboard-response","51","665769","0.0-50.0","A2BK9RMC0NOIH8","<p style=""font-size: 48px;"">+</p>","","","","","null","allTrialResponses","1000","1","1","img_art/21.jpg","14","The painting reminds me of clouds","Nathan,Jorge,Mason,Peter,Taylor,Bryce","I like it. It's some of war-scene, bloodshed and battle on the left, field of dispair on the right, dark and rich,40,200,20","mythical between good and evil,16,180,20","Don't know why I like it, cant describe, maybe many landscapes?,47,100,20","I like the two sides meeting, like a movie scene,15,320,20","Remove the rocks(?) on the lower right.,5,200,20","Nothing exciting in this one.,-36,20,20","Mason","Don't know why I like it, cant describe, maybe many landscapes?,47,100,20","Peter","I like the two sides meeting, like a movie scene,15,320,20","Taylor","Remove the rocks(?) on the lower right.,5,200,20","2"
"38760","","survey-text","52","704531","0.0-51.0-0.0","A2BK9RMC0NOIH8","","","","{""Q0"":""It reminds me of sand and sea shells""}","","","","","","","","","","","","","","","","","","","","","","",""
"4586.299999982119","","image-slider-response","53","709118","0.0-52.0","A2BK9RMC0NOIH8","","","","","17","","","","","","","","","","","","","","","","","","","","","",""
"null","","image-button-response","54","714135","0.0-53.0","A2BK9RMC0NOIH8","img_art/7.jpg","null","","","","","","","","","","","","","","","","","","","","","","","","",""
"2194","","image-button-response","55","716332","0.0-54.0","A2BK9RMC0NOIH8","img_art/7.jpg","3","","","","","","","","","","","","","","","","","","","","","","","","",""
"14505","","image-button-response","56","730839","0.0-55.0-0.0","A2BK9RMC0NOIH8","img_art/7.jpg","1","","","","","","","","","","","","","","","","","","","","","","","","",""
"4218","","image-button-response","57","735059","0.0-56.0-0.0","A2BK9RMC0NOIH8","img_art/7.jpg","2","","","","","","","","","","","","","","","","","","","","","","","","",""
"null","","html-keyboard-response","58","735574","0.0-57.0","A2BK9RMC0NOIH8","<p style=""font-size: 48px;"">+</p>","","","","","null","allTrialResponses","500","1","2","img_art/7.jpg","17","It reminds me of sand and sea shells","Jeffrey,Vincent,Mason,Peter,Taylor,Ian","No not cause many emotions,1,40,20","One I would love to own . Calm relaxing spiritual and full of love,41,360,20","I don't get it. looks like a picture of the ground.,-42,100,20","It's just like sand from the beach,2,320,20","Looks like a photo taken from the moon.,-6,200,20","This looks like a literal picture of the ground so I'm really not too sure about this one.,-42,260,20","Peter","It's just like sand from the beach,2,320,20","Vincent","One I would love to own . Calm relaxing spiritual and full of love,41,360,20","Mason","I don't get it. looks like a picture of the ground.,-42,100,20","2"
"40752","","survey-text","59","776330","0.0-58.0-0.0","A2BK9RMC0NOIH8","","","","{""Q0"":""It reminds me of graffiti with an artistic edge""}","","","","","","","","","","","","","","","","","","","","","","",""
"3717.0999999940395","","image-slider-response","60","780049","0.0-59.0","A2BK9RMC0NOIH8","","","","","4","","","","","","","","","","","","","","","","","","","","","",""
"null","","image-button-response","61","785059","0.0-60.0","A2BK9RMC0NOIH8","img_art/29.jpg","null","","","","","","","","","","","","","","","","","","","","","","","","",""
"8998","","image-button-response","62","794061","0.0-61.0","A2BK9RMC0NOIH8","img_art/29.jpg","3","","","","","","","","","","","","","","","","","","","","","","","","",""
"3054","","image-button-response","63","797117","0.0-62.0-0.0","A2BK9RMC0NOIH8","img_art/29.jpg","4","","","","","","","","","","","","","","","","","","","","","","","","",""
"6005","","image-button-response","64","803124","0.0-63.0-0.0","A2BK9RMC0NOIH8","img_art/29.jpg","2","","","","","","","","","","","","","","","","","","","","","","","","",""
"null","","html-keyboard-response","65","804632","0.0-64.0","A2BK9RMC0NOIH8","<p style=""font-size: 48px;"">+</p>","","","","","null","allTrialResponses","1500","1","3","img_art/29.jpg","4","It reminds me of graffiti with an artistic edge","Connor,Vincent,Mason,Peter,Edward,Brett","Red X is scary, like the bricks,7,240,20","Another great work of art and very conversational piece,33,360,20","easy, too abstract for me, don't get it.,-25,100,20","Looks like a jail cell,-15,320,20","Like a crime scene. It's neat and different,30,60,20","Reminds me of graffitti gone wrong,15,360,20","Peter","Looks like a jail cell,-15,320,20","Edward","Like a crime scene. It's neat and different,30,60,20","Mason","easy, too abstract for me, don't get it.,-25,100,20","2"
"46945","","survey-text","66","851581","0.0-65.0-0.0","A2BK9RMC0NOIH8","","","","{""Q0"":""It reminds me of a cartoon fruit""}","","","","","","","","","","","","","","","","","","","","","","",""
"3965.9000000059605","","image-slider-response","67","855549","0.0-66.0","A2BK9RMC0NOIH8","","","","","-5","","","","","","","","","","","","","","","","","","","","","",""
"null","","image-button-response","68","860554","0.0-67.0","A2BK9RMC0NOIH8","img_art/5.jpg","null","","","","","","","","","","","","","","","","","","","","","","","","",""
"1634","","image-button-response","69","862189","0.0-68.0","A2BK9RMC0NOIH8","img_art/5.jpg","1","","","","","","","","","","","","","","","","","","","","","","","","",""
"4462","","image-button-response","70","866653","0.0-69.0-0.0","A2BK9RMC0NOIH8","img_art/5.jpg","3","","","","","","","","","","","","","","","","","","","","","","","","",""
"4233","","image-button-response","71","870887","0.0-70.0-0.0","A2BK9RMC0NOIH8","img_art/5.jpg","4","","","","","","","","","","","","","","","","","","","","","","","","",""
"null","","html-keyboard-response","72","871397","0.0-71.0","A2BK9RMC0NOIH8","<p style=""font-size: 48px;"">+</p>","","","","","null","allTrialResponses","500","1","4","img_art/5.jpg","-5","It reminds me of a cartoon fruit","Dakota,Brandon,Mason,Peter,Edward,Scott","fresh and fun - bright and active,16,280,20","Kindergarten art. I really don't like this style.,-50,320,20","pointless, ugly, not creative.,-50,100,20","Bright and sunny,19,320,20","Pretty simple, I'm not sure what it's supposed to mean,14,60,20","I like it but I don't know why,15,20,20","Brandon","Kindergarten art. I really don't like this style.,-50,320,20","Peter","Bright and sunny,19,320,20","Edward","Pretty simple, I'm not sure what it's supposed to mean,14,60,20","2"
"54146","","survey-text","73","925546","0.0-72.0-0.0","A2BK9RMC0NOIH8","","","","{""Q0"":""I like the colors and shades""}","","","","","","","","","","","","","","","","","","","","","","",""
"2522.699999988079","","image-slider-response","74","928070","0.0-73.0","A2BK9RMC0NOIH8","","","","","16","","","","","","","","","","","","","","","","","","","","","",""
"4263","","image-button-response","75","933083","0.0-74.0","A2BK9RMC0NOIH8","img_art/1.jpg","0","","","","","","","","","","","","","","","","","","","","","","","","",""
"3501","","image-button-response","76","936588","0.0-75.0","A2BK9RMC0NOIH8","img_art/1.jpg","0","","","","","","","","","","","","","","","","","","","","","","","","",""
"862","","image-button-response","77","937452","0.0-76.0-0.0","A2BK9RMC0NOIH8","img_art/1.jpg","1","","","","","","","","","","","","","","","","","","","","","","","","",""
"5443","","image-button-response","78","942897","0.0-77.0-0.0","A2BK9RMC0NOIH8","img_art/1.jpg","3","","","","","","","","","","","","","","","","","","","","","","","","",""
"null","","html-keyboard-response","79","944412","0.0-78.0","A2BK9RMC0NOIH8","<p style=""font-size: 48px;"">+</p>","","","","","null","allTrialResponses","1500","1","5","img_art/1.jpg","16","I like the colors and shades","Stephen,Brandon,Paul,Peter,Edward,Bradley","Nothing really going on but good color choices.,-3,140,20","Taco Bell wallpaper. Doesn't really make me feel anything,3,320,20","I like the yellow and purple but the large red spot reminds me of blood and isn't great,6,300,20","Nothing whatsoever,2,320,20","That one piece in the middle gives it depth and it's really neat,21,60,20","This is a great piece that has a lot more going on the longer you look at it. I like it!,30,300,20","Stephen","Nothing really going on but good color choices.,-3,140,20","Brandon","Taco Bell wallpaper. Doesn't really make me feel anything,3,320,20","Peter","Nothing whatsoever,2,320,20","2"
"5911","","survey-text","80","950328","0.0-79.0-0.0","A2BK9RMC0NOIH8","","","","{""Q0"":""sky""}","","","","","","","","","","","","","","","","","","","","","","",""
"38772","","survey-text","81","989102","0.0-80.0-0.0","A2BK9RMC0NOIH8","","","","{""Q0"":""I like the shapes it remind me of a busy city""}","","","","","","","","","","","","","","","","","","","","","","",""
"5529.699999988079","","image-slider-response","82","994633","0.0-81.0","A2BK9RMC0NOIH8","","","","","25","","","","","","","","","","","","","","","","","","","","","",""
"null","","image-button-response","83","999634","0.0-82.0","A2BK9RMC0NOIH8","img_art/19.jpg","null","","","","","","","","","","","","","","","","","","","","","","","","",""
"1603","","image-button-response","84","1001239","0.0-83.0","A2BK9RMC0NOIH8","img_art/19.jpg","0","","","","","","","","","","","","","","","","","","","","","","","","",""
"3513","","image-button-response","85","1004754","0.0-84.0-0.0","A2BK9RMC0NOIH8","img_art/19.jpg","2","","","","","","","","","","","","","","","","","","","","","","","","",""
"2915","","image-button-response","86","1007671","0.0-85.0-0.0","A2BK9RMC0NOIH8","img_art/19.jpg","3","","","","","","","","","","","","","","","","","","","","","","","","",""
"null","","html-keyboard-response","87","1008682","0.0-86.0","A2BK9RMC0NOIH8","<p style=""font-size: 48px;"">+</p>","","","","","null","allTrialResponses","1000","1","6","img_art/19.jpg","25","I like the shapes it remind me of a busy city","Stephen,Brandon,Dylan,Peter,John,Garrett","Solid use of colors but wished it looked more realistic.,12,140,20","Not a fan of the blobbiness,-22,320,20","This photo has too much going on.,-19,40,20","Looks like hustle and bustle ,,3,320,20","There's alot of elements to it bordering on clutter and chaotic,-20,120,20","This looks like a bunch of weird blobs and the colors don't go great together.,-10,180,20","Stephen","Solid use of colors but wished it looked more realistic.,12,140,20","Dylan","This photo has too much going on.,-19,40,20","Peter","Looks like hustle and bustle ,,3,320,20","2"
"37531","","survey-text","88","1046217","0.0-87.0-0.0","A2BK9RMC0NOIH8","","","","{""Q0"":""The colors remind me of anime""}","","","","","","","","","","","","","","","","","","","","","","",""
"2782.100000023842","","image-slider-response","89","1049000","0.0-88.0","A2BK9RMC0NOIH8","","","","","8","","","","","","","","","","","","","","","","","","","","","",""
"null","","image-button-response","90","1054004","0.0-89.0","A2BK9RMC0NOIH8","img_art/18.jpg","null","","","","","","","","","","","","","","","","","","","","","","","","",""
"4504","","image-button-response","91","1058509","0.0-90.0","A2BK9RMC0NOIH8","img_art/18.jpg","1","","","","","","","","","","","","","","","","","","","","","","","","",""
"4158","","image-button-response","92","1062669","0.0-91.0-0.0","A2BK9RMC0NOIH8","img_art/18.jpg","4","","","","","","","","","","","","","","","","","","","","","","","","",""
"7417","","image-button-response","93","1070087","0.0-92.0-0.0","A2BK9RMC0NOIH8","img_art/18.jpg","5","","","","","","","","","","","","","","","","","","","","","","","","",""
"null","","html-keyboard-response","94","1071089","0.0-93.0","A2BK9RMC0NOIH8","<p style=""font-size: 48px;"">+</p>","","","","","null","allTrialResponses","1000","1","7","img_art/18.jpg","8","The colors remind me of anime","Stephen,Thomas,Dylan,Peter,Victor,Steven","Too abstract to me,-30,140,20","I could stare at this for long stretches of time and still find new details. I love it.,40,220,20","Ugly, too much is going on,-40,40,20","I'm not partial to the design, unsettling,2,320,20","nice balance of color. The different sizes and types of strokes give a lot to look at,18,340,20","Oh heck yes! I see two warriors riding down from valhalla, awesome painting,50,160,20","Thomas","I could stare at this for long stretches of time and still find new details. I love it.,40,220,20","Victor","nice balance of color. The different sizes and types of strokes give a lot to look at,18,340,20","Steven","Oh heck yes! I see two warriors riding down from valhalla, awesome painting,50,160,20","2"
"24332","","survey-text","95","1095428","0.0-94.0-0.0","A2BK9RMC0NOIH8","","","","{""Q0"":""This looks simple yet beautiful""}","","","","","","","","","","","","","","","","","","","","","","",""
"4881.5999999940395","","image-slider-response","96","1100311","0.0-95.0","A2BK9RMC0NOIH8","","","","","24","","","","","","","","","","","","","","","","","","","","","",""
"null","","image-button-response","97","1105328","0.0-96.0","A2BK9RMC0NOIH8","img_art/6.jpg","null","","","","","","","","","","","","","","","","","","","","","","","","",""
"1901","","image-button-response","98","1107230","0.0-97.0","A2BK9RMC0NOIH8","img_art/6.jpg","1","","","","","","","","","","","","","","","","","","","","","","","","",""
"2247","","image-button-response","99","1109479","0.0-98.0-0.0","A2BK9RMC0NOIH8","img_art/6.jpg","2","","","","","","","","","","","","","","","","","","","","","","","","",""
"9483","","image-button-response","100","1118964","0.0-99.0-0.0","A2BK9RMC0NOIH8","img_art/6.jpg","3","","","","","","","","","","","","","","","","","","","","","","","","",""
"null","","html-keyboard-response","101","1119465","0.0-100.0","A2BK9RMC0NOIH8","<p style=""font-size: 48px;"">+</p>","","","","","null","allTrialResponses","500","1","8","img_art/6.jpg","24","This looks simple yet beautiful","Cody,Thomas,Colton,Benjamin,Victor,Steven","Birds are cool but I don't love it,10,180,20","I like the color and the gradient,10,220,20","very minimalistic,22,220,20","Something very simplistic about it. The colors mesh well.,10,260,20","The background on the upper half is nice. I also like the contrast of the top and bottom halves,5,340,20","This is interesting, I feel solitude, and loneliness from this.,13,160,20","Thomas","I like the color and the gradient,10,220,20","Colton","very minimalistic,22,220,20","Benjamin","Something very simplistic about it. The colors mesh well.,10,260,20","2"
"83607","","survey-text","102","1203080","0.0-101.0-0.0","A2BK9RMC0NOIH8","","","","{""Q0"":""I like the contrast of the right angles and squiggly lines""}","","","","","","","","","","","","","","","","","","","","","","",""
"4870.199999988079","","image-slider-response","103","1207951","0.0-102.0","A2BK9RMC0NOIH8","","","","","13","","","","","","","","","","","","","","","","","","","","","",""
"null","","image-button-response","104","1212967","0.0-103.0","A2BK9RMC0NOIH8","img_art/17.jpg","null","","","","","","","","","","","","","","","","","","","","","","","","",""
"544","","image-button-response","105","1213513","0.0-104.0","A2BK9RMC0NOIH8","img_art/17.jpg","0","","","","","","","","","","","","","","","","","","","","","","","","",""
"5900","","image-button-response","106","1219415","0.0-105.0-0.0","A2BK9RMC0NOIH8","img_art/17.jpg","1","","","","","","","","","","","","","","","","","","","","","","","","",""
"2594","","image-button-response","107","1222011","0.0-106.0-0.0","A2BK9RMC0NOIH8","img_art/17.jpg","4","","","","","","","","","","","","","","","","","","","","","","","","",""
"null","","html-keyboard-response","108","1223526","0.0-107.0","A2BK9RMC0NOIH8","<p style=""font-size: 48px;"">+</p>","","","","","null","allTrialResponses","1500","1","9","img_art/17.jpg","13","I like the contrast of the right angles and squiggly lines","Anthony,Thomas,Colton,Benjamin,Noah,Jordan","Very elegant, this design reminds me of trees,31,200,20","Colors and composition are beautiful. I would hang this in my home.,50,220,20","its whimsical and light,50,220,20","Don't really like pastels.,-10,260,20","feel close to nature,30,260,20","Really love the branches. The bottom made it not perfect,42,160,20","Anthony","Very elegant, this design reminds me of trees,31,200,20","Thomas","Colors and composition are beautiful. I would hang this in my home.,50,220,20","Noah","feel close to nature,30,260,20","2"
"46602","","survey-text","109","1270134","0.0-108.0-0.0","A2BK9RMC0NOIH8","","","","{""Q0"":""I like the colors it remind me of the 90s""}","","","","","","","","","","","","","","","","","","","","","","",""
"5612.9000000059605","","image-slider-response","110","1275749","0.0-109.0","A2BK9RMC0NOIH8","","","","","31","","","","","","","","","","","","","","","","","","","","","",""
"null","","image-button-response","111","1280756","0.0-110.0","A2BK9RMC0NOIH8","img_art/23.jpg","null","","","","","","","","","","","","","","","","","","","","","","","","",""
"1156","","image-button-response","112","1281914","0.0-111.0","A2BK9RMC0NOIH8","img_art/23.jpg","1","","","","","","","","","","","","","","","","","","","","","","","","",""
"3800","","image-button-response","113","1285716","0.0-112.0-0.0","A2BK9RMC0NOIH8","img_art/23.jpg","4","","","","","","","","","","","","","","","","","","","","","","","","",""
"5749","","image-button-response","114","1291467","0.0-113.0-0.0","A2BK9RMC0NOIH8","img_art/23.jpg","5","","","","","","","","","","","","","","","","","","","","","","","","",""
"null","","html-keyboard-response","115","1291974","0.0-114.0","A2BK9RMC0NOIH8","<p style=""font-size: 48px;"">+</p>","","","","","null","allTrialResponses","500","1","10","img_art/23.jpg","31","I like the colors it remind me of the 90s","Anthony,Thomas,Kevin,Eric,Noah,Trevor","The cluster of white silhouettes against the colorful background makes me feel uneasy for some reason,-36,200,20","Beautiful. Very detailed and colorful. I enjoy looking at it.,50,220,20","Looks like fish fossils,12,320,20","The piece seems chaotic, and I dislike the random pop of white within so many colors.,-10,100,20","the pattern of colours imbues in me a sense of infinity, which I find soothing,10,260,20","nice bright colors but looks like it's from the 90's,6,280,20","Thomas","Beautiful. Very detailed and colorful. I enjoy looking at it.,50,220,20","Noah","the pattern of colours imbues in me a sense of infinity, which I find soothing,10,260,20","Trevor","nice bright colors but looks like it's from the 90's,6,280,20","2"
"11354","","survey-text","116","1303333","0.0-115.0-0.0","A2BK9RMC0NOIH8","","","","{""Q0"":""our""}","","","","","","","","","","","","","","","","","","","","","","",""
"55437","","survey-text","117","1358771","0.0-116.0-0.0","A2BK9RMC0NOIH8","","","","{""Q0"":""It reminds me of gray skies with clothing on the line""}","","","","","","","","","","","","","","","","","","","","","","",""
"4043.5","","image-slider-response","118","1362816","0.0-117.0","A2BK9RMC0NOIH8","","","","","7","","","","","","","","","","","","","","","","","","","","","",""
"null","","image-button-response","119","1367818","0.0-118.0","A2BK9RMC0NOIH8","img_art/11.jpg","null","","","","","","","","","","","","","","","","","","","","","","","","",""
"1247","","image-button-response","120","1369066","0.0-119.0","A2BK9RMC0NOIH8","img_art/11.jpg","0","","","","","","","","","","","","","","","","","","","","","","","","",""
"5222","","image-button-response","121","1374290","0.0-120.0-0.0","A2BK9RMC0NOIH8","img_art/11.jpg","3","","","","","","","","","","","","","","","","","","","","","","","","",""
"4403","","image-button-response","122","1378695","0.0-121.0-0.0","A2BK9RMC0NOIH8","img_art/11.jpg","4","","","","","","","","","","","","","","","","","","","","","","","","",""
"null","","html-keyboard-response","123","1380209","0.0-122.0","A2BK9RMC0NOIH8","<p style=""font-size: 48px;"">+</p>","","","","","null","allTrialResponses","1500","1","11","img_art/11.jpg","7","It reminds me of gray skies with clothing on the line","Chase,Thomas,Jack,Brendan,Noah,Trevor","It's too dark and dingy.,-30,120,20","Lovely. I could look at this for a really long time. I love the details and the composition.,40,220,20","makes me think of city highways & bridges on a rainy, foggy day. I like the melancholy it evokes.,43,320,20","i dont understand this painting,-1,340,20","I enjoy the kandinsky-like general vibe, but the grey brings me down a bit,27,260,20","I like how it looks like buildings but i'm not a fan of colors,20,280,20","Chase","It's too dark and dingy.,-30,120,20","Brendan","i dont understand this painting,-1,340,20","Noah","I enjoy the kandinsky-like general vibe, but the grey brings me down a bit,27,260,20","2"
"61581","","survey-text","124","1441793","0.0-123.0-0.0","A2BK9RMC0NOIH8","","","","{""Q0"":""It looks like it has elements of fingerpainting""}","","","","","","","","","","","","","","","","","","","","","","",""
"4597.699999988079","","image-slider-response","125","1446392","0.0-124.0","A2BK9RMC0NOIH8","","","","","3","","","","","","","","","","","","","","","","","","","","","",""
"null","","image-button-response","126","1451398","0.0-125.0","A2BK9RMC0NOIH8","img_art/27.jpg","null","","","","","","","","","","","","","","","","","","","","","","","","",""
"8039","","image-button-response","127","1459439","0.0-126.0","A2BK9RMC0NOIH8","img_art/27.jpg","5","","","","","","","","","","","","","","","","","","","","","","","","",""
"2690","","image-button-response","128","1462130","0.0-127.0-0.0","A2BK9RMC0NOIH8","img_art/27.jpg","0","","","","","","","","","","","","","","","","","","","","","","","","",""
"14302","","image-button-response","129","1476433","0.0-128.0-0.0","A2BK9RMC0NOIH8","img_art/27.jpg","0","","","","","","","","","","","","","","","","","","","","","","","","",""
"1952","","image-button-response","130","1482685","0.0-128.1-0.1","A2BK9RMC0NOIH8","img_art/27.jpg","2","","","","","","","","","","","","","","","","","","","","","","","","",""
"null","","html-keyboard-response","131","1483188","0.0-129.0","A2BK9RMC0NOIH8","<p style=""font-size: 48px;"">+</p>","","","","","null","allTrialResponses","500","1","12","img_art/27.jpg","3","It looks like it has elements of fingerpainting","Chase,Jose,William,Brendan,Noah,Malik","I don't really see anything to this art.,-5,120,20","it's like a weird version of heaven,16,200,20","reminds me of fall,33,380,20","nice firestorm on desert,23,340,20","I generally enjoy the style, but I'm finding the green lines grating,-9,260,20","Nice color, but too vague,-12,40,20","Malik","Nice color, but too vague,-12,40,20","Chase","I don't really see anything to this art.,-5,120,20","William","reminds me of fall,33,380,20","4"
"57208","","survey-text","132","1540407","0.0-130.0-0.0","A2BK9RMC0NOIH8","","","","{""Q0"":""I like the shapes and colors but to abstract for my taste""}","","","","","","","","","","","","","","","","","","","","","","",""
"3742.399999976158","","image-slider-response","133","1544150","0.0-131.0","A2BK9RMC0NOIH8","","","","","-7","","","","","","","","","","","","","","","","","","","","","",""
"null","","image-button-response","134","1549152","0.0-132.0","A2BK9RMC0NOIH8","img_art/8.jpg","null","","","","","","","","","","","","","","","","","","","","","","","","",""
"885","","image-button-response","135","1550038","0.0-133.0","A2BK9RMC0NOIH8","img_art/8.jpg","1","","","","","","","","","","","","","","","","","","","","","","","","",""
"9125","","image-button-response","136","1559165","0.0-134.0-0.0","A2BK9RMC0NOIH8","img_art/8.jpg","5","","","","","","","","","","","","","","","","","","","","","","","","",""
"5118","","image-button-response","137","1564285","0.0-135.0-0.0","A2BK9RMC0NOIH8","img_art/8.jpg","3","","","","","","","","","","","","","","","","","","","","","","","","",""
"null","","html-keyboard-response","138","1565291","0.0-136.0","A2BK9RMC0NOIH8","<p style=""font-size: 48px;"">+</p>","","","","","null","allTrialResponses","1000","1","13","img_art/8.jpg","-7","I like the shapes and colors but to abstract for my taste","Chase,Joshua,William,Dustin,Matthew,Malik","This is kind of neat. I really like how things are oriented and the shapes used.,18,120,20","I don't understand it. Makes no sense to me.,5,240,20","makes me think of a busy city,-18,380,20","I like the colors. But I don't like the faces, they look distraught. Faces and sharp shapes make me anxious,1,20,20","Escher? Dali? Could be their lovechild?,50,120,20","Striking, but not my taste,20,40,20","Joshua","I don't understand it. Makes no sense to me.,5,240,20","Malik","Striking, but not my taste,20,40,20","Dustin","I like the colors. But I don't like the faces, they look distraught. Faces and sharp shapes make me anxious,1,20,20","4"
"67035","","survey-text","139","1632330","0.0-137.0-0.0","A2BK9RMC0NOIH8","","","","{""Q0"":""It looks beautiful in a relaxing way""}","","","","","","","","","","","","","","","","","","","","","","",""
"3212.7999999821186","","image-slider-response","140","1635544","0.0-138.0","A2BK9RMC0NOIH8","","","","","14","","","","","","","","","","","","","","","","","","","","","",""
"3557","","image-button-response","141","1640547","0.0-139.0","A2BK9RMC0NOIH8","img_art/9.jpg","0","","","","","","","","","","","","","","","","","","","","","","","","",""
"3814","","image-button-response","142","1644362","0.0-140.0","A2BK9RMC0NOIH8","img_art/9.jpg","2","","","","","","","","","","","","","","","","","","","","","","","","",""
"2656","","image-button-response","143","1647020","0.0-141.0-0.0","A2BK9RMC0NOIH8","img_art/9.jpg","4","","","","","","","","","","","","","","","","","","","","","","","","",""
"1085","","image-button-response","144","1648107","0.0-142.0-0.0","A2BK9RMC0NOIH8","img_art/9.jpg","5","","","","","","","","","","","","","","","","","","","","","","","","",""
"null","","html-keyboard-response","145","1648611","0.0-143.0","A2BK9RMC0NOIH8","<p style=""font-size: 48px;"">+</p>","","","","","null","allTrialResponses","500","1","14","img_art/9.jpg","14","It looks beautiful in a relaxing way","Jesus,Joshua,Jonathan,Dustin,Logan,Malik","I enjoy the design, but the colors look waxy,-7,100,20","Someone lying in bed?  Don't care for it.,-14,240,20","It's peaceful and relaxing,24,140,20","I like the blues and pinks. The woman lying down communicates relaxation. It is a serene, calming scene,30,20,20","is that sleeping beauty,33,360,20","Colorful and expressive,15,40,20","Jonathan","It's peaceful and relaxing,24,140,20","Logan","is that sleeping beauty,33,360,20","Malik","Colorful and expressive,15,40,20","4"
"29366","","survey-text","146","1677983","0.0-144.0-0.0","A2BK9RMC0NOIH8","","","","{""Q0"":""I do not like it it reminds me of blood""}","","","","","","","","","","","","","","","","","","","","","","",""
"4038.399999976158","","image-slider-response","147","1682022","0.0-145.0","A2BK9RMC0NOIH8","","","","","-30","","","","","","","","","","","","","","","","","","","","","",""
"null","","image-button-response","148","1687026","0.0-146.0","A2BK9RMC0NOIH8","img_art/3.jpg","null","","","","","","","","","","","","","","","","","","","","","","","","",""
"5379","","image-button-response","149","1692407","0.0-147.0","A2BK9RMC0NOIH8","img_art/3.jpg","4","","","","","","","","","","","","","","","","","","","","","","","","",""
"1555","","image-button-response","150","1693964","0.0-148.0-0.0","A2BK9RMC0NOIH8","img_art/3.jpg","3","","","","","","","","","","","","","","","","","","","","","","","","",""
"10757","","image-button-response","151","1704722","0.0-149.0-0.0","A2BK9RMC0NOIH8","img_art/3.jpg","2","","","","","","","","","","","","","","","","","","","","","","","","",""
"null","","html-keyboard-response","152","1706232","0.0-150.0","A2BK9RMC0NOIH8","<p style=""font-size: 48px;"">+</p>","","","","","null","allTrialResponses","1500","1","15","img_art/3.jpg","-30","I do not like it it reminds me of blood","Hunter,Shawn,Jonathan,Shane,Logan,Malik","strong color, interesting negative shapes,21,240,20","Powerful lines but seems incomplete,-10,100,20","Something I'd paint when I'm mad. I feel that,20,140,20","Too much red or blood,-28,80,20","im just getting more agitated and less appreciative of art. I have absolutely no scale to base on,-34,360,20","Unaure what the artist  was doing, needs context,11,40,20","Logan","im just getting more agitated and less appreciative of art. I have absolutely no scale to base on,-34,360,20","Shane","Too much red or blood,-28,80,20","Jonathan","Something I'd paint when I'm mad. I feel that,20,140,20","4"
"9048","","survey-text","153","1715299","0.0-151.0-0.0","A2BK9RMC0NOIH8","","","","{""Q0"":""course""}","","","","","","","","","","","","","","","","","","","","","","",""
"35742","","survey-text","154","1751041","0.0-152.0-0.0","A2BK9RMC0NOIH8","","","","{""Q0"":""I like the brushstrokes and the colors""}","","","","","","","","","","","","","","","","","","","","","","",""
"5057.399999976158","","image-slider-response","155","1756100","0.0-153.0","A2BK9RMC0NOIH8","","","","","16","","","","","","","","","","","","","","","","","","","","","",""
"null","","image-button-response","156","1761105","0.0-154.0","A2BK9RMC0NOIH8","img_art/30.jpg","null","","","","","","","","","","","","","","","","","","","","","","","","",""
"4518","","image-button-response","157","1765625","0.0-155.0","A2BK9RMC0NOIH8","img_art/30.jpg","0","","","","","","","","","","","","","","","","","","","","","","","","",""
"2878","","image-button-response","158","1768504","0.0-156.0-0.0","A2BK9RMC0NOIH8","img_art/30.jpg","1","","","","","","","","","","","","","","","","","","","","","","","","",""
"15634","","image-button-response","159","1784140","0.0-157.0-0.0","A2BK9RMC0NOIH8","img_art/30.jpg","2","","","","","","","","","","","","","","","","","","","","","","","","",""
"null","","html-keyboard-response","160","1785648","0.0-158.0","A2BK9RMC0NOIH8","<p style=""font-size: 48px;"">+</p>","","","","","null","allTrialResponses","1500","1","16","img_art/30.jpg","16","I like the brushstrokes and the colors","Nathaniel,Dalton,Jonathan,Shane,Logan,Christian","No my favorite, but I do like the long strokes of color,11,220,20","beautiful paint brush strokes,1,300,20","I like the softness of this but it doesn't make me feel that nice,5,140,20","I like the back but the red lines in the front distress me,-7,80,20","literally stupid I made this with as seen on tv products when I was 7,-42,360,20","don't know but it somehow speaks to me,29,140,20","Nathaniel","No my favorite, but I do like the long strokes of color,11,220,20","Dalton","beautiful paint brush strokes,1,300,20","Jonathan","I like the softness of this but it doesn't make me feel that nice,5,140,20","4"
"116845","","survey-text","161","1902504","0.0-159.0-0.0","A2BK9RMC0NOIH8","","","","{""Q0"":""The colors reminds me of the desert ""}","","","","","","","","","","","","","","","","","","","","","","",""
"3810.5","","image-slider-response","162","1906316","0.0-160.0","A2BK9RMC0NOIH8","","","","","3","","","","","","","","","","","","","","","","","","","","","",""
"null","","image-button-response","163","1911324","0.0-161.0","A2BK9RMC0NOIH8","img_art/22.jpg","null","","","","","","","","","","","","","","","","","","","","","","","","",""
"940","","image-button-response","164","1912264","0.0-162.0","A2BK9RMC0NOIH8","img_art/22.jpg","1","","","","","","","","","","","","","","","","","","","","","","","","",""
"3739","","image-button-response","165","1916004","0.0-163.0-0.0","A2BK9RMC0NOIH8","img_art/22.jpg","2","","","","","","","","","","","","","","","","","","","","","","","","",""
"8616","","image-button-response","166","1924622","0.0-164.0-0.0","A2BK9RMC0NOIH8","img_art/22.jpg","5","","","","","","","","","","","","","","","","","","","","","","","","",""
"null","","html-keyboard-response","167","1925138","0.0-165.0","A2BK9RMC0NOIH8","<p style=""font-size: 48px;"">+</p>","","","","","null","allTrialResponses","500","1","17","img_art/22.jpg","3","The colors reminds me of the desert ","Nathaniel,Dalton,Jonathan,Devon,Zachary,Timothy","Looks like a giant blob,-45,220,20","i think its pretty but im not sure what i see,1,300,20","The warm and color colors together in this way feels exciting,39,140,20","This represents the hopes in my life.,21,400,20","I like the vivid colors.,11,400,20","This painting has a very nostalgic feel,20,240,20","Dalton","i think its pretty but im not sure what i see,1,300,20","Jonathan","The warm and color colors together in this way feels exciting,39,140,20","Timothy","This painting has a very nostalgic feel,20,240,20","4"
"66166","","survey-text","168","1991311","0.0-166.0-0.0","A2BK9RMC0NOIH8","","","","{""Q0"":""It reminds me of an abstract chessboard.""}","","","","","","","","","","","","","","","","","","","","","","",""
"4716.0999999940395","","image-slider-response","169","1996029","0.0-167.0","A2BK9RMC0NOIH8","","","","","8","","","","","","","","","","","","","","","","","","","","","",""
"null","","image-button-response","170","2001035","0.0-168.0","A2BK9RMC0NOIH8","img_art/12.jpg","null","","","","","","","","","","","","","","","","","","","","","","","","",""
"136","","image-button-response","171","2001172","0.0-169.0","A2BK9RMC0NOIH8","img_art/12.jpg","1","","","","","","","","","","","","","","","","","","","","","","","","",""
"4538","","image-button-response","172","2005712","0.0-170.0-0.0","A2BK9RMC0NOIH8","img_art/12.jpg","3","","","","","","","","","","","","","","","","","","","","","","","","",""
"8008","","image-button-response","173","2013722","0.0-171.0-0.0","A2BK9RMC0NOIH8","img_art/12.jpg","2","","","","","","","","","","","","","","","","","","","","","","","","",""
"null","","html-keyboard-response","174","2014729","0.0-172.0","A2BK9RMC0NOIH8","<p style=""font-size: 48px;"">+</p>","","","","","null","allTrialResponses","1000","1","18","img_art/12.jpg","8","It reminds me of an abstract chessboard.","Jake,Dalton,Jonathan,Bryan,Ethan,Timothy","It's strange looking and unappealing.,-4,360,20","beautiful also reminds me of a quilt,1,300,20","I like all the squares and the colors but it feels too cluttered to me,20,140,20","Love the colors & the abstractness.,31,400,20","The colors are ok. The piece reminds me of the 90s era, so I kinda like it!,-4,120,20","The shapes make me feel a bit uncomfortable,-10,240,20","Dalton","beautiful also reminds me of a quilt,1,300,20","Bryan","Love the colors & the abstractness.,31,400,20","Jonathan","I like all the squares and the colors but it feels too cluttered to me,20,140,20","4"
"83860","","survey-text","175","2098595","0.0-173.0-0.0","A2BK9RMC0NOIH8","","","","{""Q0"":""It looks like a colorful tree""}","","","","","","","","","","","","","","","","","","","","","","",""
"3426.699999988079","","image-slider-response","176","2102023","0.0-174.0","A2BK9RMC0NOIH8","","","","","7","","","","","","","","","","","","","","","","","","","","","",""
"null","","image-button-response","177","2107024","0.0-175.0","A2BK9RMC0NOIH8","img_art/14.jpg","null","","","","","","","","","","","","","","","","","","","","","","","","",""
"1074","","image-button-response","178","2108100","0.0-176.0","A2BK9RMC0NOIH8","img_art/14.jpg","4","","","","","","","","","","","","","","","","","","","","","","","","",""
"1436","","image-button-response","179","2109537","0.0-177.0-0.0","A2BK9RMC0NOIH8","img_art/14.jpg","1","","","","","","","","","","","","","","","","","","","","","","","","",""
"1969","","image-button-response","180","2111508","0.0-178.0-0.0","A2BK9RMC0NOIH8","img_art/14.jpg","5","","","","","","","","","","","","","","","","","","","","","","","","",""
"null","","html-keyboard-response","181","2113011","0.0-179.0","A2BK9RMC0NOIH8","<p style=""font-size: 48px;"">+</p>","","","","","null","allTrialResponses","1500","1","19","img_art/14.jpg","7","It looks like a colorful tree","Antonio,Dalton,Jonathan,Bryan,Mark,Alexander","Makes me think of trees and spring. A good feeling,26,220,20","nice simple art piece,2,300,20","This reminds me of the Lion King somehow! Feels inspiring,30,140,20","Like some of the colors but not much else.,1,400,20","Cute little plant.,15,80,20","Angled, colored, boxy.,10,120,20","Mark","Cute little plant.,15,80,20","Dalton","nice simple art piece,2,300,20","Alexander","Angled, colored, boxy.,10,120,20","4"
"68028","","survey-text","182","2181045","0.0-180.0-0.0","A2BK9RMC0NOIH8","","","","{""Q0"":""It reminds me of a small town""}","","","","","","","","","","","","","","","","","","","","","","",""
"3000.699999988079","","image-slider-response","183","2184048","0.0-181.0","A2BK9RMC0NOIH8","","","","","6","","","","","","","","","","","","","","","","","","","","","",""
"null","","image-button-response","184","2189050","0.0-182.0","A2BK9RMC0NOIH8","img_art/26.jpg","null","","","","","","","","","","","","","","","","","","","","","","","","",""
"542","","image-button-response","185","2189593","0.0-183.0","A2BK9RMC0NOIH8","img_art/26.jpg","0","","","","","","","","","","","","","","","","","","","","","","","","",""
"1900","","image-button-response","186","2191495","0.0-184.0-0.0","A2BK9RMC0NOIH8","img_art/26.jpg","2","","","","","","","","","","","","","","","","","","","","","","","","",""
"2596","","image-button-response","187","2194093","0.0-185.0-0.0","A2BK9RMC0NOIH8","img_art/26.jpg","5","","","","","","","","","","","","","","","","","","","","","","","","",""
"null","","html-keyboard-response","188","2195108","0.0-186.0","A2BK9RMC0NOIH8","<p style=""font-size: 48px;"">+</p>","","","","","null","allTrialResponses","1000","1","20","img_art/26.jpg","6","It reminds me of a small town","Richard,Dalton,Jacob,Elijah,Mark,Alexander","subtle use of colors, city street view?,8,340,20","neighborhood and trees. i wonder if this is water paint.,1,300,20","It doesn't look so vibrant, I'm not sure what feelings they were trying to capture,-41,340,20","Splash of paint in an ordered way,7,80,20","I get the feeling of a small old world street.,24,80,20","Confusing park picture.,8,120,20","Richard","subtle use of colors, city street view?,8,340,20","Jacob","It doesn't look so vibrant, I'm not sure what feelings they were trying to capture,-41,340,20","Alexander","Confusing park picture.,8,120,20","4"
"5344","","survey-text","189","2200464","0.0-187.0-0.0","A2BK9RMC0NOIH8","","","","{""Q0"":""we""}","","","","","","","","","","","","","","","","","","","","","","",""
"131198","","survey-text","190","2331663","0.0-188.0-0.0","A2BK9RMC0NOIH8","","","","{""Q0"":""The shapes look like a musical instrument ""}","","","","","","","","","","","","","","","","","","","","","","",""
"2386.0999999940395","","image-slider-response","191","2334051","0.0-189.0","A2BK9RMC0NOIH8","","","","","3","","","","","","","","","","","","","","","","","","","","","",""
"4863","","image-button-response","192","2339054","0.0-190.0","A2BK9RMC0NOIH8","img_art/10.jpg","0","","","","","","","","","","","","","","","","","","","","","","","","",""
"756","","image-button-response","193","2339811","0.0-191.0","A2BK9RMC0NOIH8","img_art/10.jpg","0","","","","","","","","","","","","","","","","","","","","","","","","",""
"4237","","image-button-response","194","2344049","0.0-192.0-0.0","A2BK9RMC0NOIH8","img_art/10.jpg","2","","","","","","","","","","","","","","","","","","","","","","","","",""
"4454","","image-button-response","195","2348505","0.0-193.0-0.0","A2BK9RMC0NOIH8","img_art/10.jpg","4","","","","","","","","","","","","","","","","","","","","","","","","",""
"null","","html-keyboard-response","196","2349008","0.0-194.0","A2BK9RMC0NOIH8","<p style=""font-size: 48px;"">+</p>","","","","","null","allTrialResponses","500","1","21","img_art/10.jpg","3","The shapes look like a musical instrument ","Richard,Robert,Jacob,Alexis,Jason,Alexander","interesting portrayal of a violin?,10,340,20","The black color is depressing.,-50,360,20","I feel like this has a cool concept behind it.,11,340,20","It looks like a sea monster overtaking a ship,21,140,20","Picture looks smudged,-7,20,20","Roller coaster on an island.,9,120,20","Richard","interesting portrayal of a violin?,10,340,20","Jacob","I feel like this has a cool concept behind it.,11,340,20","Jason","Picture looks smudged,-7,20,20","4"
"64156","","survey-text","197","2413171","0.0-195.0-0.0","A2BK9RMC0NOIH8","","","","{""Q0"":""It reminds me of rain on glass""}","","","","","","","","","","","","","","","","","","","","","","",""
"3477.4000000059605","","image-slider-response","198","2416650","0.0-196.0","A2BK9RMC0NOIH8","","","","","9","","","","","","","","","","","","","","","","","","","","","",""
"null","","image-button-response","199","2421660","0.0-197.0","A2BK9RMC0NOIH8","img_art/13.jpg","null","","","","","","","","","","","","","","","","","","","","","","","","",""
"1097","","image-button-response","200","2422759","0.0-198.0","A2BK9RMC0NOIH8","img_art/13.jpg","1","","","","","","","","","","","","","","","","","","","","","","","","",""
"1320","","image-button-response","201","2424080","0.0-199.0-0.0","A2BK9RMC0NOIH8","img_art/13.jpg","3","","","","","","","","","","","","","","","","","","","","","","","","",""
"525","","image-button-response","202","2424606","0.0-200.0-0.0","A2BK9RMC0NOIH8","img_art/13.jpg","4","","","","","","","","","","","","","","","","","","","","","","","","",""
"null","","html-keyboard-response","203","2426113","0.0-201.0","A2BK9RMC0NOIH8","<p style=""font-size: 48px;"">+</p>","","","","","null","allTrialResponses","1500","1","22","img_art/13.jpg","9","It reminds me of rain on glass","Richard,Aaron,Jacob,Jesse,Jason,Lucas","kind of like the pattern and colors but don't love it,13,340,20","It reminds me of a window on a rainy day.,40,20,20","The paint splatter idea is kind of overused but I like how it brings the piece together,16,340,20","Really like this. Its like looking out a window into a beautiful storm,39,80,20","Like the color choices,7,20,20","Incredible, curious.,20,380,20","Aaron","It reminds me of a window on a rainy day.,40,20,20","Jesse","Really like this. Its like looking out a window into a beautiful storm,39,80,20","Jason","Like the color choices,7,20,20","4"
"53139","","survey-text","204","2479260","0.0-202.0-0.0","A2BK9RMC0NOIH8","","","","{""Q0"":""I like the colors but not the shapes""}","","","","","","","","","","","","","","","","","","","","","","",""
"4959.4000000059605","","image-slider-response","205","2484221","0.0-203.0","A2BK9RMC0NOIH8","","","","","-25","","","","","","","","","","","","","","","","","","","","","",""
"null","","image-button-response","206","2489233","0.0-204.0","A2BK9RMC0NOIH8","img_art/25.jpg","null","","","","","","","","","","","","","","","","","","","","","","","","",""
"2197","","image-button-response","207","2491432","0.0-205.0","A2BK9RMC0NOIH8","img_art/25.jpg","1","","","","","","","","","","","","","","","","","","","","","","","","",""
"3071","","image-button-response","208","2494505","0.0-206.0-0.0","A2BK9RMC0NOIH8","img_art/25.jpg","4","","","","","","","","","","","","","","","","","","","","","","","","",""
"1506","","image-button-response","209","2496013","0.0-207.0-0.0","A2BK9RMC0NOIH8","img_art/25.jpg","4","","","","","","","","","","","","","","","","","","","","","","","","",""
"674","","image-button-response","210","2501807","0.0-207.1-0.1","A2BK9RMC0NOIH8","img_art/25.jpg","3","","","","","","","","","","","","","","","","","","","","","","","","",""
"null","","html-keyboard-response","211","2503318","0.0-208.0","A2BK9RMC0NOIH8","<p style=""font-size: 48px;"">+</p>","","","","","null","allTrialResponses","1500","1","23","img_art/25.jpg","-25","I like the colors but not the shapes","Alejandro,Aaron,Travis,Jesse,Jason,Juan","Seems ritualistic and nativist,50,80,20","I love the green and the texture,50,20,20","I hate the colors and the scene,-46,260,20","Creates a bit of fear in me for some reason,-26,80,20","Love the simplicity and lines,20,20,20","I don't like the color. I don't like the abstract-ness of it.,-22,260,20","Aaron","I love the green and the texture,50,20,20","Jason","Love the simplicity and lines,20,20,20","Jesse","Creates a bit of fear in me for some reason,-26,80,20","6"
"44749","","survey-text","212","2548070","0.0-209.0-0.0","A2BK9RMC0NOIH8","","","","{""Q0"":""The colors of vibrant and rememberable.""}","","","","","","","","","","","","","","","","","","","","","","",""
"4169.800000011921","","image-slider-response","213","2552241","0.0-210.0","A2BK9RMC0NOIH8","","","","","21","","","","","","","","","","","","","","","","","","","","","",""
"null","","image-button-response","214","2557245","0.0-211.0","A2BK9RMC0NOIH8","img_art/4.jpg","null","","","","","","","","","","","","","","","","","","","","","","","","",""
"4357","","image-button-response","215","2561604","0.0-212.0","A2BK9RMC0NOIH8","img_art/4.jpg","0","","","","","","","","","","","","","","","","","","","","","","","","",""
"3316","","image-button-response","216","2564921","0.0-213.0-0.0","A2BK9RMC0NOIH8","img_art/4.jpg","3","","","","","","","","","","","","","","","","","","","","","","","","",""
"3457","","image-button-response","217","2568381","0.0-214.0-0.0","A2BK9RMC0NOIH8","img_art/4.jpg","4","","","","","","","","","","","","","","","","","","","","","","","","",""
"null","","html-keyboard-response","218","2569385","0.0-215.0","A2BK9RMC0NOIH8","<p style=""font-size: 48px;"">+</p>","","","","","null","allTrialResponses","1000","1","24","img_art/4.jpg","21","The colors of vibrant and rememberable.","Andrew,Aaron,Isaiah,Jesse,Jason,Derek","Reminds me of a first place trophy,30,160,20","It doesn't make me feel anything it just looks like a kid did it.,-30,20,20","The sickly looking colors make me feel very uncomfortable.,-35,300,20","I like the warmth in the colors. Its reassuring.,9,80,20","I don't understand this at all,3,20,20","A bit too plain for my tastes,-10,360,20","Andrew","Reminds me of a first place trophy,30,160,20","Jesse","I like the warmth in the colors. Its reassuring.,9,80,20","Jason","I don't understand this at all,3,20,20","6"
"105785","","survey-text","219","2675181","0.0-216.0-0.0","A2BK9RMC0NOIH8","","","","{""Q0"":""It reminds me of people playing in a band""}","","","","","","","","","","","","","","","","","","","","","","",""
"3887.699999988079","","image-slider-response","220","2679070","0.0-217.0","A2BK9RMC0NOIH8","","","","","12","","","","","","","","","","","","","","","","","","","","","",""
"null","","image-button-response","221","2684074","0.0-218.0","A2BK9RMC0NOIH8","img_art/28.jpg","null","","","","","","","","","","","","","","","","","","","","","","","","",""
"1732","","image-button-response","222","2685807","0.0-219.0","A2BK9RMC0NOIH8","img_art/28.jpg","0","","","","","","","","","","","","","","","","","","","","","","","","",""
"9731","","image-button-response","223","2695540","0.0-220.0-0.0","A2BK9RMC0NOIH8","img_art/28.jpg","5","","","","","","","","","","","","","","","","","","","","","","","","",""
"7323","","image-button-response","224","2702865","0.0-221.0-0.0","A2BK9RMC0NOIH8","img_art/28.jpg","3","","","","","","","","","","","","","","","","","","","","","","","","",""
"null","","html-keyboard-response","225","2704380","0.0-222.0","A2BK9RMC0NOIH8","<p style=""font-size: 48px;"">+</p>","","","","","null","allTrialResponses","1500","1","25","img_art/28.jpg","12","It reminds me of people playing in a band","Andrew,Blake,David,Jesse,Jason,Corey","Doesn't give me an emotional response,0,160,20","an old woman in a wheelchair. sad,-35,280,20","I feel that the image is invoking a sense of negativity.,-15,340,20","Just all blurs together for me. No substance.,-23,80,20","Not sure what way this picture is suppose to be oriented,-5,20,20","i like the neutral color pallette but i dont know what i am looking at,26,260,20","Andrew","Doesn't give me an emotional response,0,160,20","Corey","i like the neutral color pallette but i dont know what i am looking at,26,260,20","Jesse","Just all blurs together for me. No substance.,-23,80,20","6"
"6394","","survey-text","226","2710782","0.0-223.0-0.0","A2BK9RMC0NOIH8","","","","{""Q0"":""table""}","","","","","","","","","","","","","","","","","","","","","","",""
"80615","","survey-text","227","2791397","0.0-224.0-0.0","A2BK9RMC0NOIH8","","","","{""Q0"":""I like the bright colors ""}","","","","","","","","","","","","","","","","","","","","","","",""
"3889.9000000059605","","image-slider-response","228","2795289","0.0-225.0","A2BK9RMC0NOIH8","","","","","4","","","","","","","","","","","","","","","","","","","","","",""
"null","","image-button-response","229","2800291","0.0-226.0","A2BK9RMC0NOIH8","img_art/2.jpg","null","","","","","","","","","","","","","","","","","","","","","","","","",""
"770","","image-button-response","230","2801065","0.0-227.0","A2BK9RMC0NOIH8","img_art/2.jpg","0","","","","","","","","","","","","","","","","","","","","","","","","",""
"2601","","image-button-response","231","2803667","0.0-228.0-0.0","A2BK9RMC0NOIH8","img_art/2.jpg","2","","","","","","","","","","","","","","","","","","","","","","","","",""
"2812","","image-button-response","232","2806480","0.0-229.0-0.0","A2BK9RMC0NOIH8","img_art/2.jpg","4","","","","","","","","","","","","","","","","","","","","","","","","",""
"null","","html-keyboard-response","233","2807483","0.0-230.0","A2BK9RMC0NOIH8","<p style=""font-size: 48px;"">+</p>","","","","","null","allTrialResponses","1000","1","26","img_art/2.jpg","4","I like the bright colors ","Andrew,Justin,Grant,Jesse,Adrian,Corey","Doesn't give me a reaction,10,160,20","This one feels rather flat and not engaging.,-15,280,20","The colors are entirely unappealing and very unpleasant to look at.,-20,200,20","Looks childish and i dont like the texture,-25,80,20","Not a fan of the colors or the style.,-31,60,20","doesn't do anything for me,-7,260,20","Andrew","Doesn't give me a reaction,10,160,20","Grant","The colors are entirely unappealing and very unpleasant to look at.,-20,200,20","Adrian","Not a fan of the colors or the style.,-31,60,20","6"
"76482","","survey-text","234","2883982","0.0-231.0-0.0","A2BK9RMC0NOIH8","","","","{""Q0"":""It reminds me of fruit on a tree""}","","","","","","","","","","","","","","","","","","","","","","",""
"4168.5999999940395","","image-slider-response","235","2888152","0.0-232.0","A2BK9RMC0NOIH8","","","","","9","","","","","","","","","","","","","","","","","","","","","",""
"null","","image-button-response","236","2893157","0.0-233.0","A2BK9RMC0NOIH8","img_art/15.jpg","null","","","","","","","","","","","","","","","","","","","","","","","","",""
"1712","","image-button-response","237","2894870","0.0-234.0","A2BK9RMC0NOIH8","img_art/15.jpg","1","","","","","","","","","","","","","","","","","","","","","","","","",""
"5651","","image-button-response","238","2900523","0.0-235.0-0.0","A2BK9RMC0NOIH8","img_art/15.jpg","5","","","","","","","","","","","","","","","","","","","","","","","","",""
"5817","","image-button-response","239","2906341","0.0-236.0-0.0","A2BK9RMC0NOIH8","img_art/15.jpg","0","","","","","","","","","","","","","","","","","","","","","","","","",""
"null","","html-keyboard-response","240","2906844","0.0-237.0","A2BK9RMC0NOIH8","<p style=""font-size: 48px;"">+</p>","","","","","null","allTrialResponses","500","1","27","img_art/15.jpg","9","It reminds me of fruit on a tree","Andrew,Carlos,Grant,Luis,Adrian,James","The blues are soothing,21,160,20","It is visually appealing, stark and simple but natural.,41,80,20","This elicits no reaction in me.,0,200,20","Extreme darkness and sadness,-30,400,20","Not a fan. This piece would only go with very specific decor in a modern home.,-35,60,20","No opinion truthfully,1,380,20","Carlos","It is visually appealing, stark and simple but natural.,41,80,20","James","No opinion truthfully,1,380,20","Andrew","The blues are soothing,21,160,20","6"
"57209","","survey-text","241","2964057","0.0-238.0-0.0","A2BK9RMC0NOIH8","","","","{""Q0"":""It reminds me of a calm stream I like the colors""}","","","","","","","","","","","","","","","","","","","","","","",""
"3802.9000000059605","","image-slider-response","242","2967862","0.0-239.0","A2BK9RMC0NOIH8","","","","","18","","","","","","","","","","","","","","","","","","","","","",""
"null","","image-button-response","243","2972864","0.0-240.0","A2BK9RMC0NOIH8","img_art/24.jpg","null","","","","","","","","","","","","","","","","","","","","","","","","",""
"301","","image-button-response","244","2973167","0.0-241.0","A2BK9RMC0NOIH8","img_art/24.jpg","0","","","","","","","","","","","","","","","","","","","","","","","","",""
"1903","","image-button-response","245","2975071","0.0-242.0-0.0","A2BK9RMC0NOIH8","img_art/24.jpg","3","","","","","","","","","","","","","","","","","","","","","","","","",""
"1893","","image-button-response","246","2976965","0.0-243.0-0.0","A2BK9RMC0NOIH8","img_art/24.jpg","4","","","","","","","","","","","","","","","","","","","","","","","","",""
"null","","html-keyboard-response","247","2977476","0.0-244.0","A2BK9RMC0NOIH8","<p style=""font-size: 48px;"">+</p>","","","","","null","allTrialResponses","500","1","28","img_art/24.jpg","18","It reminds me of a calm stream I like the colors","Andrew,Carlos,Mitchell,Gregory,Adam,James","Makes me think of a couple of hikes that I've taken,50,160,20","It is like a really bad impressionist painting.,-40,80,20","Nature, Peace, connected.,50,180,20","Beautiful waterfall with nice colors,40,220,20","I appreciate the earth tones. Soothing.,5,40,20","The waterfall looks peaceful,11,380,20","Andrew","Makes me think of a couple of hikes that I've taken,50,160,20","Gregory","Beautiful waterfall with nice colors,40,220,20","Adam","I appreciate the earth tones. Soothing.,5,40,20","6"
"35548","","survey-text","248","3013029","0.0-245.0-0.0","A2BK9RMC0NOIH8","","","","{""Q0"":""The black border gives it a unique feel""}","","","","","","","","","","","","","","","","","","","","","","",""
"3969","","image-slider-response","249","3017000","0.0-246.0","A2BK9RMC0NOIH8","","","","","6","","","","","","","","","","","","","","","","","","","","","",""
"null","","image-button-response","250","3022009","0.0-247.0","A2BK9RMC0NOIH8","img_art/20.jpg","null","","","","","","","","","","","","","","","","","","","","","","","","",""
"699","","image-button-response","251","3022709","0.0-248.0","A2BK9RMC0NOIH8","img_art/20.jpg","0","","","","","","","","","","","","","","","","","","","","","","","","",""
"2786","","image-button-response","252","3025497","0.0-249.0-0.0","A2BK9RMC0NOIH8","img_art/20.jpg","3","","","","","","","","","","","","","","","","","","","","","","","","",""
"6518","","image-button-response","253","3032018","0.0-250.0-0.0","A2BK9RMC0NOIH8","img_art/20.jpg","4","","","","","","","","","","","","","","","","","","","","","","","","",""
"null","","html-keyboard-response","254","3033032","0.0-251.0","A2BK9RMC0NOIH8","<p style=""font-size: 48px;"">+</p>","","","","","null","allTrialResponses","1000","1","29","img_art/20.jpg","6","The black border gives it a unique feel","Andrew,Devin,Tristan,Gregory,Adam,Joseph","I just love this painting,47,160,20","Looks somewhat dark and emotional,-10,380,20","Elements that are more defined are incongruous to the soft and melting nature of this painting,5,300,20","Looks like some type of future dystopian civilization,35,220,20","Melty picture. Reminiscent of Dali.,10,40,20","Something fell over and is burning, but it's kinda dope, you know?,14,220,20","Andrew","I just love this painting,47,160,20","Gregory","Looks like some type of future dystopian civilization,35,220,20","Adam","Melty picture. Reminiscent of Dali.,10,40,20","6"
"106446","","survey-text","255","3139483","0.0-252.0-0.0","A2BK9RMC0NOIH8","","","","{""Q0"":""The teddy bear next to a gun gives it a disturbing feel""}","","","","","","","","","","","","","","","","","","","","","","",""
"3629.300000011921","","image-slider-response","256","3143113","0.0-253.0","A2BK9RMC0NOIH8","","","","","5","","","","","","","","","","","","","","","","","","","","","",""
"null","","image-button-response","257","3148116","0.0-254.0","A2BK9RMC0NOIH8","img_art/16.jpg","null","","","","","","","","","","","","","","","","","","","","","","","","",""
"482","","image-button-response","258","3148599","0.0-255.0","A2BK9RMC0NOIH8","img_art/16.jpg","5","","","","","","","","","","","","","","","","","","","","","","","","",""
"897","","image-button-response","259","3149497","0.0-256.0-0.0","A2BK9RMC0NOIH8","img_art/16.jpg","1","","","","","","","","","","","","","","","","","","","","","","","","",""
"1008","","image-button-response","260","3150507","0.0-257.0-0.0","A2BK9RMC0NOIH8","img_art/16.jpg","0","","","","","","","","","","","","","","","","","","","","","","","","",""
"null","","html-keyboard-response","261","3151516","0.0-258.0","A2BK9RMC0NOIH8","<p style=""font-size: 48px;"">+</p>","","","","","null","allTrialResponses","1000","1","30","img_art/16.jpg","5","The teddy bear next to a gun gives it a disturbing feel","Andrew,Spencer,Patrick,Gregory,Adam,Marcus","It just makes me feel uncomfortable,-25,160,20","Know it is a piece relating to children and gun violence. Sad,-30,120,20","This painting is too random,-30,280,20","Weird and funny,40,220,20","Hard contrast, but no emotions towards any of the objects.,-6,40,20","Hate this, especially the jarring contrast of the super realistic teddybear face.,-50,60,20","Marcus","Hate this, especially the jarring contrast of the super realistic teddybear face.,-50,60,20","Spencer","Know it is a piece relating to children and gun violence. Sad,-30,120,20","Andrew","It just makes me feel uncomfortable,-25,160,20","6"
"7398","","image-button-response_instructions","262","3158926","0.0-259.0","A2BK9RMC0NOIH8","","0","instructions","","","","","","","","","","","","","","","","","","","","","","","",""
"1388","","image-button-response","263","3160317","0.0-260.0","A2BK9RMC0NOIH8","","0","","","","","","","","","","","","","","","","","","","","","","","","",""
