"rt","url","trial_type","trial_index","time_elapsed","internal_node_id","participant_id","stimulus","button_pressed","Name","responses","response","key_press","variableName","fixationTime","condition","trial","photo","subjectRating","subjectResponse","agentsNames","agent_1_Response","agent_2_Response","agent_3_Response","agent_4_Response","agent_5_Response","agent_6_Response","kept_1_name","kept_1_response","kept_2_name","kept_2_response","kept_3_name","kept_3_response","errorCounter"
"69924","external_page_harvard.html","external-html","0","70097","0.0-0.0","A2CAMVV9YNUA5O","","","","","","","","","","","","","","","","","","","","","","","","","","",""
"2301","","image-button-response","1","72399","0.0-1.0","A2CAMVV9YNUA5O","","1","","","","","","","","","","","","","","","","","","","","","","","","",""
"4045","","image-button-response","2","76448","0.0-2.0-0.0","A2CAMVV9YNUA5O","","1","phone","","","","","","","","","","","","","","","","","","","","","","","",""
"15538","","survey-text","3","91991","0.0-3.0-0.0","A2CAMVV9YNUA5O","","","","{""Q0"":""A2CAMVV9YNUA5O""}","","","","","","","","","","","","","","","","","","","","","","",""
"24164","","image-button-response_instructions","4","116158","0.0-4.0","A2CAMVV9YNUA5O","","0","instructions","","","","","","","","","","","","","","","","","","","","","","","",""
"60657","","image-button-response_instructions","5","176817","0.0-5.0","A2CAMVV9YNUA5O","img_art/ins/popularity/ins1.png","0","instructions","","","","","","","","","","","","","","","","","","","","","","","",""
"6956","","image-button-response_instructions","6","183776","0.0-6.0","A2CAMVV9YNUA5O","img_art/ins/popularity/ins2.png","0","instructions","","","","","","","","","","","","","","","","","","","","","","","",""
"6396","","image-button-response_instructions","7","190174","0.0-7.0","A2CAMVV9YNUA5O","img_art/ins/popularity/ins2Extreme.png","0","instructions","","","","","","","","","","","","","","","","","","","","","","","",""
"6690","","image-button-response_instructions","8","196867","0.0-8.0","A2CAMVV9YNUA5O","img_art/ins/popularity/ins3KEEPpop.PNG","0","instructions","","","","","","","","","","","","","","","","","","","","","","","",""
"7641","","image-button-response_instructions","9","204511","0.0-9.0","A2CAMVV9YNUA5O","img_art/ins/popularity/ins3ANamepop.PNG","0","instructions","","","","","","","","","","","","","","","","","","","","","","","",""
"5191","","image-button-response_instructions","10","209705","0.0-10.0","A2CAMVV9YNUA5O","img_art/ins/popularity/ins3ARatingpop.png","0","instructions","","","","","","","","","","","","","","","","","","","","","","","",""
"6995","","image-button-response_instructions","11","216702","0.0-11.0","A2CAMVV9YNUA5O","img_art/ins/popularity/ins3ATextpop.png","0","instructions","","","","","","","","","","","","","","","","","","","","","","","",""
"8254","","image-button-response_instructions","12","224959","0.0-12.0","A2CAMVV9YNUA5O","img_art/ins/popularity/ins3ALikespop.png","0","instructions","","","","","","","","","","","","","","","","","","","","","","","",""
"28879","","image-button-response_instructions","13","253841","0.0-13.0","A2CAMVV9YNUA5O","img_art/ins/popularity/ins3KEEPpop.PNG","0","instructions","","","","","","","","","","","","","","","","","","","","","","","",""
"37908","","image-button-response_instructions","14","291750","0.0-14.0","A2CAMVV9YNUA5O","img_art/ins/popularity/ins3_5RED.png","0","instructions","","","","","","","","","","","","","","","","","","","","","","","",""
"28804","","image-button-response_instructions","15","320557","0.0-15.0","A2CAMVV9YNUA5O","img_art/ins/popularity/ins3KEEPpop.PNG","0","instructions","","","","","","","","","","","","","","","","","","","","","","","",""
"27165","","image-button-response_instructions","16","347722","0.0-16.0","A2CAMVV9YNUA5O","img_art/ins/popularity/ins4KEEPpop.PNG","0","instructions","","","","","","","","","","","","","","","","","","","","","","","",""
"11730","","image-button-response_instructions","17","359454","0.0-17.0","A2CAMVV9YNUA5O","img_art/ins/popularity/ins5KEEPpop.PNG","0","instructions","","","","","","","","","","","","","","","","","","","","","","","",""
"3366","","image-button-response_instructions","18","362822","0.0-18.0","A2CAMVV9YNUA5O","","0","instructions","","","","","","","","","","","","","","","","","","","","","","","",""
"10960","","survey-text","19","373800","0.0-19.0-0.0","A2CAMVV9YNUA5O","","","","{""Q0"":""but""}","","","","","","","","","","","","","","","","","","","","","","",""
"39269","","survey-text","20","413071","0.0-20.0-0.0","A2CAMVV9YNUA5O","","","","{""Q0"":""This art reminds me of late spring when the grass isn't quite green yet, but the flowers are blooming and the sun is out. ""}","","","","","","","","","","","","","","","","","","","","","","",""
"5404","","image-slider-response","21","418480","0.0-21.0","A2CAMVV9YNUA5O","","","","","34","","","","","","","","","","","","","","","","","","","","","",""
"null","","image-button-response","22","423497","0.0-22.0","A2CAMVV9YNUA5O","img_art/ins/1.jpg","null","","","","","","","","","","","","","","","","","","","","","","","","",""
"10273","","image-button-response","23","433773","0.0-23.0","A2CAMVV9YNUA5O","img_art/ins/1.jpg","4","","","","","","","","","","","","","","","","","","","","","","","","",""
"2515","","image-button-response","24","436291","0.0-24.0-0.0","A2CAMVV9YNUA5O","img_art/ins/1.jpg","5","","","","","","","","","","","","","","","","","","","","","","","","",""
"15354","","image-button-response","25","451646","0.0-25.0-0.0","A2CAMVV9YNUA5O","img_art/ins/1.jpg","0","","","","","","","","","","","","","","","","","","","","","","","","",""
"null","","html-keyboard-response","26","453157","0.0-26.0","A2CAMVV9YNUA5O","<p style=""font-size: 48px;"">+</p>","","","","","null","allTrialResponses","1500","1","-2","img_art/ins/1.jpg","34","This art reminds me of late spring when the grass isn't quite green yet, but the flowers are blooming and the sun is out. ","Allison,Ashley,Beth,Dora,Erika,Jen","looks like a lot of things going on in the mist,20,20,20","I just don't get why these type of art would be popular,-32,40,20","This color reminds me of poo,-46,60,20","looks like what my niece in 3rd grade did this afternoon,-50,80,20","I like the sophisticated brushwork,40,100,20","It reminds me of a candy land dream I had,36,120,20","Erika","I like the sophisticated brushwork,40,100,20","Jen","It reminds me of a candy land dream I had,36,120,20","Allison","looks like a lot of things going on in the mist,20,20,20","0"
"28008","","survey-text","27","481171","0.0-27.0-0.0","A2CAMVV9YNUA5O","","","","{""Q0"":""This reminds me of a house burning down with the smoke surrounding it. ""}","","","","","","","","","","","","","","","","","","","","","","",""
"4134.799999952316","","image-slider-response","28","485307","0.0-28.0","A2CAMVV9YNUA5O","","","","","13","","","","","","","","","","","","","","","","","","","","","",""
"null","","image-button-response","29","490309","0.0-29.0","A2CAMVV9YNUA5O","img_art/ins/2.jpg","null","","","","","","","","","","","","","","","","","","","","","","","","",""
"2863","","image-button-response","30","493174","0.0-30.0","A2CAMVV9YNUA5O","img_art/ins/2.jpg","1","","","","","","","","","","","","","","","","","","","","","","","","",""
"3626","","image-button-response","31","496800","0.0-31.0-0.0","A2CAMVV9YNUA5O","img_art/ins/2.jpg","5","","","","","","","","","","","","","","","","","","","","","","","","",""
"2104","","image-button-response","32","498905","0.0-32.0-0.0","A2CAMVV9YNUA5O","img_art/ins/2.jpg","4","","","","","","","","","","","","","","","","","","","","","","","","",""
"null","","html-keyboard-response","33","499422","0.0-33.0","A2CAMVV9YNUA5O","<p style=""font-size: 48px;"">+</p>","","","","","null","allTrialResponses","500","1","-1","img_art/ins/2.jpg","13","This reminds me of a house burning down with the smoke surrounding it. ","Allison,Kara,Katie,Jenna,Erika,Jen","I don't have strong feelings about this,10,20,20","I like the blocks of color arrangements,30,160,20","too much color!,-28,180,20","One of my pet peevs,-48,140,20","I would never be able to compose a sophisticated pallete like this,48,100,20","It reminds me of a fireplace,36,120,20","Kara","I like the blocks of color arrangements,30,160,20","Jen","It reminds me of a fireplace,36,120,20","Erika","I would never be able to compose a sophisticated pallete like this,48,100,20","0"
"22945","","survey-text","34","522372","0.0-34.0-0.0","A2CAMVV9YNUA5O","","","","{""Q0"":""This reminds me of birds migrating to the South for wnter. ""}","","","","","","","","","","","","","","","","","","","","","","",""
"6236","","image-slider-response","35","528610","0.0-35.0","A2CAMVV9YNUA5O","","","","","39","","","","","","","","","","","","","","","","","","","","","",""
"null","","image-button-response","36","533617","0.0-36.0","A2CAMVV9YNUA5O","img_art/ins/3.jpg","null","","","","","","","","","","","","","","","","","","","","","","","","",""
"5269","","image-button-response","37","538890","0.0-37.0","A2CAMVV9YNUA5O","img_art/ins/3.jpg","1","","","","","","","","","","","","","","","","","","","","","","","","",""
"946","","image-button-response","38","539841","0.0-38.0-0.0","A2CAMVV9YNUA5O","img_art/ins/3.jpg","0","","","","","","","","","","","","","","","","","","","","","","","","",""
"3563","","image-button-response","39","543409","0.0-39.0-0.0","A2CAMVV9YNUA5O","img_art/ins/3.jpg","4","","","","","","","","","","","","","","","","","","","","","","","","",""
"null","","html-keyboard-response","40","543927","0.0-40.0","A2CAMVV9YNUA5O","<p style=""font-size: 48px;"">+</p>","","","","","null","allTrialResponses","500","1","0","img_art/ins/3.jpg","39","This reminds me of birds migrating to the South for wnter. ","Mary,Kara,Rose,Leslie,Erika,Jen","I like the overlapping of brushes,41,220,20","calming blue is very nice,36,160,20","My daily routine, it's depressing,-20,240,20","It's an alright work,15,200,20","I feel connected to the artist,40,100,20","I can feel a rainy day from this painting,18,120,20","Kara","calming blue is very nice,36,160,20","Mary","I like the overlapping of brushes,41,220,20","Erika","I feel connected to the artist,40,100,20","0"
"9117","","image-button-response_instructions","41","553051","0.0-41.0","A2CAMVV9YNUA5O","","0","instructions","","","","","","","","","","","","","","","","","","","","","","","",""
"35887","","survey-likert","42","588942","0.0-42.0-0.0","A2CAMVV9YNUA5O","","","","{""Q0"":"""",""Q1"":0,""Q2"":1}","","","","","","","","","","","","","","","","","","","","","","",""
"6479","","survey-text","43","595435","0.0-43.0-0.0","A2CAMVV9YNUA5O","","","","{""Q0"":""rock""}","","","","","","","","","","","","","","","","","","","","","","",""
"64514","","survey-text","44","659953","0.0-44.0-0.0","A2CAMVV9YNUA5O","","","","{""Q0"":""It reminds me to be careful;  something dangerous could happen if I am not careful.""}","","","","","","","","","","","","","","","","","","","","","","",""
"6995.300000190735","","image-slider-response","45","666950","0.0-45.0","A2CAMVV9YNUA5O","","","","","4","","","","","","","","","","","","","","","","","","","","","",""
"null","","image-button-response","46","671974","0.0-46.0","A2CAMVV9YNUA5O","img_art/5.jpg","null","","","","","","","","","","","","","","","","","","","","","","","","",""
"10043","","image-button-response","47","682020","0.0-47.0","A2CAMVV9YNUA5O","img_art/5.jpg","1","","","","","","","","","","","","","","","","","","","","","","","","",""
"969","","image-button-response","48","682990","0.0-48.0-0.0","A2CAMVV9YNUA5O","img_art/5.jpg","0","","","","","","","","","","","","","","","","","","","","","","","","",""
"14485","","image-button-response","49","697476","0.0-49.0-0.0","A2CAMVV9YNUA5O","img_art/5.jpg","2","","","","","","","","","","","","","","","","","","","","","","","","",""
"null","","html-keyboard-response","50","697989","0.0-50.0","A2CAMVV9YNUA5O","<p style=""font-size: 48px;"">+</p>","","","","","null","allTrialResponses","500","1","1","img_art/5.jpg","4","It reminds me to be careful;  something dangerous could happen if I am not careful.","Amber,Jenna,Briana,Leslie,Leah,Cynthia","Missing something,-5,200,20","it's okay. the colors are eye catching, but that's about it.,3,360,20","It looks like a poorly drawn pear,17,400,20","This elicits no reaction in me.,0,380,20","Boring, no flow except the pink feathery band,-42,360,20","boring and unsure,-25,320,20","Jenna","it's okay. the colors are eye catching, but that's about it.,3,360,20","Amber","Missing something,-5,200,20","Briana","It looks like a poorly drawn pear,17,400,20","0"
"36169","","survey-text","51","734161","0.0-51.0-0.0","A2CAMVV9YNUA5O","","","","{""Q0"":""Reminds me of an Arab man riding his horse into battle. ""}","","","","","","","","","","","","","","","","","","","","","","",""
"3541.4000000953674","","image-slider-response","52","737707","0.0-52.0","A2CAMVV9YNUA5O","","","","","20","","","","","","","","","","","","","","","","","","","","","",""
"null","","image-button-response","53","742723","0.0-53.0","A2CAMVV9YNUA5O","img_art/18.jpg","null","","","","","","","","","","","","","","","","","","","","","","","","",""
"12294","","image-button-response","54","755019","0.0-54.0","A2CAMVV9YNUA5O","img_art/18.jpg","1","","","","","","","","","","","","","","","","","","","","","","","","",""
"8321","","image-button-response","55","763342","0.0-55.0-0.0","A2CAMVV9YNUA5O","img_art/18.jpg","5","","","","","","","","","","","","","","","","","","","","","","","","",""
"13844","","image-button-response","56","777188","0.0-56.0-0.0","A2CAMVV9YNUA5O","img_art/18.jpg","2","","","","","","","","","","","","","","","","","","","","","","","","",""
"null","","html-keyboard-response","57","778706","0.0-57.0","A2CAMVV9YNUA5O","<p style=""font-size: 48px;"">+</p>","","","","","null","allTrialResponses","1500","1","2","img_art/18.jpg","20","Reminds me of an Arab man riding his horse into battle. ","Amber,Jenna,Briana,Brooke,Courtney,Alicia","ugly and lots of movement,-6,200,20","hauntingly beautiful. more things revealed the longer you look. love the spirit-like figure in the top left.,47,360,20","Two people fighting with one watching,17,400,20","Don't like the color scheme. Or the theme.,-5,60,20","Pirate ship in stormy seas before it sank.,11,280,20","Skeletons, death, bleak colors, still kinda like it.,16,120,20","Jenna","hauntingly beautiful. more things revealed the longer you look. love the spirit-like figure in the top left.,47,360,20","Alicia","Skeletons, death, bleak colors, still kinda like it.,16,120,20","Briana","Two people fighting with one watching,17,400,20","0"
"50716","","survey-text","58","829428","0.0-58.0-0.0","A2CAMVV9YNUA5O","","","","{""Q0"":""I see the horses back legs as he enters the walled city behind a round gate. ""}","","","","","","","","","","","","","","","","","","","","","","",""
"3692.2999999523163","","image-slider-response","59","833122","0.0-59.0","A2CAMVV9YNUA5O","","","","","20","","","","","","","","","","","","","","","","","","","","","",""
"4735","","image-button-response","60","838136","0.0-60.0","A2CAMVV9YNUA5O","img_art/22.jpg","1","","","","","","","","","","","","","","","","","","","","","","","","",""
"6937","","image-button-response","61","845075","0.0-61.0","A2CAMVV9YNUA5O","img_art/22.jpg","3","","","","","","","","","","","","","","","","","","","","","","","","",""
"1506","","image-button-response","62","846583","0.0-62.0-0.0","A2CAMVV9YNUA5O","img_art/22.jpg","1","","","","","","","","","","","","","","","","","","","","","","","","",""
"7831","","image-button-response","63","854415","0.0-63.0-0.0","A2CAMVV9YNUA5O","img_art/22.jpg","5","","","","","","","","","","","","","","","","","","","","","","","","",""
"null","","html-keyboard-response","64","855427","0.0-64.0","A2CAMVV9YNUA5O","<p style=""font-size: 48px;"">+</p>","","","","","null","allTrialResponses","1000","1","3","img_art/22.jpg","20","I see the horses back legs as he enters the walled city behind a round gate. ","Caroline,Jenna,Briana,Shelby,Alexandra,Alicia","Felt blah. Bunch of nothingness,-42,100,20","beautiful. love the bright colors & soft brush strokes, and the imprint of the key is genius.,50,360,20","Bright colors feel warm,22,400,20","This painting has a very nostalgic feel,20,240,20","The colors in this picture are nice.,32,60,20","Could be interpreted so many ways, bold. I like it.,29,120,20","Shelby","This painting has a very nostalgic feel,20,240,20","Jenna","beautiful. love the bright colors & soft brush strokes, and the imprint of the key is genius.,50,360,20","Alicia","Could be interpreted so many ways, bold. I like it.,29,120,20","0"
"40101","","survey-text","65","895534","0.0-65.0-0.0","A2CAMVV9YNUA5O","","","","{""Q0"":""A small town square near the river bed.  It feels like winter. ""}","","","","","","","","","","","","","","","","","","","","","","",""
"3303.2000000476837","","image-slider-response","66","898840","0.0-66.0","A2CAMVV9YNUA5O","","","","","27","","","","","","","","","","","","","","","","","","","","","",""
"null","","image-button-response","67","903845","0.0-67.0","A2CAMVV9YNUA5O","img_art/19.jpg","null","","","","","","","","","","","","","","","","","","","","","","","","",""
"9261","","image-button-response","68","913110","0.0-68.0","A2CAMVV9YNUA5O","img_art/19.jpg","1","","","","","","","","","","","","","","","","","","","","","","","","",""
"9174","","image-button-response","69","922290","0.0-69.0-0.0","A2CAMVV9YNUA5O","img_art/19.jpg","4","","","","","","","","","","","","","","","","","","","","","","","","",""
"2240","","image-button-response","70","924534","0.0-70.0-0.0","A2CAMVV9YNUA5O","img_art/19.jpg","5","","","","","","","","","","","","","","","","","","","","","","","","",""
"null","","html-keyboard-response","71","926036","0.0-71.0","A2CAMVV9YNUA5O","<p style=""font-size: 48px;"">+</p>","","","","","null","allTrialResponses","1500","1","4","img_art/19.jpg","27","A small town square near the river bed.  It feels like winter. ","Danielle,Jenna,Lauren,Shelby,Sabrina,Alicia","It looks like as if it were portraying a village that was polluted? I don't like the theme anyway,-21,340,20","love the muted colors and added sketchy lines. calming without being boring.,50,360,20","The image doesn't really invoke any emotions strongly.,0,340,20","Something weird is going on in this painting,-20,240,20","Gives a very open and freeing vibe,42,120,20","calming, like the drips,25,120,20","Jenna","love the muted colors and added sketchy lines. calming without being boring.,50,360,20","Sabrina","Gives a very open and freeing vibe,42,120,20","Alicia","calming, like the drips,25,120,20","0"
"47380","","survey-text","72","973428","0.0-72.0-0.0","A2CAMVV9YNUA5O","","","","{""Q0"":""This reminds me of an Indian war dance at night with all the lost natives' spirits surrounding them. ""}","","","","","","","","","","","","","","","","","","","","","","",""
"4241.599999904633","","image-slider-response","73","977674","0.0-73.0","A2CAMVV9YNUA5O","","","","","34","","","","","","","","","","","","","","","","","","","","","",""
"null","","image-button-response","74","982678","0.0-74.0","A2CAMVV9YNUA5O","img_art/23.jpg","null","","","","","","","","","","","","","","","","","","","","","","","","",""
"1083","","image-button-response","75","983764","0.0-75.0","A2CAMVV9YNUA5O","img_art/23.jpg","1","","","","","","","","","","","","","","","","","","","","","","","","",""
"11156","","image-button-response","76","994924","0.0-76.0-0.0","A2CAMVV9YNUA5O","img_art/23.jpg","0","","","","","","","","","","","","","","","","","","","","","","","","",""
"1492","","image-button-response","77","996421","0.0-77.0-0.0","A2CAMVV9YNUA5O","img_art/23.jpg","3","","","","","","","","","","","","","","","","","","","","","","","","",""
"null","","html-keyboard-response","78","997938","0.0-78.0","A2CAMVV9YNUA5O","<p style=""font-size: 48px;"">+</p>","","","","","null","allTrialResponses","1500","1","5","img_art/23.jpg","34","This reminds me of an Indian war dance at night with all the lost natives' spirits surrounding them. ","Sara,Jenna,Melissa,Abigail,Sabrina,Alicia","Beautiful color scheme,21,160,20","awesome colors. love the white drawing the eye to the center. oddly comforting.,50,360,20","do not like color splatters or sharp silhouettes, feels tacky,-34,240,20","I like the contrast,29,20,20","I dont like the chaos of this,-20,120,20","No reactions, childish.,-19,120,20","Jenna","awesome colors. love the white drawing the eye to the center. oddly comforting.,50,360,20","Sara","Beautiful color scheme,21,160,20","Abigail","I like the contrast,29,20,20","0"
"5432","","survey-text","79","1003375","0.0-79.0-0.0","A2CAMVV9YNUA5O","","","","{""Q0"":""sky""}","","","","","","","","","","","","","","","","","","","","","","",""
"70953","","survey-text","80","1074328","0.0-80.0-0.0","A2CAMVV9YNUA5O","","","","{""Q0"":""Reminds me of something Asian but don't know what this means. ""}","","","","","","","","","","","","","","","","","","","","","","",""
"7713.600000143051","","image-slider-response","81","1082043","0.0-81.0","A2CAMVV9YNUA5O","","","","","-14","","","","","","","","","","","","","","","","","","","","","",""
"null","","image-button-response","82","1087058","0.0-82.0","A2CAMVV9YNUA5O","img_art/3.jpg","null","","","","","","","","","","","","","","","","","","","","","","","","",""
"27143","","image-button-response","83","1114204","0.0-83.0","A2CAMVV9YNUA5O","img_art/3.jpg","3","","","","","","","","","","","","","","","","","","","","","","","","",""
"4918","","image-button-response","84","1119125","0.0-84.0-0.0","A2CAMVV9YNUA5O","img_art/3.jpg","4","","","","","","","","","","","","","","","","","","","","","","","","",""
"14627","","image-button-response","85","1133754","0.0-85.0-0.0","A2CAMVV9YNUA5O","img_art/3.jpg","0","","","","","","","","","","","","","","","","","","","","","","","","",""
"null","","html-keyboard-response","86","1134759","0.0-86.0","A2CAMVV9YNUA5O","<p style=""font-size: 48px;"">+</p>","","","","","null","allTrialResponses","1000","1","6","img_art/3.jpg","-14","Reminds me of something Asian but don't know what this means. ","Sara,Jenna,Marissa,Abigail,Destiny,Olivia","Random use of red and looks scary,-50,160,20","unique & stylized. interesting. another one I could keep staring at.,50,360,20","It feels like a half assed and failed imitation of Japanese signatures on old paintings,-22,160,20","Reminded me of blood or something bad,-21,20,20","im just getting more agitated and less appreciative of art. I have absolutely no scale to base on,-34,360,20","confusing taking over,-15,40,20","Abigail","Reminded me of blood or something bad,-21,20,20","Destiny","im just getting more agitated and less appreciative of art. I have absolutely no scale to base on,-34,360,20","Sara","Random use of red and looks scary,-50,160,20","0"
"61566","","survey-text","87","1196336","0.0-87.0-0.0","A2CAMVV9YNUA5O","","","","{""Q0"":""Is this a sail boat leaning over due to the strong winds from the storm? ""}","","","","","","","","","","","","","","","","","","","","","","",""
"4868.600000143051","","image-slider-response","88","1201209","0.0-88.0","A2CAMVV9YNUA5O","","","","","23","","","","","","","","","","","","","","","","","","","","","",""
"null","","image-button-response","89","1206224","0.0-89.0","A2CAMVV9YNUA5O","img_art/14.jpg","null","","","","","","","","","","","","","","","","","","","","","","","","",""
"13804","","image-button-response","90","1220032","0.0-90.0","A2CAMVV9YNUA5O","img_art/14.jpg","2","","","","","","","","","","","","","","","","","","","","","","","","",""
"1056","","image-button-response","91","1221093","0.0-91.0-0.0","A2CAMVV9YNUA5O","img_art/14.jpg","0","","","","","","","","","","","","","","","","","","","","","","","","",""
"1352","","image-button-response","92","1222451","0.0-92.0-0.0","A2CAMVV9YNUA5O","img_art/14.jpg","0","","","","","","","","","","","","","","","","","","","","","","","","",""
"1652","","image-button-response","93","1232246","0.0-92.1-0.1","A2CAMVV9YNUA5O","img_art/14.jpg","1","","","","","","","","","","","","","","","","","","","","","","","","",""
"null","","html-keyboard-response","94","1233252","0.0-93.0","A2CAMVV9YNUA5O","<p style=""font-size: 48px;"">+</p>","","","","","null","allTrialResponses","1000","1","7","img_art/14.jpg","23","Is this a sail boat leaning over due to the strong winds from the storm? ","Sara,Molly,Jacqueline,Abigail,Destiny,Chloe","It uplifts my mood due to the color scheme,32,160,20","In my opinion it's spectacular.,35,340,20","It kind of looks like a tree but I feel very netural.,0,300,20","Reminds me of art class,22,20,20","I dont really vibe with the grayish color palette,-7,360,20","Like the brushstrokes but not the composition,9,220,20","Jacqueline","It kind of looks like a tree but I feel very netural.,0,300,20","Sara","It uplifts my mood due to the color scheme,32,160,20","Molly","In my opinion it's spectacular.,35,340,20","2"
"28649","","survey-text","95","1261905","0.0-94.0-0.0","A2CAMVV9YNUA5O","","","","{""Q0"":""This looks like a duck blind. ""}","","","","","","","","","","","","","","","","","","","","","","",""
"4988.5","","image-slider-response","96","1266897","0.0-95.0","A2CAMVV9YNUA5O","","","","","-6","","","","","","","","","","","","","","","","","","","","","",""
"null","","image-button-response","97","1271910","0.0-96.0","A2CAMVV9YNUA5O","img_art/15.jpg","null","","","","","","","","","","","","","","","","","","","","","","","","",""
"19285","","image-button-response","98","1291197","0.0-97.0","A2CAMVV9YNUA5O","img_art/15.jpg","1","","","","","","","","","","","","","","","","","","","","","","","","",""
"10527","","image-button-response","99","1301729","0.0-98.0-0.0","A2CAMVV9YNUA5O","img_art/15.jpg","2","","","","","","","","","","","","","","","","","","","","","","","","",""
"10563","","image-button-response","100","1312297","0.0-99.0-0.0","A2CAMVV9YNUA5O","img_art/15.jpg","5","","","","","","","","","","","","","","","","","","","","","","","","",""
"null","","html-keyboard-response","101","1312812","0.0-100.0","A2CAMVV9YNUA5O","<p style=""font-size: 48px;"">+</p>","","","","","null","allTrialResponses","500","1","8","img_art/15.jpg","-6","This looks like a duck blind. ","Sara,Molly,Jacqueline,Mariah,Rebecca,Katie","I don't like the black dots,-19,160,20","I can't see the meaning of the painting.,-30,340,20","I don't like how the black dots are aligned.,-20,300,20","It is visually appealing, stark and simple but natural.,41,140,20","very unsettling! like reverse porcelain esp because of the colors,28,100,20","Too much black. I see weeds or dead/dying flowers.,-40,160,20","Molly","I can't see the meaning of the painting.,-30,340,20","Jacqueline","I don't like how the black dots are aligned.,-20,300,20","Katie","Too much black. I see weeds or dead/dying flowers.,-40,160,20","2"
"44177","","survey-text","102","1356995","0.0-101.0-0.0","A2CAMVV9YNUA5O","","","","{""Q0"":""This looks like a cliff overlooking the seas below.  I feel there is a dragon in the water. ""}","","","","","","","","","","","","","","","","","","","","","","",""
"3637.5","","image-slider-response","103","1360637","0.0-102.0","A2CAMVV9YNUA5O","","","","","13","","","","","","","","","","","","","","","","","","","","","",""
"null","","image-button-response","104","1365647","0.0-103.0","A2CAMVV9YNUA5O","img_art/21.jpg","null","","","","","","","","","","","","","","","","","","","","","","","","",""
"14849","","image-button-response","105","1380500","0.0-104.0","A2CAMVV9YNUA5O","img_art/21.jpg","2","","","","","","","","","","","","","","","","","","","","","","","","",""
"7623","","image-button-response","106","1388128","0.0-105.0-0.0","A2CAMVV9YNUA5O","img_art/21.jpg","3","","","","","","","","","","","","","","","","","","","","","","","","",""
"5200","","image-button-response","107","1393334","0.0-106.0-0.0","A2CAMVV9YNUA5O","img_art/21.jpg","5","","","","","","","","","","","","","","","","","","","","","","","","",""
"null","","html-keyboard-response","108","1393845","0.0-107.0","A2CAMVV9YNUA5O","<p style=""font-size: 48px;"">+</p>","","","","","null","allTrialResponses","500","1","9","img_art/21.jpg","13","This looks like a cliff overlooking the seas below.  I feel there is a dragon in the water. ","Meghan,Molly,Jacqueline,Vanessa,Victoria,Katie","looks like a sunrise, great colors,40,220,20","Looks like a war. Many things happening on the painting, really enjoy it.,30,340,20","Kind of looks like a sky with a storm or tornado.,10,300,20","The colors and softness work together to make something that's lovely.,42,380,20","like the colors,30,400,20","Immediately a positive response! I like the muted colors. the blurriness calms me. It's serene,40,160,20","Jacqueline","Kind of looks like a sky with a storm or tornado.,10,300,20","Vanessa","The colors and softness work together to make something that's lovely.,42,380,20","Katie","Immediately a positive response! I like the muted colors. the blurriness calms me. It's serene,40,160,20","2"
"25053","","survey-text","109","1418904","0.0-108.0-0.0","A2CAMVV9YNUA5O","","","","{""Q0"":""This is leaves that have fallen in the dead of winter. ""}","","","","","","","","","","","","","","","","","","","","","","",""
"4611.400000095367","","image-slider-response","110","1423519","0.0-109.0","A2CAMVV9YNUA5O","","","","","-12","","","","","","","","","","","","","","","","","","","","","",""
"null","","image-button-response","111","1428525","0.0-110.0","A2CAMVV9YNUA5O","img_art/7.jpg","null","","","","","","","","","","","","","","","","","","","","","","","","",""
"8009","","image-button-response","112","1436537","0.0-111.0","A2CAMVV9YNUA5O","img_art/7.jpg","2","","","","","","","","","","","","","","","","","","","","","","","","",""
"11230","","image-button-response","113","1447773","0.0-112.0-0.0","A2CAMVV9YNUA5O","img_art/7.jpg","1","","","","","","","","","","","","","","","","","","","","","","","","",""
"1189","","image-button-response","114","1448967","0.0-113.0-0.0","A2CAMVV9YNUA5O","img_art/7.jpg","0","","","","","","","","","","","","","","","","","","","","","","","","",""
"null","","html-keyboard-response","115","1450473","0.0-114.0","A2CAMVV9YNUA5O","<p style=""font-size: 48px;"">+</p>","","","","","null","allTrialResponses","1500","1","10","img_art/7.jpg","-12","This is leaves that have fallen in the dead of winter. ","Erica,Kaitlyn,Jacqueline,Vanessa,Angelica,Katie","No not cause many emotions,1,80,20","Boring  and lacks color,-11,80,20","Just looks like rocks or some kind of mineral.,0,300,20","This is borning and lifeless.,-50,380,20","This is vague and ugly.,-3,280,20","I see dryness, which is sad. Dirt, sand, the dessert. Barren dry lifeless,-30,160,20","Jacqueline","Just looks like rocks or some kind of mineral.,0,300,20","Kaitlyn","Boring  and lacks color,-11,80,20","Erica","No not cause many emotions,1,80,20","2"
"5175","","survey-text","116","1455655","0.0-115.0-0.0","A2CAMVV9YNUA5O","","","","{""Q0"":""our""}","","","","","","","","","","","","","","","","","","","","","","",""
"42049","","survey-text","117","1497705","0.0-116.0-0.0","A2CAMVV9YNUA5O","","","","{""Q0"":""An airplane going into a tall red (flames) building, like 911.""}","","","","","","","","","","","","","","","","","","","","","","",""
"6538","","image-slider-response","118","1504244","0.0-117.0","A2CAMVV9YNUA5O","","","","","-23","","","","","","","","","","","","","","","","","","","","","",""
"null","","image-button-response","119","1509250","0.0-118.0","A2CAMVV9YNUA5O","img_art/1.jpg","null","","","","","","","","","","","","","","","","","","","","","","","","",""
"17014","","image-button-response","120","1526267","0.0-119.0","A2CAMVV9YNUA5O","img_art/1.jpg","1","","","","","","","","","","","","","","","","","","","","","","","","",""
"1373","","image-button-response","121","1527646","0.0-120.0-0.0","A2CAMVV9YNUA5O","img_art/1.jpg","2","","","","","","","","","","","","","","","","","","","","","","","","",""
"8132","","image-button-response","122","1535784","0.0-121.0-0.0","A2CAMVV9YNUA5O","img_art/1.jpg","5","","","","","","","","","","","","","","","","","","","","","","","","",""
"null","","html-keyboard-response","123","1536295","0.0-122.0","A2CAMVV9YNUA5O","<p style=""font-size: 48px;"">+</p>","","","","","null","allTrialResponses","500","1","11","img_art/1.jpg","-23","An airplane going into a tall red (flames) building, like 911.","Erica,Kaitlyn,Jacqueline,Isabella,Tiffany,Gabrielle","Makes me warm and relaxed,38,80,20","Interesting blend of colors,9,80,20","It's alright but lacks any depth.,-5,300,20","Warmth of the sun,22,280,20","I feel relaxed, like I'm watching the leaves change color.,17,360,20","nice piece, fall like,31,160,20","Kaitlyn","Interesting blend of colors,9,80,20","Jacqueline","It's alright but lacks any depth.,-5,300,20","Gabrielle","nice piece, fall like,31,160,20","2"
"33225","","survey-text","124","1569522","0.0-123.0-0.0","A2CAMVV9YNUA5O","","","","{""Q0"":""A painting of a willow tree bleeding over two indoor walls. ""}","","","","","","","","","","","","","","","","","","","","","","",""
"4364.100000143051","","image-slider-response","125","1573888","0.0-124.0","A2CAMVV9YNUA5O","","","","","15","","","","","","","","","","","","","","","","","","","","","",""
"null","","image-button-response","126","1578905","0.0-125.0","A2CAMVV9YNUA5O","img_art/17.jpg","null","","","","","","","","","","","","","","","","","","","","","","","","",""
"9022","","image-button-response","127","1587930","0.0-126.0","A2CAMVV9YNUA5O","img_art/17.jpg","3","","","","","","","","","","","","","","","","","","","","","","","","",""
"2487","","image-button-response","128","1590422","0.0-127.0-0.0","A2CAMVV9YNUA5O","img_art/17.jpg","5","","","","","","","","","","","","","","","","","","","","","","","","",""
"1837","","image-button-response","129","1592264","0.0-128.0-0.0","A2CAMVV9YNUA5O","img_art/17.jpg","0","","","","","","","","","","","","","","","","","","","","","","","","",""
"null","","html-keyboard-response","130","1592772","0.0-129.0","A2CAMVV9YNUA5O","<p style=""font-size: 48px;"">+</p>","","","","","null","allTrialResponses","500","1","12","img_art/17.jpg","15","A painting of a willow tree bleeding over two indoor walls. ","Sophia,Kaitlyn,Jacqueline,Stephanie,Morgan,Gabrielle","It kind of pulls you in to float away with it.,9,280,20","Very beautiful,19,80,20","It's okay, I just don't see much too it.,7,300,20","The wispy trees caught my eye.,42,300,20","Tree of knowledge in a quiet school.,17,380,20","nice composition and colors, fairy land,28,160,20","Stephanie","The wispy trees caught my eye.,42,300,20","Gabrielle","nice composition and colors, fairy land,28,160,20","Sophia","It kind of pulls you in to float away with it.,9,280,20","2"
"49428","","survey-text","131","1642204","0.0-130.0-0.0","A2CAMVV9YNUA5O","","","","{""Q0"":""Car wreck with a semi and car laying on their sides, and a white motorcycle right in front. ""}","","","","","","","","","","","","","","","","","","","","","","",""
"5731.600000143051","","image-slider-response","132","1647938","0.0-131.0","A2CAMVV9YNUA5O","","","","","-35","","","","","","","","","","","","","","","","","","","","","",""
"null","","image-button-response","133","1652943","0.0-132.0","A2CAMVV9YNUA5O","img_art/20.jpg","null","","","","","","","","","","","","","","","","","","","","","","","","",""
"17255","","image-button-response","134","1670203","0.0-133.0","A2CAMVV9YNUA5O","img_art/20.jpg","2","","","","","","","","","","","","","","","","","","","","","","","","",""
"5745","","image-button-response","135","1675952","0.0-134.0-0.0","A2CAMVV9YNUA5O","img_art/20.jpg","0","","","","","","","","","","","","","","","","","","","","","","","","",""
"15255","","image-button-response","136","1691212","0.0-135.0-0.0","A2CAMVV9YNUA5O","img_art/20.jpg","3","","","","","","","","","","","","","","","","","","","","","","","","",""
"null","","html-keyboard-response","137","1691717","0.0-136.0","A2CAMVV9YNUA5O","<p style=""font-size: 48px;"">+</p>","","","","","null","allTrialResponses","500","1","13","img_art/20.jpg","-35","Car wreck with a semi and car laying on their sides, and a white motorcycle right in front. ","Sophia,Allison,Alexis,Stephanie,Haley,Gabrielle","A truck rolled over?  I do like the pictures and the technique though.,25,280,20","Melty picture. Reminiscent of Dali.,10,140,20","I like the proportion of the car to the desert city, but too abstract for me,15,100,20","Looks like an old gold mining down now deserted.,11,300,20","I really enjoy the contrast of colors (blue/red/orange),30,220,20","The white blob on the left seems out of place,-34,160,20","Alexis","I like the proportion of the car to the desert city, but too abstract for me,15,100,20","Sophia","A truck rolled over?  I do like the pictures and the technique though.,25,280,20","Stephanie","Looks like an old gold mining down now deserted.,11,300,20","2"
"51648","","survey-text","138","1743371","0.0-137.0-0.0","A2CAMVV9YNUA5O","","","","{""Q0"":""Reminds me of a waterfall in Hawaii""}","","","","","","","","","","","","","","","","","","","","","","",""
"4203.600000143051","","image-slider-response","139","1747576","0.0-138.0","A2CAMVV9YNUA5O","","","","","20","","","","","","","","","","","","","","","","","","","","","",""
"null","","image-button-response","140","1752579","0.0-139.0","A2CAMVV9YNUA5O","img_art/24.jpg","null","","","","","","","","","","","","","","","","","","","","","","","","",""
"6561","","image-button-response","141","1759144","0.0-140.0","A2CAMVV9YNUA5O","img_art/24.jpg","4","","","","","","","","","","","","","","","","","","","","","","","","",""
"5415","","image-button-response","142","1764562","0.0-141.0-0.0","A2CAMVV9YNUA5O","img_art/24.jpg","3","","","","","","","","","","","","","","","","","","","","","","","","",""
"1752","","image-button-response","143","1766318","0.0-142.0-0.0","A2CAMVV9YNUA5O","img_art/24.jpg","2","","","","","","","","","","","","","","","","","","","","","","","","",""
"null","","html-keyboard-response","144","1766826","0.0-143.0","A2CAMVV9YNUA5O","<p style=""font-size: 48px;"">+</p>","","","","","null","allTrialResponses","500","1","14","img_art/24.jpg","20","Reminds me of a waterfall in Hawaii","Sophia,Kaitlin,Alexis,Stephanie,Lindsey,Emily","Hmm. Don't know what to make of this one.,1,280,20","Aww. I love the peace brought by this picture.,40,60,20","Simple. Not too abstract. Love the different flower colors.,20,100,20","A beautiful waterfall in the springtime.,40,300,20","I like the colors and see a stream in a wooded setting. Makes me feel calm and cheerful.,27,400,20","It's not super high uality  but there is some skill and talent in it I see.,15,40,20","Lindsey","I like the colors and see a stream in a wooded setting. Makes me feel calm and cheerful.,27,400,20","Stephanie","A beautiful waterfall in the springtime.,40,300,20","Alexis","Simple. Not too abstract. Love the different flower colors.,20,100,20","2"
"43774","","survey-text","145","1810606","0.0-144.0-0.0","A2CAMVV9YNUA5O","","","","{""Q0"":""Outdoor living room complete with natural trees. ""}","","","","","","","","","","","","","","","","","","","","","","",""
"4869.799999952316","","image-slider-response","146","1815477","0.0-145.0","A2CAMVV9YNUA5O","","","","","23","","","","","","","","","","","","","","","","","","","","","",""
"null","","image-button-response","147","1820491","0.0-146.0","A2CAMVV9YNUA5O","img_art/26.jpg","null","","","","","","","","","","","","","","","","","","","","","","","","",""
"4138","","image-button-response","148","1824632","0.0-147.0","A2CAMVV9YNUA5O","img_art/26.jpg","3","","","","","","","","","","","","","","","","","","","","","","","","",""
"9745","","image-button-response","149","1834378","0.0-148.0-0.0","A2CAMVV9YNUA5O","img_art/26.jpg","0","","","","","","","","","","","","","","","","","","","","","","","","",""
"2815","","image-button-response","150","1837196","0.0-149.0-0.0","A2CAMVV9YNUA5O","img_art/26.jpg","1","","","","","","","","","","","","","","","","","","","","","","","","",""
"null","","html-keyboard-response","151","1837704","0.0-150.0","A2CAMVV9YNUA5O","<p style=""font-size: 48px;"">+</p>","","","","","null","allTrialResponses","500","1","15","img_art/26.jpg","23","Outdoor living room complete with natural trees. ","Sierra,Cassidy,Alexis,Stephanie,Lindsey,Christina","soothing and subtle,1,260,20","the trees are cool,1,140,20","Much too simple and without color for my taste,-33,100,20","Day just begun in the city and the stores are opening their doors.,41,300,20","I see a suburban neighborhood with townhouses and trees. Not a fan of the colors or style.,-16,400,20","looks like a little kids painting,-17,240,20","Stephanie","Day just begun in the city and the stores are opening their doors.,41,300,20","Sierra","soothing and subtle,1,260,20","Cassidy","the trees are cool,1,140,20","2"
"5297","","survey-text","152","1843010","0.0-151.0-0.0","A2CAMVV9YNUA5O","","","","{""Q0"":""course""}","","","","","","","","","","","","","","","","","","","","","","",""
"20358","","survey-text","153","1863369","0.0-152.0-0.0","A2CAMVV9YNUA5O","","","","{""Q0"":""Evil spirit in the graveyard at dead of night. ""}","","","","","","","","","","","","","","","","","","","","","","",""
"4909.799999952316","","image-slider-response","154","1868281","0.0-153.0","A2CAMVV9YNUA5O","","","","","-40","","","","","","","","","","","","","","","","","","","","","",""
"null","","image-button-response","155","1873286","0.0-154.0","A2CAMVV9YNUA5O","img_art/25.jpg","null","","","","","","","","","","","","","","","","","","","","","","","","",""
"8807","","image-button-response","156","1882096","0.0-155.0","A2CAMVV9YNUA5O","img_art/25.jpg","2","","","","","","","","","","","","","","","","","","","","","","","","",""
"15255","","image-button-response","157","1897353","0.0-156.0-0.0","A2CAMVV9YNUA5O","img_art/25.jpg","4","","","","","","","","","","","","","","","","","","","","","","","","",""
"15092","","image-button-response","158","1912448","0.0-157.0-0.0","A2CAMVV9YNUA5O","img_art/25.jpg","5","","","","","","","","","","","","","","","","","","","","","","","","",""
"null","","html-keyboard-response","159","1913450","0.0-158.0","A2CAMVV9YNUA5O","<p style=""font-size: 48px;"">+</p>","","","","","null","allTrialResponses","1000","1","16","img_art/25.jpg","-40","Evil spirit in the graveyard at dead of night. ","Sierra,Cassidy,Samantha,Stephanie,Jennifer,Jasmine","the green is serene. the figure is scare crow like,7,260,20","Love the colors, and how it's simple yet complex,25,140,20","It is interesting but too creapy for me,-29,140,20","It made me think of healing.,22,300,20","Spooky, but in a good way. I like the green and black color palette.,42,380,20","I liked it as it seems unique in a way,21,340,20","Samantha","It is interesting but too creapy for me,-29,140,20","Jennifer","Spooky, but in a good way. I like the green and black color palette.,42,380,20","Jasmine","I liked it as it seems unique in a way,21,340,20","2"
"40333","","survey-text","160","1953794","0.0-159.0-0.0","A2CAMVV9YNUA5O","","","","{""Q0"":""This looks like gold colored \""crazy 8s\"".  Is it a sculpter. ""}","","","","","","","","","","","","","","","","","","","","","","",""
"5059.200000047684","","image-slider-response","161","1958857","0.0-160.0","A2CAMVV9YNUA5O","","","","","-47","","","","","","","","","","","","","","","","","","","","","",""
"null","","image-button-response","162","1963874","0.0-161.0","A2CAMVV9YNUA5O","img_art/4.jpg","null","","","","","","","","","","","","","","","","","","","","","","","","",""
"6991","","image-button-response","163","1970868","0.0-162.0","A2CAMVV9YNUA5O","img_art/4.jpg","2","","","","","","","","","","","","","","","","","","","","","","","","",""
"3312","","image-button-response","164","1974184","0.0-163.0-0.0","A2CAMVV9YNUA5O","img_art/4.jpg","0","","","","","","","","","","","","","","","","","","","","","","","","",""
"2300","","image-button-response","165","1976486","0.0-164.0-0.0","A2CAMVV9YNUA5O","img_art/4.jpg","3","","","","","","","","","","","","","","","","","","","","","","","","",""
"null","","html-keyboard-response","166","1976995","0.0-165.0","A2CAMVV9YNUA5O","<p style=""font-size: 48px;"">+</p>","","","","","null","allTrialResponses","500","1","17","img_art/4.jpg","-47","This looks like gold colored ""crazy 8s"".  Is it a sculpter. ","Claire,Michaela,Samantha,Caitlin,Jennifer,Jasmine","I really don't like the colors,-26,260,20","It reminds me of something a kid would make for their parents,13,260,20","I domt like the yellow black blended smear,-50,140,20","They give out trophies now for fighting with brass knuckles?,-20,80,20","Ugly and bland compared to the other pieces.,-33,380,20","It's quite meh to me,0,340,20","Samantha","I domt like the yellow black blended smear,-50,140,20","Claire","I really don't like the colors,-26,260,20","Caitlin","They give out trophies now for fighting with brass knuckles?,-20,80,20","2"
"43066","","survey-text","167","2020068","0.0-166.0-0.0","A2CAMVV9YNUA5O","","","","{""Q0"":""This is a thought provoking piece that could be good or bad depending how you look at it. ""}","","","","","","","","","","","","","","","","","","","","","","",""
"5692.5","","image-slider-response","168","2025764","0.0-167.0","A2CAMVV9YNUA5O","","","","","-15","","","","","","","","","","","","","","","","","","","","","",""
"null","","image-button-response","169","2030784","0.0-168.0","A2CAMVV9YNUA5O","img_art/16.jpg","null","","","","","","","","","","","","","","","","","","","","","","","","",""
"1243","","image-button-response","170","2032032","0.0-169.0","A2CAMVV9YNUA5O","img_art/16.jpg","1","","","","","","","","","","","","","","","","","","","","","","","","",""
"7792","","image-button-response","171","2039828","0.0-170.0-0.0","A2CAMVV9YNUA5O","img_art/16.jpg","3","","","","","","","","","","","","","","","","","","","","","","","","",""
"1733","","image-button-response","172","2041564","0.0-171.0-0.0","A2CAMVV9YNUA5O","img_art/16.jpg","4","","","","","","","","","","","","","","","","","","","","","","","","",""
"null","","html-keyboard-response","173","2042070","0.0-172.0","A2CAMVV9YNUA5O","<p style=""font-size: 48px;"">+</p>","","","","","null","allTrialResponses","500","1","18","img_art/16.jpg","-15","This is a thought provoking piece that could be good or bad depending how you look at it. ","Claire,Kathryn,Samantha,Caitlin,Anna,Jamie","the materials used are interesting,30,260,20","I see something that is supposed to be comforting but it's been discarded and lost.,-20,140,20","Creepy teddybear,-50,140,20","It is sick to put a teddy bear and a gun on the same piece of canvas.,-40,80,20","It's edgy but cool,10,300,20","Weird and funny,40,320,20","Kathryn","I see something that is supposed to be comforting but it's been discarded and lost.,-20,140,20","Caitlin","It is sick to put a teddy bear and a gun on the same piece of canvas.,-40,80,20","Anna","It's edgy but cool,10,300,20","2"
"39999","","survey-text","174","2082075","0.0-173.0-0.0","A2CAMVV9YNUA5O","","","","{""Q0"":""A raven standing on the ground without a head.  I don't know what it is trying to say here. ""}","","","","","","","","","","","","","","","","","","","","","","",""
"4334.200000047684","","image-slider-response","175","2086412","0.0-174.0","A2CAMVV9YNUA5O","","","","","-42","","","","","","","","","","","","","","","","","","","","","",""
"null","","image-button-response","176","2091416","0.0-175.0","A2CAMVV9YNUA5O","img_art/6.jpg","null","","","","","","","","","","","","","","","","","","","","","","","","",""
"5482","","image-button-response","177","2096902","0.0-176.0","A2CAMVV9YNUA5O","img_art/6.jpg","3","","","","","","","","","","","","","","","","","","","","","","","","",""
"10370","","image-button-response","178","2107276","0.0-177.0-0.0","A2CAMVV9YNUA5O","img_art/6.jpg","2","","","","","","","","","","","","","","","","","","","","","","","","",""
"20471","","image-button-response","179","2127752","0.0-178.0-0.0","A2CAMVV9YNUA5O","img_art/6.jpg","0","","","","","","","","","","","","","","","","","","","","","","","","",""
"null","","html-keyboard-response","180","2128262","0.0-179.0","A2CAMVV9YNUA5O","<p style=""font-size: 48px;"">+</p>","","","","","null","allTrialResponses","500","1","19","img_art/6.jpg","-42","A raven standing on the ground without a head.  I don't know what it is trying to say here. ","Cheyenne,Kathryn,Madison,Caitlin,Anna,Laura","Good painting but too simple to care about it for very long.,-15,200,20","This piece feels hopeful, like an oasis in the desert.,20,140,20","Is this the villain from Despicable Me?,29,60,20","A crow on one leg?,-10,80,20","It reminds me of a simplistic bird. I like the colors used.,40,300,20","graceful and light,35,320,20","Caitlin","A crow on one leg?,-10,80,20","Madison","Is this the villain from Despicable Me?,29,60,20","Cheyenne","Good painting but too simple to care about it for very long.,-15,200,20","2"
"29926","","survey-text","181","2158201","0.0-180.0-0.0","A2CAMVV9YNUA5O","","","","{""Q0"":""This reminds me of a strong waterfall with droplets all around it.  ""}","","","","","","","","","","","","","","","","","","","","","","",""
"5711.299999952316","","image-slider-response","182","2163914","0.0-181.0","A2CAMVV9YNUA5O","","","","","4","","","","","","","","","","","","","","","","","","","","","",""
"null","","image-button-response","183","2168928","0.0-182.0","A2CAMVV9YNUA5O","img_art/13.jpg","null","","","","","","","","","","","","","","","","","","","","","","","","",""
"24420","","image-button-response","184","2193349","0.0-183.0","A2CAMVV9YNUA5O","img_art/13.jpg","4","","","","","","","","","","","","","","","","","","","","","","","","",""
"1512","","image-button-response","185","2194864","0.0-184.0-0.0","A2CAMVV9YNUA5O","img_art/13.jpg","2","","","","","","","","","","","","","","","","","","","","","","","","",""
"1794","","image-button-response","186","2196663","0.0-185.0-0.0","A2CAMVV9YNUA5O","img_art/13.jpg","1","","","","","","","","","","","","","","","","","","","","","","","","",""
"null","","html-keyboard-response","187","2197174","0.0-186.0","A2CAMVV9YNUA5O","<p style=""font-size: 48px;"">+</p>","","","","","null","allTrialResponses","500","1","20","img_art/13.jpg","4","This reminds me of a strong waterfall with droplets all around it.  ","Cheyenne,Jordan,Madison,Caitlin,Grace,Kelsey","Like how realistic it looks.,33,200,20","It's just paint splatter, no real meaning to me,-50,20,20","Pollock? Love the juxtaposition of colors. Soothing and stirring, a beautiful inexplicable paradox.,50,60,20","Simple and in my favorite color. I actually like this one.,40,80,20","Love the colors, love the abstractness, love this Jackson Pollock type painting.,48,180,20","its like the ocean,24,240,20","Grace","Love the colors, love the abstractness, love this Jackson Pollock type painting.,48,180,20","Madison","Pollock? Love the juxtaposition of colors. Soothing and stirring, a beautiful inexplicable paradox.,50,60,20","Jordan","It's just paint splatter, no real meaning to me,-50,20,20","2"
"3990","","survey-text","188","2201173","0.0-187.0-0.0","A2CAMVV9YNUA5O","","","","{""Q0"":""we""}","","","","","","","","","","","","","","","","","","","","","","",""
"30395","","survey-text","189","2231572","0.0-188.0-0.0","A2CAMVV9YNUA5O","","","","{""Q0"":""Looks like a train going through a pasture setting. ""}","","","","","","","","","","","","","","","","","","","","","","",""
"3165.7000000476837","","image-slider-response","190","2234741","0.0-189.0","A2CAMVV9YNUA5O","","","","","6","","","","","","","","","","","","","","","","","","","","","",""
"null","","image-button-response","191","2239757","0.0-190.0","A2CAMVV9YNUA5O","img_art/27.jpg","null","","","","","","","","","","","","","","","","","","","","","","","","",""
"13096","","image-button-response","192","2252857","0.0-191.0","A2CAMVV9YNUA5O","img_art/27.jpg","4","","","","","","","","","","","","","","","","","","","","","","","","",""
"594","","image-button-response","193","2253454","0.0-192.0-0.0","A2CAMVV9YNUA5O","img_art/27.jpg","5","","","","","","","","","","","","","","","","","","","","","","","","",""
"9387","","image-button-response","194","2262843","0.0-193.0-0.0","A2CAMVV9YNUA5O","img_art/27.jpg","2","","","","","","","","","","","","","","","","","","","","","","","","",""
"null","","html-keyboard-response","195","2263348","0.0-194.0","A2CAMVV9YNUA5O","<p style=""font-size: 48px;"">+</p>","","","","","null","allTrialResponses","500","1","21","img_art/27.jpg","6","Looks like a train going through a pasture setting. ","Paige,Jordan,Madison,Ashley,Grace,Jessica","Pleased. Reminds me of a child drawing,46,60,20","two warring cities, separated by a small desert,50,20,20","The photographing is horribly distracting. I would feel more favorable toward the original colors/ brightness,1,60,20","Lots of activity, layers, imagination at work here.,29,320,20","Not fond of the bad pencil drawing mixed with the drab colors.,-21,180,20","Don't get the point of this piece that much, but it doesn't bug me,1,400,20","Grace","Not fond of the bad pencil drawing mixed with the drab colors.,-21,180,20","Jessica","Don't get the point of this piece that much, but it doesn't bug me,1,400,20","Madison","The photographing is horribly distracting. I would feel more favorable toward the original colors/ brightness,1,60,20","2"
"48190","","survey-text","196","2311543","0.0-195.0-0.0","A2CAMVV9YNUA5O","","","","{""Q0"":""A woman cooking for her family, makes me feel warm. ""}","","","","","","","","","","","","","","","","","","","","","","",""
"4386.5","","image-slider-response","197","2315932","0.0-196.0","A2CAMVV9YNUA5O","","","","","8","","","","","","","","","","","","","","","","","","","","","",""
"null","","image-button-response","198","2320947","0.0-197.0","A2CAMVV9YNUA5O","img_art/2.jpg","null","","","","","","","","","","","","","","","","","","","","","","","","",""
"24011","","image-button-response","199","2344963","0.0-198.0","A2CAMVV9YNUA5O","img_art/2.jpg","4","","","","","","","","","","","","","","","","","","","","","","","","",""
"6145","","image-button-response","200","2351112","0.0-199.0-0.0","A2CAMVV9YNUA5O","img_art/2.jpg","2","","","","","","","","","","","","","","","","","","","","","","","","",""
"1712","","image-button-response","201","2352830","0.0-200.0-0.0","A2CAMVV9YNUA5O","img_art/2.jpg","5","","","","","","","","","","","","","","","","","","","","","","","","",""
"null","","html-keyboard-response","202","2353845","0.0-201.0","A2CAMVV9YNUA5O","<p style=""font-size: 48px;"">+</p>","","","","","null","allTrialResponses","1000","1","22","img_art/2.jpg","8","A woman cooking for her family, makes me feel warm. ","Bailey,Katelyn,Madison,Hailey,Grace,Jessica","Too gloopy and unfocused,-38,360,20","Looks childish and i dont like the texture,-25,100,20","Grim and overwhelming,-6,60,20","ugly green color and makes me sick,-29,200,20","Like the colors but reminds me of a kids show done in cubism.,0,180,20","I don't get the meaning of this piece either.,-13,400,20","Grace","Like the colors but reminds me of a kids show done in cubism.,0,180,20","Madison","Grim and overwhelming,-6,60,20","Jessica","I don't get the meaning of this piece either.,-13,400,20","2"
"24244","","survey-text","203","2378093","0.0-202.0-0.0","A2CAMVV9YNUA5O","","","","{""Q0"":""This reminds me of a complicated rubic's cube. ""}","","","","","","","","","","","","","","","","","","","","","","",""
"4656.400000095367","","image-slider-response","204","2382754","0.0-203.0","A2CAMVV9YNUA5O","","","","","-32","","","","","","","","","","","","","","","","","","","","","",""
"null","","image-button-response","205","2387773","0.0-204.0","A2CAMVV9YNUA5O","img_art/12.jpg","null","","","","","","","","","","","","","","","","","","","","","","","","",""
"9308","","image-button-response","206","2397086","0.0-205.0","A2CAMVV9YNUA5O","img_art/12.jpg","3","","","","","","","","","","","","","","","","","","","","","","","","",""
"2295","","image-button-response","207","2399385","0.0-206.0-0.0","A2CAMVV9YNUA5O","img_art/12.jpg","0","","","","","","","","","","","","","","","","","","","","","","","","",""
"7869","","image-button-response","208","2407258","0.0-207.0-0.0","A2CAMVV9YNUA5O","img_art/12.jpg","2","","","","","","","","","","","","","","","","","","","","","","","","",""
"null","","html-keyboard-response","209","2408267","0.0-208.0","A2CAMVV9YNUA5O","<p style=""font-size: 48px;"">+</p>","","","","","null","allTrialResponses","1000","1","23","img_art/12.jpg","-32","This reminds me of a complicated rubic's cube. ","Erika,Savannah,Madison,Kimberly,Grace,Jessica","I don't like it, but I appreciate the effort and technique,11,100,20","Almost natural flowing between abstract sections.,27,200,20","Different enough to be memorable. The gradient of hues is appealing and appeasing.,32,60,20","Just not a fan, I can't figure out why,-17,260,20","Love the colors & the abstractness.,31,180,20","I like this concept.,11,400,20","Kimberly","Just not a fan, I can't figure out why,-17,260,20","Erika","I don't like it, but I appreciate the effort and technique,11,100,20","Madison","Different enough to be memorable. The gradient of hues is appealing and appeasing.,32,60,20","2"
"36357","","survey-text","210","2444636","0.0-209.0-0.0","A2CAMVV9YNUA5O","","","","{""Q0"":""This reminds me of a dentist chair.""}","","","","","","","","","","","","","","","","","","","","","","",""
"4492","","image-slider-response","211","2449133","0.0-210.0","A2CAMVV9YNUA5O","","","","","-40","","","","","","","","","","","","","","","","","","","","","",""
"null","","image-button-response","212","2454152","0.0-211.0","A2CAMVV9YNUA5O","img_art/28.jpg","null","","","","","","","","","","","","","","","","","","","","","","","","",""
"1715","","image-button-response","213","2455870","0.0-212.0","A2CAMVV9YNUA5O","img_art/28.jpg","1","","","","","","","","","","","","","","","","","","","","","","","","",""
"3667","","image-button-response","214","2459542","0.0-213.0-0.0","A2CAMVV9YNUA5O","img_art/28.jpg","3","","","","","","","","","","","","","","","","","","","","","","","","",""
"1638","","image-button-response","215","2461186","0.0-214.0-0.0","A2CAMVV9YNUA5O","img_art/28.jpg","5","","","","","","","","","","","","","","","","","","","","","","","","",""
"null","","html-keyboard-response","216","2461693","0.0-215.0","A2CAMVV9YNUA5O","<p style=""font-size: 48px;"">+</p>","","","","","null","allTrialResponses","500","1","24","img_art/28.jpg","-40","This reminds me of a dentist chair.","Erika,Angela,Madison,Kimberly,Amy,Mary","Invokes curiosity, I want to know it's story.,15,100,20","This reminds me of internal organs.,-10,260,20","It's okay. There is harmony and balance.,11,60,20","The thing on the right is kind of weird/fetus-y,-12,260,20","Contemplative and a little dark. The muted colors and subject create a sense of mystery.,15,220,20","The colors are really ugly. They do not compliment each other well.,-45,180,20","Angela","This reminds me of internal organs.,-10,260,20","Kimberly","The thing on the right is kind of weird/fetus-y,-12,260,20","Mary","The colors are really ugly. They do not compliment each other well.,-45,180,20","2"
"79221","","survey-text","217","2540927","0.0-216.0-0.0","A2CAMVV9YNUA5O","","","","{""Q0"":""THis reminds me of a carnival's horror house.""}","","","","","","","","","","","","","","","","","","","","","","",""
"5133.600000143051","","image-slider-response","218","2546065","0.0-217.0","A2CAMVV9YNUA5O","","","","","-22","","","","","","","","","","","","","","","","","","","","","",""
"null","","image-button-response","219","2551080","0.0-218.0","A2CAMVV9YNUA5O","img_art/8.jpg","null","","","","","","","","","","","","","","","","","","","","","","","","",""
"28746","","image-button-response","220","2579829","0.0-219.0","A2CAMVV9YNUA5O","img_art/8.jpg","5","","","","","","","","","","","","","","","","","","","","","","","","",""
"2405","","image-button-response","221","2582240","0.0-220.0-0.0","A2CAMVV9YNUA5O","img_art/8.jpg","1","","","","","","","","","","","","","","","","","","","","","","","","",""
"16847","","image-button-response","222","2599092","0.0-221.0-0.0","A2CAMVV9YNUA5O","img_art/8.jpg","2","","","","","","","","","","","","","","","","","","","","","","","","",""
"null","","html-keyboard-response","223","2600597","0.0-222.0","A2CAMVV9YNUA5O","<p style=""font-size: 48px;"">+</p>","","","","","null","allTrialResponses","1500","1","25","img_art/8.jpg","-22","THis reminds me of a carnival's horror house.","Kristen,Angela,Margaret,Kimberly,Kaylee,Mary","mothe nature/godess, watching over you,21,280,20","Like the colors and the energy, but the face feels jarring to me,13,260,20","its pretty exciting to look at, there is alot going on,15,100,20","Feels very 90's but I like the doorway,15,260,20","beautiful buildings,32,200,20","Very inspiring piece. I love how it's at angle. It gives it character.,23,180,20","Mary","Very inspiring piece. I love how it's at angle. It gives it character.,23,180,20","Angela","Like the colors and the energy, but the face feels jarring to me,13,260,20","Margaret","its pretty exciting to look at, there is alot going on,15,100,20","2"
"5155","","survey-text","224","2605763","0.0-223.0-0.0","A2CAMVV9YNUA5O","","","","{""Q0"":""table""}","","","","","","","","","","","","","","","","","","","","","","",""
"37183","","survey-text","225","2642949","0.0-224.0-0.0","A2CAMVV9YNUA5O","","","","{""Q0"":""This reminds me of a racetrack or a violin.  Don't really like the piece. ""}","","","","","","","","","","","","","","","","","","","","","","",""
"8740.599999904633","","image-slider-response","226","2651694","0.0-225.0","A2CAMVV9YNUA5O","","","","","-35","","","","","","","","","","","","","","","","","","","","","",""
"null","","image-button-response","227","2656705","0.0-226.0","A2CAMVV9YNUA5O","img_art/10.jpg","null","","","","","","","","","","","","","","","","","","","","","","","","",""
"4923","","image-button-response","228","2661633","0.0-227.0","A2CAMVV9YNUA5O","img_art/10.jpg","2","","","","","","","","","","","","","","","","","","","","","","","","",""
"5127","","image-button-response","229","2666765","0.0-228.0-0.0","A2CAMVV9YNUA5O","img_art/10.jpg","5","","","","","","","","","","","","","","","","","","","","","","","","",""
"13286","","image-button-response","230","2680057","0.0-229.0-0.0","A2CAMVV9YNUA5O","img_art/10.jpg","4","","","","","","","","","","","","","","","","","","","","","","","","",""
"null","","html-keyboard-response","231","2681074","0.0-230.0","A2CAMVV9YNUA5O","<p style=""font-size: 48px;"">+</p>","","","","","null","allTrialResponses","1000","1","26","img_art/10.jpg","-35","This reminds me of a racetrack or a violin.  Don't really like the piece. ","Hannah,Angela,Margaret,Emma,Maria,Mary","This one is interesting. I like it.,11,240,20","This makes me think of a city, specifically London.,20,260,20","I think this was going to be a guitar but then the artist got mad and gave up,-4,100,20","Feels musical .....,40,60,20","not sure what to make of this one,0,120,20","The flow of lines is off. There are curvy and straight angry lines. It's not flattering at all.,-27,180,20","Margaret","I think this was going to be a guitar but then the artist got mad and gave up,-4,100,20","Mary","The flow of lines is off. There are curvy and straight angry lines. It's not flattering at all.,-27,180,20","Maria","not sure what to make of this one,0,120,20","2"
"17662","","survey-text","232","2698745","0.0-231.0-0.0","A2CAMVV9YNUA5O","","","","{""Q0"":""London bridges falling town.""}","","","","","","","","","","","","","","","","","","","","","","",""
"2790.899999856949","","image-slider-response","233","2701540","0.0-232.0","A2CAMVV9YNUA5O","","","","","-24","","","","","","","","","","","","","","","","","","","","","",""
"null","","image-button-response","234","2706545","0.0-233.0","A2CAMVV9YNUA5O","img_art/11.jpg","null","","","","","","","","","","","","","","","","","","","","","","","","",""
"2372","","image-button-response","235","2708921","0.0-234.0","A2CAMVV9YNUA5O","img_art/11.jpg","2","","","","","","","","","","","","","","","","","","","","","","","","",""
"5216","","image-button-response","236","2714142","0.0-235.0-0.0","A2CAMVV9YNUA5O","img_art/11.jpg","5","","","","","","","","","","","","","","","","","","","","","","","","",""
"10582","","image-button-response","237","2724729","0.0-236.0-0.0","A2CAMVV9YNUA5O","img_art/11.jpg","1","","","","","","","","","","","","","","","","","","","","","","","","",""
"null","","html-keyboard-response","238","2725739","0.0-237.0","A2CAMVV9YNUA5O","<p style=""font-size: 48px;"">+</p>","","","","","null","allTrialResponses","1000","1","27","img_art/11.jpg","-24","London bridges falling town.","Rachel,Heather,Margaret,Dominique,Maria,Mary","Makes me think of a futuristic scene of vehicles flying in the sky in a city.,36,80,20","looks like highways and homes and lives intertwining.,27,260,20","dont like the colors. Its a gloomy day in london and this is the transit system,-26,100,20","Looks like a familiar area,31,400,20","I enjoy the kandinsky-like general vibe, but the grey brings me down a bit,27,120,20","I don't care for the color combo. The wavy lines give dimension though.,-13,180,20","Margaret","dont like the colors. Its a gloomy day in london and this is the transit system,-26,100,20","Mary","I don't care for the color combo. The wavy lines give dimension though.,-13,180,20","Heather","looks like highways and homes and lives intertwining.,27,260,20","2"
"24356","","survey-text","239","2750109","0.0-238.0-0.0","A2CAMVV9YNUA5O","","","","{""Q0"":""This looks like someone was trying to paint and then they finally gave up. ""}","","","","","","","","","","","","","","","","","","","","","","",""
"3046.199999809265","","image-slider-response","240","2753160","0.0-239.0","A2CAMVV9YNUA5O","","","","","-21","","","","","","","","","","","","","","","","","","","","","",""
"null","","image-button-response","241","2758166","0.0-240.0","A2CAMVV9YNUA5O","img_art/29.jpg","null","","","","","","","","","","","","","","","","","","","","","","","","",""
"4310","","image-button-response","242","2762479","0.0-241.0","A2CAMVV9YNUA5O","img_art/29.jpg","3","","","","","","","","","","","","","","","","","","","","","","","","",""
"2259","","image-button-response","243","2764743","0.0-242.0-0.0","A2CAMVV9YNUA5O","img_art/29.jpg","1","","","","","","","","","","","","","","","","","","","","","","","","",""
"4838","","image-button-response","244","2769587","0.0-243.0-0.0","A2CAMVV9YNUA5O","img_art/29.jpg","5","","","","","","","","","","","","","","","","","","","","","","","","",""
"null","","html-keyboard-response","245","2770590","0.0-244.0","A2CAMVV9YNUA5O","<p style=""font-size: 48px;"">+</p>","","","","","null","allTrialResponses","1000","1","28","img_art/29.jpg","-21","This looks like someone was trying to paint and then they finally gave up. ","Mackenzie,Heather,Margaret,Makayla,Michelle,Mary","The light source is confusing, but still interesting to look at,11,20,20","i dont know how it makes me feel.,1,260,20","this does nothing for me. hate the colors. hate the design,-50,100,20","Looks like a jail cell,-15,80,20","The texture really stands out, this is an interesting composition,6,280,20","I love the angry emotion to this art. I feel very drawn to it.,18,180,20","Makayla","Looks like a jail cell,-15,80,20","Heather","i dont know how it makes me feel.,1,260,20","Mary","I love the angry emotion to this art. I feel very drawn to it.,18,180,20","2"
"26441","","survey-text","246","2797046","0.0-245.0-0.0","A2CAMVV9YNUA5O","","","","{""Q0"":""A woman is sick laying in bed. ""}","","","","","","","","","","","","","","","","","","","","","","",""
"4205.700000047684","","image-slider-response","247","2801254","0.0-246.0","A2CAMVV9YNUA5O","","","","","-18","","","","","","","","","","","","","","","","","","","","","",""
"null","","image-button-response","248","2806272","0.0-247.0","A2CAMVV9YNUA5O","img_art/9.jpg","null","","","","","","","","","","","","","","","","","","","","","","","","",""
"9577","","image-button-response","249","2815853","0.0-248.0","A2CAMVV9YNUA5O","img_art/9.jpg","4","","","","","","","","","","","","","","","","","","","","","","","","",""
"16067","","image-button-response","250","2831926","0.0-249.0-0.0","A2CAMVV9YNUA5O","img_art/9.jpg","0","","","","","","","","","","","","","","","","","","","","","","","","",""
"975","","image-button-response","251","2832906","0.0-250.0-0.0","A2CAMVV9YNUA5O","img_art/9.jpg","1","","","","","","","","","","","","","","","","","","","","","","","","",""
"null","","html-keyboard-response","252","2834416","0.0-251.0","A2CAMVV9YNUA5O","<p style=""font-size: 48px;"">+</p>","","","","","null","allTrialResponses","1500","1","29","img_art/9.jpg","-18","A woman is sick laying in bed. ","Brittany,Heather,Crystal,Makayla,Megan,Mary","It reminds me of an illustration for a fairy tale.,19,40,20","a mother in bed surrounded by emotions,1,260,20","Evokes triumph of a mountain over powering a drowning sea,24,300,20","Looks like a monster's teeth , unsettling,-18,80,20","A troubled painter was influenced by anger and mad at the woman in the middle, color not bad,-32,200,20","How neat is this piece?  I love the angry expressive lines. Emotion is captured in it.,26,180,20","Megan","A troubled painter was influenced by anger and mad at the woman in the middle, color not bad,-32,200,20","Brittany","It reminds me of an illustration for a fairy tale.,19,40,20","Heather","a mother in bed surrounded by emotions,1,260,20","2"
"49215","","survey-text","253","2883640","0.0-252.0-0.0","A2CAMVV9YNUA5O","","","","{""Q0"":""THis evokes images of Stonehedge.  I don't understand the red. ""}","","","","","","","","","","","","","","","","","","","","","","",""
"4109.099999904633","","image-slider-response","254","2887753","0.0-253.0","A2CAMVV9YNUA5O","","","","","-30","","","","","","","","","","","","","","","","","","","","","",""
"null","","image-button-response","255","2892773","0.0-254.0","A2CAMVV9YNUA5O","img_art/30.jpg","null","","","","","","","","","","","","","","","","","","","","","","","","",""
"4858","","image-button-response","256","2897634","0.0-255.0","A2CAMVV9YNUA5O","img_art/30.jpg","4","","","","","","","","","","","","","","","","","","","","","","","","",""
"9712","","image-button-response","257","2907350","0.0-256.0-0.0","A2CAMVV9YNUA5O","img_art/30.jpg","0","","","","","","","","","","","","","","","","","","","","","","","","",""
"5186","","image-button-response","258","2912542","0.0-257.0-0.0","A2CAMVV9YNUA5O","img_art/30.jpg","5","","","","","","","","","","","","","","","","","","","","","","","","",""
"null","","html-keyboard-response","259","2913550","0.0-258.0","A2CAMVV9YNUA5O","<p style=""font-size: 48px;"">+</p>","","","","","null","allTrialResponses","1000","1","30","img_art/30.jpg","-30","THis evokes images of Stonehedge.  I don't understand the red. ","Brittany,Heather,Miranda,Brianna,Megan,Kelly","The colors and the brushstrokes are interesting enough.,17,40,20","beautiful paint brush strokes,1,260,20","It looks like it was made by pre-k students.,-30,320,20","I like the fact that it's a painting.,21,20,20","10 year old 10 minute project ""Fun with Painting"",-42,200,20","The red helps it to pop.,13,220,20","Megan","10 year old 10 minute project ""Fun with Painting"",-42,200,20","Brittany","The colors and the brushstrokes are interesting enough.,17,40,20","Kelly","The red helps it to pop.,13,220,20","2"
"8915","","image-button-response_instructions","260","2922474","0.0-259.0","A2CAMVV9YNUA5O","","0","instructions","","","","","","","","","","","","","","","","","","","","","","","",""
"2150","","image-button-response","261","2924639","0.0-260.0","A2CAMVV9YNUA5O","","0","","","","","","","","","","","","","","","","","","","","","","","","",""
