"rt","url","trial_type","trial_index","time_elapsed","internal_node_id","participant_id","stimulus","button_pressed","Name","responses","response","key_press","variableName","fixationTime","condition","trial","photo","subjectRating","subjectResponse","agentsNames","agent_1_Response","agent_2_Response","agent_3_Response","agent_4_Response","agent_5_Response","agent_6_Response","kept_1_name","kept_1_response","kept_2_name","kept_2_response","kept_3_name","kept_3_response","errorCounter"
"33036","external_page_harvard.html","external-html","0","33420","0.0-0.0","A2CA2CUWD2BH07","","","","","","","","","","","","","","","","","","","","","","","","","","",""
"2257","","image-button-response","1","35682","0.0-1.0","A2CA2CUWD2BH07","","1","","","","","","","","","","","","","","","","","","","","","","","","",""
"2834","","image-button-response","2","38529","0.0-2.0-0.0","A2CA2CUWD2BH07","","1","phone","","","","","","","","","","","","","","","","","","","","","","","",""
"12746","","survey-text","3","51279","0.0-3.0-0.0","A2CA2CUWD2BH07","","","","{""Q0"":""A2CA2CUWD2BH07""}","","","","","","","","","","","","","","","","","","","","","","",""
"7214","","image-button-response_instructions","4","58498","0.0-4.0","A2CA2CUWD2BH07","","0","instructions","","","","","","","","","","","","","","","","","","","","","","","",""
"50318","","image-button-response_instructions","5","108819","0.0-5.0","A2CA2CUWD2BH07","img_art/ins/popularity/ins1.png","0","instructions","","","","","","","","","","","","","","","","","","","","","","","",""
"14900","","image-button-response_instructions","6","123722","0.0-6.0","A2CA2CUWD2BH07","img_art/ins/popularity/ins2.png","0","instructions","","","","","","","","","","","","","","","","","","","","","","","",""
"10285","","image-button-response_instructions","7","134013","0.0-7.0","A2CA2CUWD2BH07","img_art/ins/popularity/ins2Extreme.png","0","instructions","","","","","","","","","","","","","","","","","","","","","","","",""
"20306","","image-button-response_instructions","8","154321","0.0-8.0","A2CA2CUWD2BH07","img_art/ins/popularity/ins3KEEPpop.PNG","0","instructions","","","","","","","","","","","","","","","","","","","","","","","",""
"5628","","image-button-response_instructions","9","159952","0.0-9.0","A2CA2CUWD2BH07","img_art/ins/popularity/ins3ANamepop.PNG","0","instructions","","","","","","","","","","","","","","","","","","","","","","","",""
"3103","","image-button-response_instructions","10","163058","0.0-10.0","A2CA2CUWD2BH07","img_art/ins/popularity/ins3ARatingpop.png","0","instructions","","","","","","","","","","","","","","","","","","","","","","","",""
"4557","","image-button-response_instructions","11","167617","0.0-11.0","A2CA2CUWD2BH07","img_art/ins/popularity/ins3ATextpop.png","0","instructions","","","","","","","","","","","","","","","","","","","","","","","",""
"12973","","image-button-response_instructions","12","180593","0.0-12.0","A2CA2CUWD2BH07","img_art/ins/popularity/ins3ALikespop.png","0","instructions","","","","","","","","","","","","","","","","","","","","","","","",""
"27191","","image-button-response_instructions","13","207787","0.0-13.0","A2CA2CUWD2BH07","img_art/ins/popularity/ins3KEEPpop.PNG","0","instructions","","","","","","","","","","","","","","","","","","","","","","","",""
"11106","","image-button-response_instructions","14","218897","0.0-14.0","A2CA2CUWD2BH07","img_art/ins/popularity/ins3_5RED.png","0","instructions","","","","","","","","","","","","","","","","","","","","","","","",""
"9475","","image-button-response_instructions","15","228376","0.0-15.0","A2CA2CUWD2BH07","img_art/ins/popularity/ins3KEEPpop.PNG","0","instructions","","","","","","","","","","","","","","","","","","","","","","","",""
"11541","","image-button-response_instructions","16","239919","0.0-16.0","A2CA2CUWD2BH07","img_art/ins/popularity/ins4KEEPpop.PNG","0","instructions","","","","","","","","","","","","","","","","","","","","","","","",""
"6029","","image-button-response_instructions","17","245951","0.0-17.0","A2CA2CUWD2BH07","img_art/ins/popularity/ins5KEEPpop.PNG","0","instructions","","","","","","","","","","","","","","","","","","","","","","","",""
"4733","","image-button-response_instructions","18","250687","0.0-18.0","A2CA2CUWD2BH07","","0","instructions","","","","","","","","","","","","","","","","","","","","","","","",""
"17416","","survey-text","19","268154","0.0-19.0-0.0","A2CA2CUWD2BH07","","","","{""Q0"":""but""}","","","","","","","","","","","","","","","","","","","","","","",""
"27457","","survey-text","20","295616","0.0-20.0-0.0","A2CA2CUWD2BH07","","","","{""Q0"":""It reminds me of spring, with earth and flowers""}","","","","","","","","","","","","","","","","","","","","","","",""
"12385.199999988079","","image-slider-response","21","308010","0.0-21.0","A2CA2CUWD2BH07","","","","","33","","","","","","","","","","","","","","","","","","","","","",""
"null","","image-button-response","22","313023","0.0-22.0","A2CA2CUWD2BH07","img_art/ins/1.jpg","null","","","","","","","","","","","","","","","","","","","","","","","","",""
"5774","","image-button-response","23","318802","0.0-23.0","A2CA2CUWD2BH07","img_art/ins/1.jpg","4","","","","","","","","","","","","","","","","","","","","","","","","",""
"3952","","image-button-response","24","322760","0.0-24.0-0.0","A2CA2CUWD2BH07","img_art/ins/1.jpg","0","","","","","","","","","","","","","","","","","","","","","","","","",""
"6219","","image-button-response","25","328987","0.0-25.0-0.0","A2CA2CUWD2BH07","img_art/ins/1.jpg","4","","","","","","","","","","","","","","","","","","","","","","","","",""
"12477","","image-button-response","26","352311","0.0-25.1-0.1","A2CA2CUWD2BH07","img_art/ins/1.jpg","5","","","","","","","","","","","","","","","","","","","","","","","","",""
"null","","html-keyboard-response","27","352819","0.0-26.0","A2CA2CUWD2BH07","<p style=""font-size: 48px;"">+</p>","","","","","null","allTrialResponses","500","1","-2","img_art/ins/1.jpg","33","It reminds me of spring, with earth and flowers","Allison,Ashley,Beth,Dora,Erika,Jen","looks like a lot of things going on in the mist,20,20,20","I just don't get why these type of art would be popular,-32,40,20","This color reminds me of poo,-46,60,20","looks like what my niece in 3rd grade did this afternoon,-50,80,20","I like the sophisticated brushwork,40,100,20","It reminds me of a candy land dream I had,36,120,20","Erika","I like the sophisticated brushwork,40,100,20","Allison","looks like a lot of things going on in the mist,20,20,20","Jen","It reminds me of a candy land dream I had,36,120,20","2"
"40031","","survey-text","28","392860","0.0-27.0-0.0","A2CA2CUWD2BH07","","","","{""Q0"":""Seems dark and angry, like a cityscape""}","","","","","","","","","","","","","","","","","","","","","","",""
"9394.700000047684","","image-slider-response","29","402260","0.0-28.0","A2CA2CUWD2BH07","","","","","10","","","","","","","","","","","","","","","","","","","","","",""
"null","","image-button-response","30","407266","0.0-29.0","A2CA2CUWD2BH07","img_art/ins/2.jpg","null","","","","","","","","","","","","","","","","","","","","","","","","",""
"12302","","image-button-response","31","419571","0.0-30.0","A2CA2CUWD2BH07","img_art/ins/2.jpg","0","","","","","","","","","","","","","","","","","","","","","","","","",""
"3804","","image-button-response","32","423379","0.0-31.0-0.0","A2CA2CUWD2BH07","img_art/ins/2.jpg","1","","","","","","","","","","","","","","","","","","","","","","","","",""
"10580","","image-button-response","33","433963","0.0-32.0-0.0","A2CA2CUWD2BH07","img_art/ins/2.jpg","5","","","","","","","","","","","","","","","","","","","","","","","","",""
"null","","html-keyboard-response","34","435466","0.0-33.0","A2CA2CUWD2BH07","<p style=""font-size: 48px;"">+</p>","","","","","null","allTrialResponses","1500","1","-1","img_art/ins/2.jpg","10","Seems dark and angry, like a cityscape","Allison,Kara,Katie,Jenna,Erika,Jen","I don't have strong feelings about this,10,20,20","I like the blocks of color arrangements,30,160,20","too much color!,-28,180,20","One of my pet peevs,-48,140,20","I would never be able to compose a sophisticated pallete like this,48,100,20","It reminds me of a fireplace,36,120,20","Allison","I don't have strong feelings about this,10,20,20","Kara","I like the blocks of color arrangements,30,160,20","Jen","It reminds me of a fireplace,36,120,20","2"
"51256","","survey-text","35","486728","0.0-34.0-0.0","A2CA2CUWD2BH07","","","","{""Q0"":""Origami against the sky""}","","","","","","","","","","","","","","","","","","","","","","",""
"7417.299999952316","","image-slider-response","36","494152","0.0-35.0","A2CA2CUWD2BH07","","","","","23","","","","","","","","","","","","","","","","","","","","","",""
"null","","image-button-response","37","499157","0.0-36.0","A2CA2CUWD2BH07","img_art/ins/3.jpg","null","","","","","","","","","","","","","","","","","","","","","","","","",""
"1695","","image-button-response","38","500855","0.0-37.0","A2CA2CUWD2BH07","img_art/ins/3.jpg","0","","","","","","","","","","","","","","","","","","","","","","","","",""
"14965","","image-button-response","39","515827","0.0-38.0-0.0","A2CA2CUWD2BH07","img_art/ins/3.jpg","5","","","","","","","","","","","","","","","","","","","","","","","","",""
"12212","","image-button-response","40","528044","0.0-39.0-0.0","A2CA2CUWD2BH07","img_art/ins/3.jpg","2","","","","","","","","","","","","","","","","","","","","","","","","",""
"null","","html-keyboard-response","41","529049","0.0-40.0","A2CA2CUWD2BH07","<p style=""font-size: 48px;"">+</p>","","","","","null","allTrialResponses","1000","1","0","img_art/ins/3.jpg","23","Origami against the sky","Allison,Kara,Rose,Leslie,Mary,Jen","enjoy the different shades of blue,22,20,20","calming blue is very nice,36,160,20","My daily routine, it's depressing,-20,240,20","It's an alright work,15,200,20","I like the overlapping of brushes,41,220,20","I can feel a rainy day from this painting,18,120,20","Allison","enjoy the different shades of blue,22,20,20","Jen","I can feel a rainy day from this painting,18,120,20","Rose","My daily routine, it's depressing,-20,240,20","2"
"8819","","image-button-response_instructions","42","537881","0.0-41.0","A2CA2CUWD2BH07","","0","instructions","","","","","","","","","","","","","","","","","","","","","","","",""
"13516","","survey-likert","43","551402","0.0-42.0-0.0","A2CA2CUWD2BH07","","","","{""Q0"":"""",""Q1"":0,""Q2"":1}","","","","","","","","","","","","","","","","","","","","","","",""
"6922","","survey-text","44","558351","0.0-43.0-0.0","A2CA2CUWD2BH07","","","","{""Q0"":""rock""}","","","","","","","","","","","","","","","","","","","","","","",""
"85461","","survey-text","45","643816","0.0-44.0-0.0","A2CA2CUWD2BH07","","","","{""Q0"":""Seems like good being sucked in, bad being spewed out""}","","","","","","","","","","","","","","","","","","","","","","",""
"6267.300000011921","","image-slider-response","46","650089","0.0-45.0","A2CA2CUWD2BH07","","","","","4","","","","","","","","","","","","","","","","","","","","","",""
"null","","image-button-response","47","655156","0.0-46.0","A2CA2CUWD2BH07","img_art/5.jpg","null","","","","","","","","","","","","","","","","","","","","","","","","",""
"12759","","image-button-response","48","667920","0.0-47.0","A2CA2CUWD2BH07","img_art/5.jpg","4","","","","","","","","","","","","","","","","","","","","","","","","",""
"4138","","image-button-response","49","672063","0.0-48.0-0.0","A2CA2CUWD2BH07","img_art/5.jpg","1","","","","","","","","","","","","","","","","","","","","","","","","",""
"13308","","image-button-response","50","685378","0.0-49.0-0.0","A2CA2CUWD2BH07","img_art/5.jpg","2","","","","","","","","","","","","","","","","","","","","","","","","",""
"null","","html-keyboard-response","51","686382","0.0-50.0","A2CA2CUWD2BH07","<p style=""font-size: 48px;"">+</p>","","","","","null","allTrialResponses","1000","1","1","img_art/5.jpg","4","Seems like good being sucked in, bad being spewed out","Jessica,Alexa,Chelsea,Sabrina,Kimberly,Brooke","Don't really know the point of this one.,-11,400,20","It's okay. Don't hate it but don't love it either,0,40,20","I'm not sure what is going on here.,-46,180,20","Very messy and not a lot of thought,-29,120,20","It feels positive and kind of uplifting,24,260,20","No. What even is this? A mop?,-35,60,20","Kimberly","It feels positive and kind of uplifting,24,260,20","Alexa","It's okay. Don't hate it but don't love it either,0,40,20","Chelsea","I'm not sure what is going on here.,-46,180,20","2"
"33408","","survey-text","52","719801","0.0-51.0-0.0","A2CA2CUWD2BH07","","","","{""Q0"":""Seems like a town on the water""}","","","","","","","","","","","","","","","","","","","","","","",""
"5128.699999988079","","image-slider-response","53","724934","0.0-52.0","A2CA2CUWD2BH07","","","","","18","","","","","","","","","","","","","","","","","","","","","",""
"null","","image-button-response","54","729953","0.0-53.0","A2CA2CUWD2BH07","img_art/20.jpg","null","","","","","","","","","","","","","","","","","","","","","","","","",""
"14564","","image-button-response","55","744521","0.0-54.0","A2CA2CUWD2BH07","img_art/20.jpg","1","","","","","","","","","","","","","","","","","","","","","","","","",""
"3989","","image-button-response","56","748514","0.0-55.0-0.0","A2CA2CUWD2BH07","img_art/20.jpg","2","","","","","","","","","","","","","","","","","","","","","","","","",""
"11272","","image-button-response","57","759792","0.0-56.0-0.0","A2CA2CUWD2BH07","img_art/20.jpg","5","","","","","","","","","","","","","","","","","","","","","","","","",""
"null","","html-keyboard-response","58","760800","0.0-57.0","A2CA2CUWD2BH07","<p style=""font-size: 48px;"">+</p>","","","","","null","allTrialResponses","1000","1","2","img_art/20.jpg","18","Seems like a town on the water","Kristen,Alexa,Chelsea,Diana,Kimberly,Angela","danger, car crash, stressful,-12,280,20","I like the calming mood of this painting,35,40,20","It is abstract but it looks neat.,15,180,20","I'm not sure why this reminds me of surrealism. It might be the colors used.,16,380,20","Something bad has happened TO reality,-23,260,20","I like the blues, and the sense of foreboding it makes me feel.,20,260,20","Alexa","I like the calming mood of this painting,35,40,20","Chelsea","It is abstract but it looks neat.,15,180,20","Angela","I like the blues, and the sense of foreboding it makes me feel.,20,260,20","2"
"57849","","survey-text","59","818663","0.0-58.0-0.0","A2CA2CUWD2BH07","","","","{""Q0"":""Seems like trees but not rooted, willowy""}","","","","","","","","","","","","","","","","","","","","","","",""
"5074.699999988079","","image-slider-response","60","823742","0.0-59.0","A2CA2CUWD2BH07","","","","","16","","","","","","","","","","","","","","","","","","","","","",""
"3292","","image-button-response","61","828752","0.0-60.0","A2CA2CUWD2BH07","img_art/17.jpg","0","","","","","","","","","","","","","","","","","","","","","","","","",""
"3405","","image-button-response","62","832166","0.0-61.0","A2CA2CUWD2BH07","img_art/17.jpg","0","","","","","","","","","","","","","","","","","","","","","","","","",""
"12292","","image-button-response","63","844463","0.0-62.0-0.0","A2CA2CUWD2BH07","img_art/17.jpg","1","","","","","","","","","","","","","","","","","","","","","","","","",""
"6920","","image-button-response","64","851390","0.0-63.0-0.0","A2CA2CUWD2BH07","img_art/17.jpg","3","","","","","","","","","","","","","","","","","","","","","","","","",""
"null","","html-keyboard-response","65","852396","0.0-64.0","A2CA2CUWD2BH07","<p style=""font-size: 48px;"">+</p>","","","","","null","allTrialResponses","1000","1","3","img_art/17.jpg","16","Seems like trees but not rooted, willowy","Mariah,Alexa,Chelsea,Gabrielle,Meghan,Angela","It feels like nature overtaking civilization.,21,140,20","The colors are beautiful and the painting itself is magnificent,50,40,20","The colors are soft.,32,180,20","nice composition and colors, fairy land,28,160,20","pretty bland in coloring,1,220,20","I like this, but it's a bit bland.,10,260,20","Mariah","It feels like nature overtaking civilization.,21,140,20","Alexa","The colors are beautiful and the painting itself is magnificent,50,40,20","Gabrielle","nice composition and colors, fairy land,28,160,20","2"
"66764","","survey-text","66","919166","0.0-65.0-0.0","A2CA2CUWD2BH07","","","","{""Q0"":""This seems to be a view from a street toward buildings""}","","","","","","","","","","","","","","","","","","","","","","",""
"5504.899999976158","","image-slider-response","67","924684","0.0-66.0","A2CA2CUWD2BH07","","","","","35","","","","","","","","","","","","","","","","","","","","","",""
"null","","image-button-response","68","929704","0.0-67.0","A2CA2CUWD2BH07","img_art/19.jpg","null","","","","","","","","","","","","","","","","","","","","","","","","",""
"13675","","image-button-response","69","943385","0.0-68.0","A2CA2CUWD2BH07","img_art/19.jpg","1","","","","","","","","","","","","","","","","","","","","","","","","",""
"3115","","image-button-response","70","946505","0.0-69.0-0.0","A2CA2CUWD2BH07","img_art/19.jpg","0","","","","","","","","","","","","","","","","","","","","","","","","",""
"7346","","image-button-response","71","953856","0.0-70.0-0.0","A2CA2CUWD2BH07","img_art/19.jpg","5","","","","","","","","","","","","","","","","","","","","","","","","",""
"null","","html-keyboard-response","72","955361","0.0-71.0","A2CA2CUWD2BH07","<p style=""font-size: 48px;"">+</p>","","","","","null","allTrialResponses","1500","1","4","img_art/19.jpg","35","This seems to be a view from a street toward buildings","Mariah,Alexa,Cassidy,Gabrielle,Emma,Sara","I like the watercolor and colors, do not like the deconstructed city scene feel.,0,140,20","It has a chaotic energy about it that draws me in,40,40,20","too much going on, can't tell what it is,-14,140,20","not professional looking but not bad either,13,160,20","Interesting, leaves you wondering what it is,40,60,20","I like the vibrant color blocks,13,160,20","Alexa","It has a chaotic energy about it that draws me in,40,40,20","Mariah","I like the watercolor and colors, do not like the deconstructed city scene feel.,0,140,20","Sara","I like the vibrant color blocks,13,160,20","2"
"52527","","survey-text","73","1007902","0.0-72.0-0.0","A2CA2CUWD2BH07","","","","{""Q0"":""One solid platform amongst chaos""}","","","","","","","","","","","","","","","","","","","","","","",""
"5139.399999976158","","image-slider-response","74","1013046","0.0-73.0","A2CA2CUWD2BH07","","","","","-8","","","","","","","","","","","","","","","","","","","","","",""
"null","","image-button-response","75","1018053","0.0-74.0","A2CA2CUWD2BH07","img_art/3.jpg","null","","","","","","","","","","","","","","","","","","","","","","","","",""
"12709","","image-button-response","76","1030765","0.0-75.0","A2CA2CUWD2BH07","img_art/3.jpg","0","","","","","","","","","","","","","","","","","","","","","","","","",""
"3075","","image-button-response","77","1033846","0.0-76.0-0.0","A2CA2CUWD2BH07","img_art/3.jpg","3","","","","","","","","","","","","","","","","","","","","","","","","",""
"18468","","image-button-response","78","1052320","0.0-77.0-0.0","A2CA2CUWD2BH07","img_art/3.jpg","5","","","","","","","","","","","","","","","","","","","","","","","","",""
"null","","html-keyboard-response","79","1053839","0.0-78.0","A2CA2CUWD2BH07","<p style=""font-size: 48px;"">+</p>","","","","","null","allTrialResponses","1500","1","5","img_art/3.jpg","-8","One solid platform amongst chaos","Mariah,Alexa,Lauren,Erika,Kelsey,Sara","The composition keeps the eye moving, the colors are satisfying.,31,140,20","Looks messy and too much for my eyes,-35,40,20","No clue what I'm looking. This just looks a series of scribbles in a box.,-20,340,20","Unaure what the artist  was doing, needs context,11,100,20","just scribbles, not pleasing,-30,240,20","Random use of red and looks scary,-50,160,20","Mariah","The composition keeps the eye moving, the colors are satisfying.,31,140,20","Erika","Unaure what the artist  was doing, needs context,11,100,20","Sara","Random use of red and looks scary,-50,160,20","2"
"6276","","survey-text","80","1060150","0.0-79.0-0.0","A2CA2CUWD2BH07","","","","{""Q0"":""sky""}","","","","","","","","","","","","","","","","","","","","","","",""
"52029","","survey-text","81","1112183","0.0-80.0-0.0","A2CA2CUWD2BH07","","","","{""Q0"":""Bluebirds in a blackberry bush""}","","","","","","","","","","","","","","","","","","","","","","",""
"9073.399999976158","","image-slider-response","82","1121262","0.0-81.0","A2CA2CUWD2BH07","","","","","34","","","","","","","","","","","","","","","","","","","","","",""
"null","","image-button-response","83","1126270","0.0-82.0","A2CA2CUWD2BH07","img_art/15.jpg","null","","","","","","","","","","","","","","","","","","","","","","","","",""
"7851","","image-button-response","84","1134126","0.0-83.0","A2CA2CUWD2BH07","img_art/15.jpg","0","","","","","","","","","","","","","","","","","","","","","","","","",""
"1691","","image-button-response","85","1135822","0.0-84.0-0.0","A2CA2CUWD2BH07","img_art/15.jpg","1","","","","","","","","","","","","","","","","","","","","","","","","",""
"3141","","image-button-response","86","1138968","0.0-85.0-0.0","A2CA2CUWD2BH07","img_art/15.jpg","3","","","","","","","","","","","","","","","","","","","","","","","","",""
"null","","html-keyboard-response","87","1139972","0.0-86.0","A2CA2CUWD2BH07","<p style=""font-size: 48px;"">+</p>","","","","","null","allTrialResponses","1000","1","6","img_art/15.jpg","34","Bluebirds in a blackberry bush","Mariah,Kaylee,Savannah,Erika,Makayla,Sara","It is visually appealing, stark and simple but natural.,41,140,20","some trees in the forest,15,200,20","Love the accent colors in this piece!,20,200,20","I like the dense patterns and the splashes  of blue,38,100,20","It's just dots. Doesn't bring any positive or negative feelings,2,80,20","I don't like the black dots,-19,160,20","Mariah","It is visually appealing, stark and simple but natural.,41,140,20","Kaylee","some trees in the forest,15,200,20","Erika","I like the dense patterns and the splashes  of blue,38,100,20","2"
"99881","","survey-text","88","1239869","0.0-87.0-0.0","A2CA2CUWD2BH07","","","","{""Q0"":""Seems primitive, a desertscape""}","","","","","","","","","","","","","","","","","","","","","","",""
"4029.100000023842","","image-slider-response","89","1243902","0.0-88.0","A2CA2CUWD2BH07","","","","","9","","","","","","","","","","","","","","","","","","","","","",""
"null","","image-button-response","90","1248917","0.0-89.0","A2CA2CUWD2BH07","img_art/7.jpg","null","","","","","","","","","","","","","","","","","","","","","","","","",""
"2084","","image-button-response","91","1251006","0.0-90.0","A2CA2CUWD2BH07","img_art/7.jpg","2","","","","","","","","","","","","","","","","","","","","","","","","",""
"16226","","image-button-response","92","1267238","0.0-91.0-0.0","A2CA2CUWD2BH07","img_art/7.jpg","3","","","","","","","","","","","","","","","","","","","","","","","","",""
"9144","","image-button-response","93","1276390","0.0-92.0-0.0","A2CA2CUWD2BH07","img_art/7.jpg","0","","","","","","","","","","","","","","","","","","","","","","","","",""
"null","","html-keyboard-response","94","1277412","0.0-93.0","A2CA2CUWD2BH07","<p style=""font-size: 48px;"">+</p>","","","","","null","allTrialResponses","1000","1","7","img_art/7.jpg","9","Seems primitive, a desertscape","Mariah,Kaylee,Shelby,Erika,Natalie,Leslie","The dried bottom of a puddle in July.,-41,140,20","some rocks on a mars?,7,200,20","This feels very earthy and grounded,20,240,20","Detail oriented, like cracked paint wall,15,100,20","does not look good,-42,400,20","This elicits no reaction in me.,0,380,20","Shelby","This feels very earthy and grounded,20,240,20","Erika","Detail oriented, like cracked paint wall,15,100,20","Mariah","The dried bottom of a puddle in July.,-41,140,20","2"
"42671","","survey-text","95","1320094","0.0-94.0-0.0","A2CA2CUWD2BH07","","","","{""Q0"":""Soft, an interior with plants""}","","","","","","","","","","","","","","","","","","","","","","",""
"5370.299999952316","","image-slider-response","96","1325469","0.0-95.0","A2CA2CUWD2BH07","","","","","21","","","","","","","","","","","","","","","","","","","","","",""
"null","","image-button-response","97","1330488","0.0-96.0","A2CA2CUWD2BH07","img_art/26.jpg","null","","","","","","","","","","","","","","","","","","","","","","","","",""
"6007","","image-button-response","98","1336502","0.0-97.0","A2CA2CUWD2BH07","img_art/26.jpg","5","","","","","","","","","","","","","","","","","","","","","","","","",""
"3843","","image-button-response","99","1340352","0.0-98.0-0.0","A2CA2CUWD2BH07","img_art/26.jpg","2","","","","","","","","","","","","","","","","","","","","","","","","",""
"9146","","image-button-response","100","1349506","0.0-99.0-0.0","A2CA2CUWD2BH07","img_art/26.jpg","3","","","","","","","","","","","","","","","","","","","","","","","","",""
"null","","html-keyboard-response","101","1350515","0.0-100.0","A2CA2CUWD2BH07","<p style=""font-size: 48px;"">+</p>","","","","","null","allTrialResponses","1000","1","8","img_art/26.jpg","21","Soft, an interior with plants","Mariah,Briana,Shelby,Erika,Katelyn,Grace","Pleasant but bland.,10,140,20","Another blob on a landscape. A city street?,9,400,20","Very pleasent little scene,40,240,20","Feels like still life,-13,100,20","Looks bland and boring,-5,100,20","Like the muted colors & the scene which seems to be serene.,14,180,20","Grace","Like the muted colors & the scene which seems to be serene.,14,180,20","Shelby","Very pleasent little scene,40,240,20","Erika","Feels like still life,-13,100,20","2"
"52549","","survey-text","102","1403089","0.0-101.0-0.0","A2CA2CUWD2BH07","","","","{""Q0"":""Blues and olive green make this a dreary scene""}","","","","","","","","","","","","","","","","","","","","","","",""
"4582","","image-slider-response","103","1407682","0.0-102.0","A2CA2CUWD2BH07","","","","","-17","","","","","","","","","","","","","","","","","","","","","",""
"null","","image-button-response","104","1412737","0.0-103.0","A2CA2CUWD2BH07","img_art/2.jpg","null","","","","","","","","","","","","","","","","","","","","","","","","",""
"13652","","image-button-response","105","1426394","0.0-104.0","A2CA2CUWD2BH07","img_art/2.jpg","2","","","","","","","","","","","","","","","","","","","","","","","","",""
"17233","","image-button-response","106","1443633","0.0-105.0-0.0","A2CA2CUWD2BH07","img_art/2.jpg","0","","","","","","","","","","","","","","","","","","","","","","","","",""
"6899","","image-button-response","107","1450538","0.0-106.0-0.0","A2CA2CUWD2BH07","img_art/2.jpg","5","","","","","","","","","","","","","","","","","","","","","","","","",""
"null","","html-keyboard-response","108","1451543","0.0-107.0","A2CA2CUWD2BH07","<p style=""font-size: 48px;"">+</p>","","","","","null","allTrialResponses","1000","1","9","img_art/2.jpg","-17","Blues and olive green make this a dreary scene","Michelle,Courtney,Shelby,Erika,Erica,Grace","Don't like the puke green color and also too abstact,-14,280,20","That looks look a cartoon character of some kind.,11,280,20","The contrasting colors are a bit harsh,-10,240,20","Indistinct and too bright,-21,100,20","positive, seems like someone really happy and colourful is looking at me,22,80,20","Like the colors but reminds me of a kids show done in cubism.,0,180,20","Shelby","The contrasting colors are a bit harsh,-10,240,20","Michelle","Don't like the puke green color and also too abstact,-14,280,20","Grace","Like the colors but reminds me of a kids show done in cubism.,0,180,20","2"
"36060","","survey-text","109","1487617","0.0-108.0-0.0","A2CA2CUWD2BH07","","","","{""Q0"":""A view of the earth from beyond the space station""}","","","","","","","","","","","","","","","","","","","","","","",""
"4467.399999976158","","image-slider-response","110","1492088","0.0-109.0","A2CA2CUWD2BH07","","","","","17","","","","","","","","","","","","","","","","","","","","","",""
"null","","image-button-response","111","1497106","0.0-110.0","A2CA2CUWD2BH07","img_art/18.jpg","null","","","","","","","","","","","","","","","","","","","","","","","","",""
"3107","","image-button-response","112","1500217","0.0-111.0","A2CA2CUWD2BH07","img_art/18.jpg","1","","","","","","","","","","","","","","","","","","","","","","","","",""
"13450","","image-button-response","113","1513673","0.0-112.0-0.0","A2CA2CUWD2BH07","img_art/18.jpg","5","","","","","","","","","","","","","","","","","","","","","","","","",""
"7848","","image-button-response","114","1521544","0.0-113.0-0.0","A2CA2CUWD2BH07","img_art/18.jpg","0","","","","","","","","","","","","","","","","","","","","","","","","",""
"null","","html-keyboard-response","115","1522600","0.0-114.0","A2CA2CUWD2BH07","<p style=""font-size: 48px;"">+</p>","","","","","null","allTrialResponses","1000","1","10","img_art/18.jpg","17","A view of the earth from beyond the space station","Michelle,Anna,Shelby,Tiffany,Angelica,Grace","The small lines elicit a very nauseating response for some reason, too Dali like for me,-19,280,20","I could spend a long time looking at it and see different things in the shapes.,21,300,20","This gives a very ominous feeling,-30,240,20","I'm mildly disgusted by the colors, and can't piece together the story the figures are trying to tell.,-10,360,20","It looks grotesque and violent.,-50,280,20","First saw sailing ship in bad weather but then saw woman in upper left - not sure what I'm seeing.,21,180,20","Anna","I could spend a long time looking at it and see different things in the shapes.,21,300,20","Grace","First saw sailing ship in bad weather but then saw woman in upper left - not sure what I'm seeing.,21,180,20","Michelle","The small lines elicit a very nauseating response for some reason, too Dali like for me,-19,280,20","2"
"5920","","survey-text","116","1528545","0.0-115.0-0.0","A2CA2CUWD2BH07","","","","{""Q0"":""our""}","","","","","","","","","","","","","","","","","","","","","","",""
"150416","","survey-text","117","1678965","0.0-116.0-0.0","A2CA2CUWD2BH07","","","","{""Q0"":""A waterfall into a meadow; peaceful and happy""}","","","","","","","","","","","","","","","","","","","","","","",""
"6364.399999976158","","image-slider-response","118","1685334","0.0-117.0","A2CA2CUWD2BH07","","","","","32","","","","","","","","","","","","","","","","","","","","","",""
"3658","","image-button-response","119","1690341","0.0-118.0","A2CA2CUWD2BH07","img_art/24.jpg","0","","","","","","","","","","","","","","","","","","","","","","","","",""
"14919","","image-button-response","120","1705265","0.0-119.0","A2CA2CUWD2BH07","img_art/24.jpg","0","","","","","","","","","","","","","","","","","","","","","","","","",""
"2620","","image-button-response","121","1707890","0.0-120.0-0.0","A2CA2CUWD2BH07","img_art/24.jpg","1","","","","","","","","","","","","","","","","","","","","","","","","",""
"6043","","image-button-response","122","1713938","0.0-121.0-0.0","A2CA2CUWD2BH07","img_art/24.jpg","4","","","","","","","","","","","","","","","","","","","","","","","","",""
"null","","html-keyboard-response","123","1715442","0.0-122.0","A2CA2CUWD2BH07","<p style=""font-size: 48px;"">+</p>","","","","","null","allTrialResponses","1500","1","11","img_art/24.jpg","32","A waterfall into a meadow; peaceful and happy","Michelle,Anna,Samantha,Kaitlin,Rachel,Grace","Looks like a waterfall or a brook, the colors are very nice,15,280,20","I like how it evokes the feeling of being in a forest. The colors are pretty,31,300,20","Happy and relaxing bubbling brook,37,140,20","Aww. I love the peace brought by this picture.,40,60,20","Looks like a beautiful stream rolling through terrain of rocks and flowers.,43,80,20","Abstract falls & nature.,41,180,20","Michelle","Looks like a waterfall or a brook, the colors are very nice,15,280,20","Anna","I like how it evokes the feeling of being in a forest. The colors are pretty,31,300,20","Rachel","Looks like a beautiful stream rolling through terrain of rocks and flowers.,43,80,20","2"
"28994","","survey-text","124","1744454","0.0-123.0-0.0","A2CA2CUWD2BH07","","","","{""Q0"":""Light vs. dark; evokes Lord of the Rings""}","","","","","","","","","","","","","","","","","","","","","","",""
"4788","","image-slider-response","125","1749247","0.0-124.0","A2CA2CUWD2BH07","","","","","11","","","","","","","","","","","","","","","","","","","","","",""
"null","","image-button-response","126","1754255","0.0-125.0","A2CA2CUWD2BH07","img_art/21.jpg","null","","","","","","","","","","","","","","","","","","","","","","","","",""
"10680","","image-button-response","127","1764939","0.0-126.0","A2CA2CUWD2BH07","img_art/21.jpg","3","","","","","","","","","","","","","","","","","","","","","","","","",""
"12273","","image-button-response","128","1777218","0.0-127.0-0.0","A2CA2CUWD2BH07","img_art/21.jpg","1","","","","","","","","","","","","","","","","","","","","","","","","",""
"6289","","image-button-response","129","1783513","0.0-128.0-0.0","A2CA2CUWD2BH07","img_art/21.jpg","4","","","","","","","","","","","","","","","","","","","","","","","","",""
"null","","html-keyboard-response","130","1784517","0.0-129.0","A2CA2CUWD2BH07","<p style=""font-size: 48px;"">+</p>","","","","","null","allTrialResponses","1000","1","12","img_art/21.jpg","11","Light vs. dark; evokes Lord of the Rings","Michelle,Anna,Allison,Kathryn,Rachel,Andrea","The colors are very nice. I like the dots because they remind me of pearls,5,280,20","I love the colors and the differences between the left and right sides.,22,300,20","I like color mix here,15,140,20","This feels chaotic, like a battle or a storm.,-20,140,20","Looks like a body of water during a sunset. I like this piece.,21,80,20","It feels like a day at sea but the pink is slightly jarring and holding my eye.,26,240,20","Kathryn","This feels chaotic, like a battle or a storm.,-20,140,20","Anna","I love the colors and the differences between the left and right sides.,22,300,20","Rachel","Looks like a body of water during a sunset. I like this piece.,21,80,20","2"
"60213","","survey-text","131","1844744","0.0-130.0-0.0","A2CA2CUWD2BH07","","","","{""Q0"":""Muddy and busy with no context""}","","","","","","","","","","","","","","","","","","","","","","",""
"4059.5","","image-slider-response","132","1848808","0.0-131.0","A2CA2CUWD2BH07","","","","","-34","","","","","","","","","","","","","","","","","","","","","",""
"null","","image-button-response","133","1853830","0.0-132.0","A2CA2CUWD2BH07","img_art/30.jpg","null","","","","","","","","","","","","","","","","","","","","","","","","",""
"3142","","image-button-response","134","1856977","0.0-133.0","A2CA2CUWD2BH07","img_art/30.jpg","1","","","","","","","","","","","","","","","","","","","","","","","","",""
"13418","","image-button-response","135","1870400","0.0-134.0-0.0","A2CA2CUWD2BH07","img_art/30.jpg","2","","","","","","","","","","","","","","","","","","","","","","","","",""
"9601","","image-button-response","136","1880009","0.0-135.0-0.0","A2CA2CUWD2BH07","img_art/30.jpg","3","","","","","","","","","","","","","","","","","","","","","","","","",""
"null","","html-keyboard-response","137","1880514","0.0-136.0","A2CA2CUWD2BH07","<p style=""font-size: 48px;"">+</p>","","","","","null","allTrialResponses","500","1","13","img_art/30.jpg","-34","Muddy and busy with no context","Stephanie,Anna,Shannon,Kathryn,Rachel,Haley","My kindergarten class could do this,-50,300,20","It looks like a pretty but unremarkable painting in a doctors office,15,300,20","I feel like the colors are too repetitive and not very eyecatching.,-20,220,20","It's like a child's art piece: carefree and not trying to conform to anything.,10,140,20","I like this one because I am a mom and it reminds me of a child finger-painting.,20,80,20","I like the colors,18,220,20","Anna","It looks like a pretty but unremarkable painting in a doctors office,15,300,20","Shannon","I feel like the colors are too repetitive and not very eyecatching.,-20,220,20","Kathryn","It's like a child's art piece: carefree and not trying to conform to anything.,10,140,20","2"
"34155","","survey-text","138","1914679","0.0-137.0-0.0","A2CA2CUWD2BH07","","","","{""Q0"":""Useful items set in nature""}","","","","","","","","","","","","","","","","","","","","","","",""
"4634.399999976158","","image-slider-response","139","1919319","0.0-138.0","A2CA2CUWD2BH07","","","","","9","","","","","","","","","","","","","","","","","","","","","",""
"null","","image-button-response","140","1924324","0.0-139.0","A2CA2CUWD2BH07","img_art/27.jpg","null","","","","","","","","","","","","","","","","","","","","","","","","",""
"10293","","image-button-response","141","1934621","0.0-140.0","A2CA2CUWD2BH07","img_art/27.jpg","3","","","","","","","","","","","","","","","","","","","","","","","","",""
"11867","","image-button-response","142","1946492","0.0-141.0-0.0","A2CA2CUWD2BH07","img_art/27.jpg","4","","","","","","","","","","","","","","","","","","","","","","","","",""
"7945","","image-button-response","143","1954443","0.0-142.0-0.0","A2CA2CUWD2BH07","img_art/27.jpg","5","","","","","","","","","","","","","","","","","","","","","","","","",""
"null","","html-keyboard-response","144","1955946","0.0-143.0","A2CA2CUWD2BH07","<p style=""font-size: 48px;"">+</p>","","","","","null","allTrialResponses","1500","1","14","img_art/27.jpg","9","Useful items set in nature","Kaitlyn,Anna,Shannon,Kathryn,Isabella,Bailey","The variation of orange is nice,9,80,20","It looks like when my little sister took magic markers to the wall.,-11,300,20","This image could do a better job of showing what is going on and it could use more colors.,-42,220,20","Makes me think of Japanese food. I perceive it as comfortable and healthy.,20,140,20","Makes me feel warm inside,21,280,20","Looks like a splash of different colors and designs without purpose,-44,360,20","Kathryn","Makes me think of Japanese food. I perceive it as comfortable and healthy.,20,140,20","Isabella","Makes me feel warm inside,21,280,20","Bailey","Looks like a splash of different colors and designs without purpose,-44,360,20","2"
"27007","","survey-text","145","1982970","0.0-144.0-0.0","A2CA2CUWD2BH07","","","","{""Q0"":""Bronze sculpture on a pedestal""}","","","","","","","","","","","","","","","","","","","","","","",""
"4644.400000035763","","image-slider-response","146","1987618","0.0-145.0","A2CA2CUWD2BH07","","","","","5","","","","","","","","","","","","","","","","","","","","","",""
"null","","image-button-response","147","1992631","0.0-146.0","A2CA2CUWD2BH07","img_art/4.jpg","null","","","","","","","","","","","","","","","","","","","","","","","","",""
"11589","","image-button-response","148","2004226","0.0-147.0","A2CA2CUWD2BH07","img_art/4.jpg","1","","","","","","","","","","","","","","","","","","","","","","","","",""
"5691","","image-button-response","149","2009923","0.0-148.0-0.0","A2CA2CUWD2BH07","img_art/4.jpg","3","","","","","","","","","","","","","","","","","","","","","","","","",""
"2008","","image-button-response","150","2011939","0.0-149.0-0.0","A2CA2CUWD2BH07","img_art/4.jpg","4","","","","","","","","","","","","","","","","","","","","","","","","",""
"null","","html-keyboard-response","151","2012445","0.0-150.0","A2CA2CUWD2BH07","<p style=""font-size: 48px;"">+</p>","","","","","null","allTrialResponses","500","1","15","img_art/4.jpg","5","Bronze sculpture on a pedestal","Sierra,Olivia,Amy,Kathryn,Isabella,Bailey","it looks like a deformed hand,-9,260,20","The muted tones,-11,40,20","disturbing and uncomfortable.,10,220,20","I feel kind of guilty looking at this, like I'm receiving a reward I don't I deserve.,-10,140,20","Looks like a creative hand,45,280,20","Boring and tasteless. Almost reminds me of when an art gallery called a banana 'art',-42,360,20","Olivia","The muted tones,-11,40,20","Kathryn","I feel kind of guilty looking at this, like I'm receiving a reward I don't I deserve.,-10,140,20","Isabella","Looks like a creative hand,45,280,20","2"
"6070","","survey-text","152","2018549","0.0-151.0-0.0","A2CA2CUWD2BH07","","","","{""Q0"":""course""}","","","","","","","","","","","","","","","","","","","","","","",""
"70728","","survey-text","153","2089279","0.0-152.0-0.0","A2CA2CUWD2BH07","","","","{""Q0"":""Ancient depiction of a larger than life godhead""}","","","","","","","","","","","","","","","","","","","","","","",""
"7645.400000035763","","image-slider-response","154","2096928","0.0-153.0","A2CA2CUWD2BH07","","","","","-10","","","","","","","","","","","","","","","","","","","","","",""
"null","","image-button-response","155","2101938","0.0-154.0","A2CA2CUWD2BH07","img_art/25.jpg","null","","","","","","","","","","","","","","","","","","","","","","","","",""
"15850","","image-button-response","156","2117794","0.0-155.0","A2CA2CUWD2BH07","img_art/25.jpg","1","","","","","","","","","","","","","","","","","","","","","","","","",""
"7567","","image-button-response","157","2125368","0.0-156.0-0.0","A2CA2CUWD2BH07","img_art/25.jpg","3","","","","","","","","","","","","","","","","","","","","","","","","",""
"9812","","image-button-response","158","2135187","0.0-157.0-0.0","A2CA2CUWD2BH07","img_art/25.jpg","5","","","","","","","","","","","","","","","","","","","","","","","","",""
"null","","html-keyboard-response","159","2135691","0.0-158.0","A2CA2CUWD2BH07","<p style=""font-size: 48px;"">+</p>","","","","","null","allTrialResponses","500","1","16","img_art/25.jpg","-10","Ancient depiction of a larger than life godhead","Laura,Olivia,Miranda,Kathryn,Isabella,Hannah","I think of death,-28,320,20","reminds me of burning man,18,40,20","This looks cool but I don't really care for it. Some sort or religious figure?,16,320,20","I feel uneasy. Like watching someone powerful ready to perform a ritual, but I don't know their intentions.,-10,140,20","I love the green and the figure is black but the green makes it pop,29,280,20","Looks like a voodoo figure in a New Orleans cemetery at night.,-5,240,20","Olivia","reminds me of burning man,18,40,20","Kathryn","I feel uneasy. Like watching someone powerful ready to perform a ritual, but I don't know their intentions.,-10,140,20","Hannah","Looks like a voodoo figure in a New Orleans cemetery at night.,-5,240,20","2"
"36889","","survey-text","160","2172600","0.0-159.0-0.0","A2CA2CUWD2BH07","","","","{""Q0"":""Sleeping woman on a quilt in a forest""}","","","","","","","","","","","","","","","","","","","","","","",""
"4546.400000035763","","image-slider-response","161","2177152","0.0-160.0","A2CA2CUWD2BH07","","","","","5","","","","","","","","","","","","","","","","","","","","","",""
"null","","image-button-response","162","2182172","0.0-161.0","A2CA2CUWD2BH07","img_art/9.jpg","null","","","","","","","","","","","","","","","","","","","","","","","","",""
"15952","","image-button-response","163","2198129","0.0-162.0","A2CA2CUWD2BH07","img_art/9.jpg","2","","","","","","","","","","","","","","","","","","","","","","","","",""
"3227","","image-button-response","164","2201367","0.0-163.0-0.0","A2CA2CUWD2BH07","img_art/9.jpg","4","","","","","","","","","","","","","","","","","","","","","","","","",""
"2548","","image-button-response","165","2203921","0.0-164.0-0.0","A2CA2CUWD2BH07","img_art/9.jpg","3","","","","","","","","","","","","","","","","","","","","","","","","",""
"null","","html-keyboard-response","166","2205425","0.0-165.0","A2CA2CUWD2BH07","<p style=""font-size: 48px;"">+</p>","","","","","null","allTrialResponses","1500","1","17","img_art/9.jpg","5","Sleeping woman on a quilt in a forest","Cassandra,Olivia,Mary,Kathryn,Katie,Hannah","Stuipid looking...dumb,-48,120,20","what a wild ride,11,40,20","How neat is this piece?  I love the angry expressive lines. Emotion is captured in it.,26,180,20","This feels dreamy. Like I'm seeing inside someone's head while they're sleeping.,20,140,20","I like the blues and pinks. The woman lying down communicates relaxation. It is a serene, calming scene,30,160,20","Someone lying in bed?  Don't care for it.,-14,240,20","Mary","How neat is this piece?  I love the angry expressive lines. Emotion is captured in it.,26,180,20","Katie","I like the blues and pinks. The woman lying down communicates relaxation. It is a serene, calming scene,30,160,20","Kathryn","This feels dreamy. Like I'm seeing inside someone's head while they're sleeping.,20,140,20","2"
"65592","","survey-text","167","2271034","0.0-166.0-0.0","A2CA2CUWD2BH07","","","","{""Q0"":""Life in bold colors spinning through the universe""}","","","","","","","","","","","","","","","","","","","","","","",""
"6931.199999988079","","image-slider-response","168","2277969","0.0-167.0","A2CA2CUWD2BH07","","","","","28","","","","","","","","","","","","","","","","","","","","","",""
"null","","image-button-response","169","2282974","0.0-168.0","A2CA2CUWD2BH07","img_art/22.jpg","null","","","","","","","","","","","","","","","","","","","","","","","","",""
"6616","","image-button-response","170","2289595","0.0-169.0","A2CA2CUWD2BH07","img_art/22.jpg","3","","","","","","","","","","","","","","","","","","","","","","","","",""
"5881","","image-button-response","171","2295482","0.0-170.0-0.0","A2CA2CUWD2BH07","img_art/22.jpg","0","","","","","","","","","","","","","","","","","","","","","","","","",""
"7243","","image-button-response","172","2302731","0.0-171.0-0.0","A2CA2CUWD2BH07","img_art/22.jpg","5","","","","","","","","","","","","","","","","","","","","","","","","",""
"null","","html-keyboard-response","173","2303235","0.0-172.0","A2CA2CUWD2BH07","<p style=""font-size: 48px;"">+</p>","","","","","null","allTrialResponses","500","1","18","img_art/22.jpg","28","Life in bold colors spinning through the universe","Jenna,Molly,Mary,Kathryn,Katie,Jamie","beautiful. love the bright colors & soft brush strokes, and the imprint of the key is genius.,50,360,20","Unfortunately, I can't see anything special in this painting.,-20,340,20","I do not like the color combo. This piece is too much the same throughout.,-1,180,20","This piece gives off a cool vibe. Reminds me of being out in the city at night.,20,140,20","Too much red. The red/yellow/orange make me think of heat/fire, which makes me anxious.,-10,160,20","Like the mix of warm and cool colors,15,320,20","Kathryn","This piece gives off a cool vibe. Reminds me of being out in the city at night.,20,140,20","Jenna","beautiful. love the bright colors & soft brush strokes, and the imprint of the key is genius.,50,360,20","Jamie","Like the mix of warm and cool colors,15,320,20","2"
"30069","","survey-text","174","2333322","0.0-173.0-0.0","A2CA2CUWD2BH07","","","","{""Q0"":""Childhood things remembered""}","","","","","","","","","","","","","","","","","","","","","","",""
"4033.899999976158","","image-slider-response","175","2337361","0.0-174.0","A2CA2CUWD2BH07","","","","","-7","","","","","","","","","","","","","","","","","","","","","",""
"null","","image-button-response","176","2342374","0.0-175.0","A2CA2CUWD2BH07","img_art/16.jpg","null","","","","","","","","","","","","","","","","","","","","","","","","",""
"7574","","image-button-response","177","2349953","0.0-176.0","A2CA2CUWD2BH07","img_art/16.jpg","3","","","","","","","","","","","","","","","","","","","","","","","","",""
"5290","","image-button-response","178","2355249","0.0-177.0-0.0","A2CA2CUWD2BH07","img_art/16.jpg","0","","","","","","","","","","","","","","","","","","","","","","","","",""
"10219","","image-button-response","179","2365473","0.0-178.0-0.0","A2CA2CUWD2BH07","img_art/16.jpg","1","","","","","","","","","","","","","","","","","","","","","","","","",""
"null","","html-keyboard-response","180","2366995","0.0-179.0","A2CA2CUWD2BH07","<p style=""font-size: 48px;"">+</p>","","","","","null","allTrialResponses","1500","1","19","img_art/16.jpg","-7","Childhood things remembered","Jenna,Elizabeth,Madison,Kathryn,Julia,Jamie","very bizarre and confusing, but that feels purposeful, so i don't completely hate it.,-25,360,20","Picture seems unique,12,20,20","Pop art, Tate Modern horse dung.,-50,60,20","I see something that is supposed to be comforting but it's been discarded and lost.,-20,140,20","I love the teddy bear,50,40,20","Weird and funny,40,320,20","Kathryn","I see something that is supposed to be comforting but it's been discarded and lost.,-20,140,20","Jenna","very bizarre and confusing, but that feels purposeful, so i don't completely hate it.,-25,360,20","Elizabeth","Picture seems unique,12,20,20","2"
"42556","","survey-text","181","2409565","0.0-180.0-0.0","A2CA2CUWD2BH07","","","","{""Q0"":""Spatters against poles but somehow arresting""}","","","","","","","","","","","","","","","","","","","","","","",""
"4222.599999964237","","image-slider-response","182","2413793","0.0-181.0","A2CA2CUWD2BH07","","","","","34","","","","","","","","","","","","","","","","","","","","","",""
"null","","image-button-response","183","2418805","0.0-182.0","A2CA2CUWD2BH07","img_art/13.jpg","null","","","","","","","","","","","","","","","","","","","","","","","","",""
"18648","","image-button-response","184","2437457","0.0-183.0","A2CA2CUWD2BH07","img_art/13.jpg","0","","","","","","","","","","","","","","","","","","","","","","","","",""
"4573","","image-button-response","185","2442035","0.0-184.0-0.0","A2CA2CUWD2BH07","img_art/13.jpg","5","","","","","","","","","","","","","","","","","","","","","","","","",""
"5039","","image-button-response","186","2447079","0.0-185.0-0.0","A2CA2CUWD2BH07","img_art/13.jpg","3","","","","","","","","","","","","","","","","","","","","","","","","",""
"null","","html-keyboard-response","187","2447590","0.0-186.0","A2CA2CUWD2BH07","<p style=""font-size: 48px;"">+</p>","","","","","null","allTrialResponses","500","1","20","img_art/13.jpg","34","Spatters against poles but somehow arresting","Jenna,Elizabeth,Lindsey,Kathryn,Catherine,Abigail","exciting & chaotic. love the colors.,50,360,20","Love the splash of colors,50,20,20","I find this oddly pleasant, but I object to this style. It's just a background with splatters. How is that art?,-5,400,20","Reminds me of depression anxiety, but negativity is dampened by motion. It's trying to release itself through expression.,-10,140,20","Magnified rain around trees. Beautiful happy colors. The little person on the right feels nature is huge.,45,160,20","This is easy to look at,46,20,20","Jenna","exciting & chaotic. love the colors.,50,360,20","Abigail","This is easy to look at,46,20,20","Kathryn","Reminds me of depression anxiety, but negativity is dampened by motion. It's trying to release itself through expression.,-10,140,20","2"
"19068","","survey-text","188","2466680","0.0-187.0-0.0","A2CA2CUWD2BH07","","","","{""Q0"":""we""}","","","","","","","","","","","","","","","","","","","","","","",""
"49891","","survey-text","189","2516575","0.0-188.0-0.0","A2CA2CUWD2BH07","","","","{""Q0"":""Dark comes down to light, serene""}","","","","","","","","","","","","","","","","","","","","","","",""
"6056.400000035763","","image-slider-response","190","2522635","0.0-189.0","A2CA2CUWD2BH07","","","","","14","","","","","","","","","","","","","","","","","","","","","",""
"null","","image-button-response","191","2527639","0.0-190.0","A2CA2CUWD2BH07","img_art/12.jpg","null","","","","","","","","","","","","","","","","","","","","","","","","",""
"11358","","image-button-response","192","2539001","0.0-191.0","A2CA2CUWD2BH07","img_art/12.jpg","3","","","","","","","","","","","","","","","","","","","","","","","","",""
"3978","","image-button-response","193","2542985","0.0-192.0-0.0","A2CA2CUWD2BH07","img_art/12.jpg","2","","","","","","","","","","","","","","","","","","","","","","","","",""
"8516","","image-button-response","194","2551507","0.0-193.0-0.0","A2CA2CUWD2BH07","img_art/12.jpg","4","","","","","","","","","","","","","","","","","","","","","","","","",""
"null","","html-keyboard-response","195","2553012","0.0-194.0","A2CA2CUWD2BH07","<p style=""font-size: 48px;"">+</p>","","","","","null","allTrialResponses","1500","1","21","img_art/12.jpg","14","Dark comes down to light, serene","Jenna,Madeline,Erin,Kathryn,Amanda,Abigail","interesting, but feels like someone cut up a picture and pasted it together wrong. want to see the original,15,360,20","Love the shapes here,12,40,20","City scape but palette is odd,4,120,20","This feels cosmopolitan. Like looking at a high rise apartment at night and seeing into everyone's windows.,20,140,20","The colors are beautiful and it has great composition,50,180,20","Made me uncomfortable, reminded me of the 90s,-9,20,20","Kathryn","This feels cosmopolitan. Like looking at a high rise apartment at night and seeing into everyone's windows.,20,140,20","Erin","City scape but palette is odd,4,120,20","Amanda","The colors are beautiful and it has great composition,50,180,20","2"
"41732","","survey-text","196","2594761","0.0-195.0-0.0","A2CA2CUWD2BH07","","","","{""Q0"":""A view of an alley, brushstrokes are compelling""}","","","","","","","","","","","","","","","","","","","","","","",""
"4137.900000035763","","image-slider-response","197","2598903","0.0-196.0","A2CA2CUWD2BH07","","","","","6","","","","","","","","","","","","","","","","","","","","","",""
"null","","image-button-response","198","2603914","0.0-197.0","A2CA2CUWD2BH07","img_art/29.jpg","null","","","","","","","","","","","","","","","","","","","","","","","","",""
"5828","","image-button-response","199","2609746","0.0-198.0","A2CA2CUWD2BH07","img_art/29.jpg","3","","","","","","","","","","","","","","","","","","","","","","","","",""
"4908","","image-button-response","200","2614659","0.0-199.0-0.0","A2CA2CUWD2BH07","img_art/29.jpg","5","","","","","","","","","","","","","","","","","","","","","","","","",""
"5514","","image-button-response","201","2620178","0.0-200.0-0.0","A2CA2CUWD2BH07","img_art/29.jpg","0","","","","","","","","","","","","","","","","","","","","","","","","",""
"null","","html-keyboard-response","202","2621687","0.0-201.0","A2CA2CUWD2BH07","<p style=""font-size: 48px;"">+</p>","","","","","null","allTrialResponses","1500","1","22","img_art/29.jpg","6","A view of an alley, brushstrokes are compelling","Alexandra,Ashley,Erin,Kathryn,Amanda,Cynthia","I don't like this. It is ugly and dark,-29,60,20","It that an actual PAINTBUSH! Love it.,50,320,20","Red X is scary, like the bricks,7,120,20","This piece feels gross. Makes me think of pollution/litter strewn across a dirty street.,-20,140,20","Once again, very modern, activists will love,27,180,20","makes me feel busy and unorganized,4,320,20","Kathryn","This piece feels gross. Makes me think of pollution/litter strewn across a dirty street.,-20,140,20","Cynthia","makes me feel busy and unorganized,4,320,20","Alexandra","I don't like this. It is ugly and dark,-29,60,20","2"
"37466","","survey-text","203","2659168","0.0-202.0-0.0","A2CA2CUWD2BH07","","","","{""Q0"":""This reminds me of a highway leading toward uncertainty in a city""}","","","","","","","","","","","","","","","","","","","","","","",""
"3539.599999964237","","image-slider-response","204","2662711","0.0-203.0","A2CA2CUWD2BH07","","","","","21","","","","","","","","","","","","","","","","","","","","","",""
"null","","image-button-response","205","2667724","0.0-204.0","A2CA2CUWD2BH07","img_art/1.jpg","null","","","","","","","","","","","","","","","","","","","","","","","","",""
"11345","","image-button-response","206","2679073","0.0-205.0","A2CA2CUWD2BH07","img_art/1.jpg","1","","","","","","","","","","","","","","","","","","","","","","","","",""
"8588","","image-button-response","207","2687665","0.0-206.0-0.0","A2CA2CUWD2BH07","img_art/1.jpg","0","","","","","","","","","","","","","","","","","","","","","","","","",""
"3353","","image-button-response","208","2691027","0.0-207.0-0.0","A2CA2CUWD2BH07","img_art/1.jpg","3","","","","","","","","","","","","","","","","","","","","","","","","",""
"null","","html-keyboard-response","209","2691531","0.0-208.0","A2CA2CUWD2BH07","<p style=""font-size: 48px;"">+</p>","","","","","null","allTrialResponses","500","1","23","img_art/1.jpg","21","This reminds me of a highway leading toward uncertainty in a city","Alexandra,Dominique,Jordan,Kathryn,Mikayla,Cynthia","I love the warm colors of the art,32,60,20","I love the detail and colors like a beautiful autumn day,35,400,20","It's fine, but its like something you'd see in the restroom of a cheap restaurant,10,20,20","For some reason this makes me want to go ice skating. It's whimsical and free but also very smooth.,20,140,20","Again kind a boring.,-38,300,20","fishing on the lake surrounded by trees,42,320,20","Dominique","I love the detail and colors like a beautiful autumn day,35,400,20","Alexandra","I love the warm colors of the art,32,60,20","Kathryn","For some reason this makes me want to go ice skating. It's whimsical and free but also very smooth.,20,140,20","2"
"15335","","survey-text","210","2706887","0.0-209.0-0.0","A2CA2CUWD2BH07","","","","{""Q0"":""A Las Vegas chorus line""}","","","","","","","","","","","","","","","","","","","","","","",""
"4013.400000035763","","image-slider-response","211","2710903","0.0-210.0","A2CA2CUWD2BH07","","","","","6","","","","","","","","","","","","","","","","","","","","","",""
"null","","image-button-response","212","2715914","0.0-211.0","A2CA2CUWD2BH07","img_art/23.jpg","null","","","","","","","","","","","","","","","","","","","","","","","","",""
"8170","","image-button-response","213","2724089","0.0-212.0","A2CA2CUWD2BH07","img_art/23.jpg","4","","","","","","","","","","","","","","","","","","","","","","","","",""
"5339","","image-button-response","214","2729435","0.0-213.0-0.0","A2CA2CUWD2BH07","img_art/23.jpg","1","","","","","","","","","","","","","","","","","","","","","","","","",""
"5361","","image-button-response","215","2734803","0.0-214.0-0.0","A2CA2CUWD2BH07","img_art/23.jpg","3","","","","","","","","","","","","","","","","","","","","","","","","",""
"null","","html-keyboard-response","216","2735306","0.0-215.0","A2CA2CUWD2BH07","<p style=""font-size: 48px;"">+</p>","","","","","null","allTrialResponses","500","1","24","img_art/23.jpg","6","A Las Vegas chorus line","Alexandra,Dominique,Sarah,Kathryn,Sophia,Hailey","This is my favorite of them all. I love the colors.,41,60,20","Very happy , busy , free, and full of Hope,28,400,20","it's not uninteresting, but i'm not responding to it,-7,180,20","I feel positive community and comfort. Singing along at a concert, united with a bunch of strangers through shared joy.,20,140,20","I like the contrast and the bright colors in this one.,6,280,20","cold and dark feeling,-27,200,20","Sophia","I like the contrast and the bright colors in this one.,6,280,20","Dominique","Very happy , busy , free, and full of Hope,28,400,20","Kathryn","I feel positive community and comfort. Singing along at a concert, united with a bunch of strangers through shared joy.,20,140,20","2"
"49873","","survey-text","217","2785192","0.0-216.0-0.0","A2CA2CUWD2BH07","","","","{""Q0"":""A crow; this reminds me of death but isn't lonely""}","","","","","","","","","","","","","","","","","","","","","","",""
"4196.199999988079","","image-slider-response","218","2789410","0.0-217.0","A2CA2CUWD2BH07","","","","","10","","","","","","","","","","","","","","","","","","","","","",""
"null","","image-button-response","219","2794423","0.0-218.0","A2CA2CUWD2BH07","img_art/6.jpg","null","","","","","","","","","","","","","","","","","","","","","","","","",""
"13110","","image-button-response","220","2807537","0.0-219.0","A2CA2CUWD2BH07","img_art/6.jpg","1","","","","","","","","","","","","","","","","","","","","","","","","",""
"2772","","image-button-response","221","2810314","0.0-220.0-0.0","A2CA2CUWD2BH07","img_art/6.jpg","3","","","","","","","","","","","","","","","","","","","","","","","","",""
"12889","","image-button-response","222","2823210","0.0-221.0-0.0","A2CA2CUWD2BH07","img_art/6.jpg","5","","","","","","","","","","","","","","","","","","","","","","","","",""
"null","","html-keyboard-response","223","2824216","0.0-222.0","A2CA2CUWD2BH07","<p style=""font-size: 48px;"">+</p>","","","","","null","allTrialResponses","1000","1","25","img_art/6.jpg","10","A crow; this reminds me of death but isn't lonely","Michaela,Dominique,Destiny,Kathryn,Sophia,Katherine","It looks like a bird looking away,32,260,20","Calm and catching,30,400,20","boring. don't really like birds,1,360,20","This piece feels hopeful, like an oasis in the desert.,20,140,20","It's okay. It kind of looks like a bird with his head buried in his feathers.,2,280,20","This could be so many different things. I saw a bird first but then it looks like a needle going into skin,34,120,20","Dominique","Calm and catching,30,400,20","Kathryn","This piece feels hopeful, like an oasis in the desert.,20,140,20","Katherine","This could be so many different things. I saw a bird first but then it looks like a needle going into skin,34,120,20","2"
"5921","","survey-text","224","2830176","0.0-223.0-0.0","A2CA2CUWD2BH07","","","","{""Q0"":""table""}","","","","","","","","","","","","","","","","","","","","","","",""
"61748","","survey-text","225","2891928","0.0-224.0-0.0","A2CA2CUWD2BH07","","","","{""Q0"":""Reminds me of a table decoration but the colors and composition are busy and happy""}","","","","","","","","","","","","","","","","","","","","","","",""
"4962.600000023842","","image-slider-response","226","2896896","0.0-225.0","A2CA2CUWD2BH07","","","","","22","","","","","","","","","","","","","","","","","","","","","",""
"null","","image-button-response","227","2901914","0.0-226.0","A2CA2CUWD2BH07","img_art/14.jpg","null","","","","","","","","","","","","","","","","","","","","","","","","",""
"12499","","image-button-response","228","2914418","0.0-227.0","A2CA2CUWD2BH07","img_art/14.jpg","0","","","","","","","","","","","","","","","","","","","","","","","","",""
"2869","","image-button-response","229","2917293","0.0-228.0-0.0","A2CA2CUWD2BH07","img_art/14.jpg","1","","","","","","","","","","","","","","","","","","","","","","","","",""
"11424","","image-button-response","230","2928722","0.0-229.0-0.0","A2CA2CUWD2BH07","img_art/14.jpg","3","","","","","","","","","","","","","","","","","","","","","","","","",""
"null","","html-keyboard-response","231","2930227","0.0-230.0","A2CA2CUWD2BH07","<p style=""font-size: 48px;"">+</p>","","","","","null","allTrialResponses","1500","1","26","img_art/14.jpg","22","Reminds me of a table decoration but the colors and composition are busy and happy","Rebecca,Dominique,Monica,Kathryn,Kelly,Katherine","medium recalls back to an oriental style,16,100,20","Reminds me of the old days with my family and my grandma,41,400,20","Just don't like it, maybe it's the bleeding colors on the left of the tree-looking thing in the center or the faded background,-10,360,20","This reminds me of a tree but the tree is sickly, and poorly cared for.,-10,140,20","Its cute, but not my favorite.,8,220,20","I don't like the color red,30,120,20","Rebecca","medium recalls back to an oriental style,16,100,20","Dominique","Reminds me of the old days with my family and my grandma,41,400,20","Kathryn","This reminds me of a tree but the tree is sickly, and poorly cared for.,-10,140,20","2"
"57103","","survey-text","232","2987352","0.0-231.0-0.0","A2CA2CUWD2BH07","","","","{""Q0"":""Italian village in the countryside""}","","","","","","","","","","","","","","","","","","","","","","",""
"6198.400000035763","","image-slider-response","233","2993554","0.0-232.0","A2CA2CUWD2BH07","","","","","10","","","","","","","","","","","","","","","","","","","","","",""
"null","","image-button-response","234","2998570","0.0-233.0","A2CA2CUWD2BH07","img_art/8.jpg","null","","","","","","","","","","","","","","","","","","","","","","","","",""
"8491","","image-button-response","235","3007066","0.0-234.0","A2CA2CUWD2BH07","img_art/8.jpg","5","","","","","","","","","","","","","","","","","","","","","","","","",""
"7515","","image-button-response","236","3014585","0.0-235.0-0.0","A2CA2CUWD2BH07","img_art/8.jpg","3","","","","","","","","","","","","","","","","","","","","","","","","",""
"3121","","image-button-response","237","3017713","0.0-236.0-0.0","A2CA2CUWD2BH07","img_art/8.jpg","1","","","","","","","","","","","","","","","","","","","","","","","","",""
"null","","html-keyboard-response","238","3018720","0.0-237.0","A2CA2CUWD2BH07","<p style=""font-size: 48px;"">+</p>","","","","","null","allTrialResponses","1000","1","27","img_art/8.jpg","10","Italian village in the countryside","Rebecca,Dominique,Leah,Kathryn,Vanessa,Caroline","gives off inception vibes <3,50,100,20","This speaks volumes to me and is another favorite I'm sure by many,40,400,20","Nice formats, I just don't like it much,-16,360,20","The angle makes it kind of disorienting but I enjoy the fantastical colors and imagery. It's like a dream.,10,140,20","I don't like the negative emotion this picture makes me feel. It's also too abstract.,-30,380,20","I love the colors in it and also the faces and door ways. Made me feel hopeful,35,100,20","Caroline","I love the colors in it and also the faces and door ways. Made me feel hopeful,35,100,20","Kathryn","The angle makes it kind of disorienting but I enjoy the fantastical colors and imagery. It's like a dream.,10,140,20","Dominique","This speaks volumes to me and is another favorite I'm sure by many,40,400,20","2"
"57254","","survey-text","239","3075992","0.0-238.0-0.0","A2CA2CUWD2BH07","","","","{""Q0"":""Seems like a map of a city with an autoroute around it.""}","","","","","","","","","","","","","","","","","","","","","","",""
"7802.5","","image-slider-response","240","3083799","0.0-239.0","A2CA2CUWD2BH07","","","","","-18","","","","","","","","","","","","","","","","","","","","","",""
"null","","image-button-response","241","3088816","0.0-240.0","A2CA2CUWD2BH07","img_art/10.jpg","null","","","","","","","","","","","","","","","","","","","","","","","","",""
"15592","","image-button-response","242","3104412","0.0-241.0","A2CA2CUWD2BH07","img_art/10.jpg","0","","","","","","","","","","","","","","","","","","","","","","","","",""
"2965","","image-button-response","243","3107382","0.0-242.0-0.0","A2CA2CUWD2BH07","img_art/10.jpg","3","","","","","","","","","","","","","","","","","","","","","","","","",""
"4809","","image-button-response","244","3112196","0.0-243.0-0.0","A2CA2CUWD2BH07","img_art/10.jpg","4","","","","","","","","","","","","","","","","","","","","","","","","",""
"null","","html-keyboard-response","245","3112700","0.0-244.0","A2CA2CUWD2BH07","<p style=""font-size: 48px;"">+</p>","","","","","null","allTrialResponses","500","1","28","img_art/10.jpg","-18","Seems like a map of a city with an autoroute around it.","Heather,Dominique,Brianna,Kathryn,Taylor,Caroline","for some reason reminds me of music,2,260,20","A very conversational piece could be of many different ideas,38,400,20","I have no opinions on this one,0,20,20","This piece makes me think of music. The music is dark; I like dark music so it edges toward good.,10,140,20","Makes me think of the exhilaration of a roller coaster,31,340,20","This painting made me think of a guitar which made me think of music which envoked happy feelings.,28,100,20","Heather","for some reason reminds me of music,2,260,20","Kathryn","This piece makes me think of music. The music is dark; I like dark music so it edges toward good.,10,140,20","Taylor","Makes me think of the exhilaration of a roller coaster,31,340,20","2"
"39627","","survey-text","246","3152345","0.0-245.0-0.0","A2CA2CUWD2BH07","","","","{""Q0"":""Reminds me of two elders at a small table playing a game""}","","","","","","","","","","","","","","","","","","","","","","",""
"3509.199999988079","","image-slider-response","247","3155860","0.0-246.0","A2CA2CUWD2BH07","","","","","6","","","","","","","","","","","","","","","","","","","","","",""
"null","","image-button-response","248","3160881","0.0-247.0","A2CA2CUWD2BH07","img_art/28.jpg","null","","","","","","","","","","","","","","","","","","","","","","","","",""
"5070","","image-button-response","249","3165954","0.0-248.0","A2CA2CUWD2BH07","img_art/28.jpg","1","","","","","","","","","","","","","","","","","","","","","","","","",""
"16406","","image-button-response","250","3182367","0.0-249.0-0.0","A2CA2CUWD2BH07","img_art/28.jpg","4","","","","","","","","","","","","","","","","","","","","","","","","",""
"1985","","image-button-response","251","3184361","0.0-250.0-0.0","A2CA2CUWD2BH07","img_art/28.jpg","3","","","","","","","","","","","","","","","","","","","","","","","","",""
"null","","html-keyboard-response","252","3185363","0.0-251.0","A2CA2CUWD2BH07","<p style=""font-size: 48px;"">+</p>","","","","","null","allTrialResponses","1000","1","29","img_art/28.jpg","6","Reminds me of two elders at a small table playing a game","Heather,Danielle,Autumn,Kathryn,Taylor,Megan","not sure what i feel but it makes me feel uncomfortable,1,260,20","I enjoy the color themes, they seem gloomy and mysterious, and content in their own way, which I love.,20,340,20","Looks yucky and poor.,-33,340,20","My immediate reaction was to think of smog. It recalls choking on dirty air.,-20,140,20","Doesn't give me an emotional response,0,340,20","Compact grey mess lack negative space,-10,200,20","Danielle","I enjoy the color themes, they seem gloomy and mysterious, and content in their own way, which I love.,20,340,20","Taylor","Doesn't give me an emotional response,0,340,20","Kathryn","My immediate reaction was to think of smog. It recalls choking on dirty air.,-20,140,20","2"
"31809","","survey-text","253","3217192","0.0-252.0-0.0","A2CA2CUWD2BH07","","","","{""Q0"":""Reminds me of traffic on an expresswy through town""}","","","","","","","","","","","","","","","","","","","","","","",""
"5468.300000011921","","image-slider-response","254","3222671","0.0-253.0","A2CA2CUWD2BH07","","","","","26","","","","","","","","","","","","","","","","","","","","","",""
"null","","image-button-response","255","3227691","0.0-254.0","A2CA2CUWD2BH07","img_art/11.jpg","null","","","","","","","","","","","","","","","","","","","","","","","","",""
"6784","","image-button-response","256","3234481","0.0-255.0","A2CA2CUWD2BH07","img_art/11.jpg","4","","","","","","","","","","","","","","","","","","","","","","","","",""
"2564","","image-button-response","257","3237049","0.0-256.0-0.0","A2CA2CUWD2BH07","img_art/11.jpg","1","","","","","","","","","","","","","","","","","","","","","","","","",""
"6657","","image-button-response","258","3243711","0.0-257.0-0.0","A2CA2CUWD2BH07","img_art/11.jpg","0","","","","","","","","","","","","","","","","","","","","","","","","",""
"null","","html-keyboard-response","259","3244223","0.0-258.0","A2CA2CUWD2BH07","<p style=""font-size: 48px;"">+</p>","","","","","null","allTrialResponses","500","1","30","img_art/11.jpg","26","Reminds me of traffic on an expresswy through town","Cheyenne,Danielle,Marissa,Kathryn,Taylor,Morgan","Very good use of colors,44,200,20","Reminds me of some of post-apocalyptic view of street lights or maybe a city,30,340,20","I dislike how dark this is,-21,160,20","This is disorienting, like motion sickness.,-20,140,20","It's a really cool painting, but it reminds me of bad traffic,-20,340,20","Waves of signs.,15,380,20","Taylor","It's a really cool painting, but it reminds me of bad traffic,-20,340,20","Danielle","Reminds me of some of post-apocalyptic view of street lights or maybe a city,30,340,20","Cheyenne","Very good use of colors,44,200,20","2"
"4330","","image-button-response_instructions","260","3248571","0.0-259.0","A2CA2CUWD2BH07","","0","instructions","","","","","","","","","","","","","","","","","","","","","","","",""
"1696","","image-button-response","261","3250279","0.0-260.0","A2CA2CUWD2BH07","","0","","","","","","","","","","","","","","","","","","","","","","","","",""
