"rt","url","trial_type","trial_index","time_elapsed","internal_node_id","participant_id","stimulus","button_pressed","Name","responses","response","key_press","variableName","fixationTime","condition","trial","photo","subjectRating","subjectResponse","agentsNames","agent_1_Response","agent_2_Response","agent_3_Response","agent_4_Response","agent_5_Response","agent_6_Response","kept_1_name","kept_1_response","kept_2_name","kept_2_response","kept_3_name","kept_3_response","errorCounter"
"12617","external_page_harvard.html","external-html","0","12721","0.0-0.0","A2CS67AX8RPJUB","","","","","","","","","","","","","","","","","","","","","","","","","","",""
"257991","","image-button-response","1","270718","0.0-1.0","A2CS67AX8RPJUB","","1","","","","","","","","","","","","","","","","","","","","","","","","",""
"2773","","image-button-response","2","273503","0.0-2.0-0.0","A2CS67AX8RPJUB","","1","phone","","","","","","","","","","","","","","","","","","","","","","","",""
"5254","","survey-text","3","278761","0.0-3.0-0.0","A2CS67AX8RPJUB","","","","{""Q0"":""A2CS67AX8RPJUB""}","","","","","","","","","","","","","","","","","","","","","","",""
"11457","","image-button-response_instructions","4","290227","0.0-4.0","A2CS67AX8RPJUB","","0","instructions","","","","","","","","","","","","","","","","","","","","","","","",""
"20710","","image-button-response_instructions","5","310942","0.0-5.0","A2CS67AX8RPJUB","img_art/ins/popularity/ins1.png","0","instructions","","","","","","","","","","","","","","","","","","","","","","","",""
"10307","","image-button-response_instructions","6","321253","0.0-6.0","A2CS67AX8RPJUB","img_art/ins/popularity/ins2.png","0","instructions","","","","","","","","","","","","","","","","","","","","","","","",""
"41819","","image-button-response_instructions","7","363076","0.0-7.0","A2CS67AX8RPJUB","img_art/ins/popularity/ins2Extreme.png","0","instructions","","","","","","","","","","","","","","","","","","","","","","","",""
"37585","","image-button-response_instructions","8","400665","0.0-8.0","A2CS67AX8RPJUB","img_art/ins/popularity/ins3KEEPpop.PNG","0","instructions","","","","","","","","","","","","","","","","","","","","","","","",""
"2934","","image-button-response_instructions","9","403603","0.0-9.0","A2CS67AX8RPJUB","img_art/ins/popularity/ins3ANamepop.PNG","0","instructions","","","","","","","","","","","","","","","","","","","","","","","",""
"3089","","image-button-response_instructions","10","406697","0.0-10.0","A2CS67AX8RPJUB","img_art/ins/popularity/ins3ARatingpop.png","0","instructions","","","","","","","","","","","","","","","","","","","","","","","",""
"1271","","image-button-response_instructions","11","407973","0.0-11.0","A2CS67AX8RPJUB","img_art/ins/popularity/ins3ATextpop.png","0","instructions","","","","","","","","","","","","","","","","","","","","","","","",""
"124235","","image-button-response_instructions","12","532212","0.0-12.0","A2CS67AX8RPJUB","img_art/ins/popularity/ins3ALikespop.png","0","instructions","","","","","","","","","","","","","","","","","","","","","","","",""
"17524","","image-button-response_instructions","13","549741","0.0-13.0","A2CS67AX8RPJUB","img_art/ins/popularity/ins3KEEPpop.PNG","0","instructions","","","","","","","","","","","","","","","","","","","","","","","",""
"11672","","image-button-response_instructions","14","561418","0.0-14.0","A2CS67AX8RPJUB","img_art/ins/popularity/ins3_5RED.png","0","instructions","","","","","","","","","","","","","","","","","","","","","","","",""
"11349","","image-button-response_instructions","15","572772","0.0-15.0","A2CS67AX8RPJUB","img_art/ins/popularity/ins3KEEPpop.PNG","0","instructions","","","","","","","","","","","","","","","","","","","","","","","",""
"25971","","image-button-response_instructions","16","598747","0.0-16.0","A2CS67AX8RPJUB","img_art/ins/popularity/ins4KEEPpop.PNG","0","instructions","","","","","","","","","","","","","","","","","","","","","","","",""
"7108","","image-button-response_instructions","17","605859","0.0-17.0","A2CS67AX8RPJUB","img_art/ins/popularity/ins5KEEPpop.PNG","0","instructions","","","","","","","","","","","","","","","","","","","","","","","",""
"117498","","image-button-response_instructions","18","723361","0.0-18.0","A2CS67AX8RPJUB","","0","instructions","","","","","","","","","","","","","","","","","","","","","","","",""
"6907","","survey-text","19","730324","0.0-19.0-0.0","A2CS67AX8RPJUB","","","","{""Q0"":""but""}","","","","","","","","","","","","","","","","","","","","","","",""
"33007","","survey-text","20","763337","0.0-20.0-0.0","A2CS67AX8RPJUB","","","","{""Q0"":""It looks like a field of flowers that are blowing in the wind. ""}","","","","","","","","","","","","","","","","","","","","","","",""
"4331.399999976158","","image-slider-response","21","767678","0.0-21.0","A2CS67AX8RPJUB","","","","","24","","","","","","","","","","","","","","","","","","","","","",""
"null","","image-button-response","22","772693","0.0-22.0","A2CS67AX8RPJUB","img_art/ins/1.jpg","null","","","","","","","","","","","","","","","","","","","","","","","","",""
"33205","","image-button-response","23","805903","0.0-23.0","A2CS67AX8RPJUB","img_art/ins/1.jpg","0","","","","","","","","","","","","","","","","","","","","","","","","",""
"5413","","image-button-response","24","811327","0.0-24.0-0.0","A2CS67AX8RPJUB","img_art/ins/1.jpg","4","","","","","","","","","","","","","","","","","","","","","","","","",""
"7813","","image-button-response","25","819147","0.0-25.0-0.0","A2CS67AX8RPJUB","img_art/ins/1.jpg","5","","","","","","","","","","","","","","","","","","","","","","","","",""
"null","","html-keyboard-response","26","819662","0.0-26.0","A2CS67AX8RPJUB","<p style=""font-size: 48px;"">+</p>","","","","","null","allTrialResponses","500","1","-2","img_art/ins/1.jpg","24","It looks like a field of flowers that are blowing in the wind. ","Allison,Ashley,Beth,Dora,Erika,Jen","looks like a lot of things going on in the mist,20,20,20","I just don't get why these type of art would be popular,-32,40,20","This color reminds me of poo,-46,60,20","looks like what my niece in 3rd grade did this afternoon,-50,80,20","I like the sophisticated brushwork,40,100,20","It reminds me of a candy land dream I had,36,120,20","Allison","looks like a lot of things going on in the mist,20,20,20","Erika","I like the sophisticated brushwork,40,100,20","Jen","It reminds me of a candy land dream I had,36,120,20","0"
"33058","","survey-text","27","852748","0.0-27.0-0.0","A2CS67AX8RPJUB","","","","{""Q0"":""The colors make me feel a bit panicked. ""}","","","","","","","","","","","","","","","","","","","","","","",""
"6580.600000023842","","image-slider-response","28","859334","0.0-28.0","A2CS67AX8RPJUB","","","","","-9","","","","","","","","","","","","","","","","","","","","","",""
"null","","image-button-response","29","864350","0.0-29.0","A2CS67AX8RPJUB","img_art/ins/2.jpg","null","","","","","","","","","","","","","","","","","","","","","","","","",""
"1459","","image-button-response","30","865815","0.0-30.0","A2CS67AX8RPJUB","img_art/ins/2.jpg","1","","","","","","","","","","","","","","","","","","","","","","","","",""
"7990","","image-button-response","31","873811","0.0-31.0-0.0","A2CS67AX8RPJUB","img_art/ins/2.jpg","4","","","","","","","","","","","","","","","","","","","","","","","","",""
"1332","","image-button-response","32","875151","0.0-32.0-0.0","A2CS67AX8RPJUB","img_art/ins/2.jpg","5","","","","","","","","","","","","","","","","","","","","","","","","",""
"null","","html-keyboard-response","33","876166","0.0-33.0","A2CS67AX8RPJUB","<p style=""font-size: 48px;"">+</p>","","","","","null","allTrialResponses","1000","1","-1","img_art/ins/2.jpg","-9","The colors make me feel a bit panicked. ","Allison,Kara,Katie,Jenna,Erika,Jen","I don't have strong feelings about this,10,20,20","I like the blocks of color arrangements,30,160,20","too much color!,-28,180,20","One of my pet peevs,-48,140,20","I would never be able to compose a sophisticated pallete like this,48,100,20","It reminds me of a fireplace,36,120,20","Kara","I like the blocks of color arrangements,30,160,20","Erika","I would never be able to compose a sophisticated pallete like this,48,100,20","Jen","It reminds me of a fireplace,36,120,20","0"
"17490","","survey-text","34","893684","0.0-34.0-0.0","A2CS67AX8RPJUB","","","","{""Q0"":""This makes me feel cold. ""}","","","","","","","","","","","","","","","","","","","","","","",""
"3798.7999999523163","","image-slider-response","35","897490","0.0-35.0","A2CS67AX8RPJUB","","","","","26","","","","","","","","","","","","","","","","","","","","","",""
"2430","","image-button-response","36","902496","0.0-36.0","A2CS67AX8RPJUB","img_art/ins/3.jpg","0","","","","","","","","","","","","","","","","","","","","","","","","",""
"944","","image-button-response","37","903447","0.0-37.0","A2CS67AX8RPJUB","img_art/ins/3.jpg","1","","","","","","","","","","","","","","","","","","","","","","","","",""
"1490","","image-button-response","38","904941","0.0-38.0-0.0","A2CS67AX8RPJUB","img_art/ins/3.jpg","0","","","","","","","","","","","","","","","","","","","","","","","","",""
"6601","","image-button-response","39","911549","0.0-39.0-0.0","A2CS67AX8RPJUB","img_art/ins/3.jpg","5","","","","","","","","","","","","","","","","","","","","","","","","",""
"null","","html-keyboard-response","40","912059","0.0-40.0","A2CS67AX8RPJUB","<p style=""font-size: 48px;"">+</p>","","","","","null","allTrialResponses","500","1","0","img_art/ins/3.jpg","26","This makes me feel cold. ","Mary,Kara,Rose,Leslie,Erika,Jen","I like the overlapping of brushes,41,220,20","calming blue is very nice,36,160,20","My daily routine, it's depressing,-20,240,20","It's an alright work,15,200,20","I feel connected to the artist,40,100,20","I can feel a rainy day from this painting,18,120,20","Kara","calming blue is very nice,36,160,20","Mary","I like the overlapping of brushes,41,220,20","Jen","I can feel a rainy day from this painting,18,120,20","0"
"12589","","image-button-response_instructions","41","924671","0.0-41.0","A2CS67AX8RPJUB","","0","instructions","","","","","","","","","","","","","","","","","","","","","","","",""
"11381","","survey-likert","42","936057","0.0-42.0-0.0","A2CS67AX8RPJUB","","","","{""Q0"":"""",""Q1"":0,""Q2"":1}","","","","","","","","","","","","","","","","","","","","","","",""
"9713","","survey-text","43","945789","0.0-43.0-0.0","A2CS67AX8RPJUB","","","","{""Q0"":""rock""}","","","","","","","","","","","","","","","","","","","","","","",""
"16364","","survey-text","44","962157","0.0-44.0-0.0","A2CS67AX8RPJUB","","","","{""Q0"":""This feels otherworldly ""}","","","","","","","","","","","","","","","","","","","","","","",""
"3500.3000000715256","","image-slider-response","45","965661","0.0-45.0","A2CS67AX8RPJUB","","","","","15","","","","","","","","","","","","","","","","","","","","","",""
"null","","image-button-response","46","970736","0.0-46.0","A2CS67AX8RPJUB","img_art/7.jpg","null","","","","","","","","","","","","","","","","","","","","","","","","",""
"13498","","image-button-response","47","984240","0.0-47.0","A2CS67AX8RPJUB","img_art/7.jpg","2","","","","","","","","","","","","","","","","","","","","","","","","",""
"2088","","image-button-response","48","986335","0.0-48.0-0.0","A2CS67AX8RPJUB","img_art/7.jpg","0","","","","","","","","","","","","","","","","","","","","","","","","",""
"8486","","image-button-response","49","994827","0.0-49.0-0.0","A2CS67AX8RPJUB","img_art/7.jpg","4","","","","","","","","","","","","","","","","","","","","","","","","",""
"null","","html-keyboard-response","50","995332","0.0-50.0","A2CS67AX8RPJUB","<p style=""font-size: 48px;"">+</p>","","","","","null","allTrialResponses","500","1","1","img_art/7.jpg","15","This feels otherworldly ","Mariah,Miranda,Sydney,Brianna,Alexa,Emily","The dried bottom of a puddle in July.,-41,140,20","This looks like a literal picture of the ground so I'm really not too sure about this one.,-42,320,20","This piece is really simple but the colors and texture work well together.,20,320,20","Looks plain and dull, sorry.,-31,20,20","Not a fan of the pattern or colors,-40,40,20","Ugly. I don't like the colors or the scattering.,-50,40,20","Sydney","This piece is really simple but the colors and texture work well together.,20,320,20","Mariah","The dried bottom of a puddle in July.,-41,140,20","Alexa","Not a fan of the pattern or colors,-40,40,20","0"
"32964","","survey-text","51","1028306","0.0-51.0-0.0","A2CS67AX8RPJUB","","","","{""Q0"":""This looks like someone's view from a balcony. ""}","","","","","","","","","","","","","","","","","","","","","","",""
"4976.300000071526","","image-slider-response","52","1033288","0.0-52.0","A2CS67AX8RPJUB","","","","","46","","","","","","","","","","","","","","","","","","","","","",""
"null","","image-button-response","53","1038300","0.0-53.0","A2CS67AX8RPJUB","img_art/17.jpg","null","","","","","","","","","","","","","","","","","","","","","","","","",""
"8326","","image-button-response","54","1046631","0.0-54.0","A2CS67AX8RPJUB","img_art/17.jpg","2","","","","","","","","","","","","","","","","","","","","","","","","",""
"10780","","image-button-response","55","1057419","0.0-55.0-0.0","A2CS67AX8RPJUB","img_art/17.jpg","4","","","","","","","","","","","","","","","","","","","","","","","","",""
"2976","","image-button-response","56","1060402","0.0-56.0-0.0","A2CS67AX8RPJUB","img_art/17.jpg","0","","","","","","","","","","","","","","","","","","","","","","","","",""
"null","","html-keyboard-response","57","1060909","0.0-57.0","A2CS67AX8RPJUB","<p style=""font-size: 48px;"">+</p>","","","","","null","allTrialResponses","500","1","2","img_art/17.jpg","46","This looks like someone's view from a balcony. ","Mariah,Hannah,Sydney,Kimberly,Alexa,Autumn","It feels like nature overtaking civilization.,21,140,20","Looks like an abandoned building that is being overtaken by nature.,-10,240,20","This picture is calming to me, and I love the colors.,45,320,20","I like the trees, but the doors less so,19,260,20","The colors are beautiful and the painting itself is magnificent,50,40,20","Looks awesome .,33,340,20","Sydney","This picture is calming to me, and I love the colors.,45,320,20","Alexa","The colors are beautiful and the painting itself is magnificent,50,40,20","Mariah","It feels like nature overtaking civilization.,21,140,20","0"
"28415","","survey-text","58","1089344","0.0-58.0-0.0","A2CS67AX8RPJUB","","","","{""Q0"":""This is really beautiful but I'm not sure if she is in bed or a tomb. ""}","","","","","","","","","","","","","","","","","","","","","","",""
"3059.5","","image-slider-response","59","1092407","0.0-59.0","A2CS67AX8RPJUB","","","","","39","","","","","","","","","","","","","","","","","","","","","",""
"4915","","image-button-response","60","1097426","0.0-60.0","A2CS67AX8RPJUB","img_art/9.jpg","1","","","","","","","","","","","","","","","","","","","","","","","","",""
"1622","","image-button-response","61","1099055","0.0-61.0","A2CS67AX8RPJUB","img_art/9.jpg","1","","","","","","","","","","","","","","","","","","","","","","","","",""
"19650","","image-button-response","62","1118711","0.0-62.0-0.0","A2CS67AX8RPJUB","img_art/9.jpg","4","","","","","","","","","","","","","","","","","","","","","","","","",""
"3628","","image-button-response","63","1122348","0.0-63.0-0.0","A2CS67AX8RPJUB","img_art/9.jpg","2","","","","","","","","","","","","","","","","","","","","","","","","",""
"null","","html-keyboard-response","64","1122854","0.0-64.0","A2CS67AX8RPJUB","<p style=""font-size: 48px;"">+</p>","","","","","null","allTrialResponses","500","1","3","img_art/9.jpg","39","This is really beautiful but I'm not sure if she is in bed or a tomb. ","Mariah,Caroline,Sydney,Claire,Alexa,Mackenzie","Pleasant in all ways.,27,140,20","Stirs up emotions of watching someone sleep which is relaxing,11,100,20","I see some of my favorite colors which I like, but I don't like what's portrayed.,35,320,20","the colors are nice,6,260,20","It's wild and chaotic but also beautiful and has some kind of calming factor about it,20,40,20","I enjoy the design, but the colors look waxy,-7,20,20","Caroline","Stirs up emotions of watching someone sleep which is relaxing,11,100,20","Alexa","It's wild and chaotic but also beautiful and has some kind of calming factor about it,20,40,20","Sydney","I see some of my favorite colors which I like, but I don't like what's portrayed.,35,320,20","0"
"62181","","survey-text","65","1185083","0.0-65.0-0.0","A2CS67AX8RPJUB","","","","{""Q0"":""For some reason It looks like eels. ""}","","","","","","","","","","","","","","","","","","","","","","",""
"2988.8000000715256","","image-slider-response","66","1188077","0.0-66.0","A2CS67AX8RPJUB","","","","","-5","","","","","","","","","","","","","","","","","","","","","",""
"null","","image-button-response","67","1193091","0.0-67.0","A2CS67AX8RPJUB","img_art/30.jpg","null","","","","","","","","","","","","","","","","","","","","","","","","",""
"4307","","image-button-response","68","1197403","0.0-68.0","A2CS67AX8RPJUB","img_art/30.jpg","1","","","","","","","","","","","","","","","","","","","","","","","","",""
"19544","","image-button-response","69","1216957","0.0-69.0-0.0","A2CS67AX8RPJUB","img_art/30.jpg","4","","","","","","","","","","","","","","","","","","","","","","","","",""
"10772","","image-button-response","70","1227738","0.0-70.0-0.0","A2CS67AX8RPJUB","img_art/30.jpg","2","","","","","","","","","","","","","","","","","","","","","","","","",""
"null","","html-keyboard-response","71","1228747","0.0-71.0","A2CS67AX8RPJUB","<p style=""font-size: 48px;"">+</p>","","","","","null","allTrialResponses","1000","1","4","img_art/30.jpg","-5","For some reason It looks like eels. ","Gabrielle,Caroline,Sydney,Madeline,Alexa,Jennifer","looks very childish, like your kid did it,-33,160,20","Fear. It looks like snakes in the picture,13,100,20","I love the colors, the style, and the uniqueness in this piece. I love everything.,50,320,20","A bit haphazard looking and lacking in vision,2,40,20","Looks quite basic but the colors are nice and there is a wildness about it that I love,0,40,20","The color scheme used in this piece is very ugly.,-50,380,20","Caroline","Fear. It looks like snakes in the picture,13,100,20","Alexa","Looks quite basic but the colors are nice and there is a wildness about it that I love,0,40,20","Sydney","I love the colors, the style, and the uniqueness in this piece. I love everything.,50,320,20","0"
"14771","","survey-text","72","1243530","0.0-72.0-0.0","A2CS67AX8RPJUB","","","","{""Q0"":""This piece just looks so destructive. ""}","","","","","","","","","","","","","","","","","","","","","","",""
"4883","","image-slider-response","73","1248420","0.0-73.0","A2CS67AX8RPJUB","","","","","6","","","","","","","","","","","","","","","","","","","","","",""
"3946","","image-button-response","74","1253444","0.0-74.0","A2CS67AX8RPJUB","img_art/20.jpg","0","","","","","","","","","","","","","","","","","","","","","","","","",""
"1072","","image-button-response","75","1254521","0.0-75.0","A2CS67AX8RPJUB","img_art/20.jpg","0","","","","","","","","","","","","","","","","","","","","","","","","",""
"882","","image-button-response","76","1255409","0.0-76.0-0.0","A2CS67AX8RPJUB","img_art/20.jpg","1","","","","","","","","","","","","","","","","","","","","","","","","",""
"5300","","image-button-response","77","1260719","0.0-77.0-0.0","A2CS67AX8RPJUB","img_art/20.jpg","5","","","","","","","","","","","","","","","","","","","","","","","","",""
"null","","html-keyboard-response","78","1262226","0.0-78.0","A2CS67AX8RPJUB","<p style=""font-size: 48px;"">+</p>","","","","","null","allTrialResponses","1500","1","5","img_art/20.jpg","6","This piece just looks so destructive. ","Marissa,Caroline,Sydney,Grace,Alexa,Crystal","I feel intrigued and impressed,34,160,20","Makes me feel weary,21,100,20","I love the color choice.,25,320,20","Reminds me of Georgia O'Keefe.,11,180,20","I like the calming mood of this painting,35,40,20","The pulling and sagging nature is very beautiful.,30,300,20","Marissa","I feel intrigued and impressed,34,160,20","Caroline","Makes me feel weary,21,100,20","Crystal","The pulling and sagging nature is very beautiful.,30,300,20","0"
"4890","","survey-text","79","1267160","0.0-79.0-0.0","A2CS67AX8RPJUB","","","","{""Q0"":""sky""}","","","","","","","","","","","","","","","","","","","","","","",""
"27030","","survey-text","80","1294195","0.0-80.0-0.0","A2CS67AX8RPJUB","","","","{""Q0"":""This looks like soldiers on a boat. The figure in the back is very unsettling. ""}","","","","","","","","","","","","","","","","","","","","","","",""
"3176.2999999523163","","image-slider-response","81","1297377","0.0-81.0","A2CS67AX8RPJUB","","","","","8","","","","","","","","","","","","","","","","","","","","","",""
"null","","image-button-response","82","1302394","0.0-82.0","A2CS67AX8RPJUB","img_art/18.jpg","null","","","","","","","","","","","","","","","","","","","","","","","","",""
"4198","","image-button-response","83","1306597","0.0-83.0","A2CS67AX8RPJUB","img_art/18.jpg","1","","","","","","","","","","","","","","","","","","","","","","","","",""
"28673","","image-button-response","84","1335278","0.0-84.0-0.0","A2CS67AX8RPJUB","img_art/18.jpg","2","","","","","","","","","","","","","","","","","","","","","","","","",""
"8257","","image-button-response","85","1343544","0.0-85.0-0.0","A2CS67AX8RPJUB","img_art/18.jpg","4","","","","","","","","","","","","","","","","","","","","","","","","",""
"null","","html-keyboard-response","86","1345066","0.0-86.0","A2CS67AX8RPJUB","<p style=""font-size: 48px;"">+</p>","","","","","null","allTrialResponses","1500","1","6","img_art/18.jpg","8","This looks like soldiers on a boat. The figure in the back is very unsettling. ","Marissa,Caroline,Natalie,Chelsea,Angelica,Crystal","This brings to mind the four horsemen of the apocalypse,8,160,20","I think of the ocean and a boat tossed about on the waves. In the upper left is a figure. It is pleasant,30,100,20","my response to the picture is a little bit of anxiety but I like the detail,16,400,20","I like the detail but I wouldn't hang this up on my wall.,14,180,20","It looks grotesque and violent.,-50,280,20","I love this because abstractly depicts the apocalypse. The white horse and its rider as Death, described in religious texts and pop culture. ""He rode a pale horse and his name was death."",50,300,20","Caroline","I think of the ocean and a boat tossed about on the waves. In the upper left is a figure. It is pleasant,30,100,20","Natalie","my response to the picture is a little bit of anxiety but I like the detail,16,400,20","Angelica","It looks grotesque and violent.,-50,280,20","0"
"25616","","survey-text","87","1370720","0.0-87.0-0.0","A2CS67AX8RPJUB","","","","{""Q0"":""I really like the complexity of this. ""}","","","","","","","","","","","","","","","","","","","","","","",""
"2580.1999999284744","","image-slider-response","88","1373305","0.0-88.0","A2CS67AX8RPJUB","","","","","27","","","","","","","","","","","","","","","","","","","","","",""
"null","","image-button-response","89","1378318","0.0-89.0","A2CS67AX8RPJUB","img_art/8.jpg","null","","","","","","","","","","","","","","","","","","","","","","","","",""
"1501","","image-button-response","90","1379826","0.0-90.0","A2CS67AX8RPJUB","img_art/8.jpg","3","","","","","","","","","","","","","","","","","","","","","","","","",""
"8146","","image-button-response","91","1387978","0.0-91.0-0.0","A2CS67AX8RPJUB","img_art/8.jpg","1","","","","","","","","","","","","","","","","","","","","","","","","",""
"8769","","image-button-response","92","1396757","0.0-92.0-0.0","A2CS67AX8RPJUB","img_art/8.jpg","5","","","","","","","","","","","","","","","","","","","","","","","","",""
"null","","html-keyboard-response","93","1397266","0.0-93.0","A2CS67AX8RPJUB","<p style=""font-size: 48px;"">+</p>","","","","","null","allTrialResponses","500","1","7","img_art/8.jpg","27","I really like the complexity of this. ","Victoria,Caroline,Natalie,Alicia,Angelica,Alyssa","makes me think of a busy city,-18,400,20","I love the colors in it and also the faces and door ways. Made me feel hopeful,35,100,20","looks nice, like the details,25,400,20","wow. blocky, angled, neat colors. The faces are what makes it. love it.,45,120,20","It's a poor rendition of an MC Escher inspired piece.,-25,280,20","I like how the more you like at it there are more things to discover.Very creative.,33,160,20","Alicia","wow. blocky, angled, neat colors. The faces are what makes it. love it.,45,120,20","Caroline","I love the colors in it and also the faces and door ways. Made me feel hopeful,35,100,20","Alyssa","I like how the more you like at it there are more things to discover.Very creative.,33,160,20","0"
"14578","","survey-text","94","1411866","0.0-94.0-0.0","A2CS67AX8RPJUB","","","","{""Q0"":""This looks like a crow standing in a field. ""}","","","","","","","","","","","","","","","","","","","","","","",""
"3114.100000023842","","image-slider-response","95","1414984","0.0-95.0","A2CS67AX8RPJUB","","","","","-10","","","","","","","","","","","","","","","","","","","","","",""
"4669","","image-button-response","96","1420004","0.0-96.0","A2CS67AX8RPJUB","img_art/6.jpg","1","","","","","","","","","","","","","","","","","","","","","","","","",""
"610","","image-button-response","97","1420621","0.0-97.0","A2CS67AX8RPJUB","img_art/6.jpg","1","","","","","","","","","","","","","","","","","","","","","","","","",""
"218","","image-button-response","98","1420847","0.0-98.0-0.0","A2CS67AX8RPJUB","img_art/6.jpg","1","","","","","","","","","","","","","","","","","","","","","","","","",""
"9343","","image-button-response","99","1434621","0.0-98.1-0.1","A2CS67AX8RPJUB","img_art/6.jpg","5","","","","","","","","","","","","","","","","","","","","","","","","",""
"4804","","image-button-response","100","1439437","0.0-99.0-0.0","A2CS67AX8RPJUB","img_art/6.jpg","0","","","","","","","","","","","","","","","","","","","","","","","","",""
"null","","html-keyboard-response","101","1440945","0.0-100.0","A2CS67AX8RPJUB","<p style=""font-size: 48px;"">+</p>","","","","","null","allTrialResponses","1500","1","8","img_art/6.jpg","-10","This looks like a crow standing in a field. ","Dominique,Caroline,Melissa,Alicia,Shannon,Alyssa","Calm and catching,30,400,20","Lonely and kinda sad,-25,100,20","composition is engaging,28,240,20","kids book cover, uninteresting.,-10,120,20","I can't tell what this image is, but it's boring because of lack of color variety and nothing in it,-41,220,20","It makes me stop and think about what the artist is trying to say.It creates a feeling of solitude and tranqulity,30,160,20","Caroline","Lonely and kinda sad,-25,100,20","Alyssa","It makes me stop and think about what the artist is trying to say.It creates a feeling of solitude and tranqulity,30,160,20","Dominique","Calm and catching,30,400,20","2"
"16352","","survey-text","102","1457306","0.0-101.0-0.0","A2CS67AX8RPJUB","","","","{""Q0"":""This is so colorful and makes me feel like a celebration is happening.""}","","","","","","","","","","","","","","","","","","","","","","",""
"4849.5","","image-slider-response","103","1462165","0.0-102.0","A2CS67AX8RPJUB","","","","","40","","","","","","","","","","","","","","","","","","","","","",""
"4843","","image-button-response","104","1467185","0.0-103.0","A2CS67AX8RPJUB","img_art/23.jpg","0","","","","","","","","","","","","","","","","","","","","","","","","",""
"2383","","image-button-response","105","1469574","0.0-104.0","A2CS67AX8RPJUB","img_art/23.jpg","0","","","","","","","","","","","","","","","","","","","","","","","","",""
"4242","","image-button-response","106","1473824","0.0-105.0-0.0","A2CS67AX8RPJUB","img_art/23.jpg","1","","","","","","","","","","","","","","","","","","","","","","","","",""
"774","","image-button-response","107","1474606","0.0-106.0-0.0","A2CS67AX8RPJUB","img_art/23.jpg","2","","","","","","","","","","","","","","","","","","","","","","","","",""
"null","","html-keyboard-response","108","1475111","0.0-107.0","A2CS67AX8RPJUB","<p style=""font-size: 48px;"">+</p>","","","","","null","allTrialResponses","500","1","9","img_art/23.jpg","40","This is so colorful and makes me feel like a celebration is happening.","Dominique,Caroline,Isabella,Caitlin,Emma,Alyssa","Very happy , busy , free, and full of Hope,28,400,20","Like the colors and made me feel happy,23,100,20","Love the line in the middle separating the two dark sides,50,280,20","SOME thought was put into this one.,5,80,20","Love the use of colors and light,50,60,20","Very bright and eye catching.The White silhouettes remind me of people celebrating.,31,160,20","Dominique","Very happy , busy , free, and full of Hope,28,400,20","Caroline","Like the colors and made me feel happy,23,100,20","Isabella","Love the line in the middle separating the two dark sides,50,280,20","2"
"10977","","survey-text","109","1486099","0.0-108.0-0.0","A2CS67AX8RPJUB","","","","{""Q0"":""This looks like a dreary day in the city. ""}","","","","","","","","","","","","","","","","","","","","","","",""
"3406.5","","image-slider-response","110","1489511","0.0-109.0","A2CS67AX8RPJUB","","","","","-7","","","","","","","","","","","","","","","","","","","","","",""
"null","","image-button-response","111","1494524","0.0-110.0","A2CS67AX8RPJUB","img_art/11.jpg","null","","","","","","","","","","","","","","","","","","","","","","","","",""
"1479","","image-button-response","112","1496012","0.0-111.0","A2CS67AX8RPJUB","img_art/11.jpg","3","","","","","","","","","","","","","","","","","","","","","","","","",""
"11934","","image-button-response","113","1507954","0.0-112.0-0.0","A2CS67AX8RPJUB","img_art/11.jpg","2","","","","","","","","","","","","","","","","","","","","","","","","",""
"1124","","image-button-response","114","1509086","0.0-113.0-0.0","A2CS67AX8RPJUB","img_art/11.jpg","1","","","","","","","","","","","","","","","","","","","","","","","","",""
"null","","html-keyboard-response","115","1510089","0.0-114.0","A2CS67AX8RPJUB","<p style=""font-size: 48px;"">+</p>","","","","","null","allTrialResponses","1000","1","10","img_art/11.jpg","-7","This looks like a dreary day in the city. ","Dominique,Caroline,Isabella,Maria,Kelly,Breanna","Looks like a familiar area,31,400,20","Makes me think of far away places and traveling. Makes me feel like wandering,20,100,20","City on a hill, tranquility,42,280,20","I enjoy the kandinsky-like general vibe, but the grey brings me down a bit,27,120,20","Its a little psychedelic.,10,220,20","Very cool, makes me feel good,39,380,20","Maria","I enjoy the kandinsky-like general vibe, but the grey brings me down a bit,27,120,20","Isabella","City on a hill, tranquility,42,280,20","Caroline","Makes me think of far away places and traveling. Makes me feel like wandering,20,100,20","2"
"3252","","survey-text","116","1513389","0.0-115.0-0.0","A2CS67AX8RPJUB","","","","{""Q0"":""our""}","","","","","","","","","","","","","","","","","","","","","","",""
"29192","","survey-text","117","1542588","0.0-116.0-0.0","A2CS67AX8RPJUB","","","","{""Q0"":""This fives me a very mellow feeling. The hills in the background remind me of home.""}","","","","","","","","","","","","","","","","","","","","","","",""
"2757.4000000953674","","image-slider-response","118","1545352","0.0-117.0","A2CS67AX8RPJUB","","","","","5","","","","","","","","","","","","","","","","","","","","","",""
"null","","image-button-response","119","1550361","0.0-118.0","A2CS67AX8RPJUB","img_art/19.jpg","null","","","","","","","","","","","","","","","","","","","","","","","","",""
"2036","","image-button-response","120","1552404","0.0-119.0","A2CS67AX8RPJUB","img_art/19.jpg","2","","","","","","","","","","","","","","","","","","","","","","","","",""
"4703","","image-button-response","121","1557113","0.0-120.0-0.0","A2CS67AX8RPJUB","img_art/19.jpg","3","","","","","","","","","","","","","","","","","","","","","","","","",""
"5199","","image-button-response","122","1562319","0.0-121.0-0.0","A2CS67AX8RPJUB","img_art/19.jpg","5","","","","","","","","","","","","","","","","","","","","","","","","",""
"null","","html-keyboard-response","123","1563833","0.0-122.0","A2CS67AX8RPJUB","<p style=""font-size: 48px;"">+</p>","","","","","null","allTrialResponses","1500","1","11","img_art/19.jpg","5","This fives me a very mellow feeling. The hills in the background remind me of home.","Sabrina,Caroline,Isabella,Maria,Cassidy,Destiny","Gives a very open and freeing vibe,42,120,20","Chaotic. Too much going on in the picture,14,100,20","A day in a small city,45,280,20","the way the landscape is portrayed captivates me - I enjoy studying the structure,32,120,20","too much going on, can't tell what it is,-14,140,20","this flow I just really like how everything blends but also doesn't,45,360,20","Isabella","A day in a small city,45,280,20","Maria","the way the landscape is portrayed captivates me - I enjoy studying the structure,32,120,20","Destiny","this flow I just really like how everything blends but also doesn't,45,360,20","2"
"35407","","survey-text","124","1599262","0.0-123.0-0.0","A2CS67AX8RPJUB","","","","{""Q0"":""This looks almost like a religious figure. ""}","","","","","","","","","","","","","","","","","","","","","","",""
"4527.100000023842","","image-slider-response","125","1603794","0.0-124.0","A2CS67AX8RPJUB","","","","","-1","","","","","","","","","","","","","","","","","","","","","",""
"1772","","image-button-response","126","1608806","0.0-125.0","A2CS67AX8RPJUB","img_art/25.jpg","0","","","","","","","","","","","","","","","","","","","","","","","","",""
"10873","","image-button-response","127","1619685","0.0-126.0","A2CS67AX8RPJUB","img_art/25.jpg","4","","","","","","","","","","","","","","","","","","","","","","","","",""
"6086","","image-button-response","128","1625774","0.0-127.0-0.0","A2CS67AX8RPJUB","img_art/25.jpg","0","","","","","","","","","","","","","","","","","","","","","","","","",""
"1870","","image-button-response","129","1627651","0.0-128.0-0.0","A2CS67AX8RPJUB","img_art/25.jpg","3","","","","","","","","","","","","","","","","","","","","","","","","",""
"null","","html-keyboard-response","130","1628157","0.0-129.0","A2CS67AX8RPJUB","<p style=""font-size: 48px;"">+</p>","","","","","null","allTrialResponses","500","1","12","img_art/25.jpg","-1","This looks almost like a religious figure. ","Kristen,Allison,Isabella,Maria,Stephanie,Destiny","reminds me of the grim reaper,3,280,20","high contrast draws attention to the image, but I'm not sure what I'm seeing,-5,140,20","I love the green and the figure is black but the green makes it pop,29,280,20","I find it enjoyable - mainly because it is not art I ever expected to see,16,120,20","It made me think of healing.,22,300,20","creeeeeppyyyyyyy but mad cool,-26,360,20","Stephanie","It made me think of healing.,22,300,20","Kristen","reminds me of the grim reaper,3,280,20","Maria","I find it enjoyable - mainly because it is not art I ever expected to see,16,120,20","2"
"36872","","survey-text","131","1665055","0.0-130.0-0.0","A2CS67AX8RPJUB","","","","{""Q0"":""This art seems to interpret chaos and wonder.""}","","","","","","","","","","","","","","","","","","","","","","",""
"2795.399999976158","","image-slider-response","132","1667856","0.0-131.0","A2CS67AX8RPJUB","","","","","30","","","","","","","","","","","","","","","","","","","","","",""
"4494","","image-button-response","133","1672867","0.0-132.0","A2CS67AX8RPJUB","img_art/13.jpg","1","","","","","","","","","","","","","","","","","","","","","","","","",""
"214","","image-button-response","134","1673089","0.0-133.0","A2CS67AX8RPJUB","img_art/13.jpg","1","","","","","","","","","","","","","","","","","","","","","","","","",""
"1712","","image-button-response","135","1674807","0.0-134.0-0.0","A2CS67AX8RPJUB","img_art/13.jpg","2","","","","","","","","","","","","","","","","","","","","","","","","",""
"1872","","image-button-response","136","1676685","0.0-135.0-0.0","A2CS67AX8RPJUB","img_art/13.jpg","4","","","","","","","","","","","","","","","","","","","","","","","","",""
"null","","html-keyboard-response","137","1677201","0.0-136.0","A2CS67AX8RPJUB","<p style=""font-size: 48px;"">+</p>","","","","","null","allTrialResponses","500","1","13","img_art/13.jpg","30","This art seems to interpret chaos and wonder.","Kristen,Molly,Sara,Maria,Stephanie,Jacqueline","happy, serenity,30,280,20","Incredible, curious.,20,340,20","I love the different blue shades,31,160,20","evokes a dampening feeling,-9,120,20","Raindrops splashing on the window.,50,300,20","Seems a little cold but I like the neuron looking splatters.,10,300,20","Molly","Incredible, curious.,20,340,20","Sara","I love the different blue shades,31,160,20","Stephanie","Raindrops splashing on the window.,50,300,20","2"
"28387","","survey-text","138","1705614","0.0-137.0-0.0","A2CS67AX8RPJUB","","","","{""Q0"":""This piece makes me feel refreshed.""}","","","","","","","","","","","","","","","","","","","","","","",""
"4155.100000023842","","image-slider-response","139","1709776","0.0-138.0","A2CS67AX8RPJUB","","","","","35","","","","","","","","","","","","","","","","","","","","","",""
"3188","","image-button-response","140","1714783","0.0-139.0","A2CS67AX8RPJUB","img_art/24.jpg","1","","","","","","","","","","","","","","","","","","","","","","","","",""
"189","","image-button-response","141","1714977","0.0-140.0","A2CS67AX8RPJUB","img_art/24.jpg","2","","","","","","","","","","","","","","","","","","","","","","","","",""
"3944","","image-button-response","142","1718929","0.0-141.0-0.0","A2CS67AX8RPJUB","img_art/24.jpg","4","","","","","","","","","","","","","","","","","","","","","","","","",""
"2073","","image-button-response","143","1721011","0.0-142.0-0.0","A2CS67AX8RPJUB","img_art/24.jpg","5","","","","","","","","","","","","","","","","","","","","","","","","",""
"null","","html-keyboard-response","144","1722019","0.0-143.0","A2CS67AX8RPJUB","<p style=""font-size: 48px;"">+</p>","","","","","null","allTrialResponses","1000","1","14","img_art/24.jpg","35","This piece makes me feel refreshed.","Ashley,Molly,Sara,Michaela,Stephanie,Haley","NOt quite Bob Ross, but still good.,30,320,20","Extraordinary and unusual.,30,340,20","Beautiful scenic drawing with perfect color coordination,43,160,20","Very pretty and soft,37,260,20","A beautiful waterfall in the springtime.,40,300,20","Beautiful colors and texture,20,220,20","Sara","Beautiful scenic drawing with perfect color coordination,43,160,20","Stephanie","A beautiful waterfall in the springtime.,40,300,20","Haley","Beautiful colors and texture,20,220,20","2"
"18916","","survey-text","145","1740970","0.0-144.0-0.0","A2CS67AX8RPJUB","","","","{""Q0"":""This looks like a battle between passion and self doubt.""}","","","","","","","","","","","","","","","","","","","","","","",""
"3082.899999976158","","image-slider-response","146","1744058","0.0-145.0","A2CS67AX8RPJUB","","","","","45","","","","","","","","","","","","","","","","","","","","","",""
"null","","image-button-response","147","1749072","0.0-146.0","A2CS67AX8RPJUB","img_art/21.jpg","null","","","","","","","","","","","","","","","","","","","","","","","","",""
"2011","","image-button-response","148","1751089","0.0-147.0","A2CS67AX8RPJUB","img_art/21.jpg","1","","","","","","","","","","","","","","","","","","","","","","","","",""
"7966","","image-button-response","149","1759062","0.0-148.0-0.0","A2CS67AX8RPJUB","img_art/21.jpg","4","","","","","","","","","","","","","","","","","","","","","","","","",""
"829","","image-button-response","150","1759899","0.0-149.0-0.0","A2CS67AX8RPJUB","img_art/21.jpg","3","","","","","","","","","","","","","","","","","","","","","","","","",""
"null","","html-keyboard-response","151","1760904","0.0-150.0","A2CS67AX8RPJUB","<p style=""font-size: 48px;"">+</p>","","","","","null","allTrialResponses","1000","1","15","img_art/21.jpg","45","This looks like a battle between passion and self doubt.","Elizabeth,Jamie,Sara,Morgan,Stephanie,Haley","Touches the heart,50,20,20","Contrast of fire and water looks cool,20,320,20","It looks confusing,-21,160,20","Survivable storm on the open sea.,27,380,20","A battle at sea, the red is a bomb exploding.,-31,300,20","Again, I love the use of color,50,220,20","Jamie","Contrast of fire and water looks cool,20,320,20","Stephanie","A battle at sea, the red is a bomb exploding.,-31,300,20","Morgan","Survivable storm on the open sea.,27,380,20","2"
"3809","","survey-text","152","1764760","0.0-151.0-0.0","A2CS67AX8RPJUB","","","","{""Q0"":""course""}","","","","","","","","","","","","","","","","","","","","","","",""
"26112","","survey-text","153","1790878","0.0-152.0-0.0","A2CS67AX8RPJUB","","","","{""Q0"":""I see a face smiling back at me. ""}","","","","","","","","","","","","","","","","","","","","","","",""
"3758.399999976158","","image-slider-response","154","1794642","0.0-153.0","A2CS67AX8RPJUB","","","","","24","","","","","","","","","","","","","","","","","","","","","",""
"null","","image-button-response","155","1799650","0.0-154.0","A2CS67AX8RPJUB","img_art/2.jpg","null","","","","","","","","","","","","","","","","","","","","","","","","",""
"2382","","image-button-response","156","1802036","0.0-155.0","A2CS67AX8RPJUB","img_art/2.jpg","4","","","","","","","","","","","","","","","","","","","","","","","","",""
"7049","","image-button-response","157","1809089","0.0-156.0-0.0","A2CS67AX8RPJUB","img_art/2.jpg","2","","","","","","","","","","","","","","","","","","","","","","","","",""
"8921","","image-button-response","158","1818017","0.0-157.0-0.0","A2CS67AX8RPJUB","img_art/2.jpg","5","","","","","","","","","","","","","","","","","","","","","","","","",""
"null","","html-keyboard-response","159","1819034","0.0-158.0","A2CS67AX8RPJUB","<p style=""font-size: 48px;"">+</p>","","","","","null","allTrialResponses","1000","1","16","img_art/2.jpg","24","I see a face smiling back at me. ","Michelle,Jamie,Angela,Morgan,Stephanie,Sophia","Don't like the puke green color and also too abstact,-14,280,20","Awful color coordination and design,-35,320,20","Only like the blues and teals in this. The rest is unappealing.,-15,260,20","Old, dull, messy.,-10,380,20","The colors are what I like. It looks like a smiling face too.,32,300,20","I'm not fond of the colors in this one.,-33,280,20","Stephanie","The colors are what I like. It looks like a smiling face too.,32,300,20","Angela","Only like the blues and teals in this. The rest is unappealing.,-15,260,20","Sophia","I'm not fond of the colors in this one.,-33,280,20","2"
"28822","","survey-text","160","1847881","0.0-159.0-0.0","A2CS67AX8RPJUB","","","","{""Q0"":""It's almost tribal. It makes me think of how old things can become new.""}","","","","","","","","","","","","","","","","","","","","","","",""
"3932.600000023842","","image-slider-response","161","1851820","0.0-160.0","A2CS67AX8RPJUB","","","","","30","","","","","","","","","","","","","","","","","","","","","",""
"null","","image-button-response","162","1856832","0.0-161.0","A2CS67AX8RPJUB","img_art/12.jpg","null","","","","","","","","","","","","","","","","","","","","","","","","",""
"5053","","image-button-response","163","1861891","0.0-162.0","A2CS67AX8RPJUB","img_art/12.jpg","4","","","","","","","","","","","","","","","","","","","","","","","","",""
"1349","","image-button-response","164","1863247","0.0-163.0-0.0","A2CS67AX8RPJUB","img_art/12.jpg","5","","","","","","","","","","","","","","","","","","","","","","","","",""
"1467","","image-button-response","165","1864720","0.0-164.0-0.0","A2CS67AX8RPJUB","img_art/12.jpg","2","","","","","","","","","","","","","","","","","","","","","","","","",""
"null","","html-keyboard-response","166","1865729","0.0-165.0","A2CS67AX8RPJUB","<p style=""font-size: 48px;"">+</p>","","","","","null","allTrialResponses","1000","1","17","img_art/12.jpg","30","It's almost tribal. It makes me think of how old things can become new.","Abigail,Sierra,Angela,Leah,Stephanie,Sophia","Made me uncomfortable, reminded me of the 90s,-9,20,20","i dont see the point.,-19,260,20","I like the colors in the bottom half of the painting,10,260,20","Looks like a puzzle I want to put together, but not hang in my den,2,360,20","I like the pattern to it.,31,300,20","Good technique. It's just not my thing.,2,280,20","Stephanie","I like the pattern to it.,31,300,20","Sophia","Good technique. It's just not my thing.,2,280,20","Angela","I like the colors in the bottom half of the painting,10,260,20","2"
"45373","","survey-text","167","1911129","0.0-166.0-0.0","A2CS67AX8RPJUB","","","","{""Q0"":""It looks like the world is sliding away from us. The trees seem to be falling away.""}","","","","","","","","","","","","","","","","","","","","","","",""
"2892.899999976158","","image-slider-response","168","1914027","0.0-167.0","A2CS67AX8RPJUB","","","","","11","","","","","","","","","","","","","","","","","","","","","",""
"null","","image-button-response","169","1919035","0.0-168.0","A2CS67AX8RPJUB","img_art/27.jpg","null","","","","","","","","","","","","","","","","","","","","","","","","",""
"19081","","image-button-response","170","1938121","0.0-169.0","A2CS67AX8RPJUB","img_art/27.jpg","1","","","","","","","","","","","","","","","","","","","","","","","","",""
"6595","","image-button-response","171","1944725","0.0-170.0-0.0","A2CS67AX8RPJUB","img_art/27.jpg","3","","","","","","","","","","","","","","","","","","","","","","","","",""
"2355","","image-button-response","172","1947088","0.0-171.0-0.0","A2CS67AX8RPJUB","img_art/27.jpg","0","","","","","","","","","","","","","","","","","","","","","","","","",""
"null","","html-keyboard-response","173","1947595","0.0-172.0","A2CS67AX8RPJUB","<p style=""font-size: 48px;"">+</p>","","","","","null","allTrialResponses","500","1","18","img_art/27.jpg","11","It looks like the world is sliding away from us. The trees seem to be falling away.","Erin,Tiffany,Angela,Nicole,Stephanie,Sophia","Looks like someone vandalized the original piece with a marker,-36,120,20","I feel peaceful and a little nervous at the same time.,11,360,20","It's okay. Not really interesting to me.,-10,260,20","Very cool colors and I like the contrast of lights and darks,30,20,20","The black sketchy over the colors doesn't fit.,-4,300,20","Yikes. I think I made this in kindergarten.,-20,280,20","Tiffany","I feel peaceful and a little nervous at the same time.,11,360,20","Nicole","Very cool colors and I like the contrast of lights and darks,30,20,20","Erin","Looks like someone vandalized the original piece with a marker,-36,120,20","2"
"32516","","survey-text","174","1980161","0.0-173.0-0.0","A2CS67AX8RPJUB","","","","{""Q0"":""For me, this looks like a volcano erupting. ""}","","","","","","","","","","","","","","","","","","","","","","",""
"2604.100000023842","","image-slider-response","175","1982772","0.0-174.0","A2CS67AX8RPJUB","","","","","18","","","","","","","","","","","","","","","","","","","","","",""
"4239","","image-button-response","176","1987782","0.0-175.0","A2CS67AX8RPJUB","img_art/14.jpg","3","","","","","","","","","","","","","","","","","","","","","","","","",""
"354","","image-button-response","177","1988150","0.0-176.0","A2CS67AX8RPJUB","img_art/14.jpg","3","","","","","","","","","","","","","","","","","","","","","","","","",""
"2654","","image-button-response","178","1990812","0.0-177.0-0.0","A2CS67AX8RPJUB","img_art/14.jpg","5","","","","","","","","","","","","","","","","","","","","","","","","",""
"5230","","image-button-response","179","1996050","0.0-178.0-0.0","A2CS67AX8RPJUB","img_art/14.jpg","2","","","","","","","","","","","","","","","","","","","","","","","","",""
"null","","html-keyboard-response","180","1997058","0.0-179.0","A2CS67AX8RPJUB","<p style=""font-size: 48px;"">+</p>","","","","","null","allTrialResponses","1000","1","19","img_art/14.jpg","18","For me, this looks like a volcano erupting. ","Erin,Tiffany,Shelby,Nicole,Julia,Brooke","Looks childish and basic,-42,120,20","I feel uncomfortable looking at this painting, it is a mess that needs to be cleaned up.,-16,360,20","Something about the cahotic imagery makes me uncomfortable,-15,240,20","This reminds me of the Lion King somehow! Feels inspiring,30,20,20","I don't care for the style,-38,40,20","cotton candy skies. pretty.,35,60,20","Nicole","This reminds me of the Lion King somehow! Feels inspiring,30,20,20","Brooke","cotton candy skies. pretty.,35,60,20","Shelby","Something about the cahotic imagery makes me uncomfortable,-15,240,20","2"
"32224","","survey-text","181","2029324","0.0-180.0-0.0","A2CS67AX8RPJUB","","","","{""Q0"":""This piece looks like a golden statue. ""}","","","","","","","","","","","","","","","","","","","","","","",""
"4346.899999976158","","image-slider-response","182","2033676","0.0-181.0","A2CS67AX8RPJUB","","","","","26","","","","","","","","","","","","","","","","","","","","","",""
"null","","image-button-response","183","2038687","0.0-182.0","A2CS67AX8RPJUB","img_art/4.jpg","null","","","","","","","","","","","","","","","","","","","","","","","","",""
"5721","","image-button-response","184","2044415","0.0-183.0","A2CS67AX8RPJUB","img_art/4.jpg","3","","","","","","","","","","","","","","","","","","","","","","","","",""
"7854","","image-button-response","185","2052277","0.0-184.0-0.0","A2CS67AX8RPJUB","img_art/4.jpg","4","","","","","","","","","","","","","","","","","","","","","","","","",""
"13625","","image-button-response","186","2065909","0.0-185.0-0.0","A2CS67AX8RPJUB","img_art/4.jpg","2","","","","","","","","","","","","","","","","","","","","","","","","",""
"null","","html-keyboard-response","187","2066414","0.0-186.0","A2CS67AX8RPJUB","<p style=""font-size: 48px;"">+</p>","","","","","null","allTrialResponses","500","1","20","img_art/4.jpg","26","This piece looks like a golden statue. ","Kaitlyn,Bailey,Shelby,Nicole,Kathryn,Brooke","I don't understand this at all,3,80,20","Boring and tasteless. Almost reminds me of when an art gallery called a banana 'art',-42,360,20","The colors feel a bit off to me,-10,240,20","Mcdonald's french fries :(,-40,20,20","I feel kind of guilty looking at this, like I'm receiving a reward I don't I deserve.,-10,140,20","Looks like the roomba got into dog poop,-30,60,20","Nicole","Mcdonald's french fries :(,-40,20,20","Kathryn","I feel kind of guilty looking at this, like I'm receiving a reward I don't I deserve.,-10,140,20","Shelby","The colors feel a bit off to me,-10,240,20","2"
"2429","","survey-text","188","2068876","0.0-187.0-0.0","A2CS67AX8RPJUB","","","","{""Q0"":""we""}","","","","","","","","","","","","","","","","","","","","","","",""
"28737","","survey-text","189","2097618","0.0-188.0-0.0","A2CS67AX8RPJUB","","","","{""Q0"":""This piece makes me feel scared. It looks like a massacre happened.""}","","","","","","","","","","","","","","","","","","","","","","",""
"4029.2000000476837","","image-slider-response","190","2101653","0.0-189.0","A2CS67AX8RPJUB","","","","","-28","","","","","","","","","","","","","","","","","","","","","",""
"null","","image-button-response","191","2106667","0.0-190.0","A2CS67AX8RPJUB","img_art/3.jpg","null","","","","","","","","","","","","","","","","","","","","","","","","",""
"987","","image-button-response","192","2107658","0.0-191.0","A2CS67AX8RPJUB","img_art/3.jpg","2","","","","","","","","","","","","","","","","","","","","","","","","",""
"5059","","image-button-response","193","2112722","0.0-192.0-0.0","A2CS67AX8RPJUB","img_art/3.jpg","4","","","","","","","","","","","","","","","","","","","","","","","","",""
"3405","","image-button-response","194","2116135","0.0-193.0-0.0","A2CS67AX8RPJUB","img_art/3.jpg","5","","","","","","","","","","","","","","","","","","","","","","","","",""
"null","","html-keyboard-response","195","2117644","0.0-194.0","A2CS67AX8RPJUB","<p style=""font-size: 48px;"">+</p>","","","","","null","allTrialResponses","1500","1","21","img_art/3.jpg","-28","This piece makes me feel scared. It looks like a massacre happened.","Jordan,Chloe,Shelby,Nicole,Kathryn,Cassandra","i don't like this, just looks like scribbles,-50,20,20","Powerful lines but seems incomplete,-10,220,20","This makes me feel a bit disturbed,-35,240,20","Something I'd paint when I'm mad. I feel that,20,20,20","This gives me a negative feeling, like someone trying to scratch out their flaws. I see low self-esteem.,-20,140,20","I hate this...just a scribble of red.,-50,120,20","Shelby","This makes me feel a bit disturbed,-35,240,20","Kathryn","This gives me a negative feeling, like someone trying to scratch out their flaws. I see low self-esteem.,-20,140,20","Cassandra","I hate this...just a scribble of red.,-50,120,20","2"
"25524","","survey-text","196","2143182","0.0-195.0-0.0","A2CS67AX8RPJUB","","","","{""Q0"":""This piece looks like the road at night after it rains and all the lights seem to bounce off the pavement.""}","","","","","","","","","","","","","","","","","","","","","","",""
"3743.5","","image-slider-response","197","2146931","0.0-196.0","A2CS67AX8RPJUB","","","","","50","","","","","","","","","","","","","","","","","","","","","",""
"1713","","image-button-response","198","2151942","0.0-197.0","A2CS67AX8RPJUB","img_art/22.jpg","0","","","","","","","","","","","","","","","","","","","","","","","","",""
"1005","","image-button-response","199","2152955","0.0-198.0","A2CS67AX8RPJUB","img_art/22.jpg","4","","","","","","","","","","","","","","","","","","","","","","","","",""
"3967","","image-button-response","200","2156926","0.0-199.0-0.0","A2CS67AX8RPJUB","img_art/22.jpg","0","","","","","","","","","","","","","","","","","","","","","","","","",""
"730","","image-button-response","201","2157665","0.0-200.0-0.0","A2CS67AX8RPJUB","img_art/22.jpg","0","","","","","","","","","","","","","","","","","","","","","","","","",""
"3923","","image-button-response","202","2163719","0.0-200.1-0.1","A2CS67AX8RPJUB","img_art/22.jpg","1","","","","","","","","","","","","","","","","","","","","","","","","",""
"null","","html-keyboard-response","203","2164739","0.0-201.0","A2CS67AX8RPJUB","<p style=""font-size: 48px;"">+</p>","","","","","null","allTrialResponses","1000","1","22","img_art/22.jpg","50","This piece looks like the road at night after it rains and all the lights seem to bounce off the pavement.","Erika,Amber,Shelby,Jessica,Kathryn,Cassandra","Beautiful forms, using color to define shape,14,100,20","Colors are bright and cheerful.,5,200,20","This painting has a very nostalgic feel,20,240,20","I like the mixing of the primary colors.,8,400,20","This piece gives off a cool vibe. Reminds me of being out in the city at night.,20,140,20","Don't like it...too much red,-17,120,20","Kathryn","This piece gives off a cool vibe. Reminds me of being out in the city at night.,20,140,20","Erika","Beautiful forms, using color to define shape,14,100,20","Amber","Colors are bright and cheerful.,5,200,20","4"
"25166","","survey-text","204","2189934","0.0-202.0-0.0","A2CS67AX8RPJUB","","","","{""Q0"":""This is like when you find a childhood toy as an adult.""}","","","","","","","","","","","","","","","","","","","","","","",""
"2432.6999999284744","","image-slider-response","205","2192372","0.0-203.0","A2CS67AX8RPJUB","","","","","29","","","","","","","","","","","","","","","","","","","","","",""
"null","","image-button-response","206","2197385","0.0-204.0","A2CS67AX8RPJUB","img_art/16.jpg","null","","","","","","","","","","","","","","","","","","","","","","","","",""
"2241","","image-button-response","207","2199639","0.0-205.0","A2CS67AX8RPJUB","img_art/16.jpg","3","","","","","","","","","","","","","","","","","","","","","","","","",""
"2033","","image-button-response","208","2201680","0.0-206.0-0.0","A2CS67AX8RPJUB","img_art/16.jpg","3","","","","","","","","","","","","","","","","","","","","","","","","",""
"1727","","image-button-response","209","2206739","0.0-206.1-0.1","A2CS67AX8RPJUB","img_art/16.jpg","4","","","","","","","","","","","","","","","","","","","","","","","","",""
"5935","","image-button-response","210","2212682","0.0-207.0-0.0","A2CS67AX8RPJUB","img_art/16.jpg","0","","","","","","","","","","","","","","","","","","","","","","","","",""
"null","","html-keyboard-response","211","2213694","0.0-208.0","A2CS67AX8RPJUB","<p style=""font-size: 48px;"">+</p>","","","","","null","allTrialResponses","1000","1","23","img_art/16.jpg","29","This is like when you find a childhood toy as an adult.","Erika,Amber,Kaylee,Savannah,Kathryn,Heather","Very emotional,23,100,20","Don't like the teddy bear. It takes away from the painting.,-39,200,20","cool teddy bear,50,200,20","A strange collage made by a child. Do not like the colored face of the bear.,-29,200,20","I see something that is supposed to be comforting but it's been discarded and lost.,-20,140,20","lol i dont know how i feel about this.,1,260,20","Savannah","A strange collage made by a child. Do not like the colored face of the bear.,-29,200,20","Kathryn","I see something that is supposed to be comforting but it's been discarded and lost.,-20,140,20","Erika","Very emotional,23,100,20","6"
"19004","","survey-text","212","2232728","0.0-209.0-0.0","A2CS67AX8RPJUB","","","","{""Q0"":""This makes me think of travel.""}","","","","","","","","","","","","","","","","","","","","","","",""
"2882.7000000476837","","image-slider-response","213","2235616","0.0-210.0","A2CS67AX8RPJUB","","","","","5","","","","","","","","","","","","","","","","","","","","","",""
"null","","image-button-response","214","2240629","0.0-211.0","A2CS67AX8RPJUB","img_art/10.jpg","null","","","","","","","","","","","","","","","","","","","","","","","","",""
"9474","","image-button-response","215","2250111","0.0-212.0","A2CS67AX8RPJUB","img_art/10.jpg","3","","","","","","","","","","","","","","","","","","","","","","","","",""
"3156","","image-button-response","216","2253274","0.0-213.0-0.0","A2CS67AX8RPJUB","img_art/10.jpg","4","","","","","","","","","","","","","","","","","","","","","","","","",""
"4168","","image-button-response","217","2257449","0.0-214.0-0.0","A2CS67AX8RPJUB","img_art/10.jpg","5","","","","","","","","","","","","","","","","","","","","","","","","",""
"null","","html-keyboard-response","218","2258968","0.0-215.0","A2CS67AX8RPJUB","<p style=""font-size: 48px;"">+</p>","","","","","null","allTrialResponses","1500","1","24","img_art/10.jpg","5","This makes me think of travel.","Erika,Lauren,Mary,Savannah,Kathryn,Margaret","Good texture, expressive,18,100,20","I can't really tell what this is suppose to represent, but overall I don't like the design.,-20,340,20","The flow of lines is off. There are curvy and straight angry lines. It's not flattering at all.,-27,180,20","This is a scribble of a mad man. Appears low effort.,-33,200,20","This piece makes me think of music. The music is dark; I like dark music so it edges toward good.,10,140,20","I think this was going to be a guitar but then the artist got mad and gave up,-4,100,20","Savannah","This is a scribble of a mad man. Appears low effort.,-33,200,20","Kathryn","This piece makes me think of music. The music is dark; I like dark music so it edges toward good.,10,140,20","Margaret","I think this was going to be a guitar but then the artist got mad and gave up,-4,100,20","6"
"43326","","survey-text","219","2302309","0.0-216.0-0.0","A2CS67AX8RPJUB","","","","{""Q0"":""It looks like someone who is trying to reach out to someone else.""}","","","","","","","","","","","","","","","","","","","","","","",""
"4118.099999904633","","image-slider-response","220","2306432","0.0-217.0","A2CS67AX8RPJUB","","","","","23","","","","","","","","","","","","","","","","","","","","","",""
"null","","image-button-response","221","2311444","0.0-218.0","A2CS67AX8RPJUB","img_art/28.jpg","null","","","","","","","","","","","","","","","","","","","","","","","","",""
"3644","","image-button-response","222","2315097","0.0-219.0","A2CS67AX8RPJUB","img_art/28.jpg","1","","","","","","","","","","","","","","","","","","","","","","","","",""
"2473","","image-button-response","223","2317576","0.0-220.0-0.0","A2CS67AX8RPJUB","img_art/28.jpg","2","","","","","","","","","","","","","","","","","","","","","","","","",""
"1850","","image-button-response","224","2319434","0.0-221.0-0.0","A2CS67AX8RPJUB","img_art/28.jpg","5","","","","","","","","","","","","","","","","","","","","","","","","",""
"null","","html-keyboard-response","225","2320440","0.0-222.0","A2CS67AX8RPJUB","<p style=""font-size: 48px;"">+</p>","","","","","null","allTrialResponses","1000","1","25","img_art/28.jpg","23","It looks like someone who is trying to reach out to someone else.","Katherine,Amy,Andrea,Savannah,Kathryn,Margaret","Eh it's just kinda brown and muddy and not very nice looking,-18,120,20","Contemplative and a little dark. The muted colors and subject create a sense of mystery.,15,220,20","It reminds me of the cantina in Star Wars.,37,240,20","White and dark balance is way off- Seems dull.,-33,200,20","My immediate reaction was to think of smog. It recalls choking on dirty air.,-20,140,20","i like the neutral color pallette but i dont know what i am looking at,26,100,20","Amy","Contemplative and a little dark. The muted colors and subject create a sense of mystery.,15,220,20","Andrea","It reminds me of the cantina in Star Wars.,37,240,20","Margaret","i like the neutral color pallette but i dont know what i am looking at,26,100,20","6"
"4283","","survey-text","226","2324781","0.0-223.0-0.0","A2CS67AX8RPJUB","","","","{""Q0"":""table""}","","","","","","","","","","","","","","","","","","","","","","",""
"26763","","survey-text","227","2351549","0.0-224.0-0.0","A2CS67AX8RPJUB","","","","{""Q0"":""It looks like a nice sunny day on a street of a quiet neighborhood.""}","","","","","","","","","","","","","","","","","","","","","","",""
"9019.100000023842","","image-slider-response","228","2360575","0.0-225.0","A2CS67AX8RPJUB","","","","","46","","","","","","","","","","","","","","","","","","","","","",""
"null","","image-button-response","229","2365587","0.0-226.0","A2CS67AX8RPJUB","img_art/26.jpg","null","","","","","","","","","","","","","","","","","","","","","","","","",""
"9259","","image-button-response","230","2374853","0.0-227.0","A2CS67AX8RPJUB","img_art/26.jpg","2","","","","","","","","","","","","","","","","","","","","","","","","",""
"5078","","image-button-response","231","2379937","0.0-228.0-0.0","A2CS67AX8RPJUB","img_art/26.jpg","3","","","","","","","","","","","","","","","","","","","","","","","","",""
"3912","","image-button-response","232","2383857","0.0-229.0-0.0","A2CS67AX8RPJUB","img_art/26.jpg","1","","","","","","","","","","","","","","","","","","","","","","","","",""
"null","","html-keyboard-response","233","2384863","0.0-230.0","A2CS67AX8RPJUB","<p style=""font-size: 48px;"">+</p>","","","","","null","allTrialResponses","1000","1","26","img_art/26.jpg","46","It looks like a nice sunny day on a street of a quiet neighborhood.","Madison,Amy,Andrea,Amanda,Brittany,Margaret","Colors look glum; photograph is not properly contrasted and does not reflect the appropriate amount of natural light.,-10,60,20","The feeling that I am looking at the world through a dingy filter makes this unpleasant for me.,-20,220,20","I get the feeling of a small old world street.,24,240,20","Pleasant to look at,28,180,20","It looks boring and too rough.,-9,40,20","its boring and i dont like the color palette,3,100,20","Andrea","I get the feeling of a small old world street.,24,240,20","Amanda","Pleasant to look at,28,180,20","Amy","The feeling that I am looking at the world through a dingy filter makes this unpleasant for me.,-20,220,20","6"
"14145","","survey-text","234","2399040","0.0-231.0-0.0","A2CS67AX8RPJUB","","","","{""Q0"":""For some reason this reminds me of blueberries.""}","","","","","","","","","","","","","","","","","","","","","","",""
"2698.7999999523163","","image-slider-response","235","2401744","0.0-232.0","A2CS67AX8RPJUB","","","","","17","","","","","","","","","","","","","","","","","","","","","",""
"2460","","image-button-response","236","2406756","0.0-233.0","A2CS67AX8RPJUB","img_art/15.jpg","0","","","","","","","","","","","","","","","","","","","","","","","","",""
"1712","","image-button-response","237","2408475","0.0-234.0","A2CS67AX8RPJUB","img_art/15.jpg","3","","","","","","","","","","","","","","","","","","","","","","","","",""
"4214","","image-button-response","238","2412695","0.0-235.0-0.0","A2CS67AX8RPJUB","img_art/15.jpg","2","","","","","","","","","","","","","","","","","","","","","","","","",""
"2721","","image-button-response","239","2415425","0.0-236.0-0.0","A2CS67AX8RPJUB","img_art/15.jpg","1","","","","","","","","","","","","","","","","","","","","","","","","",""
"null","","html-keyboard-response","240","2416931","0.0-237.0","A2CS67AX8RPJUB","<p style=""font-size: 48px;"">+</p>","","","","","null","allTrialResponses","1500","1","27","img_art/15.jpg","17","For some reason this reminds me of blueberries.","Sarah,Amy,Andrea,Amanda,Meghan,Laura","this is really pretty! i like the pops of blue in all the black,26,180,20","basic colors and pleasing shapes providing a calming effect,15,220,20","Chameleons on reeds. Nice but doesn't really make me feel anything.,11,240,20","It triggers my tripophobia,-50,180,20","I like the pattern of it,11,220,20","abrasive, rough, uneven,-31,320,20","Amanda","It triggers my tripophobia,-50,180,20","Andrea","Chameleons on reeds. Nice but doesn't really make me feel anything.,11,240,20","Amy","basic colors and pleasing shapes providing a calming effect,15,220,20","6"
"15628","","survey-text","241","2432573","0.0-238.0-0.0","A2CS67AX8RPJUB","","","","{""Q0"":""It looks like a paperweight""}","","","","","","","","","","","","","","","","","","","","","","",""
"6900.200000047684","","image-slider-response","242","2439478","0.0-239.0","A2CS67AX8RPJUB","","","","","1","","","","","","","","","","","","","","","","","","","","","",""
"null","","image-button-response","243","2444496","0.0-240.0","A2CS67AX8RPJUB","img_art/5.jpg","null","","","","","","","","","","","","","","","","","","","","","","","","",""
"6094","","image-button-response","244","2450600","0.0-241.0","A2CS67AX8RPJUB","img_art/5.jpg","2","","","","","","","","","","","","","","","","","","","","","","","","",""
"3108","","image-button-response","245","2453714","0.0-242.0-0.0","A2CS67AX8RPJUB","img_art/5.jpg","4","","","","","","","","","","","","","","","","","","","","","","","","",""
"1037","","image-button-response","246","2454758","0.0-243.0-0.0","A2CS67AX8RPJUB","img_art/5.jpg","0","","","","","","","","","","","","","","","","","","","","","","","","",""
"null","","html-keyboard-response","247","2456267","0.0-244.0","A2CS67AX8RPJUB","<p style=""font-size: 48px;"">+</p>","","","","","null","allTrialResponses","1500","1","28","img_art/5.jpg","1","It looks like a paperweight","Vanessa,Amy,Andrea,Amanda,Mikayla,Anna","The yellow is garish and the picture doesn't look liked anything.,-49,380,20","Nearly white background gives a lack of context. Questionable skills,-45,220,20","Perfume bottle, reminds of fancy nights out.,11,240,20","Very good color coordination,41,180,20","I love the yellow! It really pops!,30,300,20","It's kind of boring.,-20,300,20","Andrea","Perfume bottle, reminds of fancy nights out.,11,240,20","Mikayla","I love the yellow! It really pops!,30,300,20","Vanessa","The yellow is garish and the picture doesn't look liked anything.,-49,380,20","6"
"17189","","survey-text","248","2473508","0.0-245.0-0.0","A2CS67AX8RPJUB","","","","{""Q0"":""This looks like a beautiful lake in autumn. ""}","","","","","","","","","","","","","","","","","","","","","","",""
"3209","","image-slider-response","249","2476724","0.0-246.0","A2CS67AX8RPJUB","","","","","50","","","","","","","","","","","","","","","","","","","","","",""
"null","","image-button-response","250","2481735","0.0-247.0","A2CS67AX8RPJUB","img_art/1.jpg","null","","","","","","","","","","","","","","","","","","","","","","","","",""
"3575","","image-button-response","251","2485314","0.0-248.0","A2CS67AX8RPJUB","img_art/1.jpg","5","","","","","","","","","","","","","","","","","","","","","","","","",""
"16079","","image-button-response","252","2501400","0.0-249.0-0.0","A2CS67AX8RPJUB","img_art/1.jpg","0","","","","","","","","","","","","","","","","","","","","","","","","",""
"1506","","image-button-response","253","2502913","0.0-250.0-0.0","A2CS67AX8RPJUB","img_art/1.jpg","3","","","","","","","","","","","","","","","","","","","","","","","","",""
"null","","html-keyboard-response","254","2503426","0.0-251.0","A2CS67AX8RPJUB","<p style=""font-size: 48px;"">+</p>","","","","","null","allTrialResponses","500","1","29","img_art/1.jpg","50","This looks like a beautiful lake in autumn. ","Vanessa,Katie,Andrea,Courtney,Mikayla,Kayla","I don't like how this one makes me feel.,-32,380,20","Too messy. Just looks like a mess of dark colors.,-20,160,20","It just doesn't speak to me.,0,240,20","I cant make anything of this one.,-7,280,20","Again kind a boring.,-38,300,20","Happy! Reminds me of hiking in tennesee.,18,180,20","Kayla","Happy! Reminds me of hiking in tennesee.,18,180,20","Vanessa","I don't like how this one makes me feel.,-32,380,20","Courtney","I cant make anything of this one.,-7,280,20","6"
"39928","","survey-text","255","2543394","0.0-252.0-0.0","A2CS67AX8RPJUB","","","","{""Q0"":""This looks like the painting pan that one uses to paint their walls with a roller.""}","","","","","","","","","","","","","","","","","","","","","","",""
"3151","","image-slider-response","256","2546552","0.0-253.0","A2CS67AX8RPJUB","","","","","3","","","","","","","","","","","","","","","","","","","","","",""
"null","","image-button-response","257","2551568","0.0-254.0","A2CS67AX8RPJUB","img_art/29.jpg","null","","","","","","","","","","","","","","","","","","","","","","","","",""
"736","","image-button-response","258","2552310","0.0-255.0","A2CS67AX8RPJUB","img_art/29.jpg","0","","","","","","","","","","","","","","","","","","","","","","","","",""
"6231","","image-button-response","259","2558549","0.0-256.0-0.0","A2CS67AX8RPJUB","img_art/29.jpg","2","","","","","","","","","","","","","","","","","","","","","","","","",""
"2298","","image-button-response","260","2560853","0.0-257.0-0.0","A2CS67AX8RPJUB","img_art/29.jpg","1","","","","","","","","","","","","","","","","","","","","","","","","",""
"null","","html-keyboard-response","261","2561365","0.0-258.0","A2CS67AX8RPJUB","<p style=""font-size: 48px;"">+</p>","","","","","null","allTrialResponses","500","1","30","img_art/29.jpg","3","This looks like the painting pan that one uses to paint their walls with a roller.","Vanessa,Briana,Taylor,Courtney,Erica,Kayla","I hate the red x over everything, hate the black hate how hopeless this is.,-50,380,20","Looks like someone trying to make something they dont understand,-36,400,20","It seems like there's anger in the painting.,-20,340,20","Thats a pretty wierd picture.,6,280,20","Looks like an accident more than an art to me,-26,80,20","It looks like graffiti in a subway tunnel- destruction.,-20,180,20","Vanessa","I hate the red x over everything, hate the black hate how hopeless this is.,-50,380,20","Taylor","It seems like there's anger in the painting.,-20,340,20","Briana","Looks like someone trying to make something they dont understand,-36,400,20","6"
"4165","","image-button-response_instructions","262","2565565","0.0-259.0","A2CS67AX8RPJUB","","0","instructions","","","","","","","","","","","","","","","","","","","","","","","",""
"1202","","image-button-response","263","2566788","0.0-260.0","A2CS67AX8RPJUB","","0","","","","","","","","","","","","","","","","","","","","","","","","",""
