"rt","url","trial_type","trial_index","time_elapsed","internal_node_id","participant_id","stimulus","button_pressed","Name","responses","response","key_press","variableName","fixationTime","condition","trial","photo","subjectRating","subjectResponse","agentsNames","agent_1_Response","agent_2_Response","agent_3_Response","agent_4_Response","agent_5_Response","agent_6_Response","kept_1_name","kept_1_response","kept_2_name","kept_2_response","kept_3_name","kept_3_response","errorCounter"
"8787","external_page_harvard.html","external-html","0","9029","0.0-0.0","A2E3LKD3ELOED6","","","","","","","","","","","","","","","","","","","","","","","","","","",""
"1837","","image-button-response","1","10871","0.0-1.0","A2E3LKD3ELOED6","","1","","","","","","","","","","","","","","","","","","","","","","","","",""
"2016","","image-button-response","2","12901","0.0-2.0-0.0","A2E3LKD3ELOED6","","1","phone","","","","","","","","","","","","","","","","","","","","","","","",""
"7107","","survey-text","3","20012","0.0-3.0-0.0","A2E3LKD3ELOED6","","","","{""Q0"":""A2E3LKD3ELOED6""}","","","","","","","","","","","","","","","","","","","","","","",""
"6372","","image-button-response_instructions","4","26389","0.0-4.0","A2E3LKD3ELOED6","","0","instructions","","","","","","","","","","","","","","","","","","","","","","","",""
"11568","","image-button-response_instructions","5","37962","0.0-5.0","A2E3LKD3ELOED6","img_art/ins/popularity/ins1.png","0","instructions","","","","","","","","","","","","","","","","","","","","","","","",""
"4092","","image-button-response_instructions","6","42056","0.0-6.0","A2E3LKD3ELOED6","img_art/ins/popularity/ins2.png","0","instructions","","","","","","","","","","","","","","","","","","","","","","","",""
"2944","","image-button-response_instructions","7","45003","0.0-7.0","A2E3LKD3ELOED6","img_art/ins/popularity/ins2Extreme.png","0","instructions","","","","","","","","","","","","","","","","","","","","","","","",""
"6856","","image-button-response_instructions","8","51863","0.0-8.0","A2E3LKD3ELOED6","img_art/ins/popularity/ins3KEEPpop.PNG","0","instructions","","","","","","","","","","","","","","","","","","","","","","","",""
"4576","","image-button-response_instructions","9","56443","0.0-9.0","A2E3LKD3ELOED6","img_art/ins/popularity/ins3ANamepop.PNG","0","instructions","","","","","","","","","","","","","","","","","","","","","","","",""
"3243","","image-button-response_instructions","10","59688","0.0-10.0","A2E3LKD3ELOED6","img_art/ins/popularity/ins3ARatingpop.png","0","instructions","","","","","","","","","","","","","","","","","","","","","","","",""
"3244","","image-button-response_instructions","11","62936","0.0-11.0","A2E3LKD3ELOED6","img_art/ins/popularity/ins3ATextpop.png","0","instructions","","","","","","","","","","","","","","","","","","","","","","","",""
"7873","","image-button-response_instructions","12","70812","0.0-12.0","A2E3LKD3ELOED6","img_art/ins/popularity/ins3ALikespop.png","0","instructions","","","","","","","","","","","","","","","","","","","","","","","",""
"13134","","image-button-response_instructions","13","83948","0.0-13.0","A2E3LKD3ELOED6","img_art/ins/popularity/ins3KEEPpop.PNG","0","instructions","","","","","","","","","","","","","","","","","","","","","","","",""
"13950","","image-button-response_instructions","14","97901","0.0-14.0","A2E3LKD3ELOED6","img_art/ins/popularity/ins3_5RED.png","0","instructions","","","","","","","","","","","","","","","","","","","","","","","",""
"4775","","image-button-response_instructions","15","102680","0.0-15.0","A2E3LKD3ELOED6","img_art/ins/popularity/ins3KEEPpop.PNG","0","instructions","","","","","","","","","","","","","","","","","","","","","","","",""
"8872","","image-button-response_instructions","16","111555","0.0-16.0","A2E3LKD3ELOED6","img_art/ins/popularity/ins4KEEPpop.PNG","0","instructions","","","","","","","","","","","","","","","","","","","","","","","",""
"8221","","image-button-response_instructions","17","119779","0.0-17.0","A2E3LKD3ELOED6","img_art/ins/popularity/ins5KEEPpop.PNG","0","instructions","","","","","","","","","","","","","","","","","","","","","","","",""
"1729","","image-button-response_instructions","18","121510","0.0-18.0","A2E3LKD3ELOED6","","0","instructions","","","","","","","","","","","","","","","","","","","","","","","",""
"9585","","survey-text","19","131151","0.0-19.0-0.0","A2E3LKD3ELOED6","","","","{""Q0"":""but""}","","","","","","","","","","","","","","","","","","","","","","",""
"18328","","survey-text","20","149483","0.0-20.0-0.0","A2E3LKD3ELOED6","","","","{""Q0"":""This is a very dull painting.""}","","","","","","","","","","","","","","","","","","","","","","",""
"4939.800000190735","","image-slider-response","21","154429","0.0-21.0","A2E3LKD3ELOED6","","","","","-28","","","","","","","","","","","","","","","","","","","","","",""
"2923","","image-button-response","22","159439","0.0-22.0","A2E3LKD3ELOED6","img_art/ins/1.jpg","1","","","","","","","","","","","","","","","","","","","","","","","","",""
"1919","","image-button-response","23","161364","0.0-23.0","A2E3LKD3ELOED6","img_art/ins/1.jpg","1","","","","","","","","","","","","","","","","","","","","","","","","",""
"7544","","image-button-response","24","168916","0.0-24.0-0.0","A2E3LKD3ELOED6","img_art/ins/1.jpg","3","","","","","","","","","","","","","","","","","","","","","","","","",""
"3922","","image-button-response","25","172845","0.0-25.0-0.0","A2E3LKD3ELOED6","img_art/ins/1.jpg","2","","","","","","","","","","","","","","","","","","","","","","","","",""
"null","","html-keyboard-response","26","174356","0.0-26.0","A2E3LKD3ELOED6","<p style=""font-size: 48px;"">+</p>","","","","","null","allTrialResponses","1500","1","-2","img_art/ins/1.jpg","-28","This is a very dull painting.","Allison,Ashley,Beth,Dora,Erika,Jen","looks like a lot of things going on in the mist,20,20,20","I just don't get why these type of art would be popular,-32,40,20","This color reminds me of poo,-46,60,20","looks like what my niece in 3rd grade did this afternoon,-50,80,20","I like the sophisticated brushwork,40,100,20","It reminds me of a candy land dream I had,36,120,20","Ashley","I just don't get why these type of art would be popular,-32,40,20","Dora","looks like what my niece in 3rd grade did this afternoon,-50,80,20","Beth","This color reminds me of poo,-46,60,20","0"
"21104","","survey-text","27","195470","0.0-27.0-0.0","A2E3LKD3ELOED6","","","","{""Q0"":""It is very condensed.""}","","","","","","","","","","","","","","","","","","","","","","",""
"4025.6000003814697","","image-slider-response","28","199501","0.0-28.0","A2E3LKD3ELOED6","","","","","-14","","","","","","","","","","","","","","","","","","","","","",""
"4707","","image-button-response","29","204512","0.0-29.0","A2E3LKD3ELOED6","img_art/ins/2.jpg","2","","","","","","","","","","","","","","","","","","","","","","","","",""
"3144","","image-button-response","30","207661","0.0-30.0","A2E3LKD3ELOED6","img_art/ins/2.jpg","5","","","","","","","","","","","","","","","","","","","","","","","","",""
"1627","","image-button-response","31","209293","0.0-31.0-0.0","A2E3LKD3ELOED6","img_art/ins/2.jpg","3","","","","","","","","","","","","","","","","","","","","","","","","",""
"2258","","image-button-response","32","211557","0.0-32.0-0.0","A2E3LKD3ELOED6","img_art/ins/2.jpg","2","","","","","","","","","","","","","","","","","","","","","","","","",""
"null","","html-keyboard-response","33","212569","0.0-33.0","A2E3LKD3ELOED6","<p style=""font-size: 48px;"">+</p>","","","","","null","allTrialResponses","1000","1","-1","img_art/ins/2.jpg","-14","It is very condensed.","Jenna,Ashley,Beth,Dora,Kara,Katie","One of my pet peevs,-48,140,20","Idk, it is just annoying,-32,40,20","meaningless painting,-45,60,20","looks too angry,-50,80,20","I like the blocks of color arrangements,30,160,20","too much color!,-28,180,20","Katie","too much color!,-28,180,20","Dora","looks too angry,-50,80,20","Beth","meaningless painting,-45,60,20","0"
"10857","","survey-text","34","223434","0.0-34.0-0.0","A2E3LKD3ELOED6","","","","{""Q0"":""I love the ice like look.""}","","","","","","","","","","","","","","","","","","","","","","",""
"6915.5","","image-slider-response","35","230355","0.0-35.0","A2E3LKD3ELOED6","","","","","41","","","","","","","","","","","","","","","","","","","","","",""
"4439","","image-button-response","36","235364","0.0-36.0","A2E3LKD3ELOED6","img_art/ins/3.jpg","4","","","","","","","","","","","","","","","","","","","","","","","","",""
"1097","","image-button-response","37","236466","0.0-37.0","A2E3LKD3ELOED6","img_art/ins/3.jpg","4","","","","","","","","","","","","","","","","","","","","","","","","",""
"2293","","image-button-response","38","238765","0.0-38.0-0.0","A2E3LKD3ELOED6","img_art/ins/3.jpg","1","","","","","","","","","","","","","","","","","","","","","","","","",""
"3773","","image-button-response","39","242544","0.0-39.0-0.0","A2E3LKD3ELOED6","img_art/ins/3.jpg","5","","","","","","","","","","","","","","","","","","","","","","","","",""
"null","","html-keyboard-response","40","243556","0.0-40.0","A2E3LKD3ELOED6","<p style=""font-size: 48px;"">+</p>","","","","","null","allTrialResponses","1000","1","0","img_art/ins/3.jpg","41","I love the ice like look.","Rose,Leslie,Beth,Dora,Mary,Katie","My daily routine, it's depressing,-20,240,20","It's an alright work,15,200,20","This thing gives me anxiety,-41,60,20","My worst nightmare,-42,80,20","I like the overlapping of brushes,41,220,20","It looks depressing,-26,180,20","Mary","I like the overlapping of brushes,41,220,20","Leslie","It's an alright work,15,200,20","Katie","It looks depressing,-26,180,20","0"
"4071","","image-button-response_instructions","41","247637","0.0-41.0","A2E3LKD3ELOED6","","0","instructions","","","","","","","","","","","","","","","","","","","","","","","",""
"13717","","survey-likert","42","261358","0.0-42.0-0.0","A2E3LKD3ELOED6","","","","{""Q0"":"""",""Q1"":0,""Q2"":1}","","","","","","","","","","","","","","","","","","","","","","",""
"4898","","survey-text","43","266268","0.0-43.0-0.0","A2E3LKD3ELOED6","","","","{""Q0"":""rock""}","","","","","","","","","","","","","","","","","","","","","","",""
"22584","","survey-text","44","288857","0.0-44.0-0.0","A2E3LKD3ELOED6","","","","{""Q0"":""this feels like landscape pictures combined.""}","","","","","","","","","","","","","","","","","","","","","","",""
"4997","","image-slider-response","45","293860","0.0-45.0","A2E3LKD3ELOED6","","","","","20","","","","","","","","","","","","","","","","","","","","","",""
"2031","","image-button-response","46","298919","0.0-46.0","A2E3LKD3ELOED6","img_art/12.jpg","1","","","","","","","","","","","","","","","","","","","","","","","","",""
"1912","","image-button-response","47","300837","0.0-47.0","A2E3LKD3ELOED6","img_art/12.jpg","1","","","","","","","","","","","","","","","","","","","","","","","","",""
"1542","","image-button-response","48","302385","0.0-48.0-0.0","A2E3LKD3ELOED6","img_art/12.jpg","5","","","","","","","","","","","","","","","","","","","","","","","","",""
"2326","","image-button-response","49","304716","0.0-49.0-0.0","A2E3LKD3ELOED6","img_art/12.jpg","0","","","","","","","","","","","","","","","","","","","","","","","","",""
"null","","html-keyboard-response","50","305225","0.0-50.0","A2E3LKD3ELOED6","<p style=""font-size: 48px;"">+</p>","","","","","null","allTrialResponses","500","1","1","img_art/12.jpg","20","this feels like landscape pictures combined.","Savannah,Claire,Andrea,Victoria,Gabriela,Monica","Almost natural flowing between abstract sections.,27,200,20","i like the repetition,30,260,20","It just feels like a jigsaw puzzle,-4,240,20","to contemporary for me,3,400,20","In my opinion, this photo has an old school vibe,22,140,20","Reminds me of collages we made in elementary school. I like the contrast of the colors from top to bottom,43,360,20","Claire","i like the repetition,30,260,20","Monica","Reminds me of collages we made in elementary school. I like the contrast of the colors from top to bottom,43,360,20","Savannah","Almost natural flowing between abstract sections.,27,200,20","0"
"15687","","survey-text","51","320921","0.0-51.0-0.0","A2E3LKD3ELOED6","","","","{""Q0"":""I love the old school vibe.""}","","","","","","","","","","","","","","","","","","","","","","",""
"2572.0999999046326","","image-slider-response","52","323498","0.0-52.0","A2E3LKD3ELOED6","","","","","50","","","","","","","","","","","","","","","","","","","","","",""
"2692","","image-button-response","53","328506","0.0-53.0","A2E3LKD3ELOED6","img_art/18.jpg","1","","","","","","","","","","","","","","","","","","","","","","","","",""
"981","","image-button-response","54","329492","0.0-54.0","A2E3LKD3ELOED6","img_art/18.jpg","1","","","","","","","","","","","","","","","","","","","","","","","","",""
"4214","","image-button-response","55","333710","0.0-55.0-0.0","A2E3LKD3ELOED6","img_art/18.jpg","2","","","","","","","","","","","","","","","","","","","","","","","","",""
"1537","","image-button-response","56","335256","0.0-56.0-0.0","A2E3LKD3ELOED6","img_art/18.jpg","0","","","","","","","","","","","","","","","","","","","","","","","","",""
"null","","html-keyboard-response","57","335765","0.0-57.0","A2E3LKD3ELOED6","<p style=""font-size: 48px;"">+</p>","","","","","null","allTrialResponses","500","1","2","img_art/18.jpg","50","I love the old school vibe.","Savannah,Claire,Gabrielle,Margaret,Chelsea,Monica","Accents make this piece.,21,200,20","reminds me of greek mythology,22,260,20","interesting piece, I like the horse and people inserted in spots,22,160,20","reminds me of dying at sea in the 1700s,-8,100,20","I like the detail but I wouldn't hang this up on my wall.,14,180,20","It doesn't look like much, the colors are dark and it doesn't really make me feel anything.,-2,360,20","Claire","reminds me of greek mythology,22,260,20","Gabrielle","interesting piece, I like the horse and people inserted in spots,22,160,20","Savannah","Accents make this piece.,21,200,20","0"
"11606","","survey-text","58","347380","0.0-58.0-0.0","A2E3LKD3ELOED6","","","","{""Q0"":""This reminds me of a Kraken.""}","","","","","","","","","","","","","","","","","","","","","","",""
"4503","","image-slider-response","59","351887","0.0-59.0","A2E3LKD3ELOED6","","","","","34","","","","","","","","","","","","","","","","","","","","","",""
"3723","","image-button-response","60","356895","0.0-60.0","A2E3LKD3ELOED6","img_art/10.jpg","1","","","","","","","","","","","","","","","","","","","","","","","","",""
"2090","","image-button-response","61","358992","0.0-61.0","A2E3LKD3ELOED6","img_art/10.jpg","1","","","","","","","","","","","","","","","","","","","","","","","","",""
"2181","","image-button-response","62","361178","0.0-62.0-0.0","A2E3LKD3ELOED6","img_art/10.jpg","2","","","","","","","","","","","","","","","","","","","","","","","","",""
"4771","","image-button-response","63","365956","0.0-63.0-0.0","A2E3LKD3ELOED6","img_art/10.jpg","4","","","","","","","","","","","","","","","","","","","","","","","","",""
"null","","html-keyboard-response","64","366468","0.0-64.0","A2E3LKD3ELOED6","<p style=""font-size: 48px;"">+</p>","","","","","null","allTrialResponses","500","1","3","img_art/10.jpg","34","This reminds me of a Kraken.","Savannah,Claire,Gabrielle,Autumn,Michelle,Cassidy","This is a scribble of a mad man. Appears low effort.,-33,200,20","it looks very musical,24,260,20","interesting portrayal of a violin?,10,160,20","It just looks like a dirty stain.,-38,340,20","This could be a guitar, or it could be a completely random shape.,-3,280,20","Looks like someone just smeared some paint and called it good. Do not like.,-6,140,20","Claire","it looks very musical,24,260,20","Gabrielle","interesting portrayal of a violin?,10,160,20","Michelle","This could be a guitar, or it could be a completely random shape.,-3,280,20","0"
"10545","","survey-text","65","377021","0.0-65.0-0.0","A2E3LKD3ELOED6","","","","{""Q0"":""It looks too mixed together.""}","","","","","","","","","","","","","","","","","","","","","","",""
"4338.699999809265","","image-slider-response","66","381366","0.0-66.0","A2E3LKD3ELOED6","","","","","-15","","","","","","","","","","","","","","","","","","","","","",""
"null","","image-button-response","67","386383","0.0-67.0","A2E3LKD3ELOED6","img_art/1.jpg","null","","","","","","","","","","","","","","","","","","","","","","","","",""
"1931","","image-button-response","68","388318","0.0-68.0","A2E3LKD3ELOED6","img_art/1.jpg","4","","","","","","","","","","","","","","","","","","","","","","","","",""
"2808","","image-button-response","69","391134","0.0-69.0-0.0","A2E3LKD3ELOED6","img_art/1.jpg","3","","","","","","","","","","","","","","","","","","","","","","","","",""
"1135","","image-button-response","70","392276","0.0-70.0-0.0","A2E3LKD3ELOED6","img_art/1.jpg","0","","","","","","","","","","","","","","","","","","","","","","","","",""
"null","","html-keyboard-response","71","393791","0.0-71.0","A2E3LKD3ELOED6","<p style=""font-size: 48px;"">+</p>","","","","","null","allTrialResponses","1500","1","4","img_art/1.jpg","-15","It looks too mixed together.","Natalie,Claire,Gabrielle,Ashley,Michelle,Madison","my reaction is that the picture is that Ive seen it before,-14,400,20","the colors are nice,8,260,20","nice piece, fall like,31,160,20","More passable, colorful, abstract.,13,320,20","Random paint does not make art,-5,280,20","This looks like the same artist as the first picture, but cropped? Looks incomplete.,28,60,20","Michelle","Random paint does not make art,-5,280,20","Ashley","More passable, colorful, abstract.,13,320,20","Natalie","my reaction is that the picture is that Ive seen it before,-14,400,20","0"
"8060","","survey-text","72","401861","0.0-72.0-0.0","A2E3LKD3ELOED6","","","","{""Q0"":""very plain""}","","","","","","","","","","","","","","","","","","","","","","",""
"5532.199999809265","","image-slider-response","73","407397","0.0-73.0","A2E3LKD3ELOED6","","","","","-50","","","","","","","","","","","","","","","","","","","","","",""
"null","","image-button-response","74","412407","0.0-74.0","A2E3LKD3ELOED6","img_art/6.jpg","null","","","","","","","","","","","","","","","","","","","","","","","","",""
"598","","image-button-response","75","413010","0.0-75.0","A2E3LKD3ELOED6","img_art/6.jpg","4","","","","","","","","","","","","","","","","","","","","","","","","",""
"3009","","image-button-response","76","416024","0.0-76.0-0.0","A2E3LKD3ELOED6","img_art/6.jpg","3","","","","","","","","","","","","","","","","","","","","","","","","",""
"5238","","image-button-response","77","421270","0.0-77.0-0.0","A2E3LKD3ELOED6","img_art/6.jpg","2","","","","","","","","","","","","","","","","","","","","","","","","",""
"null","","html-keyboard-response","78","421781","0.0-78.0","A2E3LKD3ELOED6","<p style=""font-size: 48px;"">+</p>","","","","","null","allTrialResponses","500","1","5","img_art/6.jpg","-50","very plain","Natalie,Elizabeth,Tiffany,Ashley,Michelle,Jacqueline","reminds me a giant peach,19,400,20","Love the simplicity of it,41,20,20","The painting makes me happy. Like I'm looking at a little bird.,6,360,20","A lot of people will lvoe this, I do not.,1,320,20","Definitely belongs at a doctor's office, I think it's a crow or a tree?,-3,280,20","It's a bit bland, but looks like a bird standing.,11,300,20","Michelle","Definitely belongs at a doctor's office, I think it's a crow or a tree?,-3,280,20","Ashley","A lot of people will lvoe this, I do not.,1,320,20","Tiffany","The painting makes me happy. Like I'm looking at a little bird.,6,360,20","0"
"8959","","survey-text","79","430760","0.0-79.0-0.0","A2E3LKD3ELOED6","","","","{""Q0"":""sky""}","","","","","","","","","","","","","","","","","","","","","","",""
"11803","","survey-text","80","442567","0.0-80.0-0.0","A2E3LKD3ELOED6","","","","{""Q0"":""It looks mystic.""}","","","","","","","","","","","","","","","","","","","","","","",""
"7385.599999904633","","image-slider-response","81","449957","0.0-81.0","A2E3LKD3ELOED6","","","","","3","","","","","","","","","","","","","","","","","","","","","",""
"3806","","image-button-response","82","454966","0.0-82.0","A2E3LKD3ELOED6","img_art/25.jpg","1","","","","","","","","","","","","","","","","","","","","","","","","",""
"1538","","image-button-response","83","456509","0.0-83.0","A2E3LKD3ELOED6","img_art/25.jpg","1","","","","","","","","","","","","","","","","","","","","","","","","",""
"7179","","image-button-response","84","463694","0.0-84.0-0.0","A2E3LKD3ELOED6","img_art/25.jpg","0","","","","","","","","","","","","","","","","","","","","","","","","",""
"1859","","image-button-response","85","465560","0.0-85.0-0.0","A2E3LKD3ELOED6","img_art/25.jpg","0","","","","","","","","","","","","","","","","","","","","","","","","",""
"914","","image-button-response","86","470591","0.0-85.1-0.1","A2E3LKD3ELOED6","img_art/25.jpg","5","","","","","","","","","","","","","","","","","","","","","","","","",""
"null","","html-keyboard-response","87","471100","0.0-86.0","A2E3LKD3ELOED6","<p style=""font-size: 48px;"">+</p>","","","","","null","allTrialResponses","500","1","6","img_art/25.jpg","3","It looks mystic.","Heather,Kylie,Tiffany,Ashley,Michelle,Catherine","This reminds me of royalty and servants.,32,260,20","Egyptian heiroglyphics and painting,15,300,20","I feel little to no emotion looking at this painting.,0,360,20","haunting, a lovely impression.,50,320,20","I can get behind this but only because I like the green. it reminds me of a graveyard,11,280,20","culture, tradition. Village people with an honored elder.,40,160,20","Kylie","Egyptian heiroglyphics and painting,15,300,20","Heather","This reminds me of royalty and servants.,32,260,20","Catherine","culture, tradition. Village people with an honored elder.,40,160,20","2"
"10648","","survey-text","88","481756","0.0-87.0-0.0","A2E3LKD3ELOED6","","","","{""Q0"":""Looks like rain on a window.""}","","","","","","","","","","","","","","","","","","","","","","",""
"4972.5","","image-slider-response","89","486733","0.0-88.0","A2E3LKD3ELOED6","","","","","6","","","","","","","","","","","","","","","","","","","","","",""
"3037","","image-button-response","90","491747","0.0-89.0","A2E3LKD3ELOED6","img_art/13.jpg","1","","","","","","","","","","","","","","","","","","","","","","","","",""
"1054","","image-button-response","91","492806","0.0-90.0","A2E3LKD3ELOED6","img_art/13.jpg","2","","","","","","","","","","","","","","","","","","","","","","","","",""
"4264","","image-button-response","92","497076","0.0-91.0-0.0","A2E3LKD3ELOED6","img_art/13.jpg","3","","","","","","","","","","","","","","","","","","","","","","","","",""
"1829","","image-button-response","93","498911","0.0-92.0-0.0","A2E3LKD3ELOED6","img_art/13.jpg","1","","","","","","","","","","","","","","","","","","","","","","","","",""
"null","","html-keyboard-response","94","499919","0.0-93.0","A2E3LKD3ELOED6","<p style=""font-size: 48px;"">+</p>","","","","","null","allTrialResponses","1000","1","7","img_art/13.jpg","6","Looks like rain on a window.","Heather,Kylie,Sabrina,Kaitlyn,Brittany,Catherine","rain in blue black and white,1,260,20","Very abstract and soothing,40,300,20","I love the edgy nature,50,120,20","Like the color choices,7,80,20","Not really a fan of ""splash"" art.,-20,40,20","Magnified rain around trees. Beautiful happy colors. The little person on the right feels nature is huge.,45,160,20","Sabrina","I love the edgy nature,50,120,20","Kaitlyn","Like the color choices,7,80,20","Kylie","Very abstract and soothing,40,300,20","2"
"8514","","survey-text","95","508444","0.0-94.0-0.0","A2E3LKD3ELOED6","","","","{""Q0"":""very odd and ugly""}","","","","","","","","","","","","","","","","","","","","","","",""
"8483.599999904633","","image-slider-response","96","516934","0.0-95.0","A2E3LKD3ELOED6","","","","","-50","","","","","","","","","","","","","","","","","","","","","",""
"4664","","image-button-response","97","521951","0.0-96.0","A2E3LKD3ELOED6","img_art/16.jpg","0","","","","","","","","","","","","","","","","","","","","","","","","",""
"3588","","image-button-response","98","525546","0.0-97.0","A2E3LKD3ELOED6","img_art/16.jpg","0","","","","","","","","","","","","","","","","","","","","","","","","",""
"1358","","image-button-response","99","526912","0.0-98.0-0.0","A2E3LKD3ELOED6","img_art/16.jpg","4","","","","","","","","","","","","","","","","","","","","","","","","",""
"1190","","image-button-response","100","528110","0.0-99.0-0.0","A2E3LKD3ELOED6","img_art/16.jpg","3","","","","","","","","","","","","","","","","","","","","","","","","",""
"null","","html-keyboard-response","101","528626","0.0-100.0","A2E3LKD3ELOED6","<p style=""font-size: 48px;"">+</p>","","","","","null","allTrialResponses","500","1","8","img_art/16.jpg","-50","very odd and ugly","Kristen,Kylie,Sabrina,Kaitlyn,Emma,Makayla","sad. desth of childhood,-5,280,20","Mixed feelings. Warm and comfy yet somewhat violent. A stark contrast,0,300,20","Kind of an edgy teenager vibe,32,120,20","The bear is a weird choice,-22,80,20","Kind of creepyyyyyy,-41,60,20","It's a little unsettling,2,80,20","Kristen","sad. desth of childhood,-5,280,20","Emma","Kind of creepyyyyyy,-41,60,20","Kaitlyn","The bear is a weird choice,-22,80,20","2"
"11862","","survey-text","102","540499","0.0-101.0-0.0","A2E3LKD3ELOED6","","","","{""Q0"":""looks like a park""}","","","","","","","","","","","","","","","","","","","","","","",""
"4544.299999713898","","image-slider-response","103","545047","0.0-102.0","A2E3LKD3ELOED6","","","","","-5","","","","","","","","","","","","","","","","","","","","","",""
"null","","image-button-response","104","550056","0.0-103.0","A2E3LKD3ELOED6","img_art/26.jpg","null","","","","","","","","","","","","","","","","","","","","","","","","",""
"660","","image-button-response","105","550721","0.0-104.0","A2E3LKD3ELOED6","img_art/26.jpg","4","","","","","","","","","","","","","","","","","","","","","","","","",""
"1467","","image-button-response","106","552193","0.0-105.0-0.0","A2E3LKD3ELOED6","img_art/26.jpg","5","","","","","","","","","","","","","","","","","","","","","","","","",""
"2932","","image-button-response","107","555131","0.0-106.0-0.0","A2E3LKD3ELOED6","img_art/26.jpg","3","","","","","","","","","","","","","","","","","","","","","","","","",""
"null","","html-keyboard-response","108","556648","0.0-107.0","A2E3LKD3ELOED6","<p style=""font-size: 48px;"">+</p>","","","","","null","allTrialResponses","1500","1","9","img_art/26.jpg","-5","looks like a park","Kristen,Alexandria,Hailey,Kaitlyn,Emma,Cheyenne","happy, park, childhood,9,280,20","makes me happy and reminds me of a paris courtyard,29,80,20","bedroom in the outdoors. warm,9,200,20","The colors look faded and blurry,2,80,20","Looks unfinished,-31,60,20","No strong reaction but the color scheme is nice,10,200,20","Emma","Looks unfinished,-31,60,20","Cheyenne","No strong reaction but the color scheme is nice,10,200,20","Kaitlyn","The colors look faded and blurry,2,80,20","2"
"7592","","survey-text","109","564250","0.0-108.0-0.0","A2E3LKD3ELOED6","","","","{""Q0"":""very cluttered""}","","","","","","","","","","","","","","","","","","","","","","",""
"5964.099999904633","","image-slider-response","110","570218","0.0-109.0","A2E3LKD3ELOED6","","","","","-32","","","","","","","","","","","","","","","","","","","","","",""
"4918","","image-button-response","111","575231","0.0-110.0","A2E3LKD3ELOED6","img_art/19.jpg","3","","","","","","","","","","","","","","","","","","","","","","","","",""
"5725","","image-button-response","112","580963","0.0-111.0","A2E3LKD3ELOED6","img_art/19.jpg","2","","","","","","","","","","","","","","","","","","","","","","","","",""
"1221","","image-button-response","113","582191","0.0-112.0-0.0","A2E3LKD3ELOED6","img_art/19.jpg","5","","","","","","","","","","","","","","","","","","","","","","","","",""
"1528","","image-button-response","114","583725","0.0-113.0-0.0","A2E3LKD3ELOED6","img_art/19.jpg","3","","","","","","","","","","","","","","","","","","","","","","","","",""
"null","","html-keyboard-response","115","585237","0.0-114.0","A2E3LKD3ELOED6","<p style=""font-size: 48px;"">+</p>","","","","","null","allTrialResponses","1500","1","10","img_art/19.jpg","-32","very cluttered","Breanna,Christina,Sara,Kaitlyn,Emma,Cheyenne","The details are amazing,36,380,20","i like the colors and the way it looks like an actual scene,18,240,20","I like the vibrant color blocks,13,160,20","The picture contains a lot of brown and weird drips,-4,80,20","Interesting, leaves you wondering what it is,40,60,20","Solid use of colors but wished it looked more realistic.,12,200,20","Sara","I like the vibrant color blocks,13,160,20","Cheyenne","Solid use of colors but wished it looked more realistic.,12,200,20","Kaitlyn","The picture contains a lot of brown and weird drips,-4,80,20","2"
"7981","","survey-text","116","593233","0.0-115.0-0.0","A2E3LKD3ELOED6","","","","{""Q0"":""our""}","","","","","","","","","","","","","","","","","","","","","","",""
"25755","","survey-text","117","618991","0.0-116.0-0.0","A2E3LKD3ELOED6","","","","{""Q0"":""very intruding and different""}","","","","","","","","","","","","","","","","","","","","","","",""
"5439.89999961853","","image-slider-response","118","624435","0.0-117.0","A2E3LKD3ELOED6","","","","","-5","","","","","","","","","","","","","","","","","","","","","",""
"4007","","image-button-response","119","629445","0.0-118.0","A2E3LKD3ELOED6","img_art/30.jpg","2","","","","","","","","","","","","","","","","","","","","","","","","",""
"1064","","image-button-response","120","630513","0.0-119.0","A2E3LKD3ELOED6","img_art/30.jpg","2","","","","","","","","","","","","","","","","","","","","","","","","",""
"1526","","image-button-response","121","632045","0.0-120.0-0.0","A2E3LKD3ELOED6","img_art/30.jpg","5","","","","","","","","","","","","","","","","","","","","","","","","",""
"1094","","image-button-response","122","633145","0.0-121.0-0.0","A2E3LKD3ELOED6","img_art/30.jpg","3","","","","","","","","","","","","","","","","","","","","","","","","",""
"null","","html-keyboard-response","123","634656","0.0-122.0","A2E3LKD3ELOED6","<p style=""font-size: 48px;"">+</p>","","","","","null","allTrialResponses","1500","1","11","img_art/30.jpg","-5","very intruding and different","Hannah,Molly,Sara,Kaitlyn,Marissa,Cheyenne","It's just all right.,5,240,20","I like the way the artist has painted his work.,40,340,20","I don't like the blended colors,-20,160,20","Do not like the streaks,-14,80,20","I really like the broad and colorful strokes,21,160,20","A bit too dark for my liking,-10,200,20","Sara","I don't like the blended colors,-20,160,20","Cheyenne","A bit too dark for my liking,-10,200,20","Kaitlyn","Do not like the streaks,-14,80,20","2"
"18226","","survey-text","124","652891","0.0-123.0-0.0","A2E3LKD3ELOED6","","","","{""Q0"":""looks morgue like""}","","","","","","","","","","","","","","","","","","","","","","",""
"7204.300000190735","","image-slider-response","125","660100","0.0-124.0","A2E3LKD3ELOED6","","","","","-50","","","","","","","","","","","","","","","","","","","","","",""
"3808","","image-button-response","126","665110","0.0-125.0","A2E3LKD3ELOED6","img_art/9.jpg","0","","","","","","","","","","","","","","","","","","","","","","","","",""
"2179","","image-button-response","127","667295","0.0-126.0","A2E3LKD3ELOED6","img_art/9.jpg","4","","","","","","","","","","","","","","","","","","","","","","","","",""
"1312","","image-button-response","128","668611","0.0-127.0-0.0","A2E3LKD3ELOED6","img_art/9.jpg","2","","","","","","","","","","","","","","","","","","","","","","","","",""
"926","","image-button-response","129","669542","0.0-128.0-0.0","A2E3LKD3ELOED6","img_art/9.jpg","1","","","","","","","","","","","","","","","","","","","","","","","","",""
"null","","html-keyboard-response","130","670555","0.0-129.0","A2E3LKD3ELOED6","<p style=""font-size: 48px;"">+</p>","","","","","null","allTrialResponses","1000","1","12","img_art/9.jpg","-50","looks morgue like","Kelsey,Allison,Sara,Kaitlyn,Lindsey,Cheyenne","i like the colors but not the composition,-17,240,20","Very eclectic and messy. Not my preference, but may work for some.,-20,140,20","Spiral patterns are not my thing,-30,160,20","Focal point is interesting,2,80,20","Looks like my niece's doodles.,-50,400,20","Too much going on, don't know what the focus is,-11,200,20","Lindsey","Looks like my niece's doodles.,-50,400,20","Sara","Spiral patterns are not my thing,-30,160,20","Allison","Very eclectic and messy. Not my preference, but may work for some.,-20,140,20","2"
"12416","","survey-text","131","682978","0.0-130.0-0.0","A2E3LKD3ELOED6","","","","{""Q0"":""very hard to decipher""}","","","","","","","","","","","","","","","","","","","","","","",""
"5806.5","","image-slider-response","132","688789","0.0-131.0","A2E3LKD3ELOED6","","","","","-3","","","","","","","","","","","","","","","","","","","","","",""
"null","","image-button-response","133","693799","0.0-132.0","A2E3LKD3ELOED6","img_art/27.jpg","null","","","","","","","","","","","","","","","","","","","","","","","","",""
"10155","","image-button-response","134","703958","0.0-133.0","A2E3LKD3ELOED6","img_art/27.jpg","4","","","","","","","","","","","","","","","","","","","","","","","","",""
"2026","","image-button-response","135","705990","0.0-134.0-0.0","A2E3LKD3ELOED6","img_art/27.jpg","3","","","","","","","","","","","","","","","","","","","","","","","","",""
"1377","","image-button-response","136","707372","0.0-135.0-0.0","A2E3LKD3ELOED6","img_art/27.jpg","1","","","","","","","","","","","","","","","","","","","","","","","","",""
"null","","html-keyboard-response","137","708384","0.0-136.0","A2E3LKD3ELOED6","<p style=""font-size: 48px;"">+</p>","","","","","null","allTrialResponses","1000","1","13","img_art/27.jpg","-3","very hard to decipher","Caroline,Allison,Sara,Katherine,Lindsey,Chloe","Didnt actually make me feel anything, sort of bland,3,100,20","Warn colors are pretty, but too blotchy for me.,3,140,20","Not cohesive design,-31,160,20","it's like a weird version of heaven,16,120,20","Looks like my niece's doodles.,-50,400,20","Like the movement of the lines and dripping paint.,30,220,20","Lindsey","Looks like my niece's doodles.,-50,400,20","Katherine","it's like a weird version of heaven,16,120,20","Allison","Warn colors are pretty, but too blotchy for me.,3,140,20","2"
"11730","","survey-text","138","720125","0.0-137.0-0.0","A2E3LKD3ELOED6","","","","{""Q0"":""looks like scribbles""}","","","","","","","","","","","","","","","","","","","","","","",""
"6605.700000286102","","image-slider-response","139","726735","0.0-138.0","A2E3LKD3ELOED6","","","","","-50","","","","","","","","","","","","","","","","","","","","","",""
"4191","","image-button-response","140","731745","0.0-139.0","A2E3LKD3ELOED6","img_art/3.jpg","4","","","","","","","","","","","","","","","","","","","","","","","","",""
"998","","image-button-response","141","732747","0.0-140.0","A2E3LKD3ELOED6","img_art/3.jpg","4","","","","","","","","","","","","","","","","","","","","","","","","",""
"1477","","image-button-response","142","734229","0.0-141.0-0.0","A2E3LKD3ELOED6","img_art/3.jpg","1","","","","","","","","","","","","","","","","","","","","","","","","",""
"944","","image-button-response","143","735178","0.0-142.0-0.0","A2E3LKD3ELOED6","img_art/3.jpg","0","","","","","","","","","","","","","","","","","","","","","","","","",""
"null","","html-keyboard-response","144","736190","0.0-143.0","A2E3LKD3ELOED6","<p style=""font-size: 48px;"">+</p>","","","","","null","allTrialResponses","1000","1","14","img_art/3.jpg","-50","looks like scribbles","Alyssa,Allison,Erika,Katherine,Lindsey,Sophia","Looks like someone spilled ketchup and forgot to clean it up,-30,160,20","Reminds me of a hot mess,-10,140,20","Unaure what the artist  was doing, needs context,11,100,20","Too much red! Reminds me of blood. I hate blood.,-34,120,20","Angry red crayons, like a child throwing a tantrum. No thanks.,-10,400,20","Marker gone wild?  Not sure what's going on here.,-21,280,20","Lindsey","Angry red crayons, like a child throwing a tantrum. No thanks.,-10,400,20","Allison","Reminds me of a hot mess,-10,140,20","Alyssa","Looks like someone spilled ketchup and forgot to clean it up,-30,160,20","2"
"12046","","survey-text","145","748247","0.0-144.0-0.0","A2E3LKD3ELOED6","","","","{""Q0"":""looks like someone smeared poop""}","","","","","","","","","","","","","","","","","","","","","","",""
"5724.099999904633","","image-slider-response","146","753976","0.0-145.0","A2E3LKD3ELOED6","","","","","-50","","","","","","","","","","","","","","","","","","","","","",""
"null","","image-button-response","147","758985","0.0-146.0","A2E3LKD3ELOED6","img_art/4.jpg","null","","","","","","","","","","","","","","","","","","","","","","","","",""
"332","","image-button-response","148","759321","0.0-147.0","A2E3LKD3ELOED6","img_art/4.jpg","4","","","","","","","","","","","","","","","","","","","","","","","","",""
"2259","","image-button-response","149","761586","0.0-148.0-0.0","A2E3LKD3ELOED6","img_art/4.jpg","5","","","","","","","","","","","","","","","","","","","","","","","","",""
"3640","","image-button-response","150","765232","0.0-149.0-0.0","A2E3LKD3ELOED6","img_art/4.jpg","2","","","","","","","","","","","","","","","","","","","","","","","","",""
"null","","html-keyboard-response","151","765744","0.0-150.0","A2E3LKD3ELOED6","<p style=""font-size: 48px;"">+</p>","","","","","null","allTrialResponses","500","1","15","img_art/4.jpg","-50","looks like someone smeared poop","Alyssa,Allison,Caitlin,Sydney,Lindsey,Megan","Extremely simple and like not alot of time was put into it,-20,160,20","McDonald's French Fries.,-10,140,20","They give out trophies now for fighting with brass knuckles?,-20,80,20","This piece catches my eye, but it's strange to me.,10,320,20","Looks like feces smeared on the canvas. I hate it.,-50,400,20","Better version of a 7 year old who got lucky,-23,200,20","Lindsey","Looks like feces smeared on the canvas. I hate it.,-50,400,20","Megan","Better version of a 7 year old who got lucky,-23,200,20","Caitlin","They give out trophies now for fighting with brass knuckles?,-20,80,20","2"
"9274","","survey-text","152","775038","0.0-151.0-0.0","A2E3LKD3ELOED6","","","","{""Q0"":""course""}","","","","","","","","","","","","","","","","","","","","","","",""
"14066","","survey-text","153","789107","0.0-152.0-0.0","A2E3LKD3ELOED6","","","","{""Q0"":""very nice colors and shapes""}","","","","","","","","","","","","","","","","","","","","","","",""
"5606.5","","image-slider-response","154","794718","0.0-153.0","A2E3LKD3ELOED6","","","","","23","","","","","","","","","","","","","","","","","","","","","",""
"3925","","image-button-response","155","799728","0.0-154.0","A2E3LKD3ELOED6","img_art/20.jpg","4","","","","","","","","","","","","","","","","","","","","","","","","",""
"913","","image-button-response","156","800646","0.0-155.0","A2E3LKD3ELOED6","img_art/20.jpg","4","","","","","","","","","","","","","","","","","","","","","","","","",""
"1394","","image-button-response","157","802046","0.0-156.0-0.0","A2E3LKD3ELOED6","img_art/20.jpg","2","","","","","","","","","","","","","","","","","","","","","","","","",""
"2458","","image-button-response","158","804510","0.0-157.0-0.0","A2E3LKD3ELOED6","img_art/20.jpg","0","","","","","","","","","","","","","","","","","","","","","","","","",""
"null","","html-keyboard-response","159","805521","0.0-158.0","A2E3LKD3ELOED6","<p style=""font-size: 48px;"">+</p>","","","","","null","allTrialResponses","1000","1","16","img_art/20.jpg","23","very nice colors and shapes","Erin,Melissa,Caitlin,Briana,Lindsey,Megan","Dark frame overpowers the image,-6,120,20","feels underdeveloped,-11,240,20","Not bad for all the southwestern people.,15,80,20","Someone trying to be dali,-15,400,20","Not sure what it is. The colors are pleasant; makes me want to figure it out. An animal skull in the desert?,10,400,20","Fails to capture what similar styles do,-12,200,20","Lindsey","Not sure what it is. The colors are pleasant; makes me want to figure it out. An animal skull in the desert?,10,400,20","Caitlin","Not bad for all the southwestern people.,15,80,20","Erin","Dark frame overpowers the image,-6,120,20","2"
"21490","","survey-text","160","827020","0.0-159.0-0.0","A2E3LKD3ELOED6","","","","{""Q0"":""very pretty representation of nature""}","","","","","","","","","","","","","","","","","","","","","","",""
"3968.9000000953674","","image-slider-response","161","830994","0.0-160.0","A2E3LKD3ELOED6","","","","","50","","","","","","","","","","","","","","","","","","","","","",""
"3163","","image-button-response","162","836009","0.0-161.0","A2E3LKD3ELOED6","img_art/24.jpg","1","","","","","","","","","","","","","","","","","","","","","","","","",""
"1031","","image-button-response","163","837046","0.0-162.0","A2E3LKD3ELOED6","img_art/24.jpg","1","","","","","","","","","","","","","","","","","","","","","","","","",""
"2307","","image-button-response","164","839358","0.0-163.0-0.0","A2E3LKD3ELOED6","img_art/24.jpg","5","","","","","","","","","","","","","","","","","","","","","","","","",""
"2944","","image-button-response","165","842310","0.0-164.0-0.0","A2E3LKD3ELOED6","img_art/24.jpg","4","","","","","","","","","","","","","","","","","","","","","","","","",""
"null","","html-keyboard-response","166","843818","0.0-165.0","A2E3LKD3ELOED6","<p style=""font-size: 48px;"">+</p>","","","","","null","allTrialResponses","1500","1","17","img_art/24.jpg","50","very pretty representation of nature","Erin,Destiny,Caitlin,Nicole,Lindsey,Shannon","Too literal, not abstract,-29,120,20","brick wall waterfall girl you think you got it all,50,360,20","I actually like this one. You can tell what it is.,25,80,20","The colors and brush strokes make it feel adventurous,20,20,20","I like the colors and see a stream in a wooded setting. Makes me feel calm and cheerful.,27,400,20","I like the way the colors are put together, and I can imagine this picture in real life.,40,220,20","Destiny","brick wall waterfall girl you think you got it all,50,360,20","Shannon","I like the way the colors are put together, and I can imagine this picture in real life.,40,220,20","Lindsey","I like the colors and see a stream in a wooded setting. Makes me feel calm and cheerful.,27,400,20","2"
"14680","","survey-text","167","858508","0.0-166.0-0.0","A2E3LKD3ELOED6","","","","{""Q0"":""masterpiece, I like the shapes""}","","","","","","","","","","","","","","","","","","","","","","",""
"7346.099999904633","","image-slider-response","168","865859","0.0-167.0","A2E3LKD3ELOED6","","","","","25","","","","","","","","","","","","","","","","","","","","","",""
"null","","image-button-response","169","870876","0.0-168.0","A2E3LKD3ELOED6","img_art/8.jpg","null","","","","","","","","","","","","","","","","","","","","","","","","",""
"398","","image-button-response","170","871279","0.0-169.0","A2E3LKD3ELOED6","img_art/8.jpg","5","","","","","","","","","","","","","","","","","","","","","","","","",""
"1282","","image-button-response","171","872568","0.0-170.0-0.0","A2E3LKD3ELOED6","img_art/8.jpg","4","","","","","","","","","","","","","","","","","","","","","","","","",""
"1593","","image-button-response","172","874168","0.0-171.0-0.0","A2E3LKD3ELOED6","img_art/8.jpg","1","","","","","","","","","","","","","","","","","","","","","","","","",""
"null","","html-keyboard-response","173","875687","0.0-172.0","A2E3LKD3ELOED6","<p style=""font-size: 48px;"">+</p>","","","","","null","allTrialResponses","1500","1","18","img_art/8.jpg","25","masterpiece, I like the shapes","Alexandra,Destiny,Maria,Grace,Lindsey,Shannon","The colors are nice but the big face in the sky is creepy,-11,60,20","a cute little cute with some protectors,25,360,20","not sure what to make of this - just neutral again,-1,120,20","Like the colors & the imagery - old city, native peoples maybe.,20,180,20","Pleasant colors, lots of interest. Not sure what's going on but I like it.,20,400,20","I like that it looks like a city and the way the shapes and colors are put together,40,220,20","Shannon","I like that it looks like a city and the way the shapes and colors are put together,40,220,20","Lindsey","Pleasant colors, lots of interest. Not sure what's going on but I like it.,20,400,20","Destiny","a cute little cute with some protectors,25,360,20","2"
"13215","","survey-text","174","888913","0.0-173.0-0.0","A2E3LKD3ELOED6","","","","{""Q0"":""very cluttered and smeared""}","","","","","","","","","","","","","","","","","","","","","","",""
"3972.4000000953674","","image-slider-response","175","892890","0.0-174.0","A2E3LKD3ELOED6","","","","","-15","","","","","","","","","","","","","","","","","","","","","",""
"null","","image-button-response","176","897899","0.0-175.0","A2E3LKD3ELOED6","img_art/22.jpg","null","","","","","","","","","","","","","","","","","","","","","","","","",""
"814","","image-button-response","177","898718","0.0-176.0","A2E3LKD3ELOED6","img_art/22.jpg","4","","","","","","","","","","","","","","","","","","","","","","","","",""
"1694","","image-button-response","178","900417","0.0-177.0-0.0","A2E3LKD3ELOED6","img_art/22.jpg","3","","","","","","","","","","","","","","","","","","","","","","","","",""
"1375","","image-button-response","179","901798","0.0-178.0-0.0","A2E3LKD3ELOED6","img_art/22.jpg","1","","","","","","","","","","","","","","","","","","","","","","","","",""
"null","","html-keyboard-response","180","902303","0.0-179.0","A2E3LKD3ELOED6","<p style=""font-size: 48px;"">+</p>","","","","","null","allTrialResponses","500","1","19","img_art/22.jpg","-15","very cluttered and smeared","Emily,Destiny,Kimberly,Katelyn,Lindsey,Shannon","There is some flow and organization.,10,40,20","so boring. Wow you made some circles some squares very nice,-40,360,20","I like the key near the sphere in the center,19,260,20","I usually dont like blurry pieces but the colors are amazing in this,14,100,20","Too much contrasting colors makes me feel anxious. I don't like it.,-20,400,20","I think this picture looks interesting because of the way the colors work together.,20,220,20","Lindsey","Too much contrasting colors makes me feel anxious. I don't like it.,-20,400,20","Katelyn","I usually dont like blurry pieces but the colors are amazing in this,14,100,20","Destiny","so boring. Wow you made some circles some squares very nice,-40,360,20","2"
"20979","","survey-text","181","923295","0.0-180.0-0.0","A2E3LKD3ELOED6","","","","{""Q0"":""looks like a contrast of trees.""}","","","","","","","","","","","","","","","","","","","","","","",""
"4328.800000190735","","image-slider-response","182","927628","0.0-181.0","A2E3LKD3ELOED6","","","","","4","","","","","","","","","","","","","","","","","","","","","",""
"3003","","image-button-response","183","932649","0.0-182.0","A2E3LKD3ELOED6","img_art/15.jpg","0","","","","","","","","","","","","","","","","","","","","","","","","",""
"946","","image-button-response","184","933600","0.0-183.0","A2E3LKD3ELOED6","img_art/15.jpg","0","","","","","","","","","","","","","","","","","","","","","","","","",""
"2975","","image-button-response","185","936580","0.0-184.0-0.0","A2E3LKD3ELOED6","img_art/15.jpg","5","","","","","","","","","","","","","","","","","","","","","","","","",""
"1269","","image-button-response","186","937854","0.0-185.0-0.0","A2E3LKD3ELOED6","img_art/15.jpg","1","","","","","","","","","","","","","","","","","","","","","","","","",""
"null","","html-keyboard-response","187","938875","0.0-186.0","A2E3LKD3ELOED6","<p style=""font-size: 48px;"">+</p>","","","","","null","allTrialResponses","1000","1","20","img_art/15.jpg","4","looks like a contrast of trees.","Meghan,Destiny,Leslie,Katelyn,Lindsey,Jasmine","I like the pattern of it,11,220,20","I couldn't tell you why but I'm really into this,39,360,20","This elicits no reaction in me.,0,380,20","Doesnt trigger much of a reaction overall,-2,100,20","Not a fan. This piece would only go with very specific decor in a modern home.,-35,400,20","I like it as the colors complement each other well,21,340,20","Meghan","I like the pattern of it,11,220,20","Jasmine","I like it as the colors complement each other well,21,340,20","Destiny","I couldn't tell you why but I'm really into this,39,360,20","2"
"4529","","survey-text","188","943424","0.0-187.0-0.0","A2E3LKD3ELOED6","","","","{""Q0"":""we""}","","","","","","","","","","","","","","","","","","","","","","",""
"12342","","survey-text","189","955770","0.0-188.0-0.0","A2E3LKD3ELOED6","","","","{""Q0"":""looks very dark""}","","","","","","","","","","","","","","","","","","","","","","",""
"4180.599999904633","","image-slider-response","190","959956","0.0-189.0","A2E3LKD3ELOED6","","","","","-9","","","","","","","","","","","","","","","","","","","","","",""
"2527","","image-button-response","191","964966","0.0-190.0","A2E3LKD3ELOED6","img_art/29.jpg","1","","","","","","","","","","","","","","","","","","","","","","","","",""
"1914","","image-button-response","192","966885","0.0-191.0","A2E3LKD3ELOED6","img_art/29.jpg","1","","","","","","","","","","","","","","","","","","","","","","","","",""
"1160","","image-button-response","193","968050","0.0-192.0-0.0","A2E3LKD3ELOED6","img_art/29.jpg","0","","","","","","","","","","","","","","","","","","","","","","","","",""
"1543","","image-button-response","194","969598","0.0-193.0-0.0","A2E3LKD3ELOED6","img_art/29.jpg","4","","","","","","","","","","","","","","","","","","","","","","","","",""
"null","","html-keyboard-response","195","970111","0.0-194.0","A2E3LKD3ELOED6","<p style=""font-size: 48px;"">+</p>","","","","","null","allTrialResponses","500","1","21","img_art/29.jpg","-9","looks very dark","Meghan,Destiny,Crystal,Alexis,Erica,Jasmine","feels random and not thoughtout,-37,220,20","is this supposed to be edgy,-21,360,20","Reminiscent of Jackson Pollock with a hint of abstract structure with the bordering.,32,300,20","The black color is great, but I'm really not a fan of this hectic style,-40,100,20","Looks like an accident more than an art to me,-26,80,20","I like the usage of blacks and greys in this,8,340,20","Destiny","is this supposed to be edgy,-21,360,20","Meghan","feels random and not thoughtout,-37,220,20","Erica","Looks like an accident more than an art to me,-26,80,20","2"
"13232","","survey-text","196","983354","0.0-195.0-0.0","A2E3LKD3ELOED6","","","","{""Q0"":""very simple minded""}","","","","","","","","","","","","","","","","","","","","","","",""
"8983.5","","image-slider-response","197","992342","0.0-196.0","A2E3LKD3ELOED6","","","","","-2","","","","","","","","","","","","","","","","","","","","","",""
"3475","","image-button-response","198","997352","0.0-197.0","A2E3LKD3ELOED6","img_art/14.jpg","1","","","","","","","","","","","","","","","","","","","","","","","","",""
"1864","","image-button-response","199","999220","0.0-198.0","A2E3LKD3ELOED6","img_art/14.jpg","5","","","","","","","","","","","","","","","","","","","","","","","","",""
"1760","","image-button-response","200","1000984","0.0-199.0-0.0","A2E3LKD3ELOED6","img_art/14.jpg","0","","","","","","","","","","","","","","","","","","","","","","","","",""
"1193","","image-button-response","201","1002183","0.0-200.0-0.0","A2E3LKD3ELOED6","img_art/14.jpg","1","","","","","","","","","","","","","","","","","","","","","","","","",""
"null","","html-keyboard-response","202","1003195","0.0-201.0","A2E3LKD3ELOED6","<p style=""font-size: 48px;"">+</p>","","","","","null","allTrialResponses","1000","1","22","img_art/14.jpg","-2","very simple minded","Meghan,Destiny,Samantha,Mackenzie,Erica,Alicia","its okay nothing special,11,220,20","I dont really vibe with the grayish color palette,-7,360,20","I love the feeling of the tree and people. Makes me happy,50,140,20","I like the combination of colors and textures.,35,20,20","positive colours, makes me to look at it and investigate what is going on,27,80,20","ok, gloomy though.,12,120,20","Alicia","ok, gloomy though.,12,120,20","Meghan","its okay nothing special,11,220,20","Destiny","I dont really vibe with the grayish color palette,-7,360,20","2"
"24143","","survey-text","203","1027350","0.0-202.0-0.0","A2E3LKD3ELOED6","","","","{""Q0"":""portrayal of city life""}","","","","","","","","","","","","","","","","","","","","","","",""
"8643.400000095367","","image-slider-response","204","1035999","0.0-203.0","A2E3LKD3ELOED6","","","","","2","","","","","","","","","","","","","","","","","","","","","",""
"3525","","image-button-response","205","1041008","0.0-204.0","A2E3LKD3ELOED6","img_art/11.jpg","1","","","","","","","","","","","","","","","","","","","","","","","","",""
"1314","","image-button-response","206","1042327","0.0-205.0","A2E3LKD3ELOED6","img_art/11.jpg","3","","","","","","","","","","","","","","","","","","","","","","","","",""
"1494","","image-button-response","207","1043826","0.0-206.0-0.0","A2E3LKD3ELOED6","img_art/11.jpg","1","","","","","","","","","","","","","","","","","","","","","","","","",""
"2076","","image-button-response","208","1045907","0.0-207.0-0.0","A2E3LKD3ELOED6","img_art/11.jpg","5","","","","","","","","","","","","","","","","","","","","","","","","",""
"null","","html-keyboard-response","209","1046419","0.0-208.0","A2E3LKD3ELOED6","<p style=""font-size: 48px;"">+</p>","","","","","null","allTrialResponses","500","1","23","img_art/11.jpg","2","portrayal of city life","Meghan,Destiny,Rebecca,Paige,Cynthia,Alicia","makes me feel dizzy,-37,220,20","life is a highway,12,360,20","to me, perfect reflection of the modern commute,32,100,20","gave me a sense of gloom,-21,60,20","Sad but hopeful,43,320,20","dna, odd but nice.,25,120,20","Paige","gave me a sense of gloom,-21,60,20","Destiny","life is a highway,12,360,20","Alicia","dna, odd but nice.,25,120,20","2"
"14912","","survey-text","210","1061344","0.0-209.0-0.0","A2E3LKD3ELOED6","","","","{""Q0"":""looks like a clash""}","","","","","","","","","","","","","","","","","","","","","","",""
"3338.699999809265","","image-slider-response","211","1064688","0.0-210.0","A2E3LKD3ELOED6","","","","","15","","","","","","","","","","","","","","","","","","","","","",""
"4174","","image-button-response","212","1069698","0.0-211.0","A2E3LKD3ELOED6","img_art/21.jpg","0","","","","","","","","","","","","","","","","","","","","","","","","",""
"1280","","image-button-response","213","1070982","0.0-212.0","A2E3LKD3ELOED6","img_art/21.jpg","2","","","","","","","","","","","","","","","","","","","","","","","","",""
"912","","image-button-response","214","1071898","0.0-213.0-0.0","A2E3LKD3ELOED6","img_art/21.jpg","0","","","","","","","","","","","","","","","","","","","","","","","","",""
"2491","","image-button-response","215","1074396","0.0-214.0-0.0","A2E3LKD3ELOED6","img_art/21.jpg","4","","","","","","","","","","","","","","","","","","","","","","","","",""
"null","","html-keyboard-response","216","1074908","0.0-215.0","A2E3LKD3ELOED6","<p style=""font-size: 48px;"">+</p>","","","","","null","allTrialResponses","500","1","24","img_art/21.jpg","15","looks like a clash","Anna,Destiny,Morgan,Paige,Jamie,Alicia","I love the colors and the differences between the left and right sides.,22,300,20","Pink is my favorite, against blue it looks like sunset. Seems like a boat burning down, so don't absolutely love it,23,360,20","Survivable storm on the open sea.,27,380,20","the picture is boring,1,60,20","Contrast of fire and water looks cool,20,320,20","Don't know why I like it, cant describe, maybe many landscapes?,47,120,20","Morgan","Survivable storm on the open sea.,27,380,20","Anna","I love the colors and the differences between the left and right sides.,22,300,20","Jamie","Contrast of fire and water looks cool,20,320,20","2"
"12514","","survey-text","217","1087434","0.0-216.0-0.0","A2E3LKD3ELOED6","","","","{""Q0"":""not a very pretty picture""}","","","","","","","","","","","","","","","","","","","","","","",""
"6731.400000095367","","image-slider-response","218","1094169","0.0-217.0","A2E3LKD3ELOED6","","","","","-50","","","","","","","","","","","","","","","","","","","","","",""
"4243","","image-button-response","219","1099185","0.0-218.0","A2E3LKD3ELOED6","img_art/5.jpg","1","","","","","","","","","","","","","","","","","","","","","","","","",""
"831","","image-button-response","220","1100021","0.0-219.0","A2E3LKD3ELOED6","img_art/5.jpg","1","","","","","","","","","","","","","","","","","","","","","","","","",""
"2110","","image-button-response","221","1102135","0.0-220.0-0.0","A2E3LKD3ELOED6","img_art/5.jpg","4","","","","","","","","","","","","","","","","","","","","","","","","",""
"1510","","image-button-response","222","1103650","0.0-221.0-0.0","A2E3LKD3ELOED6","img_art/5.jpg","0","","","","","","","","","","","","","","","","","","","","","","","","",""
"null","","html-keyboard-response","223","1105161","0.0-222.0","A2E3LKD3ELOED6","<p style=""font-size: 48px;"">+</p>","","","","","null","allTrialResponses","1500","1","25","img_art/5.jpg","-50","not a very pretty picture","Anna,Cassandra,Morgan,Haley,Jamie,Mikayla","It's kind of boring.,-20,300,20","This was awful and it looked like someone took minimul effort with it... no time at all.,-49,120,20","Dull pyramid that says nothing.,7,380,20","I'm confused by what I am looking at,-3,220,20","Don't really see it and yellow/pink don't go well together,-35,320,20","I love the yellow! It really pops!,30,300,20","Cassandra","This was awful and it looked like someone took minimul effort with it... no time at all.,-49,120,20","Jamie","Don't really see it and yellow/pink don't go well together,-35,320,20","Anna","It's kind of boring.,-20,300,20","2"
"6974","","survey-text","224","1112158","0.0-223.0-0.0","A2E3LKD3ELOED6","","","","{""Q0"":""table""}","","","","","","","","","","","","","","","","","","","","","","",""
"11097","","survey-text","225","1123258","0.0-224.0-0.0","A2E3LKD3ELOED6","","","","{""Q0"":""I like the colors""}","","","","","","","","","","","","","","","","","","","","","","",""
"4844.700000286102","","image-slider-response","226","1128109","0.0-225.0","A2E3LKD3ELOED6","","","","","21","","","","","","","","","","","","","","","","","","","","","",""
"null","","image-button-response","227","1133118","0.0-226.0","A2E3LKD3ELOED6","img_art/23.jpg","null","","","","","","","","","","","","","","","","","","","","","","","","",""
"1197","","image-button-response","228","1134320","0.0-227.0","A2E3LKD3ELOED6","img_art/23.jpg","0","","","","","","","","","","","","","","","","","","","","","","","","",""
"1510","","image-button-response","229","1135835","0.0-228.0-0.0","A2E3LKD3ELOED6","img_art/23.jpg","2","","","","","","","","","","","","","","","","","","","","","","","","",""
"2110","","image-button-response","230","1137950","0.0-229.0-0.0","A2E3LKD3ELOED6","img_art/23.jpg","4","","","","","","","","","","","","","","","","","","","","","","","","",""
"null","","html-keyboard-response","231","1139462","0.0-230.0","A2E3LKD3ELOED6","<p style=""font-size: 48px;"">+</p>","","","","","null","allTrialResponses","1500","1","26","img_art/23.jpg","21","I like the colors","Anna,Cassandra,Miranda,Jordan,Jamie,Jessica","I love the colors and the contrast.,50,300,20","I had a very neutral feeling to this,no feelings at all.,1,120,20","It's very colorful and different, the white looks like people dancing,26,320,20","NO, I don't get it,-50,20,20","Reminds me of outer space and the stars,30,320,20","This is very cool!,24,400,20","Anna","I love the colors and the contrast.,50,300,20","Miranda","It's very colorful and different, the white looks like people dancing,26,320,20","Jamie","Reminds me of outer space and the stars,30,320,20","2"
"10663","","survey-text","232","1150136","0.0-231.0-0.0","A2E3LKD3ELOED6","","","","{""Q0"":""I do not get it""}","","","","","","","","","","","","","","","","","","","","","","",""
"4925.300000190735","","image-slider-response","233","1155066","0.0-232.0","A2E3LKD3ELOED6","","","","","-19","","","","","","","","","","","","","","","","","","","","","",""
"4350","","image-button-response","234","1160074","0.0-233.0","A2E3LKD3ELOED6","img_art/7.jpg","1","","","","","","","","","","","","","","","","","","","","","","","","",""
"1031","","image-button-response","235","1161110","0.0-234.0","A2E3LKD3ELOED6","img_art/7.jpg","2","","","","","","","","","","","","","","","","","","","","","","","","",""
"796","","image-button-response","236","1161910","0.0-235.0-0.0","A2E3LKD3ELOED6","img_art/7.jpg","1","","","","","","","","","","","","","","","","","","","","","","","","",""
"1924","","image-button-response","237","1163841","0.0-236.0-0.0","A2E3LKD3ELOED6","img_art/7.jpg","5","","","","","","","","","","","","","","","","","","","","","","","","",""
"null","","html-keyboard-response","238","1165352","0.0-237.0","A2E3LKD3ELOED6","<p style=""font-size: 48px;"">+</p>","","","","","null","allTrialResponses","1500","1","27","img_art/7.jpg","-19","I do not get it","Anna,Jennifer,Miranda,Jenna,Jamie,Kayla","It's kind of ugly but I like the texture.,10,300,20","Very, very dull compared to the other paintings,-36,380,20","This looks like a literal picture of the ground so I'm really not too sure about this one.,-42,320,20","reminds me of a desert from far above,23,360,20","Looks like a battle raging on,20,320,20","Dinosaur bones. Death.,-14,180,20","Miranda","This looks like a literal picture of the ground so I'm really not too sure about this one.,-42,320,20","Jennifer","Very, very dull compared to the other paintings,-36,380,20","Kayla","Dinosaur bones. Death.,-14,180,20","2"
"20571","","survey-text","239","1185936","0.0-238.0-0.0","A2E3LKD3ELOED6","","","","{""Q0"":""Looks nice and mystical""}","","","","","","","","","","","","","","","","","","","","","","",""
"3724.0999999046326","","image-slider-response","240","1189664","0.0-239.0","A2E3LKD3ELOED6","","","","","10","","","","","","","","","","","","","","","","","","","","","",""
"3750","","image-button-response","241","1194674","0.0-240.0","A2E3LKD3ELOED6","img_art/17.jpg","2","","","","","","","","","","","","","","","","","","","","","","","","",""
"456","","image-button-response","242","1195134","0.0-241.0","A2E3LKD3ELOED6","img_art/17.jpg","2","","","","","","","","","","","","","","","","","","","","","","","","",""
"397","","image-button-response","243","1195536","0.0-242.0-0.0","A2E3LKD3ELOED6","img_art/17.jpg","1","","","","","","","","","","","","","","","","","","","","","","","","",""
"981","","image-button-response","244","1196525","0.0-243.0-0.0","A2E3LKD3ELOED6","img_art/17.jpg","5","","","","","","","","","","","","","","","","","","","","","","","","",""
"null","","html-keyboard-response","245","1197537","0.0-244.0","A2E3LKD3ELOED6","<p style=""font-size: 48px;"">+</p>","","","","","null","allTrialResponses","1000","1","28","img_art/17.jpg","10","Looks nice and mystical","Amanda,Jennifer,Miranda,Kaitlin,Diana,Kayla","Feels supernatural and scary,-16,180,20","Very elegant, this design reminds me of trees,31,380,20","It seems a little dark but it is very beautiful,28,320,20","i feel some sadness in this picture,25,60,20","I really enjoyed this piece, it's a play on bringing the outside indoors.,32,380,20","I like the way the forest is taking over the buildings.,21,180,20","Miranda","It seems a little dark but it is very beautiful,28,320,20","Jennifer","Very elegant, this design reminds me of trees,31,380,20","Kayla","I like the way the forest is taking over the buildings.,21,180,20","2"
"11079","","survey-text","246","1208631","0.0-245.0-0.0","A2E3LKD3ELOED6","","","","{""Q0"":""Looks like a three year old did it""}","","","","","","","","","","","","","","","","","","","","","","",""
"4702.299999713898","","image-slider-response","247","1213339","0.0-246.0","A2E3LKD3ELOED6","","","","","-50","","","","","","","","","","","","","","","","","","","","","",""
"1798","","image-button-response","248","1218352","0.0-247.0","A2E3LKD3ELOED6","img_art/2.jpg","1","","","","","","","","","","","","","","","","","","","","","","","","",""
"446","","image-button-response","249","1218803","0.0-248.0","A2E3LKD3ELOED6","img_art/2.jpg","1","","","","","","","","","","","","","","","","","","","","","","","","",""
"760","","image-button-response","250","1219569","0.0-249.0-0.0","A2E3LKD3ELOED6","img_art/2.jpg","3","","","","","","","","","","","","","","","","","","","","","","","","",""
"509","","image-button-response","251","1220086","0.0-250.0-0.0","A2E3LKD3ELOED6","img_art/2.jpg","4","","","","","","","","","","","","","","","","","","","","","","","","",""
"null","","html-keyboard-response","252","1221098","0.0-251.0","A2E3LKD3ELOED6","<p style=""font-size: 48px;"">+</p>","","","","","null","allTrialResponses","1000","1","29","img_art/2.jpg","-50","Looks like a three year old did it","Laura,Jennifer,Miranda,Amy,Mariah,Kayla","active and kinetic- simplified,14,320,20","Ugly color scheme,-50,380,20","I don't really like this but at the same time it's cute. It looks like a little monster kid.,-9,320,20","The color palette of this painting is for me displeasing and immature.,-30,220,20","The colors are soothing, but the composition feels thoughtless.,-11,140,20","Different cultures. I like that it brings differences together.,4,180,20","Jennifer","Ugly color scheme,-50,380,20","Amy","The color palette of this painting is for me displeasing and immature.,-30,220,20","Mariah","The colors are soothing, but the composition feels thoughtless.,-11,140,20","2"
"9072","","survey-text","253","1230185","0.0-252.0-0.0","A2E3LKD3ELOED6","","","","{""Q0"":""I do not like the colors""}","","","","","","","","","","","","","","","","","","","","","","",""
"3991.5","","image-slider-response","254","1234181","0.0-253.0","A2E3LKD3ELOED6","","","","","-19","","","","","","","","","","","","","","","","","","","","","",""
"3234","","image-button-response","255","1239198","0.0-254.0","A2E3LKD3ELOED6","img_art/28.jpg","2","","","","","","","","","","","","","","","","","","","","","","","","",""
"491","","image-button-response","256","1239693","0.0-255.0","A2E3LKD3ELOED6","img_art/28.jpg","2","","","","","","","","","","","","","","","","","","","","","","","","",""
"469","","image-button-response","257","1240169","0.0-256.0-0.0","A2E3LKD3ELOED6","img_art/28.jpg","1","","","","","","","","","","","","","","","","","","","","","","","","",""
"1191","","image-button-response","258","1241367","0.0-257.0-0.0","A2E3LKD3ELOED6","img_art/28.jpg","4","","","","","","","","","","","","","","","","","","","","","","","","",""
"null","","html-keyboard-response","259","1241877","0.0-258.0","A2E3LKD3ELOED6","<p style=""font-size: 48px;"">+</p>","","","","","null","allTrialResponses","500","1","30","img_art/28.jpg","-19","I do not like the colors","Sierra,Jennifer,Leah,Amy,Mariah,Danielle","i like the colors and the shapes look like people,20,260,20","This picture doesn't really stand out to me,1,380,20","Too me it's a mish mash, true abstract,-37,360,20","Contemplative and a little dark. The muted colors and subject create a sense of mystery.,15,220,20","Colors are pleasing, shapes are vaguely unpleasant. Kidneys at a smoky bar.,5,140,20","I enjoy the color themes, they seem gloomy and mysterious, and content in their own way, which I love.,20,340,20","Leah","Too me it's a mish mash, true abstract,-37,360,20","Jennifer","This picture doesn't really stand out to me,1,380,20","Mariah","Colors are pleasing, shapes are vaguely unpleasant. Kidneys at a smoky bar.,5,140,20","2"
"4000","","image-button-response_instructions","260","1245892","0.0-259.0","A2E3LKD3ELOED6","","0","instructions","","","","","","","","","","","","","","","","","","","","","","","",""
"1280","","image-button-response","261","1247196","0.0-260.0","A2E3LKD3ELOED6","","0","","","","","","","","","","","","","","","","","","","","","","","","",""
