"rt","url","trial_type","trial_index","time_elapsed","internal_node_id","participant_id","stimulus","button_pressed","Name","responses","response","key_press","variableName","fixationTime","condition","trial","photo","subjectRating","subjectResponse","agentsNames","agent_1_Response","agent_2_Response","agent_3_Response","agent_4_Response","agent_5_Response","agent_6_Response","kept_1_name","kept_1_response","kept_2_name","kept_2_response","kept_3_name","kept_3_response","errorCounter"
"17938","external_page_harvard.html","external-html","0","18016","0.0-0.0","A2EAIMII6MSIO5","","","","","","","","","","","","","","","","","","","","","","","","","","",""
"2379","","image-button-response","1","20397","0.0-1.0","A2EAIMII6MSIO5","","1","","","","","","","","","","","","","","","","","","","","","","","","",""
"1946","","image-button-response","2","22349","0.0-2.0-0.0","A2EAIMII6MSIO5","","1","phone","","","","","","","","","","","","","","","","","","","","","","","",""
"9389","","survey-text","3","31742","0.0-3.0-0.0","A2EAIMII6MSIO5","","","","{""Q0"":""A2EAIMII6MSIO5""}","","","","","","","","","","","","","","","","","","","","","","",""
"6612","","image-button-response_instructions","4","38358","0.0-4.0","A2EAIMII6MSIO5","","0","instructions","","","","","","","","","","","","","","","","","","","","","","","",""
"14360","","image-button-response_instructions","5","52719","0.0-5.0","A2EAIMII6MSIO5","img_art/ins/popularity/ins1.png","0","instructions","","","","","","","","","","","","","","","","","","","","","","","",""
"5728","","image-button-response_instructions","6","58450","0.0-6.0","A2EAIMII6MSIO5","img_art/ins/popularity/ins2.png","0","instructions","","","","","","","","","","","","","","","","","","","","","","","",""
"7428","","image-button-response_instructions","7","65880","0.0-7.0","A2EAIMII6MSIO5","img_art/ins/popularity/ins2Extreme.png","0","instructions","","","","","","","","","","","","","","","","","","","","","","","",""
"7074","","image-button-response_instructions","8","72956","0.0-8.0","A2EAIMII6MSIO5","img_art/ins/popularity/ins3KEEPpop.PNG","0","instructions","","","","","","","","","","","","","","","","","","","","","","","",""
"5288","","image-button-response_instructions","9","78246","0.0-9.0","A2EAIMII6MSIO5","img_art/ins/popularity/ins3ANamepop.PNG","0","instructions","","","","","","","","","","","","","","","","","","","","","","","",""
"4400","","image-button-response_instructions","10","82647","0.0-10.0","A2EAIMII6MSIO5","img_art/ins/popularity/ins3ARatingpop.png","0","instructions","","","","","","","","","","","","","","","","","","","","","","","",""
"2863","","image-button-response_instructions","11","85513","0.0-11.0","A2EAIMII6MSIO5","img_art/ins/popularity/ins3ATextpop.png","0","instructions","","","","","","","","","","","","","","","","","","","","","","","",""
"7415","","image-button-response_instructions","12","92930","0.0-12.0","A2EAIMII6MSIO5","img_art/ins/popularity/ins3ALikespop.png","0","instructions","","","","","","","","","","","","","","","","","","","","","","","",""
"15910","","image-button-response_instructions","13","108843","0.0-13.0","A2EAIMII6MSIO5","img_art/ins/popularity/ins3KEEPpop.PNG","0","instructions","","","","","","","","","","","","","","","","","","","","","","","",""
"9365","","image-button-response_instructions","14","118210","0.0-14.0","A2EAIMII6MSIO5","img_art/ins/popularity/ins3_5RED.png","0","instructions","","","","","","","","","","","","","","","","","","","","","","","",""
"4582","","image-button-response_instructions","15","122795","0.0-15.0","A2EAIMII6MSIO5","img_art/ins/popularity/ins3KEEPpop.PNG","0","instructions","","","","","","","","","","","","","","","","","","","","","","","",""
"8235","","image-button-response_instructions","16","131032","0.0-16.0","A2EAIMII6MSIO5","img_art/ins/popularity/ins4KEEPpop.PNG","0","instructions","","","","","","","","","","","","","","","","","","","","","","","",""
"8300","","image-button-response_instructions","17","139334","0.0-17.0","A2EAIMII6MSIO5","img_art/ins/popularity/ins5KEEPpop.PNG","0","instructions","","","","","","","","","","","","","","","","","","","","","","","",""
"2926","","image-button-response_instructions","18","142262","0.0-18.0","A2EAIMII6MSIO5","","0","instructions","","","","","","","","","","","","","","","","","","","","","","","",""
"8072","","survey-text","19","150358","0.0-19.0-0.0","A2EAIMII6MSIO5","","","","{""Q0"":""but""}","","","","","","","","","","","","","","","","","","","","","","",""
"15987","","survey-text","20","166346","0.0-20.0-0.0","A2EAIMII6MSIO5","","","","{""Q0"":""This is very confusing. I have no idea what it is supposed to be.""}","","","","","","","","","","","","","","","","","","","","","","",""
"8529.5","","image-slider-response","21","174879","0.0-21.0","A2EAIMII6MSIO5","","","","","-3","","","","","","","","","","","","","","","","","","","","","",""
"null","","image-button-response","22","179891","0.0-22.0","A2EAIMII6MSIO5","img_art/ins/1.jpg","null","","","","","","","","","","","","","","","","","","","","","","","","",""
"8636","","image-button-response","23","188532","0.0-23.0","A2EAIMII6MSIO5","img_art/ins/1.jpg","4","","","","","","","","","","","","","","","","","","","","","","","","",""
"1655","","image-button-response","24","190192","0.0-24.0-0.0","A2EAIMII6MSIO5","img_art/ins/1.jpg","3","","","","","","","","","","","","","","","","","","","","","","","","",""
"2395","","image-button-response","25","192592","0.0-25.0-0.0","A2EAIMII6MSIO5","img_art/ins/1.jpg","0","","","","","","","","","","","","","","","","","","","","","","","","",""
"null","","html-keyboard-response","26","193606","0.0-26.0","A2EAIMII6MSIO5","<p style=""font-size: 48px;"">+</p>","","","","","null","allTrialResponses","1000","1","-2","img_art/ins/1.jpg","-3","This is very confusing. I have no idea what it is supposed to be.","Allison,Ashley,Beth,Dora,Erika,Jen","looks like a lot of things going on in the mist,20,20,20","I just don't get why these type of art would be popular,-32,40,20","This color reminds me of poo,-46,60,20","looks like what my niece in 3rd grade did this afternoon,-50,80,20","I like the sophisticated brushwork,40,100,20","It reminds me of a candy land dream I had,36,120,20","Erika","I like the sophisticated brushwork,40,100,20","Dora","looks like what my niece in 3rd grade did this afternoon,-50,80,20","Allison","looks like a lot of things going on in the mist,20,20,20","0"
"23794","","survey-text","27","217407","0.0-27.0-0.0","A2EAIMII6MSIO5","","","","{""Q0"":""This is a jumbled mess. Stacked boxes being pushed into one another?""}","","","","","","","","","","","","","","","","","","","","","","",""
"6077.700000047684","","image-slider-response","28","223488","0.0-28.0","A2EAIMII6MSIO5","","","","","-12","","","","","","","","","","","","","","","","","","","","","",""
"null","","image-button-response","29","228498","0.0-29.0","A2EAIMII6MSIO5","img_art/ins/2.jpg","null","","","","","","","","","","","","","","","","","","","","","","","","",""
"9132","","image-button-response","30","237634","0.0-30.0","A2EAIMII6MSIO5","img_art/ins/2.jpg","3","","","","","","","","","","","","","","","","","","","","","","","","",""
"2156","","image-button-response","31","239793","0.0-31.0-0.0","A2EAIMII6MSIO5","img_art/ins/2.jpg","1","","","","","","","","","","","","","","","","","","","","","","","","",""
"2946","","image-button-response","32","242744","0.0-32.0-0.0","A2EAIMII6MSIO5","img_art/ins/2.jpg","5","","","","","","","","","","","","","","","","","","","","","","","","",""
"null","","html-keyboard-response","33","244252","0.0-33.0","A2EAIMII6MSIO5","<p style=""font-size: 48px;"">+</p>","","","","","null","allTrialResponses","1500","1","-1","img_art/ins/2.jpg","-12","This is a jumbled mess. Stacked boxes being pushed into one another?","Allison,Jenna,Kara,Dora,Erika,Katie","I don't have strong feelings about this,10,20,20","One of my pet peevs,-48,140,20","I like the blocks of color arrangements,30,160,20","looks too angry,-50,80,20","I would never be able to compose a sophisticated pallete like this,48,100,20","too much color!,-28,180,20","Dora","looks too angry,-50,80,20","Jenna","One of my pet peevs,-48,140,20","Katie","too much color!,-28,180,20","0"
"17292","","survey-text","34","261550","0.0-34.0-0.0","A2EAIMII6MSIO5","","","","{""Q0"":""I love all the shades of blue! Reminds me of ice in winter.""}","","","","","","","","","","","","","","","","","","","","","","",""
"6827.399999856949","","image-slider-response","35","268380","0.0-35.0","A2EAIMII6MSIO5","","","","","19","","","","","","","","","","","","","","","","","","","","","",""
"null","","image-button-response","36","273400","0.0-36.0","A2EAIMII6MSIO5","img_art/ins/3.jpg","null","","","","","","","","","","","","","","","","","","","","","","","","",""
"3533","","image-button-response","37","276935","0.0-37.0","A2EAIMII6MSIO5","img_art/ins/3.jpg","4","","","","","","","","","","","","","","","","","","","","","","","","",""
"5052","","image-button-response","38","281987","0.0-38.0-0.0","A2EAIMII6MSIO5","img_art/ins/3.jpg","0","","","","","","","","","","","","","","","","","","","","","","","","",""
"6589","","image-button-response","39","288579","0.0-39.0-0.0","A2EAIMII6MSIO5","img_art/ins/3.jpg","1","","","","","","","","","","","","","","","","","","","","","","","","",""
"null","","html-keyboard-response","40","289082","0.0-40.0","A2EAIMII6MSIO5","<p style=""font-size: 48px;"">+</p>","","","","","null","allTrialResponses","500","1","0","img_art/ins/3.jpg","19","I love all the shades of blue! Reminds me of ice in winter.","Leslie,Jenna,Rose,Dora,Mary,Katie","It's an alright work,15,200,20","looks like a murder room,-35,140,20","My daily routine, it's depressing,-20,240,20","My worst nightmare,-42,80,20","I like the overlapping of brushes,41,220,20","It looks depressing,-26,180,20","Mary","I like the overlapping of brushes,41,220,20","Leslie","It's an alright work,15,200,20","Jenna","looks like a murder room,-35,140,20","0"
"6614","","image-button-response_instructions","41","295706","0.0-41.0","A2EAIMII6MSIO5","","0","instructions","","","","","","","","","","","","","","","","","","","","","","","",""
"16241","","survey-likert","42","311951","0.0-42.0-0.0","A2EAIMII6MSIO5","","","","{""Q0"":"""",""Q1"":0,""Q2"":1}","","","","","","","","","","","","","","","","","","","","","","",""
"7930","","survey-text","43","319887","0.0-43.0-0.0","A2EAIMII6MSIO5","","","","{""Q0"":""rock""}","","","","","","","","","","","","","","","","","","","","","","",""
"22845","","survey-text","44","342736","0.0-44.0-0.0","A2EAIMII6MSIO5","","","","{""Q0"":""Interesting mix of colors! I love the warms and cools mixing like this.""}","","","","","","","","","","","","","","","","","","","","","","",""
"5944.5","","image-slider-response","45","348684","0.0-45.0","A2EAIMII6MSIO5","","","","","36","","","","","","","","","","","","","","","","","","","","","",""
"2829","","image-button-response","46","353703","0.0-46.0","A2EAIMII6MSIO5","img_art/22.jpg","0","","","","","","","","","","","","","","","","","","","","","","","","",""
"1159","","image-button-response","47","354866","0.0-47.0","A2EAIMII6MSIO5","img_art/22.jpg","1","","","","","","","","","","","","","","","","","","","","","","","","",""
"8500","","image-button-response","48","363371","0.0-48.0-0.0","A2EAIMII6MSIO5","img_art/22.jpg","5","","","","","","","","","","","","","","","","","","","","","","","","",""
"5972","","image-button-response","49","369348","0.0-49.0-0.0","A2EAIMII6MSIO5","img_art/22.jpg","0","","","","","","","","","","","","","","","","","","","","","","","","",""
"null","","html-keyboard-response","50","370865","0.0-50.0","A2EAIMII6MSIO5","<p style=""font-size: 48px;"">+</p>","","","","","null","allTrialResponses","1500","1","1","img_art/22.jpg","36","Interesting mix of colors! I love the warms and cools mixing like this.","Kelly,Jenna,Katherine,Kristen,Caroline,Nicole","I really enjoy the blended colors.,20,220,20","beautiful. love the bright colors & soft brush strokes, and the imprint of the key is genius.,50,360,20","Cool squares but what's the circle?,38,120,20","fire, danger, resentful,-17,280,20","Felt blah. Bunch of nothingness,-42,100,20","The warm and color colors together in this way feels exciting,39,20,20","Jenna","beautiful. love the bright colors & soft brush strokes, and the imprint of the key is genius.,50,360,20","Nicole","The warm and color colors together in this way feels exciting,39,20,20","Kelly","I really enjoy the blended colors.,20,220,20","0"
"24656","","survey-text","51","395527","0.0-51.0-0.0","A2EAIMII6MSIO5","","","","{""Q0"":""Art supplies laying in a pool of tar?""}","","","","","","","","","","","","","","","","","","","","","","",""
"6204","","image-slider-response","52","401735","0.0-52.0","A2EAIMII6MSIO5","","","","","6","","","","","","","","","","","","","","","","","","","","","",""
"null","","image-button-response","53","406739","0.0-53.0","A2EAIMII6MSIO5","img_art/29.jpg","null","","","","","","","","","","","","","","","","","","","","","","","","",""
"3121","","image-button-response","54","409863","0.0-54.0","A2EAIMII6MSIO5","img_art/29.jpg","1","","","","","","","","","","","","","","","","","","","","","","","","",""
"8407","","image-button-response","55","418275","0.0-55.0-0.0","A2EAIMII6MSIO5","img_art/29.jpg","5","","","","","","","","","","","","","","","","","","","","","","","","",""
"1794","","image-button-response","56","420073","0.0-56.0-0.0","A2EAIMII6MSIO5","img_art/29.jpg","0","","","","","","","","","","","","","","","","","","","","","","","","",""
"null","","html-keyboard-response","57","421076","0.0-57.0","A2EAIMII6MSIO5","<p style=""font-size: 48px;"">+</p>","","","","","null","allTrialResponses","1000","1","2","img_art/29.jpg","6","Art supplies laying in a pool of tar?","Kelly,Jenna,Amber,Kelsey,Alexis,Nicole","Too much going on, and I don't like the colors. It looks like a crime scene.,-50,220,20","risks well taken. the brush is hilarious. feels like an artist's frustration, which is relatable.,50,360,20","Don't like the red X across the painting.,-15,200,20","dont like this one,-20,240,20","The black color is great, but I'm really not a fan of this hectic style,-40,100,20","This one feels scary in a good way,30,20,20","Jenna","risks well taken. the brush is hilarious. feels like an artist's frustration, which is relatable.,50,360,20","Nicole","This one feels scary in a good way,30,20,20","Kelly","Too much going on, and I don't like the colors. It looks like a crime scene.,-50,220,20","0"
"24420","","survey-text","58","445502","0.0-58.0-0.0","A2EAIMII6MSIO5","","","","{""Q0"":""Not a fan. I have no idea, is this a large, elongated hand?""}","","","","","","","","","","","","","","","","","","","","","","",""
"5089.5","","image-slider-response","59","450595","0.0-59.0","A2EAIMII6MSIO5","","","","","-11","","","","","","","","","","","","","","","","","","","","","",""
"null","","image-button-response","60","455610","0.0-60.0","A2EAIMII6MSIO5","img_art/4.jpg","null","","","","","","","","","","","","","","","","","","","","","","","","",""
"1215","","image-button-response","61","456827","0.0-61.0","A2EAIMII6MSIO5","img_art/4.jpg","1","","","","","","","","","","","","","","","","","","","","","","","","",""
"12241","","image-button-response","62","469070","0.0-62.0-0.0","A2EAIMII6MSIO5","img_art/4.jpg","5","","","","","","","","","","","","","","","","","","","","","","","","",""
"3071","","image-button-response","63","472146","0.0-63.0-0.0","A2EAIMII6MSIO5","img_art/4.jpg","0","","","","","","","","","","","","","","","","","","","","","","","","",""
"null","","html-keyboard-response","64","473651","0.0-64.0","A2EAIMII6MSIO5","<p style=""font-size: 48px;"">+</p>","","","","","null","allTrialResponses","1500","1","3","img_art/4.jpg","-11","Not a fan. I have no idea, is this a large, elongated hand?","Kelly,Jenna,Alexandra,Kathryn,Isabella,Nicole","The longer I stare at this the less I like it.,-19,220,20","creepy, looks like a deformed hand, but the background is pretty,5,360,20","This artwork looks like a child did it,-41,60,20","I feel kind of guilty looking at this, like I'm receiving a reward I don't I deserve.,-10,140,20","Looks like a creative hand,45,280,20","Mcdonald's french fries :(,-40,20,20","Jenna","creepy, looks like a deformed hand, but the background is pretty,5,360,20","Nicole","Mcdonald's french fries :(,-40,20,20","Kelly","The longer I stare at this the less I like it.,-19,220,20","0"
"21088","","survey-text","65","494743","0.0-65.0-0.0","A2EAIMII6MSIO5","","","","{""Q0"":""Neat use of blended and not blended colors! Loveit.""}","","","","","","","","","","","","","","","","","","","","","","",""
"6232.799999952316","","image-slider-response","66","500980","0.0-66.0","A2EAIMII6MSIO5","","","","","45","","","","","","","","","","","","","","","","","","","","","",""
"2239","","image-button-response","67","505994","0.0-67.0","A2EAIMII6MSIO5","img_art/1.jpg","1","","","","","","","","","","","","","","","","","","","","","","","","",""
"1065","","image-button-response","68","507063","0.0-68.0","A2EAIMII6MSIO5","img_art/1.jpg","0","","","","","","","","","","","","","","","","","","","","","","","","",""
"2616","","image-button-response","69","509684","0.0-69.0-0.0","A2EAIMII6MSIO5","img_art/1.jpg","4","","","","","","","","","","","","","","","","","","","","","","","","",""
"4227","","image-button-response","70","513914","0.0-70.0-0.0","A2EAIMII6MSIO5","img_art/1.jpg","0","","","","","","","","","","","","","","","","","","","","","","","","",""
"4446","","image-button-response","71","524002","0.0-70.1-0.1","A2EAIMII6MSIO5","img_art/1.jpg","1","","","","","","","","","","","","","","","","","","","","","","","","",""
"null","","html-keyboard-response","72","525005","0.0-71.0","A2EAIMII6MSIO5","<p style=""font-size: 48px;"">+</p>","","","","","null","allTrialResponses","1000","1","4","img_art/1.jpg","45","Neat use of blended and not blended colors! Loveit.","Kelly,Jenna,Emma,Alicia,Meghan,Nicole","I love colorful photos and I like this one a lot.,25,220,20","beautiful colors and brush strokes,47,360,20","Pretty, nice use of color,40,60,20","just colors mixed together. not interesting.,5,120,20","good colors and contrast,31,220,20","I love the colors but it's too intense sometimes,22,20,20","Kelly","I love colorful photos and I like this one a lot.,25,220,20","Meghan","good colors and contrast,31,220,20","Jenna","beautiful colors and brush strokes,47,360,20","2"
"24050","","survey-text","73","549057","0.0-72.0-0.0","A2EAIMII6MSIO5","","","","{""Q0"":""Strange, but interesting. Looks like a race track or railroad tracks.""}","","","","","","","","","","","","","","","","","","","","","","",""
"5732.900000095367","","image-slider-response","74","554794","0.0-73.0","A2EAIMII6MSIO5","","","","","16","","","","","","","","","","","","","","","","","","","","","",""
"3733","","image-button-response","75","559799","0.0-74.0","A2EAIMII6MSIO5","img_art/10.jpg","0","","","","","","","","","","","","","","","","","","","","","","","","",""
"1793","","image-button-response","76","561596","0.0-75.0","A2EAIMII6MSIO5","img_art/10.jpg","0","","","","","","","","","","","","","","","","","","","","","","","","",""
"6332","","image-button-response","77","567932","0.0-76.0-0.0","A2EAIMII6MSIO5","img_art/10.jpg","5","","","","","","","","","","","","","","","","","","","","","","","","",""
"4060","","image-button-response","78","571996","0.0-77.0-0.0","A2EAIMII6MSIO5","img_art/10.jpg","3","","","","","","","","","","","","","","","","","","","","","","","","",""
"null","","html-keyboard-response","79","573499","0.0-78.0","A2EAIMII6MSIO5","<p style=""font-size: 48px;"">+</p>","","","","","null","allTrialResponses","1500","1","5","img_art/10.jpg","16","Strange, but interesting. Looks like a race track or railroad tracks.","Kelly,Jenna,Savannah,Taylor,Meghan,Erin","I cant tell what this is supposed to be, but I enjoy the simplicity of it.,28,220,20","this piece is okay. I wish it was more colorful, but it is certainly intriguing.,23,360,20","This is a scribble of a mad man. Appears low effort.,-33,200,20","Makes me think of the exhilaration of a roller coaster,31,340,20","kind of reminds me of a map,1,220,20","Cello music instrument,11,120,20","Kelly","I cant tell what this is supposed to be, but I enjoy the simplicity of it.,28,220,20","Erin","Cello music instrument,11,120,20","Taylor","Makes me think of the exhilaration of a roller coaster,31,340,20","2"
"5152","","survey-text","80","578660","0.0-79.0-0.0","A2EAIMII6MSIO5","","","","{""Q0"":""sky""}","","","","","","","","","","","","","","","","","","","","","","",""
"20979","","survey-text","81","599641","0.0-80.0-0.0","A2EAIMII6MSIO5","","","","{""Q0"":""My favorite so far! Love the patchwork quilt style""}","","","","","","","","","","","","","","","","","","","","","","",""
"8037.899999856949","","image-slider-response","82","607684","0.0-81.0","A2EAIMII6MSIO5","","","","","49","","","","","","","","","","","","","","","","","","","","","",""
"null","","image-button-response","83","612689","0.0-82.0","A2EAIMII6MSIO5","img_art/12.jpg","null","","","","","","","","","","","","","","","","","","","","","","","","",""
"9811","","image-button-response","84","622504","0.0-83.0","A2EAIMII6MSIO5","img_art/12.jpg","2","","","","","","","","","","","","","","","","","","","","","","","","",""
"3570","","image-button-response","85","626077","0.0-84.0-0.0","A2EAIMII6MSIO5","img_art/12.jpg","1","","","","","","","","","","","","","","","","","","","","","","","","",""
"1049","","image-button-response","86","627130","0.0-85.0-0.0","A2EAIMII6MSIO5","img_art/12.jpg","0","","","","","","","","","","","","","","","","","","","","","","","","",""
"null","","html-keyboard-response","87","628644","0.0-86.0","A2EAIMII6MSIO5","<p style=""font-size: 48px;"">+</p>","","","","","null","allTrialResponses","1500","1","6","img_art/12.jpg","49","My favorite so far! Love the patchwork quilt style","Kelly,Leah,Erica,Taylor,Michelle,Erin","It's pretty, I find it interesting to look at.,10,220,20","Looks like a puzzle I want to put together, but not hang in my den,2,360,20","good colours scheme; organised,17,80,20","It's kind of ominous,-15,340,20","eww hate everything about this, looks like it belongs in a dentist's office,-14,280,20","City scape but palette is odd,4,120,20","Erica","good colours scheme; organised,17,80,20","Leah","Looks like a puzzle I want to put together, but not hang in my den,2,360,20","Kelly","It's pretty, I find it interesting to look at.,10,220,20","2"
"30859","","survey-text","88","659510","0.0-87.0-0.0","A2EAIMII6MSIO5","","","","{""Q0"":""I'm very confused by this. No idea what it is, but it's kind of creepy.""}","","","","","","","","","","","","","","","","","","","","","","",""
"5407.299999952316","","image-slider-response","89","664922","0.0-88.0","A2EAIMII6MSIO5","","","","","-43","","","","","","","","","","","","","","","","","","","","","",""
"null","","image-button-response","90","669937","0.0-89.0","A2EAIMII6MSIO5","img_art/15.jpg","null","","","","","","","","","","","","","","","","","","","","","","","","",""
"13833","","image-button-response","91","683774","0.0-90.0","A2EAIMII6MSIO5","img_art/15.jpg","2","","","","","","","","","","","","","","","","","","","","","","","","",""
"1788","","image-button-response","92","685565","0.0-91.0-0.0","A2EAIMII6MSIO5","img_art/15.jpg","0","","","","","","","","","","","","","","","","","","","","","","","","",""
"1771","","image-button-response","93","687340","0.0-92.0-0.0","A2EAIMII6MSIO5","img_art/15.jpg","3","","","","","","","","","","","","","","","","","","","","","","","","",""
"null","","html-keyboard-response","94","688843","0.0-93.0","A2EAIMII6MSIO5","<p style=""font-size: 48px;"">+</p>","","","","","null","allTrialResponses","1500","1","7","img_art/15.jpg","-43","I'm very confused by this. No idea what it is, but it's kind of creepy.","Kelly,Leah,Erica,Lauren,Allison,Sarah","I can't really make out what this is supposed to be.,-8,220,20","Pretty, like in a field of poppies,19,360,20","dark and I can not see a meaning behind it,-31,80,20","Hard to tell what I'm looking at, but it does a gives a slight impression of a of garden.,5,340,20","Eyes hunt for the blue in the black.,5,140,20","this is really pretty! i like the pops of blue in all the black,26,180,20","Erica","dark and I can not see a meaning behind it,-31,80,20","Kelly","I can't really make out what this is supposed to be.,-8,220,20","Lauren","Hard to tell what I'm looking at, but it does a gives a slight impression of a of garden.,5,340,20","2"
"15536","","survey-text","95","704387","0.0-94.0-0.0","A2EAIMII6MSIO5","","","","{""Q0"":""Primitive, but nice. Reminds me of old fairgrounds""}","","","","","","","","","","","","","","","","","","","","","","",""
"5209.200000047684","","image-slider-response","96","709600","0.0-95.0","A2EAIMII6MSIO5","","","","","5","","","","","","","","","","","","","","","","","","","","","",""
"null","","image-button-response","97","714609","0.0-96.0","A2EAIMII6MSIO5","img_art/11.jpg","null","","","","","","","","","","","","","","","","","","","","","","","","",""
"8476","","image-button-response","98","723087","0.0-97.0","A2EAIMII6MSIO5","img_art/11.jpg","1","","","","","","","","","","","","","","","","","","","","","","","","",""
"2105","","image-button-response","99","725194","0.0-98.0-0.0","A2EAIMII6MSIO5","img_art/11.jpg","3","","","","","","","","","","","","","","","","","","","","","","","","",""
"1648","","image-button-response","100","726846","0.0-99.0-0.0","A2EAIMII6MSIO5","img_art/11.jpg","4","","","","","","","","","","","","","","","","","","","","","","","","",""
"null","","html-keyboard-response","101","727850","0.0-100.0","A2EAIMII6MSIO5","<p style=""font-size: 48px;"">+</p>","","","","","null","allTrialResponses","1000","1","8","img_art/11.jpg","5","Primitive, but nice. Reminds me of old fairgrounds","Kelly,Jasmine,Erica,Lauren,Brianna,Jennifer","Its a little psychedelic.,10,220,20","Reminds me of a city on a grey/rainy winter's day,25,340,20","a lot of dark colours,-8,80,20","I like how this piece can be interpreted in different ways, such as a village on hilly terrain.,10,340,20","I like dark colors.,31,20,20","The narrow groups of lines in the center make me feel uneasy for some reason,-31,380,20","Jasmine","Reminds me of a city on a grey/rainy winter's day,25,340,20","Lauren","I like how this piece can be interpreted in different ways, such as a village on hilly terrain.,10,340,20","Brianna","I like dark colors.,31,20,20","2"
"23915","","survey-text","102","751771","0.0-101.0-0.0","A2EAIMII6MSIO5","","","","{""Q0"":""Interesting splashes of color, but it's not my style.""}","","","","","","","","","","","","","","","","","","","","","","",""
"6047.900000095367","","image-slider-response","103","757823","0.0-102.0","A2EAIMII6MSIO5","","","","","-4","","","","","","","","","","","","","","","","","","","","","",""
"null","","image-button-response","104","762833","0.0-103.0","A2EAIMII6MSIO5","img_art/13.jpg","null","","","","","","","","","","","","","","","","","","","","","","","","",""
"10704","","image-button-response","105","773540","0.0-104.0","A2EAIMII6MSIO5","img_art/13.jpg","2","","","","","","","","","","","","","","","","","","","","","","","","",""
"2401","","image-button-response","106","775945","0.0-105.0-0.0","A2EAIMII6MSIO5","img_art/13.jpg","0","","","","","","","","","","","","","","","","","","","","","","","","",""
"1569","","image-button-response","107","777519","0.0-106.0-0.0","A2EAIMII6MSIO5","img_art/13.jpg","5","","","","","","","","","","","","","","","","","","","","","","","","",""
"null","","html-keyboard-response","108","778022","0.0-107.0","A2EAIMII6MSIO5","<p style=""font-size: 48px;"">+</p>","","","","","null","allTrialResponses","500","1","9","img_art/13.jpg","-4","Interesting splashes of color, but it's not my style.","Morgan,Jasmine,Alyssa,Lauren,Brianna,Bailey","Seeing the world through different lenses.,15,380,20","I like the colors together,17,340,20","Pretty and it reminds me of rain droplets running down a window on a rainy day.,40,160,20","I like the color coordination between the foreground and background.,10,340,20","This is a very cool painting, something an art teacher or professor would own.,22,20,20","Looks like an upclose dried set of water droplets. Boring.,-25,360,20","Alyssa","Pretty and it reminds me of rain droplets running down a window on a rainy day.,40,160,20","Morgan","Seeing the world through different lenses.,15,380,20","Bailey","Looks like an upclose dried set of water droplets. Boring.,-25,360,20","2"
"20744","","survey-text","109","798771","0.0-108.0-0.0","A2EAIMII6MSIO5","","","","{""Q0"":""Looks basic, but as you look at it longer, you see much more depth""}","","","","","","","","","","","","","","","","","","","","","","",""
"13207","","image-slider-response","110","811981","0.0-109.0","A2EAIMII6MSIO5","","","","","8","","","","","","","","","","","","","","","","","","","","","",""
"null","","image-button-response","111","817000","0.0-110.0","A2EAIMII6MSIO5","img_art/14.jpg","null","","","","","","","","","","","","","","","","","","","","","","","","",""
"6552","","image-button-response","112","823555","0.0-111.0","A2EAIMII6MSIO5","img_art/14.jpg","2","","","","","","","","","","","","","","","","","","","","","","","","",""
"2499","","image-button-response","113","826059","0.0-112.0-0.0","A2EAIMII6MSIO5","img_art/14.jpg","3","","","","","","","","","","","","","","","","","","","","","","","","",""
"4568","","image-button-response","114","830633","0.0-113.0-0.0","A2EAIMII6MSIO5","img_art/14.jpg","1","","","","","","","","","","","","","","","","","","","","","","","","",""
"null","","html-keyboard-response","115","831150","0.0-114.0","A2EAIMII6MSIO5","<p style=""font-size: 48px;"">+</p>","","","","","null","allTrialResponses","500","1","10","img_art/14.jpg","8","Looks basic, but as you look at it longer, you see much more depth","Morgan,Molly,Alyssa,Victoria,Megan,Bailey","Angled, colored, boxy.,10,380,20","In my opinion it's spectacular.,35,340,20","Beautiful tree,the use of water colors makes it soothing to look at,37,160,20","calming to look at,37,400,20","Baby's room palette with tree confusion in a more confused substrate.,-15,200,20","Not quite the style I'd like, but it does have a certain air of emptiness.,12,360,20","Alyssa","Beautiful tree,the use of water colors makes it soothing to look at,37,160,20","Victoria","calming to look at,37,400,20","Molly","In my opinion it's spectacular.,35,340,20","2"
"5112","","survey-text","116","836271","0.0-115.0-0.0","A2EAIMII6MSIO5","","","","{""Q0"":""our""}","","","","","","","","","","","","","","","","","","","","","","",""
"28611","","survey-text","117","864885","0.0-116.0-0.0","A2EAIMII6MSIO5","","","","{""Q0"":""I don't like this. It's just a building with...a jumbled mess?""}","","","","","","","","","","","","","","","","","","","","","","",""
"5247.899999856949","","image-slider-response","118","870137","0.0-117.0","A2EAIMII6MSIO5","","","","","-17","","","","","","","","","","","","","","","","","","","","","",""
"null","","image-button-response","119","875141","0.0-118.0","A2EAIMII6MSIO5","img_art/17.jpg","null","","","","","","","","","","","","","","","","","","","","","","","","",""
"3111","","image-button-response","120","878256","0.0-119.0","A2EAIMII6MSIO5","img_art/17.jpg","5","","","","","","","","","","","","","","","","","","","","","","","","",""
"10311","","image-button-response","121","888571","0.0-120.0-0.0","A2EAIMII6MSIO5","img_art/17.jpg","4","","","","","","","","","","","","","","","","","","","","","","","","",""
"1274","","image-button-response","122","889850","0.0-121.0-0.0","A2EAIMII6MSIO5","img_art/17.jpg","3","","","","","","","","","","","","","","","","","","","","","","","","",""
"null","","html-keyboard-response","123","891364","0.0-122.0","A2EAIMII6MSIO5","<p style=""font-size: 48px;"">+</p>","","","","","null","allTrialResponses","1500","1","11","img_art/17.jpg","-17","I don't like this. It's just a building with...a jumbled mess?","Autumn,Molly,Alyssa,Victoria,Dominique,Kylie","Looks awesome .,33,340,20","Wow, I haven't seen anything better than this.,40,340,20","It gorgeous and i love how the tree is almost 3 dimensional.So many elements to it.,50,160,20","love the wispyness of it,34,400,20","Another favorite a relaxing day with nature a day to take it all In,34,400,20","Looks like an explosion of pretty artwork,45,300,20","Kylie","Looks like an explosion of pretty artwork,45,300,20","Dominique","Another favorite a relaxing day with nature a day to take it all In,34,400,20","Victoria","love the wispyness of it,34,400,20","2"
"19370","","survey-text","124","910743","0.0-123.0-0.0","A2EAIMII6MSIO5","","","","{""Q0"":""Very childlike, but nice. Relaxing to look at.""}","","","","","","","","","","","","","","","","","","","","","","",""
"6064.599999904633","","image-slider-response","125","916810","0.0-124.0","A2EAIMII6MSIO5","","","","","30","","","","","","","","","","","","","","","","","","","","","",""
"null","","image-button-response","126","921817","0.0-125.0","A2EAIMII6MSIO5","img_art/26.jpg","null","","","","","","","","","","","","","","","","","","","","","","","","",""
"4089","","image-button-response","127","925909","0.0-126.0","A2EAIMII6MSIO5","img_art/26.jpg","2","","","","","","","","","","","","","","","","","","","","","","","","",""
"2542","","image-button-response","128","928456","0.0-127.0-0.0","A2EAIMII6MSIO5","img_art/26.jpg","5","","","","","","","","","","","","","","","","","","","","","","","","",""
"1644","","image-button-response","129","930104","0.0-128.0-0.0","A2EAIMII6MSIO5","img_art/26.jpg","4","","","","","","","","","","","","","","","","","","","","","","","","",""
"null","","html-keyboard-response","130","930617","0.0-129.0","A2EAIMII6MSIO5","<p style=""font-size: 48px;"">+</p>","","","","","null","allTrialResponses","500","1","12","img_art/26.jpg","30","Very childlike, but nice. Relaxing to look at.","Jessica,Lindsey,Olivia,Victoria,Dominique,Kylie","It doesn't look so vibrant, I'm not sure what feelings they were trying to capture,-41,400,20","I see a suburban neighborhood with townhouses and trees. Not a fan of the colors or style.,-16,400,20","reminds me of a hometown,7,40,20","feels a tad old,30,400,20","Small town and home feel on A nice day.,28,400,20","Picturesque little town,45,300,20","Olivia","reminds me of a hometown,7,40,20","Kylie","Picturesque little town,45,300,20","Dominique","Small town and home feel on A nice day.,28,400,20","2"
"22207","","survey-text","131","952830","0.0-130.0-0.0","A2EAIMII6MSIO5","","","","{""Q0"":""The streaks are interesting, but overall this is a mess.""}","","","","","","","","","","","","","","","","","","","","","","",""
"7402.5","","image-slider-response","132","960236","0.0-131.0","A2EAIMII6MSIO5","","","","","-23","","","","","","","","","","","","","","","","","","","","","",""
"null","","image-button-response","133","965245","0.0-132.0","A2EAIMII6MSIO5","img_art/30.jpg","null","","","","","","","","","","","","","","","","","","","","","","","","",""
"2655","","image-button-response","134","967903","0.0-133.0","A2EAIMII6MSIO5","img_art/30.jpg","1","","","","","","","","","","","","","","","","","","","","","","","","",""
"2182","","image-button-response","135","970089","0.0-134.0-0.0","A2EAIMII6MSIO5","img_art/30.jpg","5","","","","","","","","","","","","","","","","","","","","","","","","",""
"1074","","image-button-response","136","971168","0.0-135.0-0.0","A2EAIMII6MSIO5","img_art/30.jpg","3","","","","","","","","","","","","","","","","","","","","","","","","",""
"null","","html-keyboard-response","137","972180","0.0-136.0","A2EAIMII6MSIO5","<p style=""font-size: 48px;"">+</p>","","","","","null","allTrialResponses","1000","1","13","img_art/30.jpg","-23","The streaks are interesting, but overall this is a mess.","Jamie,Caitlin,Olivia,Cassidy,Dominique,Kylie","Cool design and contrast of colors,30,320,20","My kid drew this same picture at daycare!!!,5,80,20","perceiving greatness,20,40,20","I just don't see the point of this piece,-11,140,20","Personal , calming conservative signature business ideal.,32,400,20","I can't figure this out,25,300,20","Caitlin","My kid drew this same picture at daycare!!!,5,80,20","Kylie","I can't figure this out,25,300,20","Cassidy","I just don't see the point of this piece,-11,140,20","2"
"24882","","survey-text","138","997069","0.0-137.0-0.0","A2EAIMII6MSIO5","","","","{""Q0"":""Abstract, but very nice! I think this would be something where you find new things in it all the time.""}","","","","","","","","","","","","","","","","","","","","","","",""
"4654.799999952316","","image-slider-response","139","1001727","0.0-138.0","A2EAIMII6MSIO5","","","","","44","","","","","","","","","","","","","","","","","","","","","",""
"null","","image-button-response","140","1006742","0.0-139.0","A2EAIMII6MSIO5","img_art/8.jpg","null","","","","","","","","","","","","","","","","","","","","","","","","",""
"10801","","image-button-response","141","1017547","0.0-140.0","A2EAIMII6MSIO5","img_art/8.jpg","5","","","","","","","","","","","","","","","","","","","","","","","","",""
"1362","","image-button-response","142","1018913","0.0-141.0-0.0","A2EAIMII6MSIO5","img_art/8.jpg","3","","","","","","","","","","","","","","","","","","","","","","","","",""
"1210","","image-button-response","143","1020127","0.0-142.0-0.0","A2EAIMII6MSIO5","img_art/8.jpg","1","","","","","","","","","","","","","","","","","","","","","","","","",""
"null","","html-keyboard-response","144","1021643","0.0-143.0","A2EAIMII6MSIO5","<p style=""font-size: 48px;"">+</p>","","","","","null","allTrialResponses","1500","1","14","img_art/8.jpg","44","Abstract, but very nice! I think this would be something where you find new things in it all the time.","Katelyn,Caitlin,Crystal,Cassidy,Hannah,Kylie","I like the definition and the strong lines. It makes me think of someone watching over the world,24,100,20","And I'll huff and I'll puff and I'll blow your town down!!,20,80,20","i like the abstract nature of a birds eye view of the city. The hard shapes and squares present with a softness rather than rigidity.,26,300,20","I like the colors,10,140,20","I don't understand it. Makes no sense to me.,5,240,20","Very abstract and seems symbolic,45,300,20","Kylie","Very abstract and seems symbolic,45,300,20","Cassidy","I like the colors,10,140,20","Caitlin","And I'll huff and I'll puff and I'll blow your town down!!,20,80,20","2"
"19365","","survey-text","145","1041012","0.0-144.0-0.0","A2EAIMII6MSIO5","","","","{""Q0"":""What a wreck! Looks like they started making art, and got fed up.""}","","","","","","","","","","","","","","","","","","","","","","",""
"4759.100000143051","","image-slider-response","146","1045774","0.0-145.0","A2EAIMII6MSIO5","","","","","-34","","","","","","","","","","","","","","","","","","","","","",""
"null","","image-button-response","147","1050788","0.0-146.0","A2EAIMII6MSIO5","img_art/9.jpg","null","","","","","","","","","","","","","","","","","","","","","","","","",""
"4035","","image-button-response","148","1054825","0.0-147.0","A2EAIMII6MSIO5","img_art/9.jpg","1","","","","","","","","","","","","","","","","","","","","","","","","",""
"2417","","image-button-response","149","1057245","0.0-148.0-0.0","A2EAIMII6MSIO5","img_art/9.jpg","2","","","","","","","","","","","","","","","","","","","","","","","","",""
"1497","","image-button-response","150","1058747","0.0-149.0-0.0","A2EAIMII6MSIO5","img_art/9.jpg","3","","","","","","","","","","","","","","","","","","","","","","","","",""
"null","","html-keyboard-response","151","1059752","0.0-150.0","A2EAIMII6MSIO5","<p style=""font-size: 48px;"">+</p>","","","","","null","allTrialResponses","1000","1","15","img_art/9.jpg","-34","What a wreck! Looks like they started making art, and got fed up.","Madeline,Caitlin,Kimberly,Cassidy,Haley,Kylie","I really like the colors and details.,8,40,20","Caveman. Not for my walls.,-5,80,20","It's too all over the place,-37,260,20","The colors are okay, but this looks like someone scribbled with a crayon,1,140,20","I don't like the picture, but it wouldn't surprise me if someone did,-20,220,20","Peaceful dreaming,40,300,20","Caitlin","Caveman. Not for my walls.,-5,80,20","Kimberly","It's too all over the place,-37,260,20","Cassidy","The colors are okay, but this looks like someone scribbled with a crayon,1,140,20","2"
"5310","","survey-text","152","1065072","0.0-151.0-0.0","A2EAIMII6MSIO5","","","","{""Q0"":""course""}","","","","","","","","","","","","","","","","","","","","","","",""
"19922","","survey-text","153","1084997","0.0-152.0-0.0","A2EAIMII6MSIO5","","","","{""Q0"":""Don't like it. Is that an ice pick in cheese?""}","","","","","","","","","","","","","","","","","","","","","","",""
"6685.899999856949","","image-slider-response","154","1091687","0.0-153.0","A2EAIMII6MSIO5","","","","","-26","","","","","","","","","","","","","","","","","","","","","",""
"null","","image-button-response","155","1096691","0.0-154.0","A2EAIMII6MSIO5","img_art/5.jpg","null","","","","","","","","","","","","","","","","","","","","","","","","",""
"6221","","image-button-response","156","1102915","0.0-155.0","A2EAIMII6MSIO5","img_art/5.jpg","0","","","","","","","","","","","","","","","","","","","","","","","","",""
"1256","","image-button-response","157","1104172","0.0-156.0-0.0","A2EAIMII6MSIO5","img_art/5.jpg","1","","","","","","","","","","","","","","","","","","","","","","","","",""
"2235","","image-button-response","158","1106410","0.0-157.0-0.0","A2EAIMII6MSIO5","img_art/5.jpg","3","","","","","","","","","","","","","","","","","","","","","","","","",""
"null","","html-keyboard-response","159","1107425","0.0-158.0","A2EAIMII6MSIO5","<p style=""font-size: 48px;"">+</p>","","","","","null","allTrialResponses","1000","1","16","img_art/5.jpg","-26","Don't like it. Is that an ice pick in cheese?","Gabrielle,Caitlin,Kimberly,Cassidy,Chelsea,Ashley","looks like a 2nd grader did it,-50,160,20","More kindergarten art class. Who buys this stuff?,-45,80,20","It feels positive and kind of uplifting,24,260,20","I like these colors together and the tiny splatters, but what is this?,7,140,20","I'm not sure what is going on here.,-46,180,20","I like the simple shapes and colors.,23,320,20","Gabrielle","looks like a 2nd grader did it,-50,160,20","Caitlin","More kindergarten art class. Who buys this stuff?,-45,80,20","Cassidy","I like these colors together and the tiny splatters, but what is this?,7,140,20","2"
"20643","","survey-text","160","1128075","0.0-159.0-0.0","A2EAIMII6MSIO5","","","","{""Q0"":""I have no idea what this is, but the colors catch my attention""}","","","","","","","","","","","","","","","","","","","","","","",""
"5297.400000095367","","image-slider-response","161","1133376","0.0-160.0","A2EAIMII6MSIO5","","","","","21","","","","","","","","","","","","","","","","","","","","","",""
"null","","image-button-response","162","1138390","0.0-161.0","A2EAIMII6MSIO5","img_art/21.jpg","null","","","","","","","","","","","","","","","","","","","","","","","","",""
"5380","","image-button-response","163","1143773","0.0-162.0","A2EAIMII6MSIO5","img_art/21.jpg","2","","","","","","","","","","","","","","","","","","","","","","","","",""
"3945","","image-button-response","164","1147723","0.0-163.0-0.0","A2EAIMII6MSIO5","img_art/21.jpg","4","","","","","","","","","","","","","","","","","","","","","","","","",""
"2156","","image-button-response","165","1149884","0.0-164.0-0.0","A2EAIMII6MSIO5","img_art/21.jpg","3","","","","","","","","","","","","","","","","","","","","","","","","",""
"null","","html-keyboard-response","166","1150887","0.0-165.0","A2EAIMII6MSIO5","<p style=""font-size: 48px;"">+</p>","","","","","null","allTrialResponses","1000","1","17","img_art/21.jpg","21","I have no idea what this is, but the colors catch my attention","Gabrielle,Caitlin,Grace,Cassidy,Erika,Hailey","setting sun sky? nice colors and blending,14,160,20","Remove the rocks(?) on the lower right.,5,80,20","Like the colors, the cloudy, airy effects. Nice.,46,180,20","I really like these colors together and their placement. The dabs of white are a nice contrast to the soft blending,10,140,20","Indistinct, but beautiful hues,10,100,20","ocean and rocks at the beach,11,200,20","Grace","Like the colors, the cloudy, airy effects. Nice.,46,180,20","Erika","Indistinct, but beautiful hues,10,100,20","Cassidy","I really like these colors together and their placement. The dabs of white are a nice contrast to the soft blending,10,140,20","2"
"23125","","survey-text","167","1174019","0.0-166.0-0.0","A2EAIMII6MSIO5","","","","{""Q0"":""I assume this is a primitive plant growing? Not bad, but nothing great.""}","","","","","","","","","","","","","","","","","","","","","","",""
"5092.299999952316","","image-slider-response","168","1179113","0.0-167.0","A2EAIMII6MSIO5","","","","","-3","","","","","","","","","","","","","","","","","","","","","",""
"null","","image-button-response","169","1184117","0.0-168.0","A2EAIMII6MSIO5","img_art/6.jpg","null","","","","","","","","","","","","","","","","","","","","","","","","",""
"9779","","image-button-response","170","1193898","0.0-169.0","A2EAIMII6MSIO5","img_art/6.jpg","0","","","","","","","","","","","","","","","","","","","","","","","","",""
"2796","","image-button-response","171","1196697","0.0-170.0-0.0","A2EAIMII6MSIO5","img_art/6.jpg","4","","","","","","","","","","","","","","","","","","","","","","","","",""
"4612","","image-button-response","172","1201311","0.0-171.0-0.0","A2EAIMII6MSIO5","img_art/6.jpg","3","","","","","","","","","","","","","","","","","","","","","","","","",""
"null","","html-keyboard-response","173","1202318","0.0-172.0","A2EAIMII6MSIO5","<p style=""font-size: 48px;"">+</p>","","","","","null","allTrialResponses","1000","1","18","img_art/6.jpg","-3","I assume this is a primitive plant growing? Not bad, but nothing great.","Tiffany,Jordan,Grace,Cassidy,Erika,Monica","The painting makes me happy. Like I'm looking at a little bird.,6,360,20","This is interesting, I feel solitude, and loneliness from this.,13,20,20","Growth in the desert?  Don't care for it very much.,-26,180,20","The background on the upper half is nice. I also like the contrast of the top and bottom halves,5,140,20","Lonesome in nature,13,100,20","Maybe it's supposed to be a bird but it looks like a scary cloaked figure. it's just too simple and jarring,-23,360,20","Tiffany","The painting makes me happy. Like I'm looking at a little bird.,6,360,20","Erika","Lonesome in nature,13,100,20","Cassidy","The background on the upper half is nice. I also like the contrast of the top and bottom halves,5,140,20","2"
"20073","","survey-text","174","1222398","0.0-173.0-0.0","A2EAIMII6MSIO5","","","","{""Q0"":""Oh wow...love this! Very nice river, plants, rocks.""}","","","","","","","","","","","","","","","","","","","","","","",""
"6495.900000095367","","image-slider-response","175","1228898","0.0-174.0","A2EAIMII6MSIO5","","","","","46","","","","","","","","","","","","","","","","","","","","","",""
"null","","image-button-response","176","1233910","0.0-175.0","A2EAIMII6MSIO5","img_art/24.jpg","null","","","","","","","","","","","","","","","","","","","","","","","","",""
"8599","","image-button-response","177","1242512","0.0-176.0","A2EAIMII6MSIO5","img_art/24.jpg","4","","","","","","","","","","","","","","","","","","","","","","","","",""
"1392","","image-button-response","178","1243908","0.0-177.0-0.0","A2EAIMII6MSIO5","img_art/24.jpg","5","","","","","","","","","","","","","","","","","","","","","","","","",""
"2081","","image-button-response","179","1245993","0.0-178.0-0.0","A2EAIMII6MSIO5","img_art/24.jpg","1","","","","","","","","","","","","","","","","","","","","","","","","",""
"null","","html-keyboard-response","180","1247501","0.0-179.0","A2EAIMII6MSIO5","<p style=""font-size: 48px;"">+</p>","","","","","null","allTrialResponses","1500","1","19","img_art/24.jpg","46","Oh wow...love this! Very nice river, plants, rocks.","Tiffany,Kaylee,Destiny,Cassidy,Erika,Angela","I feel relaxed and happy, looking at the stream, but it feels hollow, like something is fake.,5,360,20","lovely forest vibes,36,200,20","brick wall waterfall girl you think you got it all,50,360,20","I don't even know. It's just kind of meh,1,140,20","Very nice textures and subject,38,100,20","Love the colors in this work, and the sense of motion in the water,36,260,20","Erika","Very nice textures and subject,38,100,20","Angela","Love the colors in this work, and the sense of motion in the water,36,260,20","Kaylee","lovely forest vibes,36,200,20","2"
"24646","","survey-text","181","1272156","0.0-180.0-0.0","A2EAIMII6MSIO5","","","","{""Q0"":""Not a fan. Very blah colors""}","","","","","","","","","","","","","","","","","","","","","","",""
"4586.400000095367","","image-slider-response","182","1276746","0.0-181.0","A2EAIMII6MSIO5","","","","","-15","","","","","","","","","","","","","","","","","","","","","",""
"null","","image-button-response","183","1281751","0.0-182.0","A2EAIMII6MSIO5","img_art/2.jpg","null","","","","","","","","","","","","","","","","","","","","","","","","",""
"2625","","image-button-response","184","1284379","0.0-183.0","A2EAIMII6MSIO5","img_art/2.jpg","1","","","","","","","","","","","","","","","","","","","","","","","","",""
"4375","","image-button-response","185","1288756","0.0-184.0-0.0","A2EAIMII6MSIO5","img_art/2.jpg","4","","","","","","","","","","","","","","","","","","","","","","","","",""
"2198","","image-button-response","186","1290958","0.0-185.0-0.0","A2EAIMII6MSIO5","img_art/2.jpg","5","","","","","","","","","","","","","","","","","","","","","","","","",""
"null","","html-keyboard-response","187","1292465","0.0-186.0","A2EAIMII6MSIO5","<p style=""font-size: 48px;"">+</p>","","","","","null","allTrialResponses","1500","1","20","img_art/2.jpg","-15","Not a fan. Very blah colors","Christina,Kaylee,Sierra,Alexa,Erika,Angela","It looks like a little kids primary color picture,3,240,20","its ugly af to be honest,-50,200,20","looks like a happy child,15,260,20","Not my favorite but I can see this being hung in a art museum,25,40,20","Indistinct and too bright,-21,100,20","Only like the blues and teals in this. The rest is unappealing.,-15,260,20","Kaylee","its ugly af to be honest,-50,200,20","Erika","Indistinct and too bright,-21,100,20","Angela","Only like the blues and teals in this. The rest is unappealing.,-15,260,20","2"
"4441","","survey-text","188","1296917","0.0-187.0-0.0","A2EAIMII6MSIO5","","","","{""Q0"":""we""}","","","","","","","","","","","","","","","","","","","","","","",""
"21991","","survey-text","189","1318911","0.0-188.0-0.0","A2EAIMII6MSIO5","","","","{""Q0"":""What's with the picture of the bear's head?""}","","","","","","","","","","","","","","","","","","","","","","",""
"4758.200000047684","","image-slider-response","190","1323671","0.0-189.0","A2EAIMII6MSIO5","","","","","-12","","","","","","","","","","","","","","","","","","","","","",""
"null","","image-button-response","191","1328676","0.0-190.0","A2EAIMII6MSIO5","img_art/16.jpg","null","","","","","","","","","","","","","","","","","","","","","","","","",""
"6720","","image-button-response","192","1335400","0.0-191.0","A2EAIMII6MSIO5","img_art/16.jpg","5","","","","","","","","","","","","","","","","","","","","","","","","",""
"1398","","image-button-response","193","1336801","0.0-192.0-0.0","A2EAIMII6MSIO5","img_art/16.jpg","3","","","","","","","","","","","","","","","","","","","","","","","","",""
"1352","","image-button-response","194","1338157","0.0-193.0-0.0","A2EAIMII6MSIO5","img_art/16.jpg","0","","","","","","","","","","","","","","","","","","","","","","","","",""
"null","","html-keyboard-response","195","1338664","0.0-194.0","A2EAIMII6MSIO5","<p style=""font-size: 48px;"">+</p>","","","","","null","allTrialResponses","500","1","21","img_art/16.jpg","-12","What's with the picture of the bear's head?","Samantha,Kaylee,Heather,Breanna,Erika,Angela","Creepy teddybear,-50,140,20","cool teddy bear,50,200,20","lol i dont know how i feel about this.,1,260,20","The bear is terrifying,-50,380,20","Very emotional,23,100,20","Hate this, especially the jarring contrast of the super realistic teddybear face.,-50,260,20","Angela","Hate this, especially the jarring contrast of the super realistic teddybear face.,-50,260,20","Breanna","The bear is terrifying,-50,380,20","Samantha","Creepy teddybear,-50,140,20","2"
"26496","","survey-text","196","1365171","0.0-195.0-0.0","A2EAIMII6MSIO5","","","","{""Q0"":""Too much red. Anger? Crime scene???""}","","","","","","","","","","","","","","","","","","","","","","",""
"5541.900000095367","","image-slider-response","197","1370715","0.0-196.0","A2EAIMII6MSIO5","","","","","-45","","","","","","","","","","","","","","","","","","","","","",""
"null","","image-button-response","198","1375733","0.0-197.0","A2EAIMII6MSIO5","img_art/3.jpg","null","","","","","","","","","","","","","","","","","","","","","","","","",""
"1833","","image-button-response","199","1377568","0.0-198.0","A2EAIMII6MSIO5","img_art/3.jpg","3","","","","","","","","","","","","","","","","","","","","","","","","",""
"1767","","image-button-response","200","1379339","0.0-199.0-0.0","A2EAIMII6MSIO5","img_art/3.jpg","0","","","","","","","","","","","","","","","","","","","","","","","","",""
"1368","","image-button-response","201","1380712","0.0-200.0-0.0","A2EAIMII6MSIO5","img_art/3.jpg","2","","","","","","","","","","","","","","","","","","","","","","","","",""
"null","","html-keyboard-response","202","1381228","0.0-201.0","A2EAIMII6MSIO5","<p style=""font-size: 48px;"">+</p>","","","","","null","allTrialResponses","500","1","22","img_art/3.jpg","-45","Too much red. Anger? Crime scene???","Samantha,Angelica,Cheyenne,Breanna,Chloe,Angela","Too angry and scribbly,-43,140,20","This is angry and childish looking.,-49,280,20","Don't see what the purpose is.,-31,200,20","Somebody scribbled on a piece of paper,-35,380,20","Powerful lines but seems incomplete,-10,220,20","Like the colors and energy of this work.,10,260,20","Breanna","Somebody scribbled on a piece of paper,-35,380,20","Samantha","Too angry and scribbly,-43,140,20","Cheyenne","Don't see what the purpose is.,-31,200,20","2"
"20632","","survey-text","203","1401867","0.0-202.0-0.0","A2EAIMII6MSIO5","","","","{""Q0"":""Are these frozen bugs or something?""}","","","","","","","","","","","","","","","","","","","","","","",""
"6556.5","","image-slider-response","204","1408425","0.0-203.0","A2EAIMII6MSIO5","","","","","13","","","","","","","","","","","","","","","","","","","","","",""
"null","","image-button-response","205","1413429","0.0-204.0","A2EAIMII6MSIO5","img_art/7.jpg","null","","","","","","","","","","","","","","","","","","","","","","","","",""
"5217","","image-button-response","206","1418649","0.0-205.0","A2EAIMII6MSIO5","img_art/7.jpg","2","","","","","","","","","","","","","","","","","","","","","","","","",""
"1558","","image-button-response","207","1420209","0.0-206.0-0.0","A2EAIMII6MSIO5","img_art/7.jpg","1","","","","","","","","","","","","","","","","","","","","","","","","",""
"1157","","image-button-response","208","1421368","0.0-207.0-0.0","A2EAIMII6MSIO5","img_art/7.jpg","0","","","","","","","","","","","","","","","","","","","","","","","","",""
"null","","html-keyboard-response","209","1422871","0.0-208.0","A2EAIMII6MSIO5","<p style=""font-size: 48px;"">+</p>","","","","","null","allTrialResponses","1500","1","23","img_art/7.jpg","13","Are these frozen bugs or something?","Samantha,Rebecca,Cheyenne,Breanna,Maria,Natalie","Makes me want to feel it,19,140,20","would love to take a closer look at the texture,15,100,20","Nice realistic feel but nothing stands out.,4,200,20","Not highly impressed,-5,380,20","elicits no real response,0,120,20","does not look good,-42,400,20","Cheyenne","Nice realistic feel but nothing stands out.,4,200,20","Rebecca","would love to take a closer look at the texture,15,100,20","Samantha","Makes me want to feel it,19,140,20","2"
"22709","","survey-text","210","1445594","0.0-209.0-0.0","A2EAIMII6MSIO5","","","","{""Q0"":""Nice use of color! The horse is very pretty.""}","","","","","","","","","","","","","","","","","","","","","","",""
"8333","","image-slider-response","211","1453929","0.0-210.0","A2EAIMII6MSIO5","","","","","30","","","","","","","","","","","","","","","","","","","","","",""
"null","","image-button-response","212","1458949","0.0-211.0","A2EAIMII6MSIO5","img_art/18.jpg","null","","","","","","","","","","","","","","","","","","","","","","","","",""
"5650","","image-button-response","213","1464604","0.0-212.0","A2EAIMII6MSIO5","img_art/18.jpg","0","","","","","","","","","","","","","","","","","","","","","","","","",""
"1418","","image-button-response","214","1466026","0.0-213.0-0.0","A2EAIMII6MSIO5","img_art/18.jpg","4","","","","","","","","","","","","","","","","","","","","","","","","",""
"5776","","image-button-response","215","1471804","0.0-214.0-0.0","A2EAIMII6MSIO5","img_art/18.jpg","1","","","","","","","","","","","","","","","","","","","","","","","","",""
"null","","html-keyboard-response","216","1472806","0.0-215.0","A2EAIMII6MSIO5","<p style=""font-size: 48px;"">+</p>","","","","","null","allTrialResponses","1000","1","24","img_art/18.jpg","30","Nice use of color! The horse is very pretty.","Samantha,Rebecca,Cheyenne,Cassandra,Brittany,Katie","Id love to see this piece closer. So much extra details hidden it it.,50,140,20","reminds me of the little prince, with the color scheme and all,16,100,20","Too abstract to me,-30,200,20","I don't know...kind of a dissatified feeling inside.,-6,120,20","This is really interesting to look at. I like the colors and the spectral look.,27,40,20","Looks messy. Reminds me of a battle or war. I have an unpleasant feeling the more I look.,-20,160,20","Samantha","Id love to see this piece closer. So much extra details hidden it it.,50,140,20","Brittany","This is really interesting to look at. I like the colors and the spectral look.,27,40,20","Rebecca","reminds me of the little prince, with the color scheme and all,16,100,20","2"
"21272","","survey-text","217","1494085","0.0-216.0-0.0","A2EAIMII6MSIO5","","","","{""Q0"":""Not sure what it is, but it is offputting to look at.""}","","","","","","","","","","","","","","","","","","","","","","",""
"5265.900000095367","","image-slider-response","218","1499354","0.0-217.0","A2EAIMII6MSIO5","","","","","-40","","","","","","","","","","","","","","","","","","","","","",""
"null","","image-button-response","219","1504364","0.0-218.0","A2EAIMII6MSIO5","img_art/20.jpg","null","","","","","","","","","","","","","","","","","","","","","","","","",""
"9038","","image-button-response","220","1513406","0.0-219.0","A2EAIMII6MSIO5","img_art/20.jpg","2","","","","","","","","","","","","","","","","","","","","","","","","",""
"1311","","image-button-response","221","1514722","0.0-220.0-0.0","A2EAIMII6MSIO5","img_art/20.jpg","5","","","","","","","","","","","","","","","","","","","","","","","","",""
"2458","","image-button-response","222","1517184","0.0-221.0-0.0","A2EAIMII6MSIO5","img_art/20.jpg","0","","","","","","","","","","","","","","","","","","","","","","","","",""
"null","","html-keyboard-response","223","1518186","0.0-222.0","A2EAIMII6MSIO5","<p style=""font-size: 48px;"">+</p>","","","","","null","allTrialResponses","1000","1","25","img_art/20.jpg","-40","Not sure what it is, but it is offputting to look at.","Samantha,Rebecca,Brooke,Sydney,Brittany,Jacqueline","Use of white on foreground is too big and steals eyes away from rest of painting,2,140,20","reminds me of georgia o'keeffe's skull,22,100,20","Dinosaur skill and some dark shadow above,-30,60,20","I love the color choice.,25,320,20","The colors and the scene depicted is interesting.,13,40,20","Looks like a refinery dumping shit into the water.,-40,300,20","Brooke","Dinosaur skill and some dark shadow above,-30,60,20","Jacqueline","Looks like a refinery dumping shit into the water.,-40,300,20","Samantha","Use of white on foreground is too big and steals eyes away from rest of painting,2,140,20","2"
"6115","","survey-text","224","1524319","0.0-223.0-0.0","A2EAIMII6MSIO5","","","","{""Q0"":""table""}","","","","","","","","","","","","","","","","","","","","","","",""
"15875","","survey-text","225","1540198","0.0-224.0-0.0","A2EAIMII6MSIO5","","","","{""Q0"":""Loved it until the green scribbles""}","","","","","","","","","","","","","","","","","","","","","","",""
"11504.699999809265","","image-slider-response","226","1551704","0.0-225.0","A2EAIMII6MSIO5","","","","","4","","","","","","","","","","","","","","","","","","","","","",""
"null","","image-button-response","227","1556720","0.0-226.0","A2EAIMII6MSIO5","img_art/27.jpg","null","","","","","","","","","","","","","","","","","","","","","","","","",""
"5390","","image-button-response","228","1562114","0.0-227.0","A2EAIMII6MSIO5","img_art/27.jpg","1","","","","","","","","","","","","","","","","","","","","","","","","",""
"4761","","image-button-response","229","1566877","0.0-228.0-0.0","A2EAIMII6MSIO5","img_art/27.jpg","4","","","","","","","","","","","","","","","","","","","","","","","","",""
"5049","","image-button-response","230","1571931","0.0-229.0-0.0","A2EAIMII6MSIO5","img_art/27.jpg","0","","","","","","","","","","","","","","","","","","","","","","","","",""
"null","","html-keyboard-response","231","1573435","0.0-230.0","A2EAIMII6MSIO5","<p style=""font-size: 48px;"">+</p>","","","","","null","allTrialResponses","1500","1","26","img_art/27.jpg","4","Loved it until the green scribbles","Samantha,Mariah,Brooke,Makayla,Miranda,Jacqueline","I like all it has going but i wouldnt put it in my house unless my child did it,25,140,20","The green lines disrupt the image in an unpleasant and hurried way.,-30,140,20","Like it, autumn colors, trees and foliage scene.,25,60,20","Calming sky , relaxing,23,80,20","I'm not a fan. It looks like something my nephews (1 and 2) would make,-8,320,20","I don't really see anything to this art.,-5,300,20","Mariah","The green lines disrupt the image in an unpleasant and hurried way.,-30,140,20","Miranda","I'm not a fan. It looks like something my nephews (1 and 2) would make,-8,320,20","Samantha","I like all it has going but i wouldnt put it in my house unless my child did it,25,140,20","2"
"19241","","survey-text","232","1592684","0.0-231.0-0.0","A2EAIMII6MSIO5","","","","{""Q0"":""Not a fan at all. This is a mess, unless a small child made it.""}","","","","","","","","","","","","","","","","","","","","","","",""
"4675.799999952316","","image-slider-response","233","1597363","0.0-232.0","A2EAIMII6MSIO5","","","","","-7","","","","","","","","","","","","","","","","","","","","","",""
"null","","image-button-response","234","1602378","0.0-233.0","A2EAIMII6MSIO5","img_art/19.jpg","null","","","","","","","","","","","","","","","","","","","","","","","","",""
"4615","","image-button-response","235","1606998","0.0-234.0","A2EAIMII6MSIO5","img_art/19.jpg","5","","","","","","","","","","","","","","","","","","","","","","","","",""
"7748","","image-button-response","236","1614750","0.0-235.0-0.0","A2EAIMII6MSIO5","img_art/19.jpg","4","","","","","","","","","","","","","","","","","","","","","","","","",""
"1358","","image-button-response","237","1616112","0.0-236.0-0.0","A2EAIMII6MSIO5","img_art/19.jpg","1","","","","","","","","","","","","","","","","","","","","","","","","",""
"null","","html-keyboard-response","238","1617615","0.0-237.0","A2EAIMII6MSIO5","<p style=""font-size: 48px;"">+</p>","","","","","null","allTrialResponses","1500","1","27","img_art/19.jpg","-7","Not a fan at all. This is a mess, unless a small child made it.","Samantha,Mariah,Emily,Rachel,Miranda,Stephanie","Intersting but not for me,21,140,20","I like the watercolor and colors, do not like the deconstructed city scene feel.,0,140,20","Loks like an amature did it, Not pleasing.,-45,40,20","Reminds me of a busy town. Chaotic in nature.,-11,80,20","It looks cool but at the time looks like it was done by a talented 5 year old.,13,320,20","A dreary town in the fall.,-4,300,20","Stephanie","A dreary town in the fall.,-4,300,20","Miranda","It looks cool but at the time looks like it was done by a talented 5 year old.,13,320,20","Mariah","I like the watercolor and colors, do not like the deconstructed city scene feel.,0,140,20","2"
"20448","","survey-text","239","1638070","0.0-238.0-0.0","A2EAIMII6MSIO5","","","","{""Q0"":""This is chaotic, but not in a good or interesting way""}","","","","","","","","","","","","","","","","","","","","","","",""
"5745.900000095367","","image-slider-response","240","1643820","0.0-239.0","A2EAIMII6MSIO5","","","","","-24","","","","","","","","","","","","","","","","","","","","","",""
"null","","image-button-response","241","1648832","0.0-240.0","A2EAIMII6MSIO5","img_art/28.jpg","null","","","","","","","","","","","","","","","","","","","","","","","","",""
"1562","","image-button-response","242","1650397","0.0-241.0","A2EAIMII6MSIO5","img_art/28.jpg","3","","","","","","","","","","","","","","","","","","","","","","","","",""
"11452","","image-button-response","243","1661851","0.0-242.0-0.0","A2EAIMII6MSIO5","img_art/28.jpg","1","","","","","","","","","","","","","","","","","","","","","","","","",""
"6586","","image-button-response","244","1668438","0.0-243.0-0.0","A2EAIMII6MSIO5","img_art/28.jpg","0","","","","","","","","","","","","","","","","","","","","","","","","",""
"null","","html-keyboard-response","245","1669952","0.0-244.0","A2EAIMII6MSIO5","<p style=""font-size: 48px;"">+</p>","","","","","null","allTrialResponses","1500","1","28","img_art/28.jpg","-24","This is chaotic, but not in a good or interesting way","Anna,Mariah,Courtney,Briana,Miranda,Stephanie","It's drab and looks like stereotypical abstract art.,-30,300,20","Colors are pleasing, shapes are vaguely unpleasant. Kidneys at a smoky bar.,5,140,20","Looks like some guys in s band playing at a busy park.,18,280,20","Is this anything?,-20,400,20","This one looks very dark and seems like it has a lot of depth to it.,31,320,20","The colors are neutral but I see a mother helping her child,31,300,20","Briana","Is this anything?,-20,400,20","Mariah","Colors are pleasing, shapes are vaguely unpleasant. Kidneys at a smoky bar.,5,140,20","Anna","It's drab and looks like stereotypical abstract art.,-30,300,20","2"
"21066","","survey-text","246","1691026","0.0-245.0-0.0","A2EAIMII6MSIO5","","","","{""Q0"":""Minimal, but interesting. I love the use of background color!""}","","","","","","","","","","","","","","","","","","","","","","",""
"4456.200000047684","","image-slider-response","247","1695487","0.0-246.0","A2EAIMII6MSIO5","","","","","26","","","","","","","","","","","","","","","","","","","","","",""
"null","","image-button-response","248","1700502","0.0-247.0","A2EAIMII6MSIO5","img_art/25.jpg","null","","","","","","","","","","","","","","","","","","","","","","","","",""
"2851","","image-button-response","249","1703356","0.0-248.0","A2EAIMII6MSIO5","img_art/25.jpg","2","","","","","","","","","","","","","","","","","","","","","","","","",""
"2130","","image-button-response","250","1705490","0.0-249.0-0.0","A2EAIMII6MSIO5","img_art/25.jpg","0","","","","","","","","","","","","","","","","","","","","","","","","",""
"4025","","image-button-response","251","1709520","0.0-250.0-0.0","A2EAIMII6MSIO5","img_art/25.jpg","5","","","","","","","","","","","","","","","","","","","","","","","","",""
"null","","html-keyboard-response","252","1711024","0.0-251.0","A2EAIMII6MSIO5","<p style=""font-size: 48px;"">+</p>","","","","","null","allTrialResponses","1500","1","29","img_art/25.jpg","26","Minimal, but interesting. I love the use of background color!","Anna,Mariah,Leslie,Briana,Cynthia,Catherine","I love the green and the texture,50,300,20","The proportions are unpleasant.,-30,140,20","I feel like I'm looking at something larger than myself.,30,380,20","Its scary. It looks like someone overlooking hell,-34,400,20","Somewhat feel protected by a messenger,33,320,20","culture, tradition. Village people with an honored elder.,40,160,20","Leslie","I feel like I'm looking at something larger than myself.,30,380,20","Anna","I love the green and the texture,50,300,20","Catherine","culture, tradition. Village people with an honored elder.,40,160,20","2"
"19379","","survey-text","253","1730412","0.0-252.0-0.0","A2EAIMII6MSIO5","","","","{""Q0"":""Love the colors! Do not at all like the white figures""}","","","","","","","","","","","","","","","","","","","","","","",""
"19946.800000190735","","image-slider-response","254","1750362","0.0-253.0","A2EAIMII6MSIO5","","","","","0","","","","","","","","","","","","","","","","","","","","","",""
"null","","image-button-response","255","1755379","0.0-254.0","A2EAIMII6MSIO5","img_art/23.jpg","null","","","","","","","","","","","","","","","","","","","","","","","","",""
"7284","","image-button-response","256","1762666","0.0-255.0","A2EAIMII6MSIO5","img_art/23.jpg","4","","","","","","","","","","","","","","","","","","","","","","","","",""
"1528","","image-button-response","257","1764197","0.0-256.0-0.0","A2EAIMII6MSIO5","img_art/23.jpg","5","","","","","","","","","","","","","","","","","","","","","","","","",""
"1339","","image-button-response","258","1765540","0.0-257.0-0.0","A2EAIMII6MSIO5","img_art/23.jpg","0","","","","","","","","","","","","","","","","","","","","","","","","",""
"null","","html-keyboard-response","259","1766056","0.0-258.0","A2EAIMII6MSIO5","<p style=""font-size: 48px;"">+</p>","","","","","null","allTrialResponses","500","1","30","img_art/23.jpg","0","Love the colors! Do not at all like the white figures","Anna,Madison,Leslie,Kaitlin,Andrea,Catherine","I love the colors and the contrast.,50,300,20","Looks celebratory and joyful! However, the photograph does not do the original work's colors justice.,27,60,20","It reminds me of being in a crowded place.,-10,380,20","i cannot breath in this,-10,60,20","I see souls in torment and that makes me feel uneasy.,-21,240,20","Partying, dancing, delusion, kaus.,10,160,20","Andrea","I see souls in torment and that makes me feel uneasy.,-21,240,20","Catherine","Partying, dancing, delusion, kaus.,10,160,20","Anna","I love the colors and the contrast.,50,300,20","2"
"3060","","image-button-response_instructions","260","1769127","0.0-259.0","A2EAIMII6MSIO5","","0","instructions","","","","","","","","","","","","","","","","","","","","","","","",""
"2468","","image-button-response","261","1771602","0.0-260.0","A2EAIMII6MSIO5","","0","","","","","","","","","","","","","","","","","","","","","","","","",""
