"rt","url","trial_type","trial_index","time_elapsed","internal_node_id","participant_id","stimulus","button_pressed","Name","responses","response","key_press","variableName","fixationTime","condition","trial","photo","subjectRating","subjectResponse","agentsNames","agent_1_Response","agent_2_Response","agent_3_Response","agent_4_Response","agent_5_Response","agent_6_Response","kept_1_name","kept_1_response","kept_2_name","kept_2_response","kept_3_name","kept_3_response","errorCounter"
"21506","external_page_harvard.html","external-html","0","21575","0.0-0.0","A2EK1HDV4I4GSK","","","","","","","","","","","","","","","","","","","","","","","","","","",""
"1568","","image-button-response","1","23145","0.0-1.0","A2EK1HDV4I4GSK","","0","","","","","","","","","","","","","","","","","","","","","","","","",""
"2524","","image-button-response","2","25675","0.0-2.0-0.0","A2EK1HDV4I4GSK","","1","phone","","","","","","","","","","","","","","","","","","","","","","","",""
"22193","","survey-text","3","47871","0.0-3.0-0.0","A2EK1HDV4I4GSK","","","","{""Q0"":""A2EK1HDV4I4GSK""}","","","","","","","","","","","","","","","","","","","","","","",""
"20042","","image-button-response_instructions","4","67915","0.0-4.0","A2EK1HDV4I4GSK","","0","instructions","","","","","","","","","","","","","","","","","","","","","","","",""
"53718","","image-button-response_instructions","5","121635","0.0-5.0","A2EK1HDV4I4GSK","img_art/ins/popularity/ins1.png","0","instructions","","","","","","","","","","","","","","","","","","","","","","","",""
"6175","","image-button-response_instructions","6","127812","0.0-6.0","A2EK1HDV4I4GSK","img_art/ins/popularity/ins2.png","0","instructions","","","","","","","","","","","","","","","","","","","","","","","",""
"9349","","image-button-response_instructions","7","137162","0.0-7.0","A2EK1HDV4I4GSK","img_art/ins/popularity/ins2Extreme.png","0","instructions","","","","","","","","","","","","","","","","","","","","","","","",""
"13769","","image-button-response_instructions","8","150932","0.0-8.0","A2EK1HDV4I4GSK","img_art/ins/popularity/ins3KEEPpop.PNG","0","instructions","","","","","","","","","","","","","","","","","","","","","","","",""
"4461","","image-button-response_instructions","9","155394","0.0-9.0","A2EK1HDV4I4GSK","img_art/ins/popularity/ins3ANamepop.PNG","0","instructions","","","","","","","","","","","","","","","","","","","","","","","",""
"5743","","image-button-response_instructions","10","161138","0.0-10.0","A2EK1HDV4I4GSK","img_art/ins/popularity/ins3ARatingpop.png","0","instructions","","","","","","","","","","","","","","","","","","","","","","","",""
"4613","","image-button-response_instructions","11","165751","0.0-11.0","A2EK1HDV4I4GSK","img_art/ins/popularity/ins3ATextpop.png","0","instructions","","","","","","","","","","","","","","","","","","","","","","","",""
"6033","","image-button-response_instructions","12","171786","0.0-12.0","A2EK1HDV4I4GSK","img_art/ins/popularity/ins3ALikespop.png","0","instructions","","","","","","","","","","","","","","","","","","","","","","","",""
"13338","","image-button-response_instructions","13","185125","0.0-13.0","A2EK1HDV4I4GSK","img_art/ins/popularity/ins3KEEPpop.PNG","0","instructions","","","","","","","","","","","","","","","","","","","","","","","",""
"15980","","image-button-response_instructions","14","201107","0.0-14.0","A2EK1HDV4I4GSK","img_art/ins/popularity/ins3_5RED.png","0","instructions","","","","","","","","","","","","","","","","","","","","","","","",""
"7085","","image-button-response_instructions","15","208194","0.0-15.0","A2EK1HDV4I4GSK","img_art/ins/popularity/ins3KEEPpop.PNG","0","instructions","","","","","","","","","","","","","","","","","","","","","","","",""
"12288","","image-button-response_instructions","16","220484","0.0-16.0","A2EK1HDV4I4GSK","img_art/ins/popularity/ins4KEEPpop.PNG","0","instructions","","","","","","","","","","","","","","","","","","","","","","","",""
"7568","","image-button-response_instructions","17","228054","0.0-17.0","A2EK1HDV4I4GSK","img_art/ins/popularity/ins5KEEPpop.PNG","0","instructions","","","","","","","","","","","","","","","","","","","","","","","",""
"2019","","image-button-response_instructions","18","230074","0.0-18.0","A2EK1HDV4I4GSK","","0","instructions","","","","","","","","","","","","","","","","","","","","","","","",""
"19949","","survey-text","19","250047","0.0-19.0-0.0","A2EK1HDV4I4GSK","","","","{""Q0"":""but""}","","","","","","","","","","","","","","","","","","","","","","",""
"29842","","survey-text","20","279891","0.0-20.0-0.0","A2EK1HDV4I4GSK","","","","{""Q0"":""Looks like a 5 year lods finger painting.""}","","","","","","","","","","","","","","","","","","","","","","",""
"4933.29999999702","","image-slider-response","21","284827","0.0-21.0","A2EK1HDV4I4GSK","","","","","-32","","","","","","","","","","","","","","","","","","","","","",""
"null","","image-button-response","22","289830","0.0-22.0","A2EK1HDV4I4GSK","img_art/ins/1.jpg","null","","","","","","","","","","","","","","","","","","","","","","","","",""
"2565","","image-button-response","23","292398","0.0-23.0","A2EK1HDV4I4GSK","img_art/ins/1.jpg","4","","","","","","","","","","","","","","","","","","","","","","","","",""
"3861","","image-button-response","24","296261","0.0-24.0-0.0","A2EK1HDV4I4GSK","img_art/ins/1.jpg","0","","","","","","","","","","","","","","","","","","","","","","","","",""
"12769","","image-button-response","25","309033","0.0-25.0-0.0","A2EK1HDV4I4GSK","img_art/ins/1.jpg","0","","","","","","","","","","","","","","","","","","","","","","","","",""
"2033","","image-button-response","26","316212","0.0-25.1-0.1","A2EK1HDV4I4GSK","img_art/ins/1.jpg","3","","","","","","","","","","","","","","","","","","","","","","","","",""
"null","","html-keyboard-response","27","317217","0.0-26.0","A2EK1HDV4I4GSK","<p style=""font-size: 48px;"">+</p>","","","","","null","allTrialResponses","1000","1","-2","img_art/ins/1.jpg","-32","Looks like a 5 year lods finger painting.","Adam,Alex,Ben,Carl,Daniel,Jack","Seems like doodles,-20,20,20","very creative work.,36,40,20","This color reminds me of poo,-46,60,20","very calming artwork,42,80,20","It looks like a murder scene.,-48,100,20","I like the sophisticated brushwork,40,120,20","Daniel","It looks like a murder scene.,-48,100,20","Adam","Seems like doodles,-20,20,20","Carl","very calming artwork,42,80,20","2"
"27496","","survey-text","28","344716","0.0-27.0-0.0","A2EK1HDV4I4GSK","","","","{""Q0"":""The artist was high.""}","","","","","","","","","","","","","","","","","","","","","","",""
"3106.39999999851","","image-slider-response","29","347825","0.0-28.0","A2EK1HDV4I4GSK","","","","","-15","","","","","","","","","","","","","","","","","","","","","",""
"null","","image-button-response","30","352828","0.0-29.0","A2EK1HDV4I4GSK","img_art/ins/2.jpg","null","","","","","","","","","","","","","","","","","","","","","","","","",""
"3695","","image-button-response","31","356525","0.0-30.0","A2EK1HDV4I4GSK","img_art/ins/2.jpg","5","","","","","","","","","","","","","","","","","","","","","","","","",""
"2514","","image-button-response","32","359041","0.0-31.0-0.0","A2EK1HDV4I4GSK","img_art/ins/2.jpg","3","","","","","","","","","","","","","","","","","","","","","","","","",""
"1714","","image-button-response","33","360757","0.0-32.0-0.0","A2EK1HDV4I4GSK","img_art/ins/2.jpg","3","","","","","","","","","","","","","","","","","","","","","","","","",""
"2067","","image-button-response","34","365267","0.0-32.1-0.1","A2EK1HDV4I4GSK","img_art/ins/2.jpg","1","","","","","","","","","","","","","","","","","","","","","","","","",""
"null","","html-keyboard-response","35","366773","0.0-33.0","A2EK1HDV4I4GSK","<p style=""font-size: 48px;"">+</p>","","","","","null","allTrialResponses","1500","1","-1","img_art/ins/2.jpg","-15","The artist was high.","Adam,James,John,Carl,Daniel,Kyle","too much color,-18,20,20","looks too angry,-50,140,20","love the texture of paint,48,160,20","I can feel the artist's passion in it,45,80,20","One of my pet peevs,-48,100,20","Idk, it is just annoying,-32,180,20","Kyle","Idk, it is just annoying,-32,180,20","Carl","I can feel the artist's passion in it,45,80,20","James","looks too angry,-50,140,20","4"
"17468","","survey-text","36","384246","0.0-34.0-0.0","A2EK1HDV4I4GSK","","","","{""Q0"":""That's a loof blue.""}","","","","","","","","","","","","","","","","","","","","","","",""
"3634.10000000149","","image-slider-response","37","387882","0.0-35.0","A2EK1HDV4I4GSK","","","","","9","","","","","","","","","","","","","","","","","","","","","",""
"4140","","image-button-response","38","392884","0.0-36.0","A2EK1HDV4I4GSK","img_art/ins/3.jpg","0","","","","","","","","","","","","","","","","","","","","","","","","",""
"2022","","image-button-response","39","394908","0.0-37.0","A2EK1HDV4I4GSK","img_art/ins/3.jpg","2","","","","","","","","","","","","","","","","","","","","","","","","",""
"3716","","image-button-response","40","398626","0.0-38.0-0.0","A2EK1HDV4I4GSK","img_art/ins/3.jpg","5","","","","","","","","","","","","","","","","","","","","","","","","",""
"11147","","image-button-response","41","409776","0.0-39.0-0.0","A2EK1HDV4I4GSK","img_art/ins/3.jpg","0","","","","","","","","","","","","","","","","","","","","","","","","",""
"null","","html-keyboard-response","42","411280","0.0-40.0","A2EK1HDV4I4GSK","<p style=""font-size: 48px;"">+</p>","","","","","null","allTrialResponses","1500","1","0","img_art/ins/3.jpg","9","That's a loof blue.","Mike,James,Sam,Carl,Ron,Kyle","enjoy the different shades of blue,22,200,20","My worst nightmare,-42,140,20","I can feel a rainy day from this painting,18,240,20","It's an alright work,15,80,20","It looks depressing,-26,220,20","It looks like a playground for bats,-36,180,20","Sam","I can feel a rainy day from this painting,18,240,20","Kyle","It looks like a playground for bats,-36,180,20","Mike","enjoy the different shades of blue,22,200,20","4"
"8723","","image-button-response_instructions","43","420008","0.0-41.0","A2EK1HDV4I4GSK","","0","instructions","","","","","","","","","","","","","","","","","","","","","","","",""
"17216","","survey-likert","44","437226","0.0-42.0-0.0","A2EK1HDV4I4GSK","","","","{""Q0"":"""",""Q1"":0,""Q2"":1}","","","","","","","","","","","","","","","","","","","","","","",""
"7129","","survey-text","45","444363","0.0-43.0-0.0","A2EK1HDV4I4GSK","","","","{""Q0"":""rock""}","","","","","","","","","","","","","","","","","","","","","","",""
"28092","","survey-text","46","472457","0.0-44.0-0.0","A2EK1HDV4I4GSK","","","","{""Q0"":""A can of spray paint blew up.""}","","","","","","","","","","","","","","","","","","","","","","",""
"3346.2999999970198","","image-slider-response","47","475805","0.0-45.0","A2EK1HDV4I4GSK","","","","","-5","","","","","","","","","","","","","","","","","","","","","",""
"null","","image-button-response","48","480836","0.0-46.0","A2EK1HDV4I4GSK","img_art/15.jpg","null","","","","","","","","","","","","","","","","","","","","","","","","",""
"9262","","image-button-response","49","490100","0.0-47.0","A2EK1HDV4I4GSK","img_art/15.jpg","4","","","","","","","","","","","","","","","","","","","","","","","","",""
"2154","","image-button-response","50","492256","0.0-48.0-0.0","A2EK1HDV4I4GSK","img_art/15.jpg","5","","","","","","","","","","","","","","","","","","","","","","","","",""
"6421","","image-button-response","51","498679","0.0-49.0-0.0","A2EK1HDV4I4GSK","img_art/15.jpg","2","","","","","","","","","","","","","","","","","","","","","","","","",""
"null","","html-keyboard-response","52","499182","0.0-50.0","A2EK1HDV4I4GSK","<p style=""font-size: 48px;"">+</p>","","","","","null","allTrialResponses","500","1","1","img_art/15.jpg","-5","A can of spray paint blew up.","Spencer,Tanner,Alex,Alejandro,Paul,Samuel","Pretty, like in a field of poppies,19,120,20","darkness, hatred, fear,-29,180,20","Interesting to look at but I don't appreciate the abstraction,2,100,20","The blotted black spots create a nice contrast between the brush strokes within the center and sides. I like it.,41,80,20","I don't feel much of anything when looking at this, it's just a random pattern,1,300,20","Black reminds me of darkness,-18,400,20","Paul","I don't feel much of anything when looking at this, it's just a random pattern,1,300,20","Samuel","Black reminds me of darkness,-18,400,20","Alex","Interesting to look at but I don't appreciate the abstraction,2,100,20","4"
"36031","","survey-text","53","535217","0.0-51.0-0.0","A2EK1HDV4I4GSK","","","","{""Q0"":""Lokks like the artist was having fun.""}","","","","","","","","","","","","","","","","","","","","","","",""
"4436","","image-slider-response","54","539655","0.0-52.0","A2EK1HDV4I4GSK","","","","","29","","","","","","","","","","","","","","","","","","","","","",""
"null","","image-button-response","55","544658","0.0-53.0","A2EK1HDV4I4GSK","img_art/13.jpg","null","","","","","","","","","","","","","","","","","","","","","","","","",""
"5547","","image-button-response","56","550207","0.0-54.0","A2EK1HDV4I4GSK","img_art/13.jpg","4","","","","","","","","","","","","","","","","","","","","","","","","",""
"1037","","image-button-response","57","551247","0.0-55.0-0.0","A2EK1HDV4I4GSK","img_art/13.jpg","4","","","","","","","","","","","","","","","","","","","","","","","","",""
"3428","","image-button-response","58","557145","0.0-55.1-0.1","A2EK1HDV4I4GSK","img_art/13.jpg","5","","","","","","","","","","","","","","","","","","","","","","","","",""
"3129","","image-button-response","59","560277","0.0-56.0-0.0","A2EK1HDV4I4GSK","img_art/13.jpg","0","","","","","","","","","","","","","","","","","","","","","","","","",""
"null","","html-keyboard-response","60","561279","0.0-57.0","A2EK1HDV4I4GSK","<p style=""font-size: 48px;"">+</p>","","","","","null","allTrialResponses","1000","1","2","img_art/13.jpg","29","Lokks like the artist was having fun.","Eric,Ian,Alex,Daniel,Paul,Samuel","I love the style of this piece, but the color choice could've been more eye catching or calming.,40,100,20","This looks like something that could be made off of windows paint, not a huge fan.,-30,260,20","I like the blue colors and the symmetry and paint splatters but I would not hang it in my house,8,100,20","Average overly symmetrical safe,-26,320,20","It's like any other splatter paint art piece, nothing special,1,300,20","eighties here we come,7,400,20","Paul","It's like any other splatter paint art piece, nothing special,1,300,20","Samuel","eighties here we come,7,400,20","Eric","I love the style of this piece, but the color choice could've been more eye catching or calming.,40,100,20","6"
"10841","","survey-text","61","572125","0.0-58.0-0.0","A2EK1HDV4I4GSK","","","","{""Q0"":""Creepy""}","","","","","","","","","","","","","","","","","","","","","","",""
"2561.5","","image-slider-response","62","574688","0.0-59.0","A2EK1HDV4I4GSK","","","","","-43","","","","","","","","","","","","","","","","","","","","","",""
"null","","image-button-response","63","579704","0.0-60.0","A2EK1HDV4I4GSK","img_art/25.jpg","null","","","","","","","","","","","","","","","","","","","","","","","","",""
"2225","","image-button-response","64","581931","0.0-61.0","A2EK1HDV4I4GSK","img_art/25.jpg","2","","","","","","","","","","","","","","","","","","","","","","","","",""
"3458","","image-button-response","65","585391","0.0-62.0-0.0","A2EK1HDV4I4GSK","img_art/25.jpg","4","","","","","","","","","","","","","","","","","","","","","","","","",""
"1751","","image-button-response","66","587145","0.0-63.0-0.0","A2EK1HDV4I4GSK","img_art/25.jpg","5","","","","","","","","","","","","","","","","","","","","","","","","",""
"null","","html-keyboard-response","67","588647","0.0-64.0","A2EK1HDV4I4GSK","<p style=""font-size: 48px;"">+</p>","","","","","null","allTrialResponses","1500","1","3","img_art/25.jpg","-43","Creepy","Eric,Taylor,William,Jason,Paul,Samuel","This piece gives me a lot of questions which I kind of like.,10,100,20","Wish I was that thin.,-5,200,20","makes me think of a scary movie,-20,380,20","Love the simplicity and lines,20,20,20","The skeletal figure is a bit scary,-12,300,20","reminds me of burning man,18,400,20","William","makes me think of a scary movie,-20,380,20","Paul","The skeletal figure is a bit scary,-12,300,20","Samuel","reminds me of burning man,18,400,20","6"
"21136","","survey-text","68","609786","0.0-65.0-0.0","A2EK1HDV4I4GSK","","","","{""Q0"":""Looks simple.""}","","","","","","","","","","","","","","","","","","","","","","",""
"26891.30000000447","","image-slider-response","69","636680","0.0-66.0","A2EK1HDV4I4GSK","","","","","4","","","","","","","","","","","","","","","","","","","","","",""
"null","","image-button-response","70","641691","0.0-67.0","A2EK1HDV4I4GSK","img_art/3.jpg","null","","","","","","","","","","","","","","","","","","","","","","","","",""
"3408","","image-button-response","71","645102","0.0-68.0","A2EK1HDV4I4GSK","img_art/3.jpg","3","","","","","","","","","","","","","","","","","","","","","","","","",""
"2658","","image-button-response","72","647762","0.0-69.0-0.0","A2EK1HDV4I4GSK","img_art/3.jpg","4","","","","","","","","","","","","","","","","","","","","","","","","",""
"2233","","image-button-response","73","649998","0.0-70.0-0.0","A2EK1HDV4I4GSK","img_art/3.jpg","5","","","","","","","","","","","","","","","","","","","","","","","","",""
"null","","html-keyboard-response","74","651509","0.0-71.0","A2EK1HDV4I4GSK","<p style=""font-size: 48px;"">+</p>","","","","","null","allTrialResponses","1500","1","4","img_art/3.jpg","4","Looks simple.","Jared,Derek,William,Colton,Paul,Samuel","scattered and angry,-26,400,20","Looks messy and too much for my eyes,-35,360,20","makes me think of anger,-33,380,20","looks like a kid scribbled with crayon,-35,220,20","It looks like random scribbles by a child and not appealing,-38,300,20","confusing taking over,-15,400,20","Colton","looks like a kid scribbled with crayon,-35,220,20","Paul","It looks like random scribbles by a child and not appealing,-38,300,20","Samuel","confusing taking over,-15,400,20","6"
"43767","","survey-text","75","695279","0.0-72.0-0.0","A2EK1HDV4I4GSK","","","","{""Q0"":""Good for a kids room.""}","","","","","","","","","","","","","","","","","","","","","","",""
"5856.10000000149","","image-slider-response","76","701137","0.0-73.0","A2EK1HDV4I4GSK","","","","","22","","","","","","","","","","","","","","","","","","","","","",""
"null","","image-button-response","77","706147","0.0-74.0","A2EK1HDV4I4GSK","img_art/16.jpg","null","","","","","","","","","","","","","","","","","","","","","","","","",""
"8112","","image-button-response","78","714261","0.0-75.0","A2EK1HDV4I4GSK","img_art/16.jpg","3","","","","","","","","","","","","","","","","","","","","","","","","",""
"2937","","image-button-response","79","717202","0.0-76.0-0.0","A2EK1HDV4I4GSK","img_art/16.jpg","4","","","","","","","","","","","","","","","","","","","","","","","","",""
"4597","","image-button-response","80","721801","0.0-77.0-0.0","A2EK1HDV4I4GSK","img_art/16.jpg","2","","","","","","","","","","","","","","","","","","","","","","","","",""
"null","","html-keyboard-response","81","723304","0.0-78.0","A2EK1HDV4I4GSK","<p style=""font-size: 48px;"">+</p>","","","","","null","allTrialResponses","1500","1","5","img_art/16.jpg","22","Good for a kids room.","John,Adrian,Timothy,Colton,Paul,Samuel","It creeps me out.,-50,120,20","It's depressing. Probably achieved its goal. But I wouldn't want it hanging in my home.,-31,60,20","This feels like images of a painful childhood,-50,240,20","the materials used are interesting,30,220,20","Don't know if there's a meaning but I like how seemingly random objects were stuck together and called art,20,300,20","childhood horror,3,400,20","Colton","the materials used are interesting,30,220,20","Paul","Don't know if there's a meaning but I like how seemingly random objects were stuck together and called art,20,300,20","Timothy","This feels like images of a painful childhood,-50,240,20","6"
"9524","","survey-text","82","732835","0.0-79.0-0.0","A2EK1HDV4I4GSK","","","","{""Q0"":""sky""}","","","","","","","","","","","","","","","","","","","","","","",""
"18574","","survey-text","83","751411","0.0-80.0-0.0","A2EK1HDV4I4GSK","","","","{""Q0"":""Interesting""}","","","","","","","","","","","","","","","","","","","","","","",""
"3018.10000000149","","image-slider-response","84","754431","0.0-81.0","A2EK1HDV4I4GSK","","","","","24","","","","","","","","","","","","","","","","","","","","","",""
"3379","","image-button-response","85","759433","0.0-82.0","A2EK1HDV4I4GSK","img_art/14.jpg","0","","","","","","","","","","","","","","","","","","","","","","","","",""
"3834","","image-button-response","86","763269","0.0-83.0","A2EK1HDV4I4GSK","img_art/14.jpg","3","","","","","","","","","","","","","","","","","","","","","","","","",""
"4798","","image-button-response","87","768069","0.0-84.0-0.0","A2EK1HDV4I4GSK","img_art/14.jpg","1","","","","","","","","","","","","","","","","","","","","","","","","",""
"3861","","image-button-response","88","771933","0.0-85.0-0.0","A2EK1HDV4I4GSK","img_art/14.jpg","0","","","","","","","","","","","","","","","","","","","","","","","","",""
"null","","html-keyboard-response","89","773447","0.0-86.0","A2EK1HDV4I4GSK","<p style=""font-size: 48px;"">+</p>","","","","","null","allTrialResponses","1500","1","6","img_art/14.jpg","24","Interesting","Mark,Andrew,Timothy,Colton,Paul,Jorge","Cute little plant.,15,80,20","Makes me think of my plants growing,11,160,20","Something about the cahotic imagery makes me uncomfortable,-15,240,20","mythical and nature like,37,220,20","Just don't like it, maybe it's the bleeding colors on the left of the tree-looking thing in the center or the faded background,-10,300,20","unsure and dull feeling,-1,180,20","Colton","mythical and nature like,37,220,20","Andrew","Makes me think of my plants growing,11,160,20","Mark","Cute little plant.,15,80,20","6"
"17696","","survey-text","90","791147","0.0-87.0-0.0","A2EK1HDV4I4GSK","","","","{""Q0"":""A single bird.""}","","","","","","","","","","","","","","","","","","","","","","",""
"8784.19999999553","","image-slider-response","91","799933","0.0-88.0","A2EK1HDV4I4GSK","","","","","3","","","","","","","","","","","","","","","","","","","","","",""
"3378","","image-button-response","92","804946","0.0-89.0","A2EK1HDV4I4GSK","img_art/6.jpg","1","","","","","","","","","","","","","","","","","","","","","","","","",""
"5918","","image-button-response","93","810867","0.0-90.0","A2EK1HDV4I4GSK","img_art/6.jpg","2","","","","","","","","","","","","","","","","","","","","","","","","",""
"3083","","image-button-response","94","813954","0.0-91.0-0.0","A2EK1HDV4I4GSK","img_art/6.jpg","5","","","","","","","","","","","","","","","","","","","","","","","","",""
"2393","","image-button-response","95","816349","0.0-92.0-0.0","A2EK1HDV4I4GSK","img_art/6.jpg","1","","","","","","","","","","","","","","","","","","","","","","","","",""
"null","","html-keyboard-response","96","816851","0.0-93.0","A2EK1HDV4I4GSK","<p style=""font-size: 48px;"">+</p>","","","","","null","allTrialResponses","500","1","7","img_art/6.jpg","3","A single bird.","Mark,Andrew,Victor,Colton,Michael,Justin","So forlorn, and beauty amid desolation.,25,80,20","Reminds me of my friend's bird,21,160,20","The background on the upper half is nice. I also like the contrast of the top and bottom halves,5,340,20","very minimalistic,22,220,20","Looks like a kid created it.,-50,140,20","It's alright. I imagined the peach from James and the Giant Peach.,1,280,20","Victor","The background on the upper half is nice. I also like the contrast of the top and bottom halves,5,340,20","Justin","It's alright. I imagined the peach from James and the Giant Peach.,1,280,20","Andrew","Reminds me of my friend's bird,21,160,20","6"
"30262","","survey-text","97","847116","0.0-94.0-0.0","A2EK1HDV4I4GSK","","","","{""Q0"":""A lot going on here.""}","","","","","","","","","","","","","","","","","","","","","","",""
"7272","","image-slider-response","98","854390","0.0-95.0","A2EK1HDV4I4GSK","","","","","33","","","","","","","","","","","","","","","","","","","","","",""
"null","","image-button-response","99","859402","0.0-96.0","A2EK1HDV4I4GSK","img_art/8.jpg","null","","","","","","","","","","","","","","","","","","","","","","","","",""
"2891","","image-button-response","100","862295","0.0-97.0","A2EK1HDV4I4GSK","img_art/8.jpg","0","","","","","","","","","","","","","","","","","","","","","","","","",""
"3290","","image-button-response","101","865587","0.0-98.0-0.0","A2EK1HDV4I4GSK","img_art/8.jpg","2","","","","","","","","","","","","","","","","","","","","","","","","",""
"8288","","image-button-response","102","873877","0.0-99.0-0.0","A2EK1HDV4I4GSK","img_art/8.jpg","4","","","","","","","","","","","","","","","","","","","","","","","","",""
"null","","html-keyboard-response","103","874878","0.0-100.0","A2EK1HDV4I4GSK","<p style=""font-size: 48px;"">+</p>","","","","","null","allTrialResponses","1000","1","8","img_art/8.jpg","33","A lot going on here.","Aaron,Andrew,Victor,Dylan,Nathan,Justin","The shapes and colors work well together.,40,20,20","Looks like it would be an interesting place to live,35,160,20","I like the colors,10,340,20","The colors are nice but the big face in the sky is creepy,-11,40,20","Enjoy this, it looks like a rushing water pool, surrounded by mountains and buildings, hiding details such as faces.,30,200,20","Interesting to look at, there are many things happening in the painting.,32,280,20","Aaron","The shapes and colors work well together.,40,20,20","Victor","I like the colors,10,340,20","Nathan","Enjoy this, it looks like a rushing water pool, surrounded by mountains and buildings, hiding details such as faces.,30,200,20","6"
"16524","","survey-text","104","891406","0.0-101.0-0.0","A2EK1HDV4I4GSK","","","","{""Q0"":""Spooky ghost town.""}","","","","","","","","","","","","","","","","","","","","","","",""
"7774.20000000298","","image-slider-response","105","899182","0.0-102.0","A2EK1HDV4I4GSK","","","","","35","","","","","","","","","","","","","","","","","","","","","",""
"null","","image-button-response","106","904185","0.0-103.0","A2EK1HDV4I4GSK","img_art/20.jpg","null","","","","","","","","","","","","","","","","","","","","","","","","",""
"4041","","image-button-response","107","908228","0.0-104.0","A2EK1HDV4I4GSK","img_art/20.jpg","2","","","","","","","","","","","","","","","","","","","","","","","","",""
"3580","","image-button-response","108","911810","0.0-105.0-0.0","A2EK1HDV4I4GSK","img_art/20.jpg","3","","","","","","","","","","","","","","","","","","","","","","","","",""
"2310","","image-button-response","109","914124","0.0-106.0-0.0","A2EK1HDV4I4GSK","img_art/20.jpg","5","","","","","","","","","","","","","","","","","","","","","","","","",""
"null","","html-keyboard-response","110","915627","0.0-107.0","A2EK1HDV4I4GSK","<p style=""font-size: 48px;"">+</p>","","","","","null","allTrialResponses","1500","1","9","img_art/20.jpg","35","Spooky ghost town.","Aaron,Jonathan,Victor,Shawn,Nathan,Devon","I would like it more without the frame.,10,20,20","This one feels scary in a bad way,-30,140,20","sort of pleasant to look at, but can't tell if it's supposed to be something,13,340,20","Mood setting if a little dreary,20,100,20","Don't really like the subject it focuses on, however the color usage is great,-10,200,20","i can feel the intensity in this,11,400,20","Victor","sort of pleasant to look at, but can't tell if it's supposed to be something,13,340,20","Shawn","Mood setting if a little dreary,20,100,20","Devon","i can feel the intensity in this,11,400,20","6"
"34164","","survey-text","111","949796","0.0-108.0-0.0","A2EK1HDV4I4GSK","","","","{""Q0"":""Very simple.""}","","","","","","","","","","","","","","","","","","","","","","",""
"3507.5","","image-slider-response","112","953305","0.0-109.0","A2EK1HDV4I4GSK","","","","","-27","","","","","","","","","","","","","","","","","","","","","",""
"null","","image-button-response","113","958308","0.0-110.0","A2EK1HDV4I4GSK","img_art/4.jpg","null","","","","","","","","","","","","","","","","","","","","","","","","",""
"3704","","image-button-response","114","962014","0.0-111.0","A2EK1HDV4I4GSK","img_art/4.jpg","3","","","","","","","","","","","","","","","","","","","","","","","","",""
"2282","","image-button-response","115","964298","0.0-112.0-0.0","A2EK1HDV4I4GSK","img_art/4.jpg","4","","","","","","","","","","","","","","","","","","","","","","","","",""
"9456","","image-button-response","116","973756","0.0-113.0-0.0","A2EK1HDV4I4GSK","img_art/4.jpg","0","","","","","","","","","","","","","","","","","","","","","","","","",""
"null","","html-keyboard-response","117","974257","0.0-114.0","A2EK1HDV4I4GSK","<p style=""font-size: 48px;"">+</p>","","","","","null","allTrialResponses","500","1","10","img_art/4.jpg","-27","Very simple.","Marcus,Jesus,Victor,Shawn,Malik,Devon","Really like the colors, but don't like the object/squiggle in darker gold and black,4,60,20","I don't enjoy the colors, or texture, it seems like mustard,-23,100,20","Hate the color, and just do not get the point.,-13,340,20","Great movement but don't love the yellowy tones.,31,100,20","Reminds me of late night frustrated paintings of my own made of coffee,12,40,20","heart symbol - this tells a story of hidden love,30,400,20","Shawn","Great movement but don't love the yellowy tones.,31,100,20","Malik","Reminds me of late night frustrated paintings of my own made of coffee,12,40,20","Marcus","Really like the colors, but don't like the object/squiggle in darker gold and black,4,60,20","6"
"5427","","survey-text","118","979691","0.0-115.0-0.0","A2EK1HDV4I4GSK","","","","{""Q0"":""our""}","","","","","","","","","","","","","","","","","","","","","","",""
"63407","","survey-text","119","1043100","0.0-116.0-0.0","A2EK1HDV4I4GSK","","","","{""Q0"":""Scary school bus.""}","","","","","","","","","","","","","","","","","","","","","","",""
"2866.10000000149","","image-slider-response","120","1045968","0.0-117.0","A2EK1HDV4I4GSK","","","","","2","","","","","","","","","","","","","","","","","","","","","",""
"2642","","image-button-response","121","1050971","0.0-118.0","A2EK1HDV4I4GSK","img_art/10.jpg","0","","","","","","","","","","","","","","","","","","","","","","","","",""
"868","","image-button-response","122","1051841","0.0-119.0","A2EK1HDV4I4GSK","img_art/10.jpg","0","","","","","","","","","","","","","","","","","","","","","","","","",""
"8886","","image-button-response","123","1060729","0.0-120.0-0.0","A2EK1HDV4I4GSK","img_art/10.jpg","3","","","","","","","","","","","","","","","","","","","","","","","","",""
"1072","","image-button-response","124","1061803","0.0-121.0-0.0","A2EK1HDV4I4GSK","img_art/10.jpg","4","","","","","","","","","","","","","","","","","","","","","","","","",""
"null","","html-keyboard-response","125","1062805","0.0-122.0","A2EK1HDV4I4GSK","<p style=""font-size: 48px;"">+</p>","","","","","null","allTrialResponses","1000","1","11","img_art/10.jpg","2","Scary school bus.","Marcus,Elijah,Joshua,Shawn,Malik,Hunter","This makes me think of a city, specifically London.,20,60,20","Makes me feel amazed,23,80,20","This one is interesting. I like it.,11,240,20","Don't like the colorblock but the lines are nice,-20,100,20","Good texture, expressive,18,40,20","shapes are appealing/relationship between the beige square and the black lines,24,240,20","Marcus","This makes me think of a city, specifically London.,20,60,20","Shawn","Don't like the colorblock but the lines are nice,-20,100,20","Malik","Good texture, expressive,18,40,20","6"
"33105","","survey-text","126","1095916","0.0-123.0-0.0","A2EK1HDV4I4GSK","","","","{""Q0"":""Gloomy lighthouse.""}","","","","","","","","","","","","","","","","","","","","","","",""
"4788.10000000149","","image-slider-response","127","1100706","0.0-124.0","A2EK1HDV4I4GSK","","","","","17","","","","","","","","","","","","","","","","","","","","","",""
"null","","image-button-response","128","1105708","0.0-125.0","A2EK1HDV4I4GSK","img_art/21.jpg","null","","","","","","","","","","","","","","","","","","","","","","","","",""
"548","","image-button-response","129","1106258","0.0-126.0","A2EK1HDV4I4GSK","img_art/21.jpg","2","","","","","","","","","","","","","","","","","","","","","","","","",""
"2426","","image-button-response","130","1108686","0.0-127.0-0.0","A2EK1HDV4I4GSK","img_art/21.jpg","3","","","","","","","","","","","","","","","","","","","","","","","","",""
"2231","","image-button-response","131","1110920","0.0-128.0-0.0","A2EK1HDV4I4GSK","img_art/21.jpg","4","","","","","","","","","","","","","","","","","","","","","","","","",""
"null","","html-keyboard-response","132","1111422","0.0-129.0","A2EK1HDV4I4GSK","<p style=""font-size: 48px;"">+</p>","","","","","null","allTrialResponses","500","1","12","img_art/21.jpg","17","Gloomy lighthouse.","Marcus,Austin,Zachary,Shawn,Malik,Vincent","I feel like I'm looking at two different paintings mashed together in the middle.,20,60,20","Touches the heart,50,240,20","Looks like a body of water during a sunset. I like this piece.,21,400,20","Lovely colors and emotive effects. Turner-esque in a not-so derivative way.,44,100,20","Indistinct, but beautiful hues,10,40,20","Love the colors have to say this is my favorite above all,37,360,20","Zachary","Looks like a body of water during a sunset. I like this piece.,21,400,20","Shawn","Lovely colors and emotive effects. Turner-esque in a not-so derivative way.,44,100,20","Malik","Indistinct, but beautiful hues,10,40,20","6"
"53996","","survey-text","133","1165421","0.0-130.0-0.0","A2EK1HDV4I4GSK","","","","{""Q0"":""A lot af wires.""}","","","","","","","","","","","","","","","","","","","","","","",""
"3196.5","","image-slider-response","134","1168619","0.0-131.0","A2EK1HDV4I4GSK","","","","","-17","","","","","","","","","","","","","","","","","","","","","",""
"3266","","image-button-response","135","1173622","0.0-132.0","A2EK1HDV4I4GSK","img_art/11.jpg","0","","","","","","","","","","","","","","","","","","","","","","","","",""
"2222","","image-button-response","136","1175846","0.0-133.0","A2EK1HDV4I4GSK","img_art/11.jpg","2","","","","","","","","","","","","","","","","","","","","","","","","",""
"5118","","image-button-response","137","1180966","0.0-134.0-0.0","A2EK1HDV4I4GSK","img_art/11.jpg","4","","","","","","","","","","","","","","","","","","","","","","","","",""
"6180","","image-button-response","138","1187148","0.0-135.0-0.0","A2EK1HDV4I4GSK","img_art/11.jpg","0","","","","","","","","","","","","","","","","","","","","","","","","",""
"null","","html-keyboard-response","139","1188150","0.0-136.0","A2EK1HDV4I4GSK","<p style=""font-size: 48px;"">+</p>","","","","","null","allTrialResponses","1000","1","13","img_art/11.jpg","-17","A lot af wires.","Charles,Jeremy,Zachary,Shawn,Malik,Ryan","It's cables in a city,21,100,20","gave me a sense of gloom,-21,60,20","Makes me think of a futuristic scene of vehicles flying in the sky in a city.,36,400,20","Like the movement but not the background colors.,21,100,20","I want to know which skyline the artist is depicting,26,40,20","It makes me feel angry and overwhelmed,-29,380,20","Zachary","Makes me think of a futuristic scene of vehicles flying in the sky in a city.,36,400,20","Malik","I want to know which skyline the artist is depicting,26,40,20","Charles","It's cables in a city,21,100,20","6"
"45371","","survey-text","140","1233525","0.0-137.0-0.0","A2EK1HDV4I4GSK","","","","{""Q0"":""Fiery sunset.""}","","","","","","","","","","","","","","","","","","","","","","",""
"6706.39999999851","","image-slider-response","141","1240234","0.0-138.0","A2EK1HDV4I4GSK","","","","","12","","","","","","","","","","","","","","","","","","","","","",""
"null","","image-button-response","142","1245238","0.0-139.0","A2EK1HDV4I4GSK","img_art/22.jpg","null","","","","","","","","","","","","","","","","","","","","","","","","",""
"2068","","image-button-response","143","1247308","0.0-140.0","A2EK1HDV4I4GSK","img_art/22.jpg","2","","","","","","","","","","","","","","","","","","","","","","","","",""
"3172","","image-button-response","144","1250482","0.0-141.0-0.0","A2EK1HDV4I4GSK","img_art/22.jpg","4","","","","","","","","","","","","","","","","","","","","","","","","",""
"1344","","image-button-response","145","1251828","0.0-142.0-0.0","A2EK1HDV4I4GSK","img_art/22.jpg","5","","","","","","","","","","","","","","","","","","","","","","","","",""
"null","","html-keyboard-response","146","1253331","0.0-143.0","A2EK1HDV4I4GSK","<p style=""font-size: 48px;"">+</p>","","","","","null","allTrialResponses","1500","1","14","img_art/22.jpg","12","Fiery sunset.","Charles,Christian,Zachary,Alexis,Malik,Devin","I like the key near the sphere in the center,19,100,20","colorful water (in front of castle?),17,140,20","I like the vivid colors.,11,400,20","Neither like nor dislike it. The red, yellow and blue colors are bright but I don't know what it's meant to be.,1,140,20","Beautiful forms, using color to define shape,14,40,20","I really like the colors here,3,380,20","Zachary","I like the vivid colors.,11,400,20","Malik","Beautiful forms, using color to define shape,14,40,20","Devin","I really like the colors here,3,380,20","6"
"39900","","survey-text","147","1293235","0.0-144.0-0.0","A2EK1HDV4I4GSK","","","","{""Q0"":""Old time jousting.""}","","","","","","","","","","","","","","","","","","","","","","",""
"3202","","image-slider-response","148","1296439","0.0-145.0","A2EK1HDV4I4GSK","","","","","37","","","","","","","","","","","","","","","","","","","","","",""
"null","","image-button-response","149","1301441","0.0-146.0","A2EK1HDV4I4GSK","img_art/18.jpg","null","","","","","","","","","","","","","","","","","","","","","","","","",""
"181","","image-button-response","150","1301623","0.0-147.0","A2EK1HDV4I4GSK","img_art/18.jpg","3","","","","","","","","","","","","","","","","","","","","","","","","",""
"1141","","image-button-response","151","1302768","0.0-148.0-0.0","A2EK1HDV4I4GSK","img_art/18.jpg","4","","","","","","","","","","","","","","","","","","","","","","","","",""
"2089","","image-button-response","152","1304860","0.0-149.0-0.0","A2EK1HDV4I4GSK","img_art/18.jpg","5","","","","","","","","","","","","","","","","","","","","","","","","",""
"null","","html-keyboard-response","153","1305861","0.0-150.0","A2EK1HDV4I4GSK","<p style=""font-size: 48px;"">+</p>","","","","","null","allTrialResponses","1000","1","15","img_art/18.jpg","37","Old time jousting.","Patrick,Stephen,Zachary,Kevin,Malik,Devin","Too abstract and swirly,-21,280,20","Too abstract to me,-30,140,20","This one seems rather ghoulish to me.,-41,400,20","Pirate ship in stormy seas before it sank.,11,320,20","Gently chaotic and beautiful,40,40,20","Good concept but then scribbled on a bit?,15,380,20","Kevin","Pirate ship in stormy seas before it sank.,11,320,20","Malik","Gently chaotic and beautiful,40,40,20","Devin","Good concept but then scribbled on a bit?,15,380,20","6"
"16131","","survey-text","154","1322001","0.0-151.0-0.0","A2EK1HDV4I4GSK","","","","{""Q0"":""course""}","","","","","","","","","","","","","","","","","","","","","","",""
"33718","","survey-text","155","1355721","0.0-152.0-0.0","A2EK1HDV4I4GSK","","","","{""Q0"":""Busy little town.""}","","","","","","","","","","","","","","","","","","","","","","",""
"3346.39999999851","","image-slider-response","156","1359068","0.0-153.0","A2EK1HDV4I4GSK","","","","","26","","","","","","","","","","","","","","","","","","","","","",""
"null","","image-button-response","157","1364070","0.0-154.0","A2EK1HDV4I4GSK","img_art/19.jpg","null","","","","","","","","","","","","","","","","","","","","","","","","",""
"967","","image-button-response","158","1365039","0.0-155.0","A2EK1HDV4I4GSK","img_art/19.jpg","2","","","","","","","","","","","","","","","","","","","","","","","","",""
"2104","","image-button-response","159","1367145","0.0-156.0-0.0","A2EK1HDV4I4GSK","img_art/19.jpg","3","","","","","","","","","","","","","","","","","","","","","","","","",""
"2547","","image-button-response","160","1369694","0.0-157.0-0.0","A2EK1HDV4I4GSK","img_art/19.jpg","4","","","","","","","","","","","","","","","","","","","","","","","","",""
"null","","html-keyboard-response","161","1371199","0.0-158.0","A2EK1HDV4I4GSK","<p style=""font-size: 48px;"">+</p>","","","","","null","allTrialResponses","1500","1","16","img_art/19.jpg","26","Busy little town.","Jake,Garrett,Logan,Kevin,Malik,Devin","This is like an ugly version of a Basquiat.,-24,360,20","This looks like a bunch of weird blobs and the colors don't go great together.,-10,180,20","this flow I just really like how everything blends but also doesn't,45,360,20","Thats a lazy town,-8,320,20","Very dreamlike,26,40,20","Looks a bit too loose,-2,380,20","Logan","this flow I just really like how everything blends but also doesn't,45,360,20","Kevin","Thats a lazy town,-8,320,20","Malik","Very dreamlike,26,40,20","6"
"23861","","survey-text","162","1395064","0.0-159.0-0.0","A2EK1HDV4I4GSK","","","","{""Q0"":""Someone was having fun.""}","","","","","","","","","","","","","","","","","","","","","","",""
"5094","","image-slider-response","163","1400160","0.0-160.0","A2EK1HDV4I4GSK","","","","","42","","","","","","","","","","","","","","","","","","","","","",""
"2722","","image-button-response","164","1405163","0.0-161.0","A2EK1HDV4I4GSK","img_art/1.jpg","1","","","","","","","","","","","","","","","","","","","","","","","","",""
"6508","","image-button-response","165","1411673","0.0-162.0","A2EK1HDV4I4GSK","img_art/1.jpg","5","","","","","","","","","","","","","","","","","","","","","","","","",""
"2668","","image-button-response","166","1414342","0.0-163.0-0.0","A2EK1HDV4I4GSK","img_art/1.jpg","2","","","","","","","","","","","","","","","","","","","","","","","","",""
"2625","","image-button-response","167","1416970","0.0-164.0-0.0","A2EK1HDV4I4GSK","img_art/1.jpg","1","","","","","","","","","","","","","","","","","","","","","","","","",""
"null","","html-keyboard-response","168","1417973","0.0-165.0","A2EK1HDV4I4GSK","<p style=""font-size: 48px;"">+</p>","","","","","null","allTrialResponses","1000","1","17","img_art/1.jpg","42","Someone was having fun.","Brett,Kenneth,Logan,Kevin,Malik,Bryan","I don't know how I feel about this,1,360,20","I love colorful photos and I like this one a lot.,25,300,20","looks like an earlier painting. I wish I gave it -20 but oh well,21,360,20","I cant make anything of this one.,-7,320,20","Vague and directionless,-14,40,20","Again, like the colors & abstractness.,29,400,20","Bryan","Again, like the colors & abstractness.,29,400,20","Logan","looks like an earlier painting. I wish I gave it -20 but oh well,21,360,20","Kenneth","I love colorful photos and I like this one a lot.,25,300,20","6"
"19608","","survey-text","169","1437586","0.0-166.0-0.0","A2EK1HDV4I4GSK","","","","{""Q0"":""Life in the desert.""}","","","","","","","","","","","","","","","","","","","","","","",""
"3488.10000000149","","image-slider-response","170","1441076","0.0-167.0","A2EK1HDV4I4GSK","","","","","-9","","","","","","","","","","","","","","","","","","","","","",""
"1920","","image-button-response","171","1446078","0.0-168.0","A2EK1HDV4I4GSK","img_art/7.jpg","0","","","","","","","","","","","","","","","","","","","","","","","","",""
"772","","image-button-response","172","1446852","0.0-169.0","A2EK1HDV4I4GSK","img_art/7.jpg","2","","","","","","","","","","","","","","","","","","","","","","","","",""
"1559","","image-button-response","173","1448414","0.0-170.0-0.0","A2EK1HDV4I4GSK","img_art/7.jpg","0","","","","","","","","","","","","","","","","","","","","","","","","",""
"6320","","image-button-response","174","1454737","0.0-171.0-0.0","A2EK1HDV4I4GSK","img_art/7.jpg","4","","","","","","","","","","","","","","","","","","","","","","","","",""
"null","","html-keyboard-response","175","1456238","0.0-172.0","A2EK1HDV4I4GSK","<p style=""font-size: 48px;"">+</p>","","","","","null","allTrialResponses","1500","1","18","img_art/7.jpg","-9","Life in the desert.","Peter,Kenneth,Logan,Jose,Richard,Bryan","It's just like sand from the beach,2,320,20","My firs thought was ""gross""...not sure what this is and I dont think i want to know.,-19,300,20","mars also crunchy leaves maybe a beehive,32,360,20","Reminds me of bugs, I hate bugs,-7,200,20","looks like wallpaper,-6,340,20","Makes me itch - looks like a closeup of an ant colony or something.,-1,400,20","Logan","mars also crunchy leaves maybe a beehive,32,360,20","Peter","It's just like sand from the beach,2,320,20","Richard","looks like wallpaper,-6,340,20","6"
"35415","","survey-text","176","1491657","0.0-173.0-0.0","A2EK1HDV4I4GSK","","","","{""Q0"":""Someone fell asleep on the couch.""}","","","","","","","","","","","","","","","","","","","","","","",""
"2978.2999999970198","","image-slider-response","177","1494637","0.0-174.0","A2EK1HDV4I4GSK","","","","","-31","","","","","","","","","","","","","","","","","","","","","",""
"null","","image-button-response","178","1499647","0.0-175.0","A2EK1HDV4I4GSK","img_art/9.jpg","null","","","","","","","","","","","","","","","","","","","","","","","","",""
"629","","image-button-response","179","1500277","0.0-176.0","A2EK1HDV4I4GSK","img_art/9.jpg","2","","","","","","","","","","","","","","","","","","","","","","","","",""
"4197","","image-button-response","180","1504476","0.0-177.0-0.0","A2EK1HDV4I4GSK","img_art/9.jpg","4","","","","","","","","","","","","","","","","","","","","","","","","",""
"1511","","image-button-response","181","1505990","0.0-178.0-0.0","A2EK1HDV4I4GSK","img_art/9.jpg","5","","","","","","","","","","","","","","","","","","","","","","","","",""
"null","","html-keyboard-response","182","1507491","0.0-179.0","A2EK1HDV4I4GSK","<p style=""font-size: 48px;"">+</p>","","","","","null","allTrialResponses","1500","1","19","img_art/9.jpg","-31","Someone fell asleep on the couch.","Peter,Kyle,Logan,Alexander,Richard,Jack","Looks like a monster's teeth , unsettling,-18,320,20","I like abstract art that looks that there is more than random brush strokes. This one looks the former,10,340,20","is that sleeping beauty,33,360,20","The mouth of an ugly beast.,-25,120,20","looks like an imitation of a real piece of art, reclining lady,-1,340,20","gorgeous colors, love the little details,42,320,20","Logan","is that sleeping beauty,33,360,20","Richard","looks like an imitation of a real piece of art, reclining lady,-1,340,20","Jack","gorgeous colors, love the little details,42,320,20","6"
"36535","","survey-text","183","1544031","0.0-180.0-0.0","A2EK1HDV4I4GSK","","","","{""Q0"":""Quiet little town.""}","","","","","","","","","","","","","","","","","","","","","","",""
"8347.70000000298","","image-slider-response","184","1552380","0.0-181.0","A2EK1HDV4I4GSK","","","","","31","","","","","","","","","","","","","","","","","","","","","",""
"2314","","image-button-response","185","1557382","0.0-182.0","A2EK1HDV4I4GSK","img_art/26.jpg","0","","","","","","","","","","","","","","","","","","","","","","","","",""
"5556","","image-button-response","186","1562941","0.0-183.0","A2EK1HDV4I4GSK","img_art/26.jpg","3","","","","","","","","","","","","","","","","","","","","","","","","",""
"4085","","image-button-response","187","1567029","0.0-184.0-0.0","A2EK1HDV4I4GSK","img_art/26.jpg","0","","","","","","","","","","","","","","","","","","","","","","","","",""
"3652","","image-button-response","188","1570683","0.0-185.0-0.0","A2EK1HDV4I4GSK","img_art/26.jpg","4","","","","","","","","","","","","","","","","","","","","","","","","",""
"null","","html-keyboard-response","189","1571185","0.0-186.0","A2EK1HDV4I4GSK","<p style=""font-size: 48px;"">+</p>","","","","","null","allTrialResponses","500","1","20","img_art/26.jpg","31","Quiet little town.","Mason,Edward,Logan,Evan,Richard,Jack","I like the simple watercolor colors, makes my mind work, thumbs up.,27,100,20","Elevator art but the watercolors are good,29,60,20","I really love pastels and they're just being dimmed down too much here,-3,360,20","It feels simple and pretty,12,140,20","subtle use of colors, city street view?,8,340,20","soft colors & brush work. very easy to look at. makes me happy.,50,320,20","Evan","It feels simple and pretty,12,140,20","Mason","I like the simple watercolor colors, makes my mind work, thumbs up.,27,100,20","Richard","subtle use of colors, city street view?,8,340,20","6"
"4896","","survey-text","190","1576090","0.0-187.0-0.0","A2EK1HDV4I4GSK","","","","{""Q0"":""we""}","","","","","","","","","","","","","","","","","","","","","","",""
"47613","","survey-text","191","1623704","0.0-188.0-0.0","A2EK1HDV4I4GSK","","","","{""Q0"":""That is a lot of angles.""}","","","","","","","","","","","","","","","","","","","","","","",""
"3713.89999999851","","image-slider-response","192","1627420","0.0-189.0","A2EK1HDV4I4GSK","","","","","7","","","","","","","","","","","","","","","","","","","","","",""
"4463","","image-button-response","193","1632434","0.0-190.0","A2EK1HDV4I4GSK","img_art/12.jpg","0","","","","","","","","","","","","","","","","","","","","","","","","",""
"1708","","image-button-response","194","1634144","0.0-191.0","A2EK1HDV4I4GSK","img_art/12.jpg","0","","","","","","","","","","","","","","","","","","","","","","","","",""
"5278","","image-button-response","195","1639424","0.0-192.0-0.0","A2EK1HDV4I4GSK","img_art/12.jpg","3","","","","","","","","","","","","","","","","","","","","","","","","",""
"2047","","image-button-response","196","1641475","0.0-193.0-0.0","A2EK1HDV4I4GSK","img_art/12.jpg","5","","","","","","","","","","","","","","","","","","","","","","","","",""
"null","","html-keyboard-response","197","1641977","0.0-194.0","A2EK1HDV4I4GSK","<p style=""font-size: 48px;"">+</p>","","","","","null","allTrialResponses","500","1","21","img_art/12.jpg","7","That is a lot of angles.","Mason,Brendan,Cody,Evan,Richard,Jacob","it's ok, but blocky, looks old.,3,100,20","wtf is that i dont get it,-50,340,20","Pretty but not a huge fan of the colors,20,180,20","It reminds me of the documentary Paris is Burning, though I'm not sure why,11,140,20","seems too dark on top and too common on the bottom,-19,340,20","I like this concept.,11,340,20","Mason","it's ok, but blocky, looks old.,3,100,20","Evan","It reminds me of the documentary Paris is Burning, though I'm not sure why,11,140,20","Jacob","I like this concept.,11,340,20","6"
"28474","","survey-text","198","1670457","0.0-195.0-0.0","A2EK1HDV4I4GSK","","","","{""Q0"":""A""}","","","","","","","","","","","","","","","","","","","","","","",""
"9443","","survey-text","199","1690614","0.0-195.1-0.1","A2EK1HDV4I4GSK","","","","{""Q0"":""Angry horse.""}","","","","","","","","","","","","","","","","","","","","","","",""
"3066.0999999940395","","image-slider-response","200","1693682","0.0-196.0","A2EK1HDV4I4GSK","","","","","23","","","","","","","","","","","","","","","","","","","","","",""
"3685","","image-button-response","201","1698683","0.0-197.0","A2EK1HDV4I4GSK","img_art/30.jpg","1","","","","","","","","","","","","","","","","","","","","","","","","",""
"687","","image-button-response","202","1699372","0.0-198.0","A2EK1HDV4I4GSK","img_art/30.jpg","1","","","","","","","","","","","","","","","","","","","","","","","","",""
"3556","","image-button-response","203","1702929","0.0-199.0-0.0","A2EK1HDV4I4GSK","img_art/30.jpg","0","","","","","","","","","","","","","","","","","","","","","","","","",""
"3058","","image-button-response","204","1705990","0.0-200.0-0.0","A2EK1HDV4I4GSK","img_art/30.jpg","3","","","","","","","","","","","","","","","","","","","","","","","","",""
"null","","html-keyboard-response","205","1706992","0.0-201.0","A2EK1HDV4I4GSK","<p style=""font-size: 48px;"">+</p>","","","","","null","allTrialResponses","1000","1","22","img_art/30.jpg","23","Angry horse.","Mason,David,Dakota,Evan,Travis,Jacob","Neat, but simple, I could make this. not skilled.,9,100,20","I like how the strokes invokes a sense of fluidity.,20,340,20","sloppy, unintentional,-20,280,20","I really like the broad and colorful strokes,21,140,20","I didn't like this...it looks like someone just finger painted it.,-10,260,20","Looks cool , but no meaning,1,340,20","David","I like how the strokes invokes a sense of fluidity.,20,340,20","Mason","Neat, but simple, I could make this. not skilled.,9,100,20","Evan","I really like the broad and colorful strokes,21,140,20","6"
"35963","","survey-text","206","1742959","0.0-202.0-0.0","A2EK1HDV4I4GSK","","","","{""Q0"":""Hurry up and wait.""}","","","","","","","","","","","","","","","","","","","","","","",""
"2770.0999999940395","","image-slider-response","207","1745731","0.0-203.0","A2EK1HDV4I4GSK","","","","","-21","","","","","","","","","","","","","","","","","","","","","",""
"null","","image-button-response","208","1750734","0.0-204.0","A2EK1HDV4I4GSK","img_art/23.jpg","null","","","","","","","","","","","","","","","","","","","","","","","","",""
"5231","","image-button-response","209","1755966","0.0-205.0","A2EK1HDV4I4GSK","img_art/23.jpg","4","","","","","","","","","","","","","","","","","","","","","","","","",""
"5560","","image-button-response","210","1761527","0.0-206.0-0.0","A2EK1HDV4I4GSK","img_art/23.jpg","1","","","","","","","","","","","","","","","","","","","","","","","","",""
"901","","image-button-response","211","1762431","0.0-207.0-0.0","A2EK1HDV4I4GSK","img_art/23.jpg","2","","","","","","","","","","","","","","","","","","","","","","","","",""
"null","","html-keyboard-response","212","1763935","0.0-208.0","A2EK1HDV4I4GSK","<p style=""font-size: 48px;"">+</p>","","","","","null","allTrialResponses","1500","1","23","img_art/23.jpg","-21","Hurry up and wait.","Mason,David,Mitchell,Evan,Anthony,Trevor","No reactions, childish.,-19,100,20","I like the symmetrical design and how it portrays the liveliness of a musical environment.,30,340,20","Partying, dancing, delusion, kaus.,10,180,20","It feels exciting,23,140,20","The cluster of white silhouettes against the colorful background makes me feel uneasy for some reason,-36,200,20","nice bright colors but looks like it's from the 90's,6,280,20","Anthony","The cluster of white silhouettes against the colorful background makes me feel uneasy for some reason,-36,200,20","David","I like the symmetrical design and how it portrays the liveliness of a musical environment.,30,340,20","Mitchell","Partying, dancing, delusion, kaus.,10,180,20","6"
"37344","","survey-text","213","1801284","0.0-209.0-0.0","A2EK1HDV4I4GSK","","","","{""Q0"":""Empty wheel chair waiting for someone.""}","","","","","","","","","","","","","","","","","","","","","","",""
"3481.89999999851","","image-slider-response","214","1804768","0.0-210.0","A2EK1HDV4I4GSK","","","","","2","","","","","","","","","","","","","","","","","","","","","",""
"4429","","image-button-response","215","1809777","0.0-211.0","A2EK1HDV4I4GSK","img_art/28.jpg","1","","","","","","","","","","","","","","","","","","","","","","","","",""
"2284","","image-button-response","216","1812063","0.0-212.0","A2EK1HDV4I4GSK","img_art/28.jpg","1","","","","","","","","","","","","","","","","","","","","","","","","",""
"1336","","image-button-response","217","1813401","0.0-213.0-0.0","A2EK1HDV4I4GSK","img_art/28.jpg","1","","","","","","","","","","","","","","","","","","","","","","","","",""
"2435","","image-button-response","218","1818841","0.0-213.1-0.1","A2EK1HDV4I4GSK","img_art/28.jpg","3","","","","","","","","","","","","","","","","","","","","","","","","",""
"3482","","image-button-response","219","1822325","0.0-214.0-0.0","A2EK1HDV4I4GSK","img_art/28.jpg","5","","","","","","","","","","","","","","","","","","","","","","","","",""
"null","","html-keyboard-response","220","1823327","0.0-215.0","A2EK1HDV4I4GSK","<p style=""font-size: 48px;"">+</p>","","","","","null","allTrialResponses","1000","1","24","img_art/28.jpg","2","Empty wheel chair waiting for someone.","Brian,David,Mitchell,Noah,Anthony,Blake","the people kind of scare me in this one,-15,380,20","I feel that the image is invoking a sense of negativity.,-15,340,20","A mom protecting her child because something scary, (perhaps imaginary) wants to take the child.,-10,180,20","I want to like it, but I'm not really sure what to make of it,2,260,20","This picture doesn't really stand out to me,1,200,20","an old woman in a wheelchair. sad,-35,280,20","David","I feel that the image is invoking a sense of negativity.,-15,340,20","Noah","I want to like it, but I'm not really sure what to make of it,2,260,20","Blake","an old woman in a wheelchair. sad,-35,280,20","8"
"31799","","survey-text","221","1855131","0.0-216.0-0.0","A2EK1HDV4I4GSK","","","","{""Q0"":""A child walking to school.""}","","","","","","","","","","","","","","","","","","","","","","",""
"3394.10000000149","","image-slider-response","222","1858527","0.0-217.0","A2EK1HDV4I4GSK","","","","","22","","","","","","","","","","","","","","","","","","","","","",""
"null","","image-button-response","223","1863529","0.0-218.0","A2EK1HDV4I4GSK","img_art/2.jpg","null","","","","","","","","","","","","","","","","","","","","","","","","",""
"948","","image-button-response","224","1864479","0.0-219.0","A2EK1HDV4I4GSK","img_art/2.jpg","3","","","","","","","","","","","","","","","","","","","","","","","","",""
"5904","","image-button-response","225","1870385","0.0-220.0-0.0","A2EK1HDV4I4GSK","img_art/2.jpg","0","","","","","","","","","","","","","","","","","","","","","","","","",""
"3705","","image-button-response","226","1874093","0.0-221.0-0.0","A2EK1HDV4I4GSK","img_art/2.jpg","1","","","","","","","","","","","","","","","","","","","","","","","","",""
"null","","html-keyboard-response","227","1874594","0.0-222.0","A2EK1HDV4I4GSK","<p style=""font-size: 48px;"">+</p>","","","","","null","allTrialResponses","500","1","25","img_art/2.jpg","22","A child walking to school.","Dustin,David,Juan,Noah,Nathaniel,Blake","Doesn't look like anything. Just a blob of colors.,1,20,20","I feel that its too abstract for me to understand what I'm looking at.,-15,340,20","I don't like the abstract nature of this painting or the colors used.,-50,260,20","again, I struggle to see the art and I dislike the green in particular.,-31,260,20","Too gloopy and unfocused,-38,220,20","ugly green color and makes me sick,-29,280,20","Noah","again, I struggle to see the art and I dislike the green in particular.,-31,260,20","Dustin","Doesn't look like anything. Just a blob of colors.,1,20,20","David","I feel that its too abstract for me to understand what I'm looking at.,-15,340,20","8"
"10592","","survey-text","228","1885196","0.0-223.0-0.0","A2EK1HDV4I4GSK","","","","{""Q0"":""table""}","","","","","","","","","","","","","","","","","","","","","","",""
"28885","","survey-text","229","1914083","0.0-224.0-0.0","A2EK1HDV4I4GSK","","","","{""Q0"":""A church on a hilltop.""}","","","","","","","","","","","","","","","","","","","","","","",""
"2706.10000000149","","image-slider-response","230","1916792","0.0-225.0","A2EK1HDV4I4GSK","","","","","30","","","","","","","","","","","","","","","","","","","","","",""
"null","","image-button-response","231","1921795","0.0-226.0","A2EK1HDV4I4GSK","img_art/27.jpg","null","","","","","","","","","","","","","","","","","","","","","","","","",""
"3087","","image-button-response","232","1924884","0.0-227.0","A2EK1HDV4I4GSK","img_art/27.jpg","3","","","","","","","","","","","","","","","","","","","","","","","","",""
"1536","","image-button-response","233","1926422","0.0-228.0-0.0","A2EK1HDV4I4GSK","img_art/27.jpg","4","","","","","","","","","","","","","","","","","","","","","","","","",""
"814","","image-button-response","234","1927238","0.0-229.0-0.0","A2EK1HDV4I4GSK","img_art/27.jpg","5","","","","","","","","","","","","","","","","","","","","","","","","",""
"null","","html-keyboard-response","235","1928745","0.0-230.0","A2EK1HDV4I4GSK","<p style=""font-size: 48px;"">+</p>","","","","","null","allTrialResponses","1500","1","26","img_art/27.jpg","30","A church on a hilltop.","Dustin,David,Isaac,Noah,Luis,Antonio","Fire, explosion. Red/orange colors are fire/explosion. White is smoke. Makes me worried/scared/anxious,-20,20,20","Not a fan of the green; gives off the impression that someone else drew on it.,-20,340,20","The green lines look like a child drew over a painting.,-36,280,20","I generally enjoy the style, but I'm finding the green lines grating,-9,260,20","Love the representation of home,22,400,20","Didnt actually make me feel anything, sort of bland,3,220,20","Noah","I generally enjoy the style, but I'm finding the green lines grating,-9,260,20","Luis","Love the representation of home,22,400,20","Antonio","Didnt actually make me feel anything, sort of bland,3,220,20","8"
"42013","","survey-text","236","1970763","0.0-231.0-0.0","A2EK1HDV4I4GSK","","","","{""Q0"":""Wheeping angel.""}","","","","","","","","","","","","","","","","","","","","","","",""
"7355.80000000447","","image-slider-response","237","1978121","0.0-232.0","A2EK1HDV4I4GSK","","","","","25","","","","","","","","","","","","","","","","","","","","","",""
"4154","","image-button-response","238","1983123","0.0-233.0","A2EK1HDV4I4GSK","img_art/17.jpg","1","","","","","","","","","","","","","","","","","","","","","","","","",""
"956","","image-button-response","239","1984081","0.0-234.0","A2EK1HDV4I4GSK","img_art/17.jpg","1","","","","","","","","","","","","","","","","","","","","","","","","",""
"2739","","image-button-response","240","1986822","0.0-235.0-0.0","A2EK1HDV4I4GSK","img_art/17.jpg","2","","","","","","","","","","","","","","","","","","","","","","","","",""
"3771","","image-button-response","241","1990596","0.0-236.0-0.0","A2EK1HDV4I4GSK","img_art/17.jpg","5","","","","","","","","","","","","","","","","","","","","","","","","",""
"null","","html-keyboard-response","242","1991597","0.0-237.0","A2EK1HDV4I4GSK","<p style=""font-size: 48px;"">+</p>","","","","","null","allTrialResponses","1000","1","27","img_art/17.jpg","25","Wheeping angel.","Bryce,Jordan,Luke,Noah,Luis,Antonio","Doesnt really do anythingb for me.,4,20,20","Really love the branches. The bottom made it not perfect,42,160,20","it looks very intricate and colorful,50,20,20","feel close to nature,30,260,20","Messy shadow of loss and love,50,400,20","Beautiful colors. Made me feel soft and feminine,50,220,20","Jordan","Really love the branches. The bottom made it not perfect,42,160,20","Luke","it looks very intricate and colorful,50,20,20","Antonio","Beautiful colors. Made me feel soft and feminine,50,220,20","8"
"79132","","survey-text","243","2070735","0.0-238.0-0.0","A2EK1HDV4I4GSK","","","","{""Q0"":""A kids messy room.""}","","","","","","","","","","","","","","","","","","","","","","",""
"3090.2999999970198","","image-slider-response","244","2073827","0.0-239.0","A2EK1HDV4I4GSK","","","","","-20","","","","","","","","","","","","","","","","","","","","","",""
"2876","","image-button-response","245","2078833","0.0-240.0","A2EK1HDV4I4GSK","img_art/29.jpg","1","","","","","","","","","","","","","","","","","","","","","","","","",""
"842","","image-button-response","246","2079677","0.0-241.0","A2EK1HDV4I4GSK","img_art/29.jpg","1","","","","","","","","","","","","","","","","","","","","","","","","",""
"11402","","image-button-response","247","2091081","0.0-242.0-0.0","A2EK1HDV4I4GSK","img_art/29.jpg","5","","","","","","","","","","","","","","","","","","","","","","","","",""
"5439","","image-button-response","248","2096523","0.0-243.0-0.0","A2EK1HDV4I4GSK","img_art/29.jpg","2","","","","","","","","","","","","","","","","","","","","","","","","",""
"null","","html-keyboard-response","249","2097025","0.0-244.0","A2EK1HDV4I4GSK","<p style=""font-size: 48px;"">+</p>","","","","","null","allTrialResponses","500","1","28","img_art/29.jpg","-20","A kids messy room.","Tristan,Jordan,Luke,Connor,Gabriel,Antonio","The textures bring this painting alive. A window to another existence with infinite possibility.,25,300,20","Messy and disorganized, to odark,-31,160,20","it is difficult to look at but you can't look away,-25,20,20","Red X is scary, like the bricks,7,240,20","dont like this one,-20,160,20","Depressing and with that big red x on it just makes me not like it.,-33,220,20","Jordan","Messy and disorganized, to odark,-31,160,20","Antonio","Depressing and with that big red x on it just makes me not like it.,-33,220,20","Luke","it is difficult to look at but you can't look away,-25,20,20","8"
"26573","","survey-text","250","2123604","0.0-245.0-0.0","A2EK1HDV4I4GSK","","","","{""Q0"":""A hidden waterfall.""}","","","","","","","","","","","","","","","","","","","","","","",""
"7716.69999999553","","image-slider-response","251","2131323","0.0-246.0","A2EK1HDV4I4GSK","","","","","29","","","","","","","","","","","","","","","","","","","","","",""
"4878","","image-button-response","252","2136334","0.0-247.0","A2EK1HDV4I4GSK","img_art/24.jpg","0","","","","","","","","","","","","","","","","","","","","","","","","",""
"867","","image-button-response","253","2137203","0.0-248.0","A2EK1HDV4I4GSK","img_art/24.jpg","0","","","","","","","","","","","","","","","","","","","","","","","","",""
"816","","image-button-response","254","2138020","0.0-249.0-0.0","A2EK1HDV4I4GSK","img_art/24.jpg","1","","","","","","","","","","","","","","","","","","","","","","","","",""
"5398","","image-button-response","255","2143421","0.0-250.0-0.0","A2EK1HDV4I4GSK","img_art/24.jpg","3","","","","","","","","","","","","","","","","","","","","","","","","",""
"null","","html-keyboard-response","256","2143922","0.0-251.0","A2EK1HDV4I4GSK","<p style=""font-size: 48px;"">+</p>","","","","","null","allTrialResponses","500","1","29","img_art/24.jpg","29","A hidden waterfall.","Shane,Jordan,Luke,Dalton,Jeffrey,Antonio","A peaceful day by the river,42,80,20","Beautiful waterfall I like waterfalls,39,160,20","very colorful and intricate and makes me feel at peace,50,20,20","i feel peace and wanting. i love waterfalls,50,300,20","Very refreshing and vigorous,19,40,20","Waterfalls and spring and gives me a sense of renewal,34,220,20","Shane","A peaceful day by the river,42,80,20","Jordan","Beautiful waterfall I like waterfalls,39,160,20","Dalton","i feel peace and wanting. i love waterfalls,50,300,20","8"
"16956","","survey-text","257","2160884","0.0-252.0-0.0","A2EK1HDV4I4GSK","","","","{""Q0"":""Erupting volcano.""}","","","","","","","","","","","","","","","","","","","","","","",""
"3868.2999999970198","","image-slider-response","258","2164754","0.0-253.0","A2EK1HDV4I4GSK","","","","","1","","","","","","","","","","","","","","","","","","","","","",""
"null","","image-button-response","259","2169757","0.0-254.0","A2EK1HDV4I4GSK","img_art/5.jpg","null","","","","","","","","","","","","","","","","","","","","","","","","",""
"10723","","image-button-response","260","2180482","0.0-255.0","A2EK1HDV4I4GSK","img_art/5.jpg","3","","","","","","","","","","","","","","","","","","","","","","","","",""
"1919","","image-button-response","261","2182404","0.0-256.0-0.0","A2EK1HDV4I4GSK","img_art/5.jpg","5","","","","","","","","","","","","","","","","","","","","","","","","",""
"2106","","image-button-response","262","2184512","0.0-257.0-0.0","A2EK1HDV4I4GSK","img_art/5.jpg","0","","","","","","","","","","","","","","","","","","","","","","","","",""
"null","","html-keyboard-response","263","2185513","0.0-258.0","A2EK1HDV4I4GSK","<p style=""font-size: 48px;"">+</p>","","","","","null","allTrialResponses","1000","1","30","img_art/5.jpg","1","Erupting volcano.","Shane,Jordan,Angel,Dalton,Seth,Joseph","Seems clean and neat,11,80,20","Reminds me of a broken umbrella,-9,160,20","I see a sign advising me to be cautious.,-20,180,20","its something. i just dont know what it is.,1,300,20","I didn't care for this art piece. I wasn't sure about the color choice.,-15,60,20","I like that the pyramid is putting off a beacon of light.,11,220,20","Dalton","its something. i just dont know what it is.,1,300,20","Joseph","I like that the pyramid is putting off a beacon of light.,11,220,20","Shane","Seems clean and neat,11,80,20","8"
"6452","","image-button-response_instructions","264","2191971","0.0-259.0","A2EK1HDV4I4GSK","","0","instructions","","","","","","","","","","","","","","","","","","","","","","","",""
"1276","","image-button-response","265","2193253","0.0-260.0","A2EK1HDV4I4GSK","","0","","","","","","","","","","","","","","","","","","","","","","","","",""
