"rt","url","trial_type","trial_index","time_elapsed","internal_node_id","participant_id","stimulus","button_pressed","Name","responses","response","key_press","variableName","fixationTime","condition","trial","photo","subjectRating","subjectResponse","agentsNames","agent_1_Response","agent_2_Response","agent_3_Response","agent_4_Response","agent_5_Response","agent_6_Response","kept_1_name","kept_1_response","kept_2_name","kept_2_response","kept_3_name","kept_3_response","errorCounter"
"4361","external_page_harvard.html","external-html","0","4399","0.0-0.0","A2EVY60IK9QPMJ","","","","","","","","","","","","","","","","","","","","","","","","","","",""
"1173","","image-button-response","1","5575","0.0-1.0","A2EVY60IK9QPMJ","","1","","","","","","","","","","","","","","","","","","","","","","","","",""
"1183","","image-button-response","2","6768","0.0-2.0-0.0","A2EVY60IK9QPMJ","","1","phone","","","","","","","","","","","","","","","","","","","","","","","",""
"7255","","survey-text","3","14027","0.0-3.0-0.0","A2EVY60IK9QPMJ","","","","{""Q0"":""A2EVY60IK9QPMJ""}","","","","","","","","","","","","","","","","","","","","","","",""
"2005","","image-button-response_instructions","4","16036","0.0-4.0","A2EVY60IK9QPMJ","","0","instructions","","","","","","","","","","","","","","","","","","","","","","","",""
"1978","","image-button-response_instructions","5","18017","0.0-5.0","A2EVY60IK9QPMJ","img_art/ins/popularity/ins1.png","0","instructions","","","","","","","","","","","","","","","","","","","","","","","",""
"8916","","image-button-response_instructions","6","26935","0.0-6.0","A2EVY60IK9QPMJ","img_art/ins/popularity/ins2.png","0","instructions","","","","","","","","","","","","","","","","","","","","","","","",""
"9876","","image-button-response_instructions","7","36812","0.0-7.0","A2EVY60IK9QPMJ","img_art/ins/popularity/ins2Extreme.png","0","instructions","","","","","","","","","","","","","","","","","","","","","","","",""
"20639","","image-button-response_instructions","8","57453","0.0-8.0","A2EVY60IK9QPMJ","img_art/ins/popularity/ins3KEEPpop.PNG","0","instructions","","","","","","","","","","","","","","","","","","","","","","","",""
"3548","","image-button-response_instructions","9","61002","0.0-9.0","A2EVY60IK9QPMJ","img_art/ins/popularity/ins3ANamepop.PNG","0","instructions","","","","","","","","","","","","","","","","","","","","","","","",""
"2346","","image-button-response_instructions","10","63350","0.0-10.0","A2EVY60IK9QPMJ","img_art/ins/popularity/ins3ARatingpop.png","0","instructions","","","","","","","","","","","","","","","","","","","","","","","",""
"1940","","image-button-response_instructions","11","65293","0.0-11.0","A2EVY60IK9QPMJ","img_art/ins/popularity/ins3ATextpop.png","0","instructions","","","","","","","","","","","","","","","","","","","","","","","",""
"2110","","image-button-response_instructions","12","67405","0.0-12.0","A2EVY60IK9QPMJ","img_art/ins/popularity/ins3ALikespop.png","0","instructions","","","","","","","","","","","","","","","","","","","","","","","",""
"8254","","image-button-response_instructions","13","75661","0.0-13.0","A2EVY60IK9QPMJ","img_art/ins/popularity/ins3KEEPpop.PNG","0","instructions","","","","","","","","","","","","","","","","","","","","","","","",""
"6795","","image-button-response_instructions","14","82459","0.0-14.0","A2EVY60IK9QPMJ","img_art/ins/popularity/ins3_5RED.png","0","instructions","","","","","","","","","","","","","","","","","","","","","","","",""
"4971","","image-button-response_instructions","15","87433","0.0-15.0","A2EVY60IK9QPMJ","img_art/ins/popularity/ins3KEEPpop.PNG","0","instructions","","","","","","","","","","","","","","","","","","","","","","","",""
"9878","","image-button-response_instructions","16","97313","0.0-16.0","A2EVY60IK9QPMJ","img_art/ins/popularity/ins4KEEPpop.PNG","0","instructions","","","","","","","","","","","","","","","","","","","","","","","",""
"3174","","image-button-response_instructions","17","100489","0.0-17.0","A2EVY60IK9QPMJ","img_art/ins/popularity/ins5KEEPpop.PNG","0","instructions","","","","","","","","","","","","","","","","","","","","","","","",""
"1523","","image-button-response_instructions","18","102013","0.0-18.0","A2EVY60IK9QPMJ","","0","instructions","","","","","","","","","","","","","","","","","","","","","","","",""
"8311","","survey-text","19","110358","0.0-19.0-0.0","A2EVY60IK9QPMJ","","","","{""Q0"":""but""}","","","","","","","","","","","","","","","","","","","","","","",""
"36218","","survey-text","20","146578","0.0-20.0-0.0","A2EVY60IK9QPMJ","","","","{""Q0"":""looks like an abstract of bunnies with artillery storming a mud field""}","","","","","","","","","","","","","","","","","","","","","","",""
"8986.600000023842","","image-slider-response","21","155570","0.0-21.0","A2EVY60IK9QPMJ","","","","","-3","","","","","","","","","","","","","","","","","","","","","",""
"null","","image-button-response","22","160578","0.0-22.0","A2EVY60IK9QPMJ","img_art/ins/1.jpg","null","","","","","","","","","","","","","","","","","","","","","","","","",""
"17145","","image-button-response","23","177728","0.0-23.0","A2EVY60IK9QPMJ","img_art/ins/1.jpg","0","","","","","","","","","","","","","","","","","","","","","","","","",""
"9961","","image-button-response","24","187695","0.0-24.0-0.0","A2EVY60IK9QPMJ","img_art/ins/1.jpg","2","","","","","","","","","","","","","","","","","","","","","","","","",""
"6082","","image-button-response","25","193782","0.0-25.0-0.0","A2EVY60IK9QPMJ","img_art/ins/1.jpg","5","","","","","","","","","","","","","","","","","","","","","","","","",""
"null","","html-keyboard-response","26","194293","0.0-26.0","A2EVY60IK9QPMJ","<p style=""font-size: 48px;"">+</p>","","","","","null","allTrialResponses","500","1","-2","img_art/ins/1.jpg","-3","looks like an abstract of bunnies with artillery storming a mud field","Allison,Ashley,Beth,Dora,Erika,Jen","looks like a lot of things going on in the mist,20,20,20","I just don't get why these type of art would be popular,-32,40,20","This color reminds me of poo,-46,60,20","looks like what my niece in 3rd grade did this afternoon,-50,80,20","I like the sophisticated brushwork,40,100,20","It reminds me of a candy land dream I had,36,120,20","Allison","looks like a lot of things going on in the mist,20,20,20","Beth","This color reminds me of poo,-46,60,20","Jen","It reminds me of a candy land dream I had,36,120,20","0"
"78645","","survey-text","27","272946","0.0-27.0-0.0","A2EVY60IK9QPMJ","","","","{""Q0"":""abstract still life of table with red vase next to fireplace with an underarmour poster hanging over it ""}","","","","","","","","","","","","","","","","","","","","","","",""
"3819","","image-slider-response","28","276769","0.0-28.0","A2EVY60IK9QPMJ","","","","","-4","","","","","","","","","","","","","","","","","","","","","",""
"null","","image-button-response","29","281775","0.0-29.0","A2EVY60IK9QPMJ","img_art/ins/2.jpg","null","","","","","","","","","","","","","","","","","","","","","","","","",""
"4036","","image-button-response","30","285816","0.0-30.0","A2EVY60IK9QPMJ","img_art/ins/2.jpg","5","","","","","","","","","","","","","","","","","","","","","","","","",""
"3409","","image-button-response","31","289230","0.0-31.0-0.0","A2EVY60IK9QPMJ","img_art/ins/2.jpg","4","","","","","","","","","","","","","","","","","","","","","","","","",""
"8883","","image-button-response","32","298117","0.0-32.0-0.0","A2EVY60IK9QPMJ","img_art/ins/2.jpg","0","","","","","","","","","","","","","","","","","","","","","","","","",""
"null","","html-keyboard-response","33","298621","0.0-33.0","A2EVY60IK9QPMJ","<p style=""font-size: 48px;"">+</p>","","","","","null","allTrialResponses","500","1","-1","img_art/ins/2.jpg","-4","abstract still life of table with red vase next to fireplace with an underarmour poster hanging over it ","Allison,Katie,Beth,Jenna,Kara,Jen","I don't have strong feelings about this,10,20,20","too much color!,-28,180,20","meaningless painting,-45,60,20","One of my pet peevs,-48,140,20","I like the blocks of color arrangements,30,160,20","It reminds me of a fireplace,36,120,20","Jen","It reminds me of a fireplace,36,120,20","Kara","I like the blocks of color arrangements,30,160,20","Allison","I don't have strong feelings about this,10,20,20","0"
"30444","","survey-text","34","329072","0.0-34.0-0.0","A2EVY60IK9QPMJ","","","","{""Q0"":""BLUE. i love blue. reminds of me of winter and all kinds of snow fun.""}","","","","","","","","","","","","","","","","","","","","","","",""
"10875.699999928474","","image-slider-response","35","339951","0.0-35.0","A2EVY60IK9QPMJ","","","","","30","","","","","","","","","","","","","","","","","","","","","",""
"null","","image-button-response","36","344963","0.0-36.0","A2EVY60IK9QPMJ","img_art/ins/3.jpg","null","","","","","","","","","","","","","","","","","","","","","","","","",""
"5361","","image-button-response","37","350327","0.0-37.0","A2EVY60IK9QPMJ","img_art/ins/3.jpg","0","","","","","","","","","","","","","","","","","","","","","","","","",""
"1001","","image-button-response","38","351333","0.0-38.0-0.0","A2EVY60IK9QPMJ","img_art/ins/3.jpg","5","","","","","","","","","","","","","","","","","","","","","","","","",""
"11372","","image-button-response","39","362709","0.0-39.0-0.0","A2EVY60IK9QPMJ","img_art/ins/3.jpg","4","","","","","","","","","","","","","","","","","","","","","","","","",""
"null","","html-keyboard-response","40","363213","0.0-40.0","A2EVY60IK9QPMJ","<p style=""font-size: 48px;"">+</p>","","","","","null","allTrialResponses","500","1","0","img_art/ins/3.jpg","30","BLUE. i love blue. reminds of me of winter and all kinds of snow fun.","Allison,Rose,Mary,Leslie,Kara,Jen","enjoy the different shades of blue,22,20,20","My daily routine, it's depressing,-20,240,20","I like the overlapping of brushes,41,220,20","It's an alright work,15,200,20","calming blue is very nice,36,160,20","I can feel a rainy day from this painting,18,120,20","Allison","enjoy the different shades of blue,22,20,20","Jen","I can feel a rainy day from this painting,18,120,20","Kara","calming blue is very nice,36,160,20","0"
"7121","","image-button-response_instructions","41","370342","0.0-41.0","A2EVY60IK9QPMJ","","0","instructions","","","","","","","","","","","","","","","","","","","","","","","",""
"13597","","survey-likert","42","383942","0.0-42.0-0.0","A2EVY60IK9QPMJ","","","","{""Q0"":"""",""Q1"":0,""Q2"":1}","","","","","","","","","","","","","","","","","","","","","","",""
"4778","","survey-text","43","388729","0.0-43.0-0.0","A2EVY60IK9QPMJ","","","","{""Q0"":""rock""}","","","","","","","","","","","","","","","","","","","","","","",""
"29695","","survey-text","44","418427","0.0-44.0-0.0","A2EVY60IK9QPMJ","","","","{""Q0"":""flaming ship approaching dark shoreline on a stormy day?""}","","","","","","","","","","","","","","","","","","","","","","",""
"5641.699999928474","","image-slider-response","45","424072","0.0-45.0","A2EVY60IK9QPMJ","","","","","-4","","","","","","","","","","","","","","","","","","","","","",""
"null","","image-button-response","46","429121","0.0-46.0","A2EVY60IK9QPMJ","img_art/21.jpg","null","","","","","","","","","","","","","","","","","","","","","","","","",""
"1798","","image-button-response","47","430923","0.0-47.0","A2EVY60IK9QPMJ","img_art/21.jpg","1","","","","","","","","","","","","","","","","","","","","","","","","",""
"14717","","image-button-response","48","445645","0.0-48.0-0.0","A2EVY60IK9QPMJ","img_art/21.jpg","5","","","","","","","","","","","","","","","","","","","","","","","","",""
"12528","","image-button-response","49","458179","0.0-49.0-0.0","A2EVY60IK9QPMJ","img_art/21.jpg","2","","","","","","","","","","","","","","","","","","","","","","","","",""
"null","","html-keyboard-response","50","459690","0.0-50.0","A2EVY60IK9QPMJ","<p style=""font-size: 48px;"">+</p>","","","","","null","allTrialResponses","1500","1","1","img_art/21.jpg","-4","flaming ship approaching dark shoreline on a stormy day?","Katie,Courtney,Nicole,Shannon,Margaret,Claire","Immediately a positive response! I like the muted colors. the blurriness calms me. It's serene,40,160,20","Another ship on fire.,-10,280,20","Makes me think of a natural disaster but I love how it looks. Makes you think,30,20,20","I like the sky a little bit the way the colors look for the sky, the cliff side looks a little weird though.,10,220,20","i like the colors and the blending,17,100,20","i enjoy the clash of colors, reminds me of a storm at sea,32,260,20","Courtney","Another ship on fire.,-10,280,20","Claire","i enjoy the clash of colors, reminds me of a storm at sea,32,260,20","Nicole","Makes me think of a natural disaster but I love how it looks. Makes you think,30,20,20","0"
"88507","","survey-text","51","548204","0.0-51.0-0.0","A2EVY60IK9QPMJ","","","","{""Q0"":""not my favorite because i don't love reds, but it does remind me of paddling on a lake in the fall with the reflections of changing leaves""}","","","","","","","","","","","","","","","","","","","","","","",""
"3692.2000000476837","","image-slider-response","52","551899","0.0-52.0","A2EVY60IK9QPMJ","","","","","2","","","","","","","","","","","","","","","","","","","","","",""
"null","","image-button-response","53","556908","0.0-53.0","A2EVY60IK9QPMJ","img_art/1.jpg","null","","","","","","","","","","","","","","","","","","","","","","","","",""
"18284","","image-button-response","54","575196","0.0-54.0","A2EVY60IK9QPMJ","img_art/1.jpg","2","","","","","","","","","","","","","","","","","","","","","","","","",""
"1782","","image-button-response","55","576983","0.0-55.0-0.0","A2EVY60IK9QPMJ","img_art/1.jpg","0","","","","","","","","","","","","","","","","","","","","","","","","",""
"20831","","image-button-response","56","597819","0.0-56.0-0.0","A2EVY60IK9QPMJ","img_art/1.jpg","4","","","","","","","","","","","","","","","","","","","","","","","","",""
"null","","html-keyboard-response","57","598828","0.0-57.0","A2EVY60IK9QPMJ","<p style=""font-size: 48px;"">+</p>","","","","","null","allTrialResponses","1000","1","2","img_art/1.jpg","2","not my favorite because i don't love reds, but it does remind me of paddling on a lake in the fall with the reflections of changing leaves","Leslie,Courtney,Nicole,Sierra,Kylie,Claire","The use of reds, blues, and yellows together reminds me of fire. Very interesting to look at.,40,380,20","I cant make anything of this one.,-7,280,20","I love the colors but it's too intense sometimes,22,20,20","there isnt anything clear to look at,-2,260,20","I don't know how I feel about this,1,300,20","the colors are nice,8,260,20","Nicole","I love the colors but it's too intense sometimes,22,20,20","Leslie","The use of reds, blues, and yellows together reminds me of fire. Very interesting to look at.,40,380,20","Kylie","I don't know how I feel about this,1,300,20","0"
"37083","","survey-text","58","635919","0.0-58.0-0.0","A2EVY60IK9QPMJ","","","","{""Q0"":""seems very angry... or confused... maybe both. definitely disquieting.""}","","","","","","","","","","","","","","","","","","","","","","",""
"11672","","image-slider-response","59","647594","0.0-59.0","A2EVY60IK9QPMJ","","","","","2","","","","","","","","","","","","","","","","","","","","","",""
"null","","image-button-response","60","652608","0.0-60.0","A2EVY60IK9QPMJ","img_art/3.jpg","null","","","","","","","","","","","","","","","","","","","","","","","","",""
"3735","","image-button-response","61","656347","0.0-61.0","A2EVY60IK9QPMJ","img_art/3.jpg","2","","","","","","","","","","","","","","","","","","","","","","","","",""
"3526","","image-button-response","62","659877","0.0-62.0-0.0","A2EVY60IK9QPMJ","img_art/3.jpg","4","","","","","","","","","","","","","","","","","","","","","","","","",""
"3827","","image-button-response","63","663708","0.0-63.0-0.0","A2EVY60IK9QPMJ","img_art/3.jpg","0","","","","","","","","","","","","","","","","","","","","","","","","",""
"null","","html-keyboard-response","64","664212","0.0-64.0","A2EVY60IK9QPMJ","<p style=""font-size: 48px;"">+</p>","","","","","null","allTrialResponses","500","1","3","img_art/3.jpg","2","seems very angry... or confused... maybe both. definitely disquieting.","Leslie,Michaela,Nicole,Kaitlyn,Kylie,Madeline","It looks like the artist was trying too hard to make it chaotic and emotional.,-25,380,20","It looks like someone took a red sharpie and just scribbled angrily,-20,260,20","Something I'd paint when I'm mad. I feel that,20,20,20","Too much red; very bland,-26,80,20","Confusion and mayhem,-10,300,20","Scribbly a bit too much,-30,40,20","Nicole","Something I'd paint when I'm mad. I feel that,20,20,20","Kylie","Confusion and mayhem,-10,300,20","Leslie","It looks like the artist was trying too hard to make it chaotic and emotional.,-25,380,20","0"
"93554","","survey-text","65","757774","0.0-65.0-0.0","A2EVY60IK9QPMJ","","","","{""Q0"":""not sure about this... seems like maybe the red is a character in an alphabetic with which i'm unfamiliar. i like the contrast of colors, and the juxtaposition of asymmetry (red) against  pattern (blue/yellow)""}","","","","","","","","","","","","","","","","","","","","","","",""
"4991.100000023842","","image-slider-response","66","762768","0.0-66.0","A2EVY60IK9QPMJ","","","","","8","","","","","","","","","","","","","","","","","","","","","",""
"null","","image-button-response","67","767782","0.0-67.0","A2EVY60IK9QPMJ","img_art/30.jpg","null","","","","","","","","","","","","","","","","","","","","","","","","",""
"11775","","image-button-response","68","779559","0.0-68.0","A2EVY60IK9QPMJ","img_art/30.jpg","0","","","","","","","","","","","","","","","","","","","","","","","","",""
"13378","","image-button-response","69","792941","0.0-69.0-0.0","A2EVY60IK9QPMJ","img_art/30.jpg","1","","","","","","","","","","","","","","","","","","","","","","","","",""
"4748","","image-button-response","70","797693","0.0-70.0-0.0","A2EVY60IK9QPMJ","img_art/30.jpg","5","","","","","","","","","","","","","","","","","","","","","","","","",""
"null","","html-keyboard-response","71","798205","0.0-71.0","A2EVY60IK9QPMJ","<p style=""font-size: 48px;"">+</p>","","","","","null","allTrialResponses","500","1","4","img_art/30.jpg","8","not sure about this... seems like maybe the red is a character in an alphabetic with which i'm unfamiliar. i like the contrast of colors, and the juxtaposition of asymmetry (red) against  pattern (blue/yellow)","Leslie,Rebecca,Nicole,Savannah,Kylie,Caroline","The brush strokes are appealing, and make me want to look at this longer.,11,380,20","don't know but it somehow speaks to me,29,100,20","I like the softness of this but it doesn't make me feel that nice,5,20,20","Colors are nice but it just seems too simple.,-26,200,20","I can't figure this out,25,300,20","Fear. It looks like snakes in the picture,13,100,20","Leslie","The brush strokes are appealing, and make me want to look at this longer.,11,380,20","Rebecca","don't know but it somehow speaks to me,29,100,20","Caroline","Fear. It looks like snakes in the picture,13,100,20","0"
"65354","","survey-text","72","863566","0.0-72.0-0.0","A2EVY60IK9QPMJ","","","","{""Q0"":""abstract of motion of a hand waving in the air. the colors work nicely together, but aren't my jam.""}","","","","","","","","","","","","","","","","","","","","","","",""
"3635.2000000476837","","image-slider-response","73","867203","0.0-73.0","A2EVY60IK9QPMJ","","","","","-4","","","","","","","","","","","","","","","","","","","","","",""
"null","","image-button-response","74","872208","0.0-74.0","A2EVY60IK9QPMJ","img_art/4.jpg","null","","","","","","","","","","","","","","","","","","","","","","","","",""
"5113","","image-button-response","75","877324","0.0-75.0","A2EVY60IK9QPMJ","img_art/4.jpg","3","","","","","","","","","","","","","","","","","","","","","","","","",""
"5938","","image-button-response","76","883266","0.0-76.0-0.0","A2EVY60IK9QPMJ","img_art/4.jpg","2","","","","","","","","","","","","","","","","","","","","","","","","",""
"7755","","image-button-response","77","891026","0.0-77.0-0.0","A2EVY60IK9QPMJ","img_art/4.jpg","4","","","","","","","","","","","","","","","","","","","","","","","","",""
"null","","html-keyboard-response","78","892529","0.0-78.0","A2EVY60IK9QPMJ","<p style=""font-size: 48px;"">+</p>","","","","","null","allTrialResponses","1500","1","5","img_art/4.jpg","-4","abstract of motion of a hand waving in the air. the colors work nicely together, but aren't my jam.","Leslie,Rebecca,Elizabeth,Erika,Brianna,Caroline","This elicits no reaction in me.,0,380,20","no sorry i can't really understand,-18,100,20","Like the color vibrancy,29,20,20","Reminds me of late night frustrated paintings of my own made of coffee,12,100,20","Really don't care for the yellowish brown color in the center.,-19,20,20","Blah feeling, nothing,-8,100,20","Erika","Reminds me of late night frustrated paintings of my own made of coffee,12,100,20","Elizabeth","Like the color vibrancy,29,20,20","Brianna","Really don't care for the yellowish brown color in the center.,-19,20,20","0"
"5550","","survey-text","79","898091","0.0-79.0-0.0","A2EVY60IK9QPMJ","","","","{""Q0"":""sky""}","","","","","","","","","","","","","","","","","","","","","","",""
"62569","","survey-text","80","960663","0.0-80.0-0.0","A2EVY60IK9QPMJ","","","","{""Q0"":""can't quite make out a 'subject,' but am really liking the quality of the blue in here and how it still pops against the black even though that's low contrast.""}","","","","","","","","","","","","","","","","","","","","","","",""
"7865.699999928474","","image-slider-response","81","968533","0.0-81.0","A2EVY60IK9QPMJ","","","","","27","","","","","","","","","","","","","","","","","","","","","",""
"null","","image-button-response","82","973537","0.0-82.0","A2EVY60IK9QPMJ","img_art/15.jpg","null","","","","","","","","","","","","","","","","","","","","","","","","",""
"7789","","image-button-response","83","981329","0.0-83.0","A2EVY60IK9QPMJ","img_art/15.jpg","3","","","","","","","","","","","","","","","","","","","","","","","","",""
"8118","","image-button-response","84","989452","0.0-84.0-0.0","A2EVY60IK9QPMJ","img_art/15.jpg","5","","","","","","","","","","","","","","","","","","","","","","","","",""
"3539","","image-button-response","85","992994","0.0-85.0-0.0","A2EVY60IK9QPMJ","img_art/15.jpg","0","","","","","","","","","","","","","","","","","","","","","","","","",""
"null","","html-keyboard-response","86","994499","0.0-86.0","A2EVY60IK9QPMJ","<p style=""font-size: 48px;"">+</p>","","","","","null","allTrialResponses","1500","1","6","img_art/15.jpg","27","can't quite make out a 'subject,' but am really liking the quality of the blue in here and how it still pops against the black even though that's low contrast.","Sophia,Samantha,Elizabeth,Erika,Brianna,Sydney","I feel like there's ski jumping going on here.,2,280,20","Not interesting enough. Boring,-37,140,20","Perfect Abstract painting,50,20,20","I like the dense patterns and the splashes  of blue,38,100,20","No opinion truthfully,1,20,20","This picture is too confusing for me. I wouldn't want to stare at it to figure it out.,-10,320,20","Erika","I like the dense patterns and the splashes  of blue,38,100,20","Sydney","This picture is too confusing for me. I wouldn't want to stare at it to figure it out.,-10,320,20","Sophia","I feel like there's ski jumping going on here.,2,280,20","0"
"46232","","survey-text","87","1040739","0.0-87.0-0.0","A2EVY60IK9QPMJ","","","","{""Q0"":""love the colors. the way the bands get narrower left->right, and the abstract splashes make me feel like the frenzy of time passing when there's too much to do""}","","","","","","","","","","","","","","","","","","","","","","",""
"7020.200000047684","","image-slider-response","88","1047761","0.0-88.0","A2EVY60IK9QPMJ","","","","","21","","","","","","","","","","","","","","","","","","","","","",""
"4906","","image-button-response","89","1052771","0.0-89.0","A2EVY60IK9QPMJ","img_art/13.jpg","1","","","","","","","","","","","","","","","","","","","","","","","","",""
"2915","","image-button-response","90","1055689","0.0-90.0","A2EVY60IK9QPMJ","img_art/13.jpg","1","","","","","","","","","","","","","","","","","","","","","","","","",""
"1194","","image-button-response","91","1056885","0.0-91.0-0.0","A2EVY60IK9QPMJ","img_art/13.jpg","2","","","","","","","","","","","","","","","","","","","","","","","","",""
"11492","","image-button-response","92","1068381","0.0-92.0-0.0","A2EVY60IK9QPMJ","img_art/13.jpg","3","","","","","","","","","","","","","","","","","","","","","","","","",""
"null","","html-keyboard-response","93","1068884","0.0-93.0","A2EVY60IK9QPMJ","<p style=""font-size: 48px;"">+</p>","","","","","null","allTrialResponses","500","1","7","img_art/13.jpg","21","love the colors. the way the bands get narrower left->right, and the abstract splashes make me feel like the frenzy of time passing when there's too much to do","Sophia,Taylor,Hailey,Erika,Angelica,Sydney","I like the colors used in this piece.,2,280,20","It makes me think of sitting inside on a rainy day while drinking a warm coffee,32,340,20","warm splash of salt water from ocean,16,200,20","Gorgeous contrast and color choice, very pleasing,50,100,20","It's too violent looking and there's too much contrast between the white/black.,-21,280,20","I love the style of this piece, but the color choice could've been more eye catching or calming.,40,320,20","Taylor","It makes me think of sitting inside on a rainy day while drinking a warm coffee,32,340,20","Hailey","warm splash of salt water from ocean,16,200,20","Erika","Gorgeous contrast and color choice, very pleasing,50,100,20","0"
"90867","","survey-text","94","1159758","0.0-94.0-0.0","A2EVY60IK9QPMJ","","","","{""Q0"":""interesting interpretation of a flower arrangement? on a messy table? color use is interesting to look at, and the contrast between the 'soft' background and 'sharp' rendering of the foreground is interesting... intriguing, even. but i wouldn't want to live with this.""}","","","","","","","","","","","","","","","","","","","","","","",""
"6054.200000047684","","image-slider-response","95","1165816","0.0-95.0","A2EVY60IK9QPMJ","","","","","-5","","","","","","","","","","","","","","","","","","","","","",""
"null","","image-button-response","96","1170825","0.0-96.0","A2EVY60IK9QPMJ","img_art/14.jpg","null","","","","","","","","","","","","","","","","","","","","","","","","",""
"15416","","image-button-response","97","1186245","0.0-97.0","A2EVY60IK9QPMJ","img_art/14.jpg","5","","","","","","","","","","","","","","","","","","","","","","","","",""
"8878","","image-button-response","98","1195128","0.0-98.0-0.0","A2EVY60IK9QPMJ","img_art/14.jpg","1","","","","","","","","","","","","","","","","","","","","","","","","",""
"2462","","image-button-response","99","1197594","0.0-99.0-0.0","A2EVY60IK9QPMJ","img_art/14.jpg","0","","","","","","","","","","","","","","","","","","","","","","","","",""
"null","","html-keyboard-response","100","1198097","0.0-100.0","A2EVY60IK9QPMJ","<p style=""font-size: 48px;"">+</p>","","","","","null","allTrialResponses","500","1","8","img_art/14.jpg","-5","interesting interpretation of a flower arrangement? on a messy table? color use is interesting to look at, and the contrast between the 'soft' background and 'sharp' rendering of the foreground is interesting... intriguing, even. but i wouldn't want to live with this.","Mariah,Taylor,Hailey,Erika,Lauren,Olivia","The lighting feels like spring.,20,140,20","Makes me think of my plants growing,11,340,20","fuzzy and confused. ok then well,16,200,20","It's alright, something I'd see in a guest bedroom,10,100,20","I like how balanced the piece is with its symmetrical design.,20,340,20","tree of life brings hope,7,40,20","Olivia","tree of life brings hope,7,40,20","Taylor","Makes me think of my plants growing,11,340,20","Mariah","The lighting feels like spring.,20,140,20","0"
"49071","","survey-text","101","1247175","0.0-101.0-0.0","A2EVY60IK9QPMJ","","","","{""Q0"":""swimming hole in a brook. complete with waterfalls. feels like a refuge on a hot summer day.""}","","","","","","","","","","","","","","","","","","","","","","",""
"5594.800000071526","","image-slider-response","102","1252773","0.0-102.0","A2EVY60IK9QPMJ","","","","","17","","","","","","","","","","","","","","","","","","","","","",""
"null","","image-button-response","103","1257783","0.0-103.0","A2EVY60IK9QPMJ","img_art/24.jpg","null","","","","","","","","","","","","","","","","","","","","","","","","",""
"13459","","image-button-response","104","1271246","0.0-104.0","A2EVY60IK9QPMJ","img_art/24.jpg","3","","","","","","","","","","","","","","","","","","","","","","","","",""
"3999","","image-button-response","105","1275250","0.0-105.0-0.0","A2EVY60IK9QPMJ","img_art/24.jpg","1","","","","","","","","","","","","","","","","","","","","","","","","",""
"11352","","image-button-response","106","1286607","0.0-106.0-0.0","A2EVY60IK9QPMJ","img_art/24.jpg","4","","","","","","","","","","","","","","","","","","","","","","","","",""
"null","","html-keyboard-response","107","1287610","0.0-107.0","A2EVY60IK9QPMJ","<p style=""font-size: 48px;"">+</p>","","","","","null","allTrialResponses","1000","1","9","img_art/24.jpg","17","swimming hole in a brook. complete with waterfalls. feels like a refuge on a hot summer day.","Mariah,Taylor,Vanessa,Cynthia,Christina,Olivia","It is like a really bad impressionist painting.,-40,140,20","Makes me think of a couple of hikes that I've taken,50,340,20","I love the colors, but I wish the water was less abstract.,17,380,20","Interested in visiting this place,18,320,20","I like how it looks like a waterfall in an exotic place,50,240,20","tranquility in the stream,34,40,20","Cynthia","Interested in visiting this place,18,320,20","Taylor","Makes me think of a couple of hikes that I've taken,50,340,20","Christina","I like how it looks like a waterfall in an exotic place,50,240,20","0"
"110576","","survey-text","108","1398193","0.0-108.0-0.0","A2EVY60IK9QPMJ","","","","{""Q0"":""could sit and look at this for hours, discovering little details... but not terribly fond of the colors.""}","","","","","","","","","","","","","","","","","","","","","","",""
"4076.2000000476837","","image-slider-response","109","1402273","0.0-109.0","A2EVY60IK9QPMJ","","","","","-15","","","","","","","","","","","","","","","","","","","","","",""
"null","","image-button-response","110","1407278","0.0-110.0","A2EVY60IK9QPMJ","img_art/19.jpg","null","","","","","","","","","","","","","","","","","","","","","","","","",""
"9630","","image-button-response","111","1416912","0.0-111.0","A2EVY60IK9QPMJ","img_art/19.jpg","3","","","","","","","","","","","","","","","","","","","","","","","","",""
"3740","","image-button-response","112","1420657","0.0-112.0-0.0","A2EVY60IK9QPMJ","img_art/19.jpg","0","","","","","","","","","","","","","","","","","","","","","","","","",""
"2372","","image-button-response","113","1423033","0.0-113.0-0.0","A2EVY60IK9QPMJ","img_art/19.jpg","0","","","","","","","","","","","","","","","","","","","","","","","","",""
"11153","","image-button-response","114","1439482","0.0-113.1-0.1","A2EVY60IK9QPMJ","img_art/19.jpg","1","","","","","","","","","","","","","","","","","","","","","","","","",""
"null","","html-keyboard-response","115","1440491","0.0-114.0","A2EVY60IK9QPMJ","<p style=""font-size: 48px;"">+</p>","","","","","null","allTrialResponses","1000","1","10","img_art/19.jpg","-15","could sit and look at this for hours, discovering little details... but not terribly fond of the colors.","Mary,Taylor,Crystal,Cynthia,Christina,Sara","I interpret an outdoor scene. It's good because it makes me want to look longer.,22,180,20","It reminds me of sitting at a cafe on the side of a river.,45,340,20","It is an interesting piece but there are too many muted tones,22,300,20","confused and emotional,-4,320,20","i like the colors and the way it looks like an actual scene,18,240,20","I like the vibrant color blocks,13,160,20","Cynthia","confused and emotional,-4,320,20","Mary","I interpret an outdoor scene. It's good because it makes me want to look longer.,22,180,20","Taylor","It reminds me of sitting at a cafe on the side of a river.,45,340,20","2"
"4681","","survey-text","116","1445185","0.0-115.0-0.0","A2EVY60IK9QPMJ","","","","{""Q0"":""our""}","","","","","","","","","","","","","","","","","","","","","","",""
"46535","","survey-text","117","1491722","0.0-116.0-0.0","A2EVY60IK9QPMJ","","","","{""Q0"":""CORVID. and the shiny that he is either about to pick up, or just dropped. ""}","","","","","","","","","","","","","","","","","","","","","","",""
"9004.5","","image-slider-response","118","1500729","0.0-117.0","A2EVY60IK9QPMJ","","","","","35","","","","","","","","","","","","","","","","","","","","","",""
"null","","image-button-response","119","1505741","0.0-118.0","A2EVY60IK9QPMJ","img_art/6.jpg","null","","","","","","","","","","","","","","","","","","","","","","","","",""
"7133","","image-button-response","120","1512877","0.0-119.0","A2EVY60IK9QPMJ","img_art/6.jpg","1","","","","","","","","","","","","","","","","","","","","","","","","",""
"2899","","image-button-response","121","1515781","0.0-120.0-0.0","A2EVY60IK9QPMJ","img_art/6.jpg","3","","","","","","","","","","","","","","","","","","","","","","","","",""
"3711","","image-button-response","122","1519496","0.0-121.0-0.0","A2EVY60IK9QPMJ","img_art/6.jpg","0","","","","","","","","","","","","","","","","","","","","","","","","",""
"null","","html-keyboard-response","123","1519999","0.0-122.0","A2EVY60IK9QPMJ","<p style=""font-size: 48px;"">+</p>","","","","","null","allTrialResponses","500","1","11","img_art/6.jpg","35","CORVID. and the shiny that he is either about to pick up, or just dropped. ","Mary,Taylor,Morgan,Cynthia,Makayla,Grace","This piece has some emotion of isolation. I like it.,6,180,20","Reminds me of my friend's bird,21,340,20","Desert that's too simple.,-15,380,20","seeds of change,11,320,20","Don't like the black space,2,80,20","Growth in the desert?  Don't care for it very much.,-26,180,20","Taylor","Reminds me of my friend's bird,21,340,20","Cynthia","seeds of change,11,320,20","Mary","This piece has some emotion of isolation. I like it.,6,180,20","2"
"114738","","survey-text","124","1634745","0.0-123.0-0.0","A2EVY60IK9QPMJ","","","","{""Q0"":""seems to shift from depictions of ships at harbor, telephone wires along roads, lights moving along busy streets, patterns in stone, houses on hillsides. could look at this for hours and hours. it helps that the colors are muted so you can see it as different things!""}","","","","","","","","","","","","","","","","","","","","","","",""
"7093.899999976158","","image-slider-response","125","1641842","0.0-124.0","A2EVY60IK9QPMJ","","","","","44","","","","","","","","","","","","","","","","","","","","","",""
"null","","image-button-response","126","1646861","0.0-125.0","A2EVY60IK9QPMJ","img_art/11.jpg","null","","","","","","","","","","","","","","","","","","","","","","","","",""
"5536","","image-button-response","127","1652402","0.0-126.0","A2EVY60IK9QPMJ","img_art/11.jpg","4","","","","","","","","","","","","","","","","","","","","","","","","",""
"1668","","image-button-response","128","1654074","0.0-127.0-0.0","A2EVY60IK9QPMJ","img_art/11.jpg","5","","","","","","","","","","","","","","","","","","","","","","","","",""
"7221","","image-button-response","129","1661299","0.0-128.0-0.0","A2EVY60IK9QPMJ","img_art/11.jpg","1","","","","","","","","","","","","","","","","","","","","","","","","",""
"null","","html-keyboard-response","130","1662312","0.0-129.0","A2EVY60IK9QPMJ","<p style=""font-size: 48px;"">+</p>","","","","","null","allTrialResponses","1000","1","12","img_art/11.jpg","44","seems to shift from depictions of ships at harbor, telephone wires along roads, lights moving along busy streets, patterns in stone, houses on hillsides. could look at this for hours and hours. it helps that the colors are muted so you can see it as different things!","Mary,Taylor,Leah,Cynthia,Shelby,Haley","I don't care for the color combo. The wavy lines give dimension though.,-13,180,20","It's a really cool painting, but it reminds me of bad traffic,-20,340,20","Even with the colors, it is dreary to me,-32,360,20","Sad but hopeful,43,320,20","The movement in this one is extremely pleasent,40,240,20","Lovely. I could look at this for a really long time. I love the details and the composition.,40,220,20","Shelby","The movement in this one is extremely pleasent,40,240,20","Haley","Lovely. I could look at this for a really long time. I love the details and the composition.,40,220,20","Taylor","It's a really cool painting, but it reminds me of bad traffic,-20,340,20","2"
"65710","","survey-text","131","1728031","0.0-130.0-0.0","A2EVY60IK9QPMJ","","","","{""Q0"":""reminds me of one of those puzzles where you have to slide the pieces to unscramble the image. don't much like it because my brain keeps trying to do that as i look at it.""}","","","","","","","","","","","","","","","","","","","","","","",""
"4961.299999952316","","image-slider-response","132","1732996","0.0-131.0","A2EVY60IK9QPMJ","","","","","-16","","","","","","","","","","","","","","","","","","","","","",""
"null","","image-button-response","133","1738009","0.0-132.0","A2EVY60IK9QPMJ","img_art/12.jpg","null","","","","","","","","","","","","","","","","","","","","","","","","",""
"2694","","image-button-response","134","1740706","0.0-133.0","A2EVY60IK9QPMJ","img_art/12.jpg","3","","","","","","","","","","","","","","","","","","","","","","","","",""
"1572","","image-button-response","135","1742283","0.0-134.0-0.0","A2EVY60IK9QPMJ","img_art/12.jpg","4","","","","","","","","","","","","","","","","","","","","","","","","",""
"497","","image-button-response","136","1742786","0.0-135.0-0.0","A2EVY60IK9QPMJ","img_art/12.jpg","5","","","","","","","","","","","","","","","","","","","","","","","","",""
"null","","html-keyboard-response","137","1743288","0.0-136.0","A2EVY60IK9QPMJ","<p style=""font-size: 48px;"">+</p>","","","","","null","allTrialResponses","500","1","13","img_art/12.jpg","-16","reminds me of one of those puzzles where you have to slide the pieces to unscramble the image. don't much like it because my brain keeps trying to do that as i look at it.","Angela,Taylor,Gabrielle,Rachel,Shelby,Haley","I like the colors in the bottom half of the painting,10,260,20","It's kind of ominous,-15,340,20","seems too dark on top and too common on the bottom,-19,160,20","I like how it's split into tiny squares, but otherwise, not very intriguing.,-18,80,20","The shapes make me feel a bit uncomfortable,-10,240,20","Very interesting. Makes me want to look at it for a long time.,16,220,20","Rachel","I like how it's split into tiny squares, but otherwise, not very intriguing.,-18,80,20","Shelby","The shapes make me feel a bit uncomfortable,-10,240,20","Haley","Very interesting. Makes me want to look at it for a long time.,16,220,20","2"
"42549","","survey-text","138","1785844","0.0-137.0-0.0","A2EVY60IK9QPMJ","","","","{""Q0"":""feels like the accumulated disappointments of childhood. ""}","","","","","","","","","","","","","","","","","","","","","","",""
"3302.8000000715256","","image-slider-response","139","1789150","0.0-138.0","A2EVY60IK9QPMJ","","","","","-11","","","","","","","","","","","","","","","","","","","","","",""
"null","","image-button-response","140","1794158","0.0-139.0","A2EVY60IK9QPMJ","img_art/16.jpg","null","","","","","","","","","","","","","","","","","","","","","","","","",""
"3329","","image-button-response","141","1797491","0.0-140.0","A2EVY60IK9QPMJ","img_art/16.jpg","4","","","","","","","","","","","","","","","","","","","","","","","","",""
"4780","","image-button-response","142","1802275","0.0-141.0-0.0","A2EVY60IK9QPMJ","img_art/16.jpg","5","","","","","","","","","","","","","","","","","","","","","","","","",""
"2946","","image-button-response","143","1805226","0.0-142.0-0.0","A2EVY60IK9QPMJ","img_art/16.jpg","2","","","","","","","","","","","","","","","","","","","","","","","","",""
"null","","html-keyboard-response","144","1806229","0.0-143.0","A2EVY60IK9QPMJ","<p style=""font-size: 48px;"">+</p>","","","","","null","allTrialResponses","1000","1","14","img_art/16.jpg","-11","feels like the accumulated disappointments of childhood. ","Kimberly,Stephanie,Jamie,Rachel,Shelby,Haley","Weird and creepy,-30,260,20","It looks violent.,-30,300,20","Weird and funny,40,320,20","Not pleasing to the eyes. I do like that the gun is broken though.,-28,80,20","This feels like images of a painful childhood,-50,240,20","Makes me want to know more,5,220,20","Shelby","This feels like images of a painful childhood,-50,240,20","Haley","Makes me want to know more,5,220,20","Jamie","Weird and funny,40,320,20","2"
"25541","","survey-text","145","1831779","0.0-144.0-0.0","A2EVY60IK9QPMJ","","","","{""Q0"":""the star wars cantina, but less colorful""}","","","","","","","","","","","","","","","","","","","","","","",""
"6476.899999976158","","image-slider-response","146","1838260","0.0-145.0","A2EVY60IK9QPMJ","","","","","-7","","","","","","","","","","","","","","","","","","","","","",""
"4854","","image-button-response","147","1843264","0.0-146.0","A2EVY60IK9QPMJ","img_art/28.jpg","1","","","","","","","","","","","","","","","","","","","","","","","","",""
"1043","","image-button-response","148","1844311","0.0-147.0","A2EVY60IK9QPMJ","img_art/28.jpg","1","","","","","","","","","","","","","","","","","","","","","","","","",""
"6952","","image-button-response","149","1851267","0.0-148.0-0.0","A2EVY60IK9QPMJ","img_art/28.jpg","5","","","","","","","","","","","","","","","","","","","","","","","","",""
"2928","","image-button-response","150","1854200","0.0-149.0-0.0","A2EVY60IK9QPMJ","img_art/28.jpg","4","","","","","","","","","","","","","","","","","","","","","","","","",""
"null","","html-keyboard-response","151","1854703","0.0-150.0","A2EVY60IK9QPMJ","<p style=""font-size: 48px;"">+</p>","","","","","null","allTrialResponses","500","1","15","img_art/28.jpg","-7","the star wars cantina, but less colorful","Meghan,Alexis,Jamie,Gabriela,Shelby,Haley","I don't like the color choice,-30,220,20","Interesting. I like the ""old woman"" on the left. Lots of different entities to look at,21,100,20","Gloomy colors and picture,5,320,20","The brown and green colors used look dull and unappealing,-30,140,20","This one gives me an uneasy feeling,-10,240,20","I can't explain why, but I really love this one,50,220,20","Alexis","Interesting. I like the ""old woman"" on the left. Lots of different entities to look at,21,100,20","Haley","I can't explain why, but I really love this one,50,220,20","Shelby","This one gives me an uneasy feeling,-10,240,20","2"
"4581","","survey-text","152","1859300","0.0-151.0-0.0","A2EVY60IK9QPMJ","","","","{""Q0"":""course""}","","","","","","","","","","","","","","","","","","","","","","",""
"86382","","survey-text","153","1945685","0.0-152.0-0.0","A2EVY60IK9QPMJ","","","","{""Q0"":""not sure why, but the white parts remind me of those nude girl silhouettes you see on truck mud flaps. i do like the way there's a lot of depth to the colors and how round the 'splatters' are. really wondering if the artist named this.""}","","","","","","","","","","","","","","","","","","","","","","",""
"4734.5","","image-slider-response","154","1950423","0.0-153.0","A2EVY60IK9QPMJ","","","","","-4","","","","","","","","","","","","","","","","","","","","","",""
"null","","image-button-response","155","1955440","0.0-154.0","A2EVY60IK9QPMJ","img_art/23.jpg","null","","","","","","","","","","","","","","","","","","","","","","","","",""
"5658","","image-button-response","156","1961102","0.0-155.0","A2EVY60IK9QPMJ","img_art/23.jpg","1","","","","","","","","","","","","","","","","","","","","","","","","",""
"3140","","image-button-response","157","1964246","0.0-156.0-0.0","A2EVY60IK9QPMJ","img_art/23.jpg","3","","","","","","","","","","","","","","","","","","","","","","","","",""
"7409","","image-button-response","158","1971658","0.0-157.0-0.0","A2EVY60IK9QPMJ","img_art/23.jpg","4","","","","","","","","","","","","","","","","","","","","","","","","",""
"null","","html-keyboard-response","159","1972673","0.0-158.0","A2EVY60IK9QPMJ","<p style=""font-size: 48px;"">+</p>","","","","","null","allTrialResponses","1000","1","16","img_art/23.jpg","-4","not sure why, but the white parts remind me of those nude girl silhouettes you see on truck mud flaps. i do like the way there's a lot of depth to the colors and how round the 'splatters' are. really wondering if the artist named this.","Brittany,Alexis,Monica,Sabrina,Shelby,Haley","The white paint through the middle really draws the eye.,30,40,20","Pretty cool. I love the white, reminds me of people lined up.,28,100,20","I like the sharp contrast of the white on the colorful background,27,360,20","I dont like the chaos of this,-20,120,20","This feels so energized, i love it,50,240,20","Beautiful. Very detailed and colorful. I enjoy looking at it.,50,220,20","Alexis","Pretty cool. I love the white, reminds me of people lined up.,28,100,20","Sabrina","I dont like the chaos of this,-20,120,20","Shelby","This feels so energized, i love it,50,240,20","2"
"47775","","survey-text","160","2020460","0.0-159.0-0.0","A2EVY60IK9QPMJ","","","","{""Q0"":""very much dislike the choice of colors... the olivey-pea-green against the red is jarring. maybe that's what it means to evoke, but for me it's unpleasant.""}","","","","","","","","","","","","","","","","","","","","","","",""
"4063.899999976158","","image-slider-response","161","2024528","0.0-160.0","A2EVY60IK9QPMJ","","","","","-38","","","","","","","","","","","","","","","","","","","","","",""
"null","","image-button-response","162","2029533","0.0-161.0","A2EVY60IK9QPMJ","img_art/2.jpg","null","","","","","","","","","","","","","","","","","","","","","","","","",""
"3913","","image-button-response","163","2033450","0.0-162.0","A2EVY60IK9QPMJ","img_art/2.jpg","4","","","","","","","","","","","","","","","","","","","","","","","","",""
"7473","","image-button-response","164","2040925","0.0-163.0-0.0","A2EVY60IK9QPMJ","img_art/2.jpg","0","","","","","","","","","","","","","","","","","","","","","","","","",""
"4509","","image-button-response","165","2045438","0.0-164.0-0.0","A2EVY60IK9QPMJ","img_art/2.jpg","2","","","","","","","","","","","","","","","","","","","","","","","","",""
"null","","html-keyboard-response","166","2046455","0.0-165.0","A2EVY60IK9QPMJ","<p style=""font-size: 48px;"">+</p>","","","","","null","allTrialResponses","1000","1","17","img_art/2.jpg","-38","very much dislike the choice of colors... the olivey-pea-green against the red is jarring. maybe that's what it means to evoke, but for me it's unpleasant.","Isabella,Alexis,Chelsea,Sabrina,Shelby,Briana","Feels like a playground or park vibe,27,280,20","Do not like this type of abstract work,-50,100,20","Not sure what is happening. I'm not a big fan of the colors but they don't bother me either.,1,180,20","I dont like the expression of this,-19,120,20","The contrasting colors are a bit harsh,-10,240,20","Childish smiley face,-19,400,20","Shelby","The contrasting colors are a bit harsh,-10,240,20","Isabella","Feels like a playground or park vibe,27,280,20","Chelsea","Not sure what is happening. I'm not a big fan of the colors but they don't bother me either.,1,180,20","2"
"61425","","survey-text","167","2107888","0.0-166.0-0.0","A2EVY60IK9QPMJ","","","","{""Q0"":""pumpkin monster holding a hand of playing cards? colors are interesting, and the not-quite-letters on the top right are intriguing.""}","","","","","","","","","","","","","","","","","","","","","","",""
"6554.5","","image-slider-response","168","2114446","0.0-167.0","A2EVY60IK9QPMJ","","","","","-1","","","","","","","","","","","","","","","","","","","","","",""
"null","","image-button-response","169","2119460","0.0-168.0","A2EVY60IK9QPMJ","img_art/9.jpg","null","","","","","","","","","","","","","","","","","","","","","","","","",""
"5380","","image-button-response","170","2124843","0.0-169.0","A2EVY60IK9QPMJ","img_art/9.jpg","0","","","","","","","","","","","","","","","","","","","","","","","","",""
"4251","","image-button-response","171","2129097","0.0-170.0-0.0","A2EVY60IK9QPMJ","img_art/9.jpg","3","","","","","","","","","","","","","","","","","","","","","","","","",""
"7523","","image-button-response","172","2136624","0.0-171.0-0.0","A2EVY60IK9QPMJ","img_art/9.jpg","2","","","","","","","","","","","","","","","","","","","","","","","","",""
"null","","html-keyboard-response","173","2138128","0.0-172.0","A2EVY60IK9QPMJ","<p style=""font-size: 48px;"">+</p>","","","","","null","allTrialResponses","1500","1","18","img_art/9.jpg","-1","pumpkin monster holding a hand of playing cards? colors are interesting, and the not-quite-letters on the top right are intriguing.","Isabella,Alicia,Chelsea,Heather,Shelby,Amy","Angry beast mouth,-37,280,20","Abstract titanic scene. It's nice though. I like how it makes me feel.,28,120,20","I don't like the obvious lines of colored pencil on the border.,-24,180,20","a mother in bed surrounded by emotions,1,260,20","A little too weird for me,-30,240,20","The busyness and harsh nature of the lines in this painting  mute my emotional response.,-10,220,20","Isabella","Angry beast mouth,-37,280,20","Heather","a mother in bed surrounded by emotions,1,260,20","Chelsea","I don't like the obvious lines of colored pencil on the border.,-24,180,20","2"
"49399","","survey-text","174","2187535","0.0-173.0-0.0","A2EVY60IK9QPMJ","","","","{""Q0"":""feels like the dreams of trees that will grow out of the glass and concrete landscape when we're all gone""}","","","","","","","","","","","","","","","","","","","","","","",""
"8123.5","","image-slider-response","175","2195662","0.0-174.0","A2EVY60IK9QPMJ","","","","","22","","","","","","","","","","","","","","","","","","","","","",""
"null","","image-button-response","176","2200668","0.0-175.0","A2EVY60IK9QPMJ","img_art/17.jpg","null","","","","","","","","","","","","","","","","","","","","","","","","",""
"3921","","image-button-response","177","2204593","0.0-176.0","A2EVY60IK9QPMJ","img_art/17.jpg","5","","","","","","","","","","","","","","","","","","","","","","","","",""
"2293","","image-button-response","178","2206889","0.0-177.0-0.0","A2EVY60IK9QPMJ","img_art/17.jpg","1","","","","","","","","","","","","","","","","","","","","","","","","",""
"102","","image-button-response","179","2206996","0.0-178.0-0.0","A2EVY60IK9QPMJ","img_art/17.jpg","1","","","","","","","","","","","","","","","","","","","","","","","","",""
"4804","","image-button-response","180","2214999","0.0-178.1-0.1","A2EVY60IK9QPMJ","img_art/17.jpg","0","","","","","","","","","","","","","","","","","","","","","","","","",""
"null","","html-keyboard-response","181","2215503","0.0-179.0","A2EVY60IK9QPMJ","<p style=""font-size: 48px;"">+</p>","","","","","null","allTrialResponses","500","1","19","img_art/17.jpg","22","feels like the dreams of trees that will grow out of the glass and concrete landscape when we're all gone","Isabella,Jordan,Chelsea,Heather,Allison,Jessica","Pleasant fall to winter day,22,280,20","absolutely gorgeous, I feel solitude again, but the beauty is there also,50,20,20","The colors are soft.,32,180,20","Beautiful simply beautiful. i would love this,,50,260,20","Very washed out.,-10,140,20","The way they painted the trees is so cool.,27,400,20","Jessica","The way they painted the trees is so cool.,27,400,20","Jordan","absolutely gorgeous, I feel solitude again, but the beauty is there also,50,20,20","Isabella","Pleasant fall to winter day,22,280,20","4"
"76382","","survey-text","182","2291893","0.0-180.0-0.0","A2EVY60IK9QPMJ","","","","{""Q0"":""escher's guitar? or escher's guitar after robert plant had a go at it? or a hot-wheels track after the dog had a go at it? not sure what it is, but i like looking at it... maybe because it has a lot of possibilities.""}","","","","","","","","","","","","","","","","","","","","","","",""
"2883.7000000476837","","image-slider-response","183","2294780","0.0-181.0","A2EVY60IK9QPMJ","","","","","28","","","","","","","","","","","","","","","","","","","","","",""
"null","","image-button-response","184","2299796","0.0-182.0","A2EVY60IK9QPMJ","img_art/10.jpg","null","","","","","","","","","","","","","","","","","","","","","","","","",""
"5202","","image-button-response","185","2305002","0.0-183.0","A2EVY60IK9QPMJ","img_art/10.jpg","5","","","","","","","","","","","","","","","","","","","","","","","","",""
"878","","image-button-response","186","2305883","0.0-184.0-0.0","A2EVY60IK9QPMJ","img_art/10.jpg","0","","","","","","","","","","","","","","","","","","","","","","","","",""
"2044","","image-button-response","187","2307931","0.0-185.0-0.0","A2EVY60IK9QPMJ","img_art/10.jpg","2","","","","","","","","","","","","","","","","","","","","","","","","",""
"null","","html-keyboard-response","188","2308443","0.0-186.0","A2EVY60IK9QPMJ","<p style=""font-size: 48px;"">+</p>","","","","","null","allTrialResponses","500","1","20","img_art/10.jpg","28","escher's guitar? or escher's guitar after robert plant had a go at it? or a hot-wheels track after the dog had a go at it? not sure what it is, but i like looking at it... maybe because it has a lot of possibilities.","Isabella,Jordan,Kaylee,Autumn,Chloe,Jessica","Like a decision making process,46,280,20","I dont like it, there is too much going on,-19,20,20","a blue whale on the sea,12,200,20","It just looks like a dirty stain.,-38,340,20","Don't like the colorblock but the lines are nice,-20,220,20","I feel like this has a cool concept behind it.,11,400,20","Jessica","I feel like this has a cool concept behind it.,11,400,20","Isabella","Like a decision making process,46,280,20","Kaylee","a blue whale on the sea,12,200,20","4"
"2332","","survey-text","189","2310791","0.0-187.0-0.0","A2EVY60IK9QPMJ","","","","{""Q0"":""we""}","","","","","","","","","","","","","","","","","","","","","","",""
"87144","","survey-text","190","2397938","0.0-188.0-0.0","A2EVY60IK9QPMJ","","","","{""Q0"":""cow skull alongside a pond and adobe. like the intensity of the colors, but the subject matter leaves me wanting. also really like the way there's a border with the same muted tones around it so it has a bit of 'window' feel to it.""}","","","","","","","","","","","","","","","","","","","","","","",""
"5087.899999976158","","image-slider-response","191","2403029","0.0-189.0","A2EVY60IK9QPMJ","","","","","3","","","","","","","","","","","","","","","","","","","","","",""
"null","","image-button-response","192","2408033","0.0-190.0","A2EVY60IK9QPMJ","img_art/20.jpg","null","","","","","","","","","","","","","","","","","","","","","","","","",""
"408","","image-button-response","193","2408443","0.0-191.0","A2EVY60IK9QPMJ","img_art/20.jpg","1","","","","","","","","","","","","","","","","","","","","","","","","",""
"6385","","image-button-response","194","2414832","0.0-192.0-0.0","A2EVY60IK9QPMJ","img_art/20.jpg","4","","","","","","","","","","","","","","","","","","","","","","","","",""
"11496","","image-button-response","195","2426332","0.0-193.0-0.0","A2EVY60IK9QPMJ","img_art/20.jpg","2","","","","","","","","","","","","","","","","","","","","","","","","",""
"null","","html-keyboard-response","196","2426835","0.0-194.0","A2EVY60IK9QPMJ","<p style=""font-size: 48px;"">+</p>","","","","","null","allTrialResponses","500","1","21","img_art/20.jpg","3","cow skull alongside a pond and adobe. like the intensity of the colors, but the subject matter leaves me wanting. also really like the way there's a border with the same muted tones around it so it has a bit of 'window' feel to it.","Isabella,Erin,Kaylee,Molly,Emily,Jessica","Feels like a town destroyed,-19,280,20","Dark frame overpowers the image,-6,120,20","i can see a car crash,13,200,20","Phenomenal painting of building.,25,340,20","Brings about an emotion response of dspair. Loose lines but yet has a cohesion.,8,40,20","It looks painted really nicely.,5,400,20","Erin","Dark frame overpowers the image,-6,120,20","Emily","Brings about an emotion response of dspair. Loose lines but yet has a cohesion.,8,40,20","Kaylee","i can see a car crash,13,200,20","4"
"45917","","survey-text","197","2472761","0.0-195.0-0.0","A2EVY60IK9QPMJ","","","","{""Q0"":""tiny volcano is angry. just a little angry. love the colors on this. bright but somehow not harsh.""}","","","","","","","","","","","","","","","","","","","","","","",""
"5893","","image-slider-response","198","2478656","0.0-196.0","A2EVY60IK9QPMJ","","","","","26","","","","","","","","","","","","","","","","","","","","","",""
"4310","","image-button-response","199","2483663","0.0-197.0","A2EVY60IK9QPMJ","img_art/5.jpg","2","","","","","","","","","","","","","","","","","","","","","","","","",""
"7988","","image-button-response","200","2491655","0.0-198.0","A2EVY60IK9QPMJ","img_art/5.jpg","3","","","","","","","","","","","","","","","","","","","","","","","","",""
"3288","","image-button-response","201","2494947","0.0-199.0-0.0","A2EVY60IK9QPMJ","img_art/5.jpg","5","","","","","","","","","","","","","","","","","","","","","","","","",""
"1798","","image-button-response","202","2496750","0.0-200.0-0.0","A2EVY60IK9QPMJ","img_art/5.jpg","2","","","","","","","","","","","","","","","","","","","","","","","","",""
"null","","html-keyboard-response","203","2497252","0.0-201.0","A2EVY60IK9QPMJ","<p style=""font-size: 48px;"">+</p>","","","","","null","allTrialResponses","500","1","22","img_art/5.jpg","26","tiny volcano is angry. just a little angry. love the colors on this. bright but somehow not harsh.","Kelsey,Erin,Kaylee,Diana,Emily,Brooke","too abstract, looks like a pyramid,-22,240,20","Flame, candle, wind,30,120,20","a volcano erruption,21,200,20","I didn't care for this art piece. I wasn't sure about the color choice.,-15,380,20","Complete garbage. Looks like a kid drew it.,-50,40,20","No. What even is this? A mop?,-35,60,20","Diana","I didn't care for this art piece. I wasn't sure about the color choice.,-15,380,20","Brooke","No. What even is this? A mop?,-35,60,20","Kaylee","a volcano erruption,21,200,20","4"
"26323","","survey-text","204","2523585","0.0-202.0-0.0","A2EVY60IK9QPMJ","","","","{""Q0"":""terrazo. that is all. thank you. ""}","","","","","","","","","","","","","","","","","","","","","","",""
"4543.599999904633","","image-slider-response","205","2528132","0.0-203.0","A2EVY60IK9QPMJ","","","","","-37","","","","","","","","","","","","","","","","","","","","","",""
"null","","image-button-response","206","2533144","0.0-204.0","A2EVY60IK9QPMJ","img_art/7.jpg","null","","","","","","","","","","","","","","","","","","","","","","","","",""
"2912","","image-button-response","207","2536060","0.0-205.0","A2EVY60IK9QPMJ","img_art/7.jpg","1","","","","","","","","","","","","","","","","","","","","","","","","",""
"2372","","image-button-response","208","2538437","0.0-206.0-0.0","A2EVY60IK9QPMJ","img_art/7.jpg","4","","","","","","","","","","","","","","","","","","","","","","","","",""
"3597","","image-button-response","209","2542038","0.0-207.0-0.0","A2EVY60IK9QPMJ","img_art/7.jpg","2","","","","","","","","","","","","","","","","","","","","","","","","",""
"null","","html-keyboard-response","210","2542541","0.0-208.0","A2EVY60IK9QPMJ","<p style=""font-size: 48px;"">+</p>","","","","","null","allTrialResponses","500","1","23","img_art/7.jpg","-37","terrazo. that is all. thank you. ","Alyssa,Julia,Kaylee,Diana,Emma,Brooke","It looks like someone took a picture of a muddy ground and called it art.,-41,160,20","I would like this more if I could pretend it was the moon.,-26,40,20","some rocks on a mars?,7,200,20","This piece reminds me of ants and it makes my skin crawl.,-37,380,20","Cool, makes me think of archeology,15,60,20","tracks in dirt?,-15,60,20","Julia","I would like this more if I could pretend it was the moon.,-26,40,20","Emma","Cool, makes me think of archeology,15,60,20","Kaylee","some rocks on a mars?,7,200,20","4"
"58552","","survey-text","211","2601102","0.0-209.0-0.0","A2EVY60IK9QPMJ","","","","{""Q0"":""goliath. threatening, imposing... but we know he's about to go down. is that the rock above his head? this is cute, but more like a kid's drawing.""}","","","","","","","","","","","","","","","","","","","","","","",""
"5166.800000071526","","image-slider-response","212","2606273","0.0-210.0","A2EVY60IK9QPMJ","","","","","2","","","","","","","","","","","","","","","","","","","","","",""
"null","","image-button-response","213","2611276","0.0-211.0","A2EVY60IK9QPMJ","img_art/25.jpg","null","","","","","","","","","","","","","","","","","","","","","","","","",""
"1951","","image-button-response","214","2613231","0.0-212.0","A2EVY60IK9QPMJ","img_art/25.jpg","2","","","","","","","","","","","","","","","","","","","","","","","","",""
"6967","","image-button-response","215","2620202","0.0-213.0-0.0","A2EVY60IK9QPMJ","img_art/25.jpg","0","","","","","","","","","","","","","","","","","","","","","","","","",""
"4694","","image-button-response","216","2624901","0.0-214.0-0.0","A2EVY60IK9QPMJ","img_art/25.jpg","1","","","","","","","","","","","","","","","","","","","","","","","","",""
"null","","html-keyboard-response","217","2625405","0.0-215.0","A2EVY60IK9QPMJ","<p style=""font-size: 48px;"">+</p>","","","","","null","allTrialResponses","500","1","24","img_art/25.jpg","2","goliath. threatening, imposing... but we know he's about to go down. is that the rock above his head? this is cute, but more like a kid's drawing.","Maria,Julia,Kaylee,Melissa,Emma,Erica","I find it enjoyable - mainly because it is not art I ever expected to see,16,120,20","the color is pleasing and draws out the contrast of the lines,10,40,20","is this an ancient woman?,-16,200,20","do not like that color of green,-11,240,20","Like the colors and the figure,30,60,20","reminds me of a demon,-25,80,20","Kaylee","is this an ancient woman?,-16,200,20","Maria","I find it enjoyable - mainly because it is not art I ever expected to see,16,120,20","Julia","the color is pleasing and draws out the contrast of the lines,10,40,20","4"
"81183","","survey-text","218","2706595","0.0-216.0-0.0","A2EVY60IK9QPMJ","","","","{""Q0"":""seems like one of the four horsemen of the apocalypse hit a tornado. which seems like a goofy subject that should be off-putting, but i really like the way the colors and forms move in this.""}","","","","","","","","","","","","","","","","","","","","","","",""
"3257","","image-slider-response","219","2709855","0.0-217.0","A2EVY60IK9QPMJ","","","","","41","","","","","","","","","","","","","","","","","","","","","",""
"null","","image-button-response","220","2714873","0.0-218.0","A2EVY60IK9QPMJ","img_art/18.jpg","null","","","","","","","","","","","","","","","","","","","","","","","","",""
"7798","","image-button-response","221","2722674","0.0-219.0","A2EVY60IK9QPMJ","img_art/18.jpg","0","","","","","","","","","","","","","","","","","","","","","","","","",""
"2207","","image-button-response","222","2724885","0.0-220.0-0.0","A2EVY60IK9QPMJ","img_art/18.jpg","1","","","","","","","","","","","","","","","","","","","","","","","","",""
"13443","","image-button-response","223","2738333","0.0-221.0-0.0","A2EVY60IK9QPMJ","img_art/18.jpg","4","","","","","","","","","","","","","","","","","","","","","","","","",""
"null","","html-keyboard-response","224","2739836","0.0-222.0","A2EVY60IK9QPMJ","<p style=""font-size: 48px;"">+</p>","","","","","null","allTrialResponses","1500","1","25","img_art/18.jpg","41","seems like one of the four horsemen of the apocalypse hit a tornado. which seems like a goofy subject that should be off-putting, but i really like the way the colors and forms move in this.","Maria,Julia,Kaylee,Bailey,Lindsey,Cassandra","enjoy the juxtaposition of abstract with tangible elements & the use of color,10,120,20","Very classy, I feel like it's the apocalypse.,25,40,20","looks like a war,22,200,20","Looks like a jumbled mess. I prefer a clearer picture,-18,360,20","Interesting piece - gives you more the more you look at it. I like it but wouldn't buy it.,11,400,20","I don't know...kind of a dissatified feeling inside.,-6,120,20","Maria","enjoy the juxtaposition of abstract with tangible elements & the use of color,10,120,20","Julia","Very classy, I feel like it's the apocalypse.,25,40,20","Lindsey","Interesting piece - gives you more the more you look at it. I like it but wouldn't buy it.,11,400,20","4"
"5400","","survey-text","225","2745251","0.0-223.0-0.0","A2EVY60IK9QPMJ","","","","{""Q0"":""table""}","","","","","","","","","","","","","","","","","","","","","","",""
"76269","","survey-text","226","2821523","0.0-224.0-0.0","A2EVY60IK9QPMJ","","","","{""Q0"":""fun, and kind of interesting for a moment. but i can't find much of an image or message in it. i keep thinking of the 'rolling stones' song.... 'i see a red door and i want to paint it black' - maybe it's about depression?""}","","","","","","","","","","","","","","","","","","","","","","",""
"3716.1999999284744","","image-slider-response","227","2825245","0.0-225.0","A2EVY60IK9QPMJ","","","","","-31","","","","","","","","","","","","","","","","","","","","","",""
"null","","image-button-response","228","2830251","0.0-226.0","A2EVY60IK9QPMJ","img_art/29.jpg","null","","","","","","","","","","","","","","","","","","","","","","","","",""
"5253","","image-button-response","229","2835507","0.0-227.0","A2EVY60IK9QPMJ","img_art/29.jpg","3","","","","","","","","","","","","","","","","","","","","","","","","",""
"5044","","image-button-response","230","2840556","0.0-228.0-0.0","A2EVY60IK9QPMJ","img_art/29.jpg","4","","","","","","","","","","","","","","","","","","","","","","","","",""
"1708","","image-button-response","231","2842269","0.0-229.0-0.0","A2EVY60IK9QPMJ","img_art/29.jpg","5","","","","","","","","","","","","","","","","","","","","","","","","",""
"null","","html-keyboard-response","232","2842772","0.0-230.0","A2EVY60IK9QPMJ","<p style=""font-size: 48px;"">+</p>","","","","","null","allTrialResponses","500","1","26","img_art/29.jpg","-31","fun, and kind of interesting for a moment. but i can't find much of an image or message in it. i keep thinking of the 'rolling stones' song.... 'i see a red door and i want to paint it black' - maybe it's about depression?","Maria,Julia,Amanda,Andrea,Lindsey,Amber","the mixed medium / collage annoys me,-19,120,20","it looks like a top-down battle arena,26,40,20","Once again, very modern, activists will love,27,180,20","Bottomless pit and prison. Feels like its saying time is precious.,11,240,20","Again, ugly colors and I'm not a fan of abstract. This looks like the view into a garbage dump.,-50,400,20","Don't like the red X across the painting.,-15,200,20","Andrea","Bottomless pit and prison. Feels like its saying time is precious.,11,240,20","Lindsey","Again, ugly colors and I'm not a fan of abstract. This looks like the view into a garbage dump.,-50,400,20","Amber","Don't like the red X across the painting.,-15,200,20","4"
"30277","","survey-text","233","2873060","0.0-231.0-0.0","A2EVY60IK9QPMJ","","","","{""Q0"":""looking at buildings with a bubble passing by. at sunset. ""}","","","","","","","","","","","","","","","","","","","","","","",""
"3345.2999999523163","","image-slider-response","234","2876409","0.0-232.0","A2EVY60IK9QPMJ","","","","","4","","","","","","","","","","","","","","","","","","","","","",""
"null","","image-button-response","235","2881420","0.0-233.0","A2EVY60IK9QPMJ","img_art/22.jpg","null","","","","","","","","","","","","","","","","","","","","","","","","",""
"2537","","image-button-response","236","2883959","0.0-234.0","A2EVY60IK9QPMJ","img_art/22.jpg","5","","","","","","","","","","","","","","","","","","","","","","","","",""
"4639","","image-button-response","237","2888601","0.0-235.0-0.0","A2EVY60IK9QPMJ","img_art/22.jpg","1","","","","","","","","","","","","","","","","","","","","","","","","",""
"3968","","image-button-response","238","2892574","0.0-236.0-0.0","A2EVY60IK9QPMJ","img_art/22.jpg","4","","","","","","","","","","","","","","","","","","","","","","","","",""
"null","","html-keyboard-response","239","2893077","0.0-237.0","A2EVY60IK9QPMJ","<p style=""font-size: 48px;"">+</p>","","","","","null","allTrialResponses","500","1","27","img_art/22.jpg","4","looking at buildings with a bubble passing by. at sunset. ","Tiffany,Abigail,Anna,Andrea,Lindsey,Amber","The painting makes me feel a little sad.,12,360,20","The colors are too dark, too much red,2,20,20","Boring, typical abstract art,-30,300,20","I don't feel much of anything.,0,240,20","Too much contrasting colors makes me feel anxious. I don't like it.,-20,400,20","Colors are bright and cheerful.,5,200,20","Amber","Colors are bright and cheerful.,5,200,20","Abigail","The colors are too dark, too much red,2,20,20","Lindsey","Too much contrasting colors makes me feel anxious. I don't like it.,-20,400,20","4"
"29264","","survey-text","240","2922351","0.0-238.0-0.0","A2EVY60IK9QPMJ","","","","{""Q0"":""peaceful street scene. almost interesting colors. something i'd be unsurprised to find in a hotel room.""}","","","","","","","","","","","","","","","","","","","","","","",""
"6715.5","","image-slider-response","241","2929068","0.0-239.0","A2EVY60IK9QPMJ","","","","","4","","","","","","","","","","","","","","","","","","","","","",""
"null","","image-button-response","242","2934080","0.0-240.0","A2EVY60IK9QPMJ","img_art/26.jpg","null","","","","","","","","","","","","","","","","","","","","","","","","",""
"7695","","image-button-response","243","2941779","0.0-241.0","A2EVY60IK9QPMJ","img_art/26.jpg","4","","","","","","","","","","","","","","","","","","","","","","","","",""
"3758","","image-button-response","244","2945540","0.0-242.0-0.0","A2EVY60IK9QPMJ","img_art/26.jpg","3","","","","","","","","","","","","","","","","","","","","","","","","",""
"1252","","image-button-response","245","2946798","0.0-243.0-0.0","A2EVY60IK9QPMJ","img_art/26.jpg","1","","","","","","","","","","","","","","","","","","","","","","","","",""
"null","","html-keyboard-response","246","2948300","0.0-244.0","A2EVY60IK9QPMJ","<p style=""font-size: 48px;"">+</p>","","","","","null","allTrialResponses","1500","1","28","img_art/26.jpg","4","peaceful street scene. almost interesting colors. something i'd be unsurprised to find in a hotel room.","Sarah,Abigail,Mikayla,Destiny,Lindsey,Amber","too hard to figure out if it's meant to be actual objects or impressions,-36,180,20","Reminds me of walks in my dads city when I was little,22,20,20","Love the colors in this one.,22,300,20","I really love pastels and they're just being dimmed down too much here,-3,360,20","I see a suburban neighborhood with townhouses and trees. Not a fan of the colors or style.,-16,400,20","The colors are muted.,1,200,20","Lindsey","I see a suburban neighborhood with townhouses and trees. Not a fan of the colors or style.,-16,400,20","Destiny","I really love pastels and they're just being dimmed down too much here,-3,360,20","Abigail","Reminds me of walks in my dads city when I was little,22,20,20","4"
"55988","","survey-text","247","3004296","0.0-245.0-0.0","A2EVY60IK9QPMJ","","","","{""Q0"":""can't really find a subject in this, and find the colors very unsettling.""}","","","","","","","","","","","","","","","","","","","","","","",""
"2128.2999999523163","","image-slider-response","248","3006427","0.0-246.0","A2EVY60IK9QPMJ","","","","","-31","","","","","","","","","","","","","","","","","","","","","",""
"null","","image-button-response","249","3011434","0.0-247.0","A2EVY60IK9QPMJ","img_art/27.jpg","null","","","","","","","","","","","","","","","","","","","","","","","","",""
"1996","","image-button-response","250","3013432","0.0-248.0","A2EVY60IK9QPMJ","img_art/27.jpg","3","","","","","","","","","","","","","","","","","","","","","","","","",""
"14806","","image-button-response","251","3028241","0.0-249.0-0.0","A2EVY60IK9QPMJ","img_art/27.jpg","0","","","","","","","","","","","","","","","","","","","","","","","","",""
"2213","","image-button-response","252","3030459","0.0-250.0-0.0","A2EVY60IK9QPMJ","img_art/27.jpg","5","","","","","","","","","","","","","","","","","","","","","","","","",""
"null","","html-keyboard-response","253","3030961","0.0-251.0","A2EVY60IK9QPMJ","<p style=""font-size: 48px;"">+</p>","","","","","null","allTrialResponses","500","1","29","img_art/27.jpg","-31","can't really find a subject in this, and find the colors very unsettling.","Megan,Abigail,Cassidy,Destiny,Lindsey,Jennifer","Nice back ground with childish scribble on top,-30,200,20","Looks like a little kids drawing,20,20,20","doesn't look like any effort was put into this piece.,-19,140,20","demon vs angel brawl over lemon lime sprite,-10,360,20","Looks like my niece's doodles.,-50,400,20","Somewhat boring piece,-3,380,20","Destiny","demon vs angel brawl over lemon lime sprite,-10,360,20","Megan","Nice back ground with childish scribble on top,-30,200,20","Jennifer","Somewhat boring piece,-3,380,20","4"
"58861","","survey-text","254","3089830","0.0-252.0-0.0","A2EVY60IK9QPMJ","","","","{""Q0"":""feels like confusion. or maybe 'teen spirit...' dunno. i'm confused. i like the color progression, an the structure , though. it keeps my eyes moving and is keeping me engaged.""}","","","","","","","","","","","","","","","","","","","","","","",""
"6500.899999976158","","image-slider-response","255","3096334","0.0-253.0","A2EVY60IK9QPMJ","","","","","27","","","","","","","","","","","","","","","","","","","","","",""
"null","","image-button-response","256","3101343","0.0-254.0","A2EVY60IK9QPMJ","img_art/8.jpg","null","","","","","","","","","","","","","","","","","","","","","","","","",""
"3057","","image-button-response","257","3104404","0.0-255.0","A2EVY60IK9QPMJ","img_art/8.jpg","2","","","","","","","","","","","","","","","","","","","","","","","","",""
"7709","","image-button-response","258","3112118","0.0-256.0-0.0","A2EVY60IK9QPMJ","img_art/8.jpg","5","","","","","","","","","","","","","","","","","","","","","","","","",""
"3140","","image-button-response","259","3115262","0.0-257.0-0.0","A2EVY60IK9QPMJ","img_art/8.jpg","1","","","","","","","","","","","","","","","","","","","","","","","","",""
"null","","html-keyboard-response","260","3116269","0.0-258.0","A2EVY60IK9QPMJ","<p style=""font-size: 48px;"">+</p>","","","","","null","allTrialResponses","1000","1","30","img_art/8.jpg","27","feels like confusion. or maybe 'teen spirit...' dunno. i'm confused. i like the color progression, an the structure , though. it keeps my eyes moving and is keeping me engaged.","Megan,Victoria,Kelly,Destiny,Breanna,Jennifer","Cortez's influence with fair color choices,10,200,20","makes me think of a busy city,-18,400,20","Interesting, i really like the face and the moon. Realy detailed and you see something new with each look.,11,220,20","a cute little cute with some protectors,25,360,20","Makes me feel nice,23,380,20","Not my favorite but has an interesting concept,32,380,20","Kelly","Interesting, i really like the face and the moon. Realy detailed and you see something new with each look.,11,220,20","Jennifer","Not my favorite but has an interesting concept,32,380,20","Victoria","makes me think of a busy city,-18,400,20","4"
"2665","","image-button-response_instructions","261","3118945","0.0-259.0","A2EVY60IK9QPMJ","","0","instructions","","","","","","","","","","","","","","","","","","","","","","","",""
"1082","","image-button-response","262","3120037","0.0-260.0","A2EVY60IK9QPMJ","","0","","","","","","","","","","","","","","","","","","","","","","","","",""
