"rt","url","trial_type","trial_index","time_elapsed","internal_node_id","participant_id","stimulus","button_pressed","Name","responses","response","key_press","variableName","fixationTime","condition","trial","photo","subjectRating","subjectResponse","agentsNames","agent_1_Response","agent_2_Response","agent_3_Response","agent_4_Response","agent_5_Response","agent_6_Response","kept_1_name","kept_1_response","kept_2_name","kept_2_response","kept_3_name","kept_3_response","errorCounter"
"18428","external_page_harvard.html","external-html","0","18488","0.0-0.0","A2FGKKWP33DFWS","","","","","","","","","","","","","","","","","","","","","","","","","","",""
"2305","","image-button-response","1","20794","0.0-1.0","A2FGKKWP33DFWS","","0","","","","","","","","","","","","","","","","","","","","","","","","",""
"2139","","image-button-response","2","22938","0.0-2.0-0.0","A2FGKKWP33DFWS","","1","phone","","","","","","","","","","","","","","","","","","","","","","","",""
"4688","","survey-text","3","27627","0.0-3.0-0.0","A2FGKKWP33DFWS","","","","{""Q0"":""A2FGKKWP33DFWS""}","","","","","","","","","","","","","","","","","","","","","","",""
"2796","","image-button-response_instructions","4","30425","0.0-4.0","A2FGKKWP33DFWS","","0","instructions","","","","","","","","","","","","","","","","","","","","","","","",""
"1321","","image-button-response_instructions","5","31747","0.0-5.0","A2FGKKWP33DFWS","img_art/ins/popularity/ins1.png","0","instructions","","","","","","","","","","","","","","","","","","","","","","","",""
"773","","image-button-response_instructions","6","32521","0.0-6.0","A2FGKKWP33DFWS","img_art/ins/popularity/ins2.png","0","instructions","","","","","","","","","","","","","","","","","","","","","","","",""
"1989","","image-button-response_instructions","7","34511","0.0-7.0","A2FGKKWP33DFWS","img_art/ins/popularity/ins2Extreme.png","0","instructions","","","","","","","","","","","","","","","","","","","","","","","",""
"1417","","image-button-response_instructions","8","35929","0.0-8.0","A2FGKKWP33DFWS","img_art/ins/popularity/ins3KEEPpop.PNG","0","instructions","","","","","","","","","","","","","","","","","","","","","","","",""
"1003","","image-button-response_instructions","9","36933","0.0-9.0","A2FGKKWP33DFWS","img_art/ins/popularity/ins3ANamepop.PNG","0","instructions","","","","","","","","","","","","","","","","","","","","","","","",""
"867","","image-button-response_instructions","10","37801","0.0-10.0","A2FGKKWP33DFWS","img_art/ins/popularity/ins3ARatingpop.png","0","instructions","","","","","","","","","","","","","","","","","","","","","","","",""
"869","","image-button-response_instructions","11","38671","0.0-11.0","A2FGKKWP33DFWS","img_art/ins/popularity/ins3ATextpop.png","0","instructions","","","","","","","","","","","","","","","","","","","","","","","",""
"2409","","image-button-response_instructions","12","41081","0.0-12.0","A2FGKKWP33DFWS","img_art/ins/popularity/ins3ALikespop.png","0","instructions","","","","","","","","","","","","","","","","","","","","","","","",""
"1945","","image-button-response_instructions","13","43027","0.0-13.0","A2FGKKWP33DFWS","img_art/ins/popularity/ins3KEEPpop.PNG","0","instructions","","","","","","","","","","","","","","","","","","","","","","","",""
"1529","","image-button-response_instructions","14","44557","0.0-14.0","A2FGKKWP33DFWS","img_art/ins/popularity/ins3_5RED.png","0","instructions","","","","","","","","","","","","","","","","","","","","","","","",""
"1653","","image-button-response_instructions","15","46211","0.0-15.0","A2FGKKWP33DFWS","img_art/ins/popularity/ins3KEEPpop.PNG","0","instructions","","","","","","","","","","","","","","","","","","","","","","","",""
"2218","","image-button-response_instructions","16","48429","0.0-16.0","A2FGKKWP33DFWS","img_art/ins/popularity/ins4KEEPpop.PNG","0","instructions","","","","","","","","","","","","","","","","","","","","","","","",""
"3387","","image-button-response_instructions","17","51817","0.0-17.0","A2FGKKWP33DFWS","img_art/ins/popularity/ins5KEEPpop.PNG","0","instructions","","","","","","","","","","","","","","","","","","","","","","","",""
"10467","","image-button-response_instructions","18","62285","0.0-18.0","A2FGKKWP33DFWS","","0","instructions","","","","","","","","","","","","","","","","","","","","","","","",""
"29984","","survey-text","19","92293","0.0-19.0-0.0","A2FGKKWP33DFWS","","","","{""Q0"":""but""}","","","","","","","","","","","","","","","","","","","","","","",""
"37578","","survey-text","20","129873","0.0-20.0-0.0","A2FGKKWP33DFWS","","","","{""Q0"":""it is using somewhat basic colors and is boring""}","","","","","","","","","","","","","","","","","","","","","","",""
"9871.199999988079","","image-slider-response","21","139747","0.0-21.0","A2FGKKWP33DFWS","","","","","-13","","","","","","","","","","","","","","","","","","","","","",""
"null","","image-button-response","22","144750","0.0-22.0","A2FGKKWP33DFWS","img_art/ins/1.jpg","null","","","","","","","","","","","","","","","","","","","","","","","","",""
"14311","","image-button-response","23","159063","0.0-23.0","A2FGKKWP33DFWS","img_art/ins/1.jpg","5","","","","","","","","","","","","","","","","","","","","","","","","",""
"5335","","image-button-response","24","164401","0.0-24.0-0.0","A2FGKKWP33DFWS","img_art/ins/1.jpg","5","","","","","","","","","","","","","","","","","","","","","","","","",""
"15255","","image-button-response","25","189265","0.0-24.1-0.1","A2FGKKWP33DFWS","img_art/ins/1.jpg","0","","","","","","","","","","","","","","","","","","","","","","","","",""
"5339","","image-button-response","26","194607","0.0-25.0-0.0","A2FGKKWP33DFWS","img_art/ins/1.jpg","2","","","","","","","","","","","","","","","","","","","","","","","","",""
"null","","html-keyboard-response","27","195609","0.0-26.0","A2FGKKWP33DFWS","<p style=""font-size: 48px;"">+</p>","","","","","null","allTrialResponses","1000","1","-2","img_art/ins/1.jpg","-13","it is using somewhat basic colors and is boring","Adam,Alex,Ben,Carl,Daniel,Jack","Seems like doodles,-20,20,20","very creative work.,36,40,20","This color reminds me of poo,-46,60,20","very calming artwork,42,80,20","It looks like a murder scene.,-48,100,20","I like the sophisticated brushwork,40,120,20","Jack","I like the sophisticated brushwork,40,120,20","Adam","Seems like doodles,-20,20,20","Ben","This color reminds me of poo,-46,60,20","2"
"25582","","survey-text","28","221196","0.0-27.0-0.0","A2FGKKWP33DFWS","","","","{""Q0"":""This is a detailed picture""}","","","","","","","","","","","","","","","","","","","","","","",""
"3894.300000011921","","image-slider-response","29","225092","0.0-28.0","A2FGKKWP33DFWS","","","","","15","","","","","","","","","","","","","","","","","","","","","",""
"null","","image-button-response","30","230094","0.0-29.0","A2FGKKWP33DFWS","img_art/ins/2.jpg","null","","","","","","","","","","","","","","","","","","","","","","","","",""
"886","","image-button-response","31","230982","0.0-30.0","A2FGKKWP33DFWS","img_art/ins/2.jpg","4","","","","","","","","","","","","","","","","","","","","","","","","",""
"2628","","image-button-response","32","233612","0.0-31.0-0.0","A2FGKKWP33DFWS","img_art/ins/2.jpg","5","","","","","","","","","","","","","","","","","","","","","","","","",""
"3469","","image-button-response","33","237084","0.0-32.0-0.0","A2FGKKWP33DFWS","img_art/ins/2.jpg","0","","","","","","","","","","","","","","","","","","","","","","","","",""
"null","","html-keyboard-response","34","237586","0.0-33.0","A2FGKKWP33DFWS","<p style=""font-size: 48px;"">+</p>","","","","","null","allTrialResponses","500","1","-1","img_art/ins/2.jpg","15","This is a detailed picture","Adam,Kyle,Ben,James,John,Jack","too much color,-18,20,20","Idk, it is just annoying,-32,180,20","meaningless painting,-45,60,20","looks too angry,-50,140,20","love the texture of paint,48,160,20","I would never be able to compose a sophisticated pallete like this,48,120,20","John","love the texture of paint,48,160,20","Jack","I would never be able to compose a sophisticated pallete like this,48,120,20","Adam","too much color,-18,20,20","2"
"17834","","survey-text","35","255424","0.0-34.0-0.0","A2FGKKWP33DFWS","","","","{""Q0"":""seems to represent a scene that is cold""}","","","","","","","","","","","","","","","","","","","","","","",""
"5376.199999988079","","image-slider-response","36","260801","0.0-35.0","A2FGKKWP33DFWS","","","","","35","","","","","","","","","","","","","","","","","","","","","",""
"null","","image-button-response","37","265804","0.0-36.0","A2FGKKWP33DFWS","img_art/ins/3.jpg","null","","","","","","","","","","","","","","","","","","","","","","","","",""
"2335","","image-button-response","38","268141","0.0-37.0","A2FGKKWP33DFWS","img_art/ins/3.jpg","5","","","","","","","","","","","","","","","","","","","","","","","","",""
"1422","","image-button-response","39","269565","0.0-38.0-0.0","A2FGKKWP33DFWS","img_art/ins/3.jpg","4","","","","","","","","","","","","","","","","","","","","","","","","",""
"1156","","image-button-response","40","270723","0.0-39.0-0.0","A2FGKKWP33DFWS","img_art/ins/3.jpg","3","","","","","","","","","","","","","","","","","","","","","","","","",""
"null","","html-keyboard-response","41","271225","0.0-40.0","A2FGKKWP33DFWS","<p style=""font-size: 48px;"">+</p>","","","","","null","allTrialResponses","500","1","0","img_art/ins/3.jpg","35","seems to represent a scene that is cold","Adam,Sam,Ron,Mike,John,Jack","My daily routine, it's depressing,-20,20,20","I can feel a rainy day from this painting,18,240,20","It looks depressing,-26,220,20","enjoy the different shades of blue,22,200,20","I like the overlapping of brushes,41,160,20","I feel connected to the artist,40,120,20","Jack","I feel connected to the artist,40,120,20","John","I like the overlapping of brushes,41,160,20","Mike","enjoy the different shades of blue,22,200,20","2"
"6027","","image-button-response_instructions","42","277256","0.0-41.0","A2FGKKWP33DFWS","","0","instructions","","","","","","","","","","","","","","","","","","","","","","","",""
"24201","","survey-likert","43","301458","0.0-42.0-0.0","A2FGKKWP33DFWS","","","","{""Q0"":"""",""Q1"":0,""Q2"":1}","","","","","","","","","","","","","","","","","","","","","","",""
"7398","","survey-text","44","308862","0.0-43.0-0.0","A2FGKKWP33DFWS","","","","{""Q0"":""rock""}","","","","","","","","","","","","","","","","","","","","","","",""
"39446","","survey-text","45","348310","0.0-44.0-0.0","A2FGKKWP33DFWS","","","","{""Q0"":""interesting combination of scenes""}","","","","","","","","","","","","","","","","","","","","","","",""
"5892.4000000059605","","image-slider-response","46","354203","0.0-45.0","A2FGKKWP33DFWS","","","","","23","","","","","","","","","","","","","","","","","","","","","",""
"null","","image-button-response","47","359226","0.0-46.0","A2FGKKWP33DFWS","img_art/24.jpg","null","","","","","","","","","","","","","","","","","","","","","","","","",""
"3963","","image-button-response","48","363192","0.0-47.0","A2FGKKWP33DFWS","img_art/24.jpg","3","","","","","","","","","","","","","","","","","","","","","","","","",""
"1284","","image-button-response","49","364478","0.0-48.0-0.0","A2FGKKWP33DFWS","img_art/24.jpg","4","","","","","","","","","","","","","","","","","","","","","","","","",""
"1503","","image-button-response","50","365984","0.0-49.0-0.0","A2FGKKWP33DFWS","img_art/24.jpg","5","","","","","","","","","","","","","","","","","","","","","","","","",""
"null","","html-keyboard-response","51","366486","0.0-50.0","A2FGKKWP33DFWS","<p style=""font-size: 48px;"">+</p>","","","","","null","allTrialResponses","500","1","1","img_art/24.jpg","23","interesting combination of scenes","Brett,Antonio,Jake,Malik,Thomas,Jordan","Forest waterfall,40,360,20","Waterfalls and spring and gives me a sense of renewal,34,220,20","This looks ugly and simple, as if done by a young person.,-2,360,20","Very nice textures and subject,38,40,20","Beautiful colors and texture,20,220,20","Beautiful waterfall I like waterfalls,39,160,20","Malik","Very nice textures and subject,38,40,20","Thomas","Beautiful colors and texture,20,220,20","Jordan","Beautiful waterfall I like waterfalls,39,160,20","2"
"51799","","survey-text","52","418291","0.0-51.0-0.0","A2FGKKWP33DFWS","","","","{""Q0"":""seems cluttered and busy""}","","","","","","","","","","","","","","","","","","","","","","",""
"4413.9000000059605","","image-slider-response","53","422707","0.0-52.0","A2FGKKWP33DFWS","","","","","-25","","","","","","","","","","","","","","","","","","","","","",""
"null","","image-button-response","54","427709","0.0-53.0","A2FGKKWP33DFWS","img_art/29.jpg","null","","","","","","","","","","","","","","","","","","","","","","","","",""
"2471","","image-button-response","55","430182","0.0-54.0","A2FGKKWP33DFWS","img_art/29.jpg","2","","","","","","","","","","","","","","","","","","","","","","","","",""
"7706","","image-button-response","56","437890","0.0-55.0-0.0","A2FGKKWP33DFWS","img_art/29.jpg","0","","","","","","","","","","","","","","","","","","","","","","","","",""
"2095","","image-button-response","57","439988","0.0-56.0-0.0","A2FGKKWP33DFWS","img_art/29.jpg","4","","","","","","","","","","","","","","","","","","","","","","","","",""
"null","","html-keyboard-response","58","441501","0.0-57.0","A2FGKKWP33DFWS","<p style=""font-size: 48px;"">+</p>","","","","","null","allTrialResponses","1500","1","2","img_art/29.jpg","-25","seems cluttered and busy","Ethan,Brendan,Luis,Malik,Thomas,Jordan","I love the angry emotion to this art. I feel very drawn to it.,18,120,20","it looks like a prison,-33,340,20","I love the representation of a mess,50,400,20","Feels like an abandoned dream,13,40,20","Looks messy, but not in appealing way,-20,220,20","Messy and disorganized, to odark,-31,160,20","Luis","I love the representation of a mess,50,400,20","Ethan","I love the angry emotion to this art. I feel very drawn to it.,18,120,20","Thomas","Looks messy, but not in appealing way,-20,220,20","2"
"28857","","survey-text","59","470363","0.0-58.0-0.0","A2FGKKWP33DFWS","","","","{""Q0"":""sparse scene using muted colors""}","","","","","","","","","","","","","","","","","","","","","","",""
"3144.800000011921","","image-slider-response","60","473509","0.0-59.0","A2FGKKWP33DFWS","","","","","-13","","","","","","","","","","","","","","","","","","","","","",""
"null","","image-button-response","61","478513","0.0-60.0","A2FGKKWP33DFWS","img_art/19.jpg","null","","","","","","","","","","","","","","","","","","","","","","","","",""
"760","","image-button-response","62","479275","0.0-61.0","A2FGKKWP33DFWS","img_art/19.jpg","1","","","","","","","","","","","","","","","","","","","","","","","","",""
"5946","","image-button-response","63","485223","0.0-62.0-0.0","A2FGKKWP33DFWS","img_art/19.jpg","5","","","","","","","","","","","","","","","","","","","","","","","","",""
"14467","","image-button-response","64","499693","0.0-63.0-0.0","A2FGKKWP33DFWS","img_art/19.jpg","3","","","","","","","","","","","","","","","","","","","","","","","","",""
"null","","html-keyboard-response","65","501203","0.0-64.0","A2FGKKWP33DFWS","<p style=""font-size: 48px;"">+</p>","","","","","null","allTrialResponses","1500","1","3","img_art/19.jpg","-13","sparse scene using muted colors","Ethan,Peter,Luis,Jonathan,Thomas,Nicholas","I interpret an outdoor scene. It's good because it makes me want to look longer.,22,120,20","Looks like hustle and bustle ,,3,320,20","Gives a very open and freeing vibe,42,400,20","Feels like something I would hang in my dining room,42,140,20","I like this as a whole, but the longer I look at it, the less it pleases me,-10,220,20","Intersting but not for me,21,240,20","Peter","Looks like hustle and bustle ,,3,320,20","Nicholas","Intersting but not for me,21,240,20","Jonathan","Feels like something I would hang in my dining room,42,140,20","2"
"25294","","survey-text","66","526502","0.0-65.0-0.0","A2FGKKWP33DFWS","","","","{""Q0"":""not a good depiction of anything""}","","","","","","","","","","","","","","","","","","","","","","",""
"3112","","image-slider-response","67","529616","0.0-66.0","A2FGKKWP33DFWS","","","","","-34","","","","","","","","","","","","","","","","","","","","","",""
"4966","","image-button-response","68","534618","0.0-67.0","A2FGKKWP33DFWS","img_art/23.jpg","1","","","","","","","","","","","","","","","","","","","","","","","","",""
"1478","","image-button-response","69","536098","0.0-68.0","A2FGKKWP33DFWS","img_art/23.jpg","1","","","","","","","","","","","","","","","","","","","","","","","","",""
"2460","","image-button-response","70","538560","0.0-69.0-0.0","A2FGKKWP33DFWS","img_art/23.jpg","4","","","","","","","","","","","","","","","","","","","","","","","","",""
"4239","","image-button-response","71","542802","0.0-70.0-0.0","A2FGKKWP33DFWS","img_art/23.jpg","2","","","","","","","","","","","","","","","","","","","","","","","","",""
"null","","html-keyboard-response","72","543805","0.0-71.0","A2FGKKWP33DFWS","<p style=""font-size: 48px;"">+</p>","","","","","null","allTrialResponses","1000","1","4","img_art/23.jpg","-34","not a good depiction of anything","Aaron,Peter,Seth,Jonathan,Adrian,Nicholas","I love the colors and the contrast.,50,20,20","Reminds me of disco/70's, not my favorite design,-12,320,20","I thought this art was exciting and it reminded me of dancing people.,12,60,20","Those colors are awesome! And I love the strip of negative space that almost looks like a line of people,50,140,20","Too much contrasting colors together. I hate it.,-50,60,20","The more i look at it the more i like it  the dots of color and very interesting,50,240,20","Peter","Reminds me of disco/70's, not my favorite design,-12,320,20","Adrian","Too much contrasting colors together. I hate it.,-50,60,20","Seth","I thought this art was exciting and it reminded me of dancing people.,12,60,20","2"
"28880","","survey-text","73","572690","0.0-72.0-0.0","A2FGKKWP33DFWS","","","","{""Q0"":""The Teddy bear is eyecatching in a boring scene""}","","","","","","","","","","","","","","","","","","","","","","",""
"4772.300000011921","","image-slider-response","74","577464","0.0-73.0","A2FGKKWP33DFWS","","","","","20","","","","","","","","","","","","","","","","","","","","","",""
"4196","","image-button-response","75","582468","0.0-74.0","A2FGKKWP33DFWS","img_art/16.jpg","1","","","","","","","","","","","","","","","","","","","","","","","","",""
"381","","image-button-response","76","582850","0.0-75.0","A2FGKKWP33DFWS","img_art/16.jpg","1","","","","","","","","","","","","","","","","","","","","","","","","",""
"1658","","image-button-response","77","584510","0.0-76.0-0.0","A2FGKKWP33DFWS","img_art/16.jpg","2","","","","","","","","","","","","","","","","","","","","","","","","",""
"2830","","image-button-response","78","587343","0.0-77.0-0.0","A2FGKKWP33DFWS","img_art/16.jpg","3","","","","","","","","","","","","","","","","","","","","","","","","",""
"null","","html-keyboard-response","79","588346","0.0-78.0","A2FGKKWP33DFWS","<p style=""font-size: 48px;"">+</p>","","","","","null","allTrialResponses","1000","1","5","img_art/16.jpg","20","The Teddy bear is eyecatching in a boring scene","Jesus,Peter,Seth,James,Adrian,Marcus","I like the mixture of images,23,100,20","It's a little unsettling,2,320,20","This one isn't for me. It came off as strange but not in a good way.,-44,60,20","It is interesting to say the least,0,380,20","It's depressing. Probably achieved its goal. But I wouldn't want it hanging in my home.,-31,60,20","Hate this, especially the jarring contrast of the super realistic teddybear face.,-50,60,20","Peter","It's a little unsettling,2,320,20","Seth","This one isn't for me. It came off as strange but not in a good way.,-44,60,20","James","It is interesting to say the least,0,380,20","2"
"7163","","survey-text","80","595516","0.0-79.0-0.0","A2FGKKWP33DFWS","","","","{""Q0"":""sky""}","","","","","","","","","","","","","","","","","","","","","","",""
"27465","","survey-text","81","622984","0.0-80.0-0.0","A2FGKKWP33DFWS","","","","{""Q0"":""looks like a sparse ocean scence""}","","","","","","","","","","","","","","","","","","","","","","",""
"4390.399999976158","","image-slider-response","82","627376","0.0-81.0","A2FGKKWP33DFWS","","","","","-25","","","","","","","","","","","","","","","","","","","","","",""
"3596","","image-button-response","83","632378","0.0-82.0","A2FGKKWP33DFWS","img_art/27.jpg","5","","","","","","","","","","","","","","","","","","","","","","","","",""
"2434","","image-button-response","84","634814","0.0-83.0","A2FGKKWP33DFWS","img_art/27.jpg","2","","","","","","","","","","","","","","","","","","","","","","","","",""
"1122","","image-button-response","85","635938","0.0-84.0-0.0","A2FGKKWP33DFWS","img_art/27.jpg","1","","","","","","","","","","","","","","","","","","","","","","","","",""
"2008","","image-button-response","86","637948","0.0-85.0-0.0","A2FGKKWP33DFWS","img_art/27.jpg","5","","","","","","","","","","","","","","","","","","","","","","","","",""
"null","","html-keyboard-response","87","638963","0.0-86.0","A2FGKKWP33DFWS","<p style=""font-size: 48px;"">+</p>","","","","","null","allTrialResponses","1000","1","6","img_art/27.jpg","-25","looks like a sparse ocean scence","Ryan,Peter,Seth,James,Jeffrey,John","I love the childish aspect to it,37,380,20","Calming sky , relaxing,23,320,20","I don't care for the green scribbles; not sure what they are. But I adore the colors in the background.,24,60,20","This painting is very unique,21,380,20","I like the pictures but it is a lot of going on,10,40,20","Looks as if a toddler painted it,-20,120,20","Seth","I don't care for the green scribbles; not sure what they are. But I adore the colors in the background.,24,60,20","Peter","Calming sky , relaxing,23,320,20","John","Looks as if a toddler painted it,-20,120,20","2"
"21835","","survey-text","88","660801","0.0-87.0-0.0","A2FGKKWP33DFWS","","","","{""Q0"":""abstract no talent painting""}","","","","","","","","","","","","","","","","","","","","","","",""
"3007.9000000059605","","image-slider-response","89","663811","0.0-88.0","A2FGKKWP33DFWS","","","","","-21","","","","","","","","","","","","","","","","","","","","","",""
"4244","","image-button-response","90","668813","0.0-89.0","A2FGKKWP33DFWS","img_art/22.jpg","5","","","","","","","","","","","","","","","","","","","","","","","","",""
"612","","image-button-response","91","669428","0.0-90.0","A2FGKKWP33DFWS","img_art/22.jpg","5","","","","","","","","","","","","","","","","","","","","","","","","",""
"3334","","image-button-response","92","672764","0.0-91.0-0.0","A2FGKKWP33DFWS","img_art/22.jpg","1","","","","","","","","","","","","","","","","","","","","","","","","",""
"2648","","image-button-response","93","675414","0.0-92.0-0.0","A2FGKKWP33DFWS","img_art/22.jpg","4","","","","","","","","","","","","","","","","","","","","","","","","",""
"null","","html-keyboard-response","94","675915","0.0-93.0","A2FGKKWP33DFWS","<p style=""font-size: 48px;"">+</p>","","","","","null","allTrialResponses","500","1","7","img_art/22.jpg","-21","abstract no talent painting","Dakota,Peter,Seth,Joshua,Jason,John","muddy and rough,14,280,20","Just neutral no feelings,2,320,20","I think the colors are beautiful they remind me of a sunset.,13,60,20","This one would work in the right frame. It's nice.,20,240,20","Would be better if random black object was not present,11,20,20","Its okay,it doesnt make me feel any sort of strong emotion,1,120,20","John","Its okay,it doesnt make me feel any sort of strong emotion,1,120,20","Peter","Just neutral no feelings,2,320,20","Jason","Would be better if random black object was not present,11,20,20","2"
"19752","","survey-text","95","695671","0.0-94.0-0.0","A2FGKKWP33DFWS","","","","{""Q0"":""looks a depiction of a forest.""}","","","","","","","","","","","","","","","","","","","","","","",""
"3454.2000000178814","","image-slider-response","96","699127","0.0-95.0","A2FGKKWP33DFWS","","","","","-31","","","","","","","","","","","","","","","","","","","","","",""
"null","","image-button-response","97","704129","0.0-96.0","A2FGKKWP33DFWS","img_art/15.jpg","null","","","","","","","","","","","","","","","","","","","","","","","","",""
"5130","","image-button-response","98","709261","0.0-97.0","A2FGKKWP33DFWS","img_art/15.jpg","0","","","","","","","","","","","","","","","","","","","","","","","","",""
"2875","","image-button-response","99","712137","0.0-98.0-0.0","A2FGKKWP33DFWS","img_art/15.jpg","1","","","","","","","","","","","","","","","","","","","","","","","","",""
"1849","","image-button-response","100","713989","0.0-99.0-0.0","A2FGKKWP33DFWS","img_art/15.jpg","0","","","","","","","","","","","","","","","","","","","","","","","","",""
"5587","","image-button-response","101","752939","0.0-99.1-0.1","A2FGKKWP33DFWS","img_art/15.jpg","2","","","","","","","","","","","","","","","","","","","","","","","","",""
"null","","html-keyboard-response","102","753441","0.0-100.0","A2FGKKWP33DFWS","<p style=""font-size: 48px;"">+</p>","","","","","null","allTrialResponses","500","1","8","img_art/15.jpg","-31","looks a depiction of a forest.","Angel,Peter,Michael,Gregory,Jason,John","This is looking at a forest from above. I can see water and some pathways throughout. Nature.,20,180,20","It's just dots. Doesn't bring any positive or negative feelings,2,320,20","Looks incomplete.,-19,140,20","Black and blue is my favorite color combination,35,220,20","Simplicity of colors is nice,11,20,20","Uninteresting and too much black,-30,120,20","Angel","This is looking at a forest from above. I can see water and some pathways throughout. Nature.,20,180,20","Peter","It's just dots. Doesn't bring any positive or negative feelings,2,320,20","Michael","Looks incomplete.,-19,140,20","4"
"22389","","survey-text","103","775835","0.0-101.0-0.0","A2FGKKWP33DFWS","","","","{""Q0"":""interesting combination of colors and strokes""}","","","","","","","","","","","","","","","","","","","","","","",""
"3302.2999999821186","","image-slider-response","104","779139","0.0-102.0","A2FGKKWP33DFWS","","","","","31","","","","","","","","","","","","","","","","","","","","","",""
"4864","","image-button-response","105","784141","0.0-103.0","A2FGKKWP33DFWS","img_art/20.jpg","1","","","","","","","","","","","","","","","","","","","","","","","","",""
"2154","","image-button-response","106","786297","0.0-104.0","A2FGKKWP33DFWS","img_art/20.jpg","2","","","","","","","","","","","","","","","","","","","","","","","","",""
"2230","","image-button-response","107","788529","0.0-105.0-0.0","A2FGKKWP33DFWS","img_art/20.jpg","1","","","","","","","","","","","","","","","","","","","","","","","","",""
"1848","","image-button-response","108","790379","0.0-106.0-0.0","A2FGKKWP33DFWS","img_art/20.jpg","4","","","","","","","","","","","","","","","","","","","","","","","","",""
"null","","html-keyboard-response","109","791884","0.0-107.0","A2FGKKWP33DFWS","<p style=""font-size: 48px;"">+</p>","","","","","null","allTrialResponses","1500","1","9","img_art/20.jpg","31","interesting combination of colors and strokes","Angel,Peter,Michael,David,Mark,Dalton","This looks like a ruin of what was once a thriving city.,-9,180,20","Little picturesque town that I would like to visit,19,320,20","Brings about an emotion response of dspair. Loose lines but yet has a cohesion.,8,140,20","I like how the image is depicting a scene.,10,340,20","Reminds me of persistance of time (a favorite of mine).,30,80,20","make me feel like its a little country maybe a tractor and a skull head of a bull,1,300,20","Michael","Brings about an emotion response of dspair. Loose lines but yet has a cohesion.,8,140,20","Peter","Little picturesque town that I would like to visit,19,320,20","Mark","Reminds me of persistance of time (a favorite of mine).,30,80,20","4"
"30144","","survey-text","110","822036","0.0-108.0-0.0","A2FGKKWP33DFWS","","","","{""Q0"":""looks like a roller coaster""}","","","","","","","","","","","","","","","","","","","","","","",""
"4112.4000000059605","","image-slider-response","111","826150","0.0-109.0","A2FGKKWP33DFWS","","","","","22","","","","","","","","","","","","","","","","","","","","","",""
"3162","","image-button-response","112","831152","0.0-110.0","A2FGKKWP33DFWS","img_art/11.jpg","3","","","","","","","","","","","","","","","","","","","","","","","","",""
"4122","","image-button-response","113","835276","0.0-111.0","A2FGKKWP33DFWS","img_art/11.jpg","2","","","","","","","","","","","","","","","","","","","","","","","","",""
"2229","","image-button-response","114","837508","0.0-112.0-0.0","A2FGKKWP33DFWS","img_art/11.jpg","5","","","","","","","","","","","","","","","","","","","","","","","","",""
"1101","","image-button-response","115","838612","0.0-113.0-0.0","A2FGKKWP33DFWS","img_art/11.jpg","4","","","","","","","","","","","","","","","","","","","","","","","","",""
"null","","html-keyboard-response","116","840114","0.0-114.0","A2FGKKWP33DFWS","<p style=""font-size: 48px;"">+</p>","","","","","null","allTrialResponses","1500","1","10","img_art/11.jpg","22","looks like a roller coaster","Christian,Peter,Michael,Alejandro,Mark,Alexander","to me, perfect reflection of the modern commute,32,140,20","Smoggy, oily, industrial. Don't like,1,320,20","It's kind of cool and I see it looks clean.,22,140,20","Enjoyed the lines representing different paths that encompass different entities,20,80,20","My initial thought was roller coasters but I see ship masts on a cloudy day too.,35,80,20","Waves of signs.,15,120,20","Michael","It's kind of cool and I see it looks clean.,22,140,20","Alexander","Waves of signs.,15,120,20","Mark","My initial thought was roller coasters but I see ship masts on a cloudy day too.,35,80,20","4"
"8364","","survey-text","117","848486","0.0-115.0-0.0","A2FGKKWP33DFWS","","","","{""Q0"":""our""}","","","","","","","","","","","","","","","","","","","","","","",""
"13760","","survey-text","118","862247","0.0-116.0-0.0","A2FGKKWP33DFWS","","","","{""Q0"":""looks like a road map""}","","","","","","","","","","","","","","","","","","","","","","",""
"6326.300000011921","","image-slider-response","119","868576","0.0-117.0","A2FGKKWP33DFWS","","","","","26","","","","","","","","","","","","","","","","","","","","","",""
"4656","","image-button-response","120","873578","0.0-118.0","A2FGKKWP33DFWS","img_art/10.jpg","0","","","","","","","","","","","","","","","","","","","","","","","","",""
"1852","","image-button-response","121","875434","0.0-119.0","A2FGKKWP33DFWS","img_art/10.jpg","0","","","","","","","","","","","","","","","","","","","","","","","","",""
"1802","","image-button-response","122","877238","0.0-120.0-0.0","A2FGKKWP33DFWS","img_art/10.jpg","4","","","","","","","","","","","","","","","","","","","","","","","","",""
"866","","image-button-response","123","878106","0.0-121.0-0.0","A2FGKKWP33DFWS","img_art/10.jpg","5","","","","","","","","","","","","","","","","","","","","","","","","",""
"null","","html-keyboard-response","124","879110","0.0-122.0","A2FGKKWP33DFWS","<p style=""font-size: 48px;"">+</p>","","","","","null","allTrialResponses","1000","1","11","img_art/10.jpg","26","looks like a road map","Adam,Evan,Michael,Trevor,Mark,Alexander","I like the contrast,10,40,20","My immediate thought is WTF is this,-20,140,20","Ugly and low skill. I wouldn't want it.,-50,140,20","It's very dark and angry looking,-31,280,20","Kraken, and I love it.,39,80,20","Roller coaster on an island.,9,120,20","Adam","I like the contrast,10,40,20","Mark","Kraken, and I love it.,39,80,20","Alexander","Roller coaster on an island.,9,120,20","4"
"37016","","survey-text","125","916132","0.0-123.0-0.0","A2FGKKWP33DFWS","","","","{""Q0"":""abstact of mountains and sky""}","","","","","","","","","","","","","","","","","","","","","","",""
"3262.2000000178814","","image-slider-response","126","919395","0.0-124.0","A2FGKKWP33DFWS","","","","","21","","","","","","","","","","","","","","","","","","","","","",""
"1964","","image-button-response","127","924398","0.0-125.0","A2FGKKWP33DFWS","img_art/21.jpg","5","","","","","","","","","","","","","","","","","","","","","","","","",""
"1366","","image-button-response","128","925766","0.0-126.0","A2FGKKWP33DFWS","img_art/21.jpg","5","","","","","","","","","","","","","","","","","","","","","","","","",""
"1678","","image-button-response","129","927446","0.0-127.0-0.0","A2FGKKWP33DFWS","img_art/21.jpg","4","","","","","","","","","","","","","","","","","","","","","","","","",""
"2206","","image-button-response","130","929654","0.0-128.0-0.0","A2FGKKWP33DFWS","img_art/21.jpg","2","","","","","","","","","","","","","","","","","","","","","","","","",""
"null","","html-keyboard-response","131","930156","0.0-129.0","A2FGKKWP33DFWS","<p style=""font-size: 48px;"">+</p>","","","","","null","allTrialResponses","500","1","12","img_art/21.jpg","21","abstact of mountains and sky","Adam,Nathaniel,Scott,Mitchell,Mark,Alexander","I like color mix here,15,40,20","Looks like two ships on fire. Cool image.,12,220,20","looks like a sunrise, great colors,40,20,20","Nature, water, ever changing. Cold then warm. Reaction is mostly positive and some negative,30,180,20","It feels like a day at sea but the pink is slightly jarring and holding my eye.,26,80,20","Survivable storm on the open sea.,27,120,20","Alexander","Survivable storm on the open sea.,27,120,20","Mark","It feels like a day at sea but the pink is slightly jarring and holding my eye.,26,80,20","Scott","looks like a sunrise, great colors,40,20,20","4"
"14732","","survey-text","132","944893","0.0-130.0-0.0","A2FGKKWP33DFWS","","","","{""Q0"":""looks like desert""}","","","","","","","","","","","","","","","","","","","","","","",""
"2702.2999999821186","","image-slider-response","133","947598","0.0-131.0","A2FGKKWP33DFWS","","","","","23","","","","","","","","","","","","","","","","","","","","","",""
"null","","image-button-response","134","952601","0.0-132.0","A2FGKKWP33DFWS","img_art/7.jpg","null","","","","","","","","","","","","","","","","","","","","","","","","",""
"1272","","image-button-response","135","953874","0.0-133.0","A2FGKKWP33DFWS","img_art/7.jpg","5","","","","","","","","","","","","","","","","","","","","","","","","",""
"1324","","image-button-response","136","955200","0.0-134.0-0.0","A2FGKKWP33DFWS","img_art/7.jpg","4","","","","","","","","","","","","","","","","","","","","","","","","",""
"1012","","image-button-response","137","956214","0.0-135.0-0.0","A2FGKKWP33DFWS","img_art/7.jpg","3","","","","","","","","","","","","","","","","","","","","","","","","",""
"null","","html-keyboard-response","138","956715","0.0-136.0","A2FGKKWP33DFWS","<p style=""font-size: 48px;"">+</p>","","","","","null","allTrialResponses","500","1","13","img_art/7.jpg","23","looks like desert","Tristan,Sean,Scott,Carlos,Mark,Alexander","Limited emotional reaction for me. No focus and highly abstract,-20,300,20","does not look good,-42,40,20","I don't like the texture,-49,20,20","The dried bottom of a puddle in July.,-41,80,20","Reminds me of mold. Repulsive.,-10,80,20","Dead bugs on an insect battleground.,-10,120,20","Alexander","Dead bugs on an insect battleground.,-10,120,20","Mark","Reminds me of mold. Repulsive.,-10,80,20","Carlos","The dried bottom of a puddle in July.,-41,80,20","4"
"20801","","survey-text","139","977521","0.0-137.0-0.0","A2FGKKWP33DFWS","","","","{""Q0"":""two figures squaring off""}","","","","","","","","","","","","","","","","","","","","","","",""
"5542.4000000059605","","image-slider-response","140","983065","0.0-138.0","A2FGKKWP33DFWS","","","","","-31","","","","","","","","","","","","","","","","","","","","","",""
"null","","image-button-response","141","988067","0.0-139.0","A2FGKKWP33DFWS","img_art/28.jpg","null","","","","","","","","","","","","","","","","","","","","","","","","",""
"368","","image-button-response","142","988437","0.0-140.0","A2FGKKWP33DFWS","img_art/28.jpg","0","","","","","","","","","","","","","","","","","","","","","","","","",""
"2044","","image-button-response","143","990483","0.0-141.0-0.0","A2FGKKWP33DFWS","img_art/28.jpg","1","","","","","","","","","","","","","","","","","","","","","","","","",""
"3116","","image-button-response","144","993601","0.0-142.0-0.0","A2FGKKWP33DFWS","img_art/28.jpg","5","","","","","","","","","","","","","","","","","","","","","","","","",""
"null","","html-keyboard-response","145","994112","0.0-143.0","A2FGKKWP33DFWS","<p style=""font-size: 48px;"">+</p>","","","","","null","allTrialResponses","500","1","14","img_art/28.jpg","-31","two figures squaring off","Andrew,Dylan,Hunter,Carlos,Mark,Alexander","Doesn't give me an emotional response,0,160,20","Boring, looks like it belongs in a coffee shop,-20,40,20","reminds me of kandinsky,14,240,20","Colors are pleasing, shapes are vaguely unpleasant. Kidneys at a smoky bar.,5,80,20","It reminds me of the cantina in Star Wars.,37,80,20","Apartment throw up.,-5,120,20","Andrew","Doesn't give me an emotional response,0,160,20","Dylan","Boring, looks like it belongs in a coffee shop,-20,40,20","Alexander","Apartment throw up.,-5,120,20","4"
"13052","","survey-text","146","1007171","0.0-144.0-0.0","A2FGKKWP33DFWS","","","","{""Q0"":""scarecrow""}","","","","","","","","","","","","","","","","","","","","","","",""
"3905.9000000059605","","image-slider-response","147","1011078","0.0-145.0","A2FGKKWP33DFWS","","","","","33","","","","","","","","","","","","","","","","","","","","","",""
"2118","","image-button-response","148","1016080","0.0-146.0","A2FGKKWP33DFWS","img_art/25.jpg","4","","","","","","","","","","","","","","","","","","","","","","","","",""
"1053","","image-button-response","149","1017135","0.0-147.0","A2FGKKWP33DFWS","img_art/25.jpg","5","","","","","","","","","","","","","","","","","","","","","","","","",""
"1232","","image-button-response","150","1018369","0.0-148.0-0.0","A2FGKKWP33DFWS","img_art/25.jpg","4","","","","","","","","","","","","","","","","","","","","","","","","",""
"1158","","image-button-response","151","1019528","0.0-149.0-0.0","A2FGKKWP33DFWS","img_art/25.jpg","3","","","","","","","","","","","","","","","","","","","","","","","","",""
"null","","html-keyboard-response","152","1020530","0.0-150.0","A2FGKKWP33DFWS","<p style=""font-size: 48px;"">+</p>","","","","","null","allTrialResponses","1000","1","15","img_art/25.jpg","33","scarecrow","Andrew,Dylan,Nathan,Matthew,Bradley,Alexander","It makes me feel a little uneasy, but I like the painting,11,160,20","This is too dark and creepy. I also hate the color,-30,40,20","I like it, a bit cryptic and obscene, I enjoy that,30,200,20","haunting, a lovely impression.,50,120,20","This one just has a dark feeling to me.,-50,300,20","Ancient gods above you.,20,120,20","Alexander","Ancient gods above you.,20,120,20","Bradley","This one just has a dark feeling to me.,-50,300,20","Matthew","haunting, a lovely impression.,50,120,20","4"
"7499","","survey-text","153","1028036","0.0-151.0-0.0","A2FGKKWP33DFWS","","","","{""Q0"":""course""}","","","","","","","","","","","","","","","","","","","","","","",""
"14031","","survey-text","154","1042068","0.0-152.0-0.0","A2FGKKWP33DFWS","","","","{""Q0"":""no idea""}","","","","","","","","","","","","","","","","","","","","","","",""
"4862.4000000059605","","image-slider-response","155","1046932","0.0-153.0","A2FGKKWP33DFWS","","","","","-42","","","","","","","","","","","","","","","","","","","","","",""
"4422","","image-button-response","156","1051935","0.0-154.0","A2FGKKWP33DFWS","img_art/12.jpg","5","","","","","","","","","","","","","","","","","","","","","","","","",""
"1580","","image-button-response","157","1053517","0.0-155.0","A2FGKKWP33DFWS","img_art/12.jpg","5","","","","","","","","","","","","","","","","","","","","","","","","",""
"2660","","image-button-response","158","1056179","0.0-156.0-0.0","A2FGKKWP33DFWS","img_art/12.jpg","1","","","","","","","","","","","","","","","","","","","","","","","","",""
"885","","image-button-response","159","1057067","0.0-157.0-0.0","A2FGKKWP33DFWS","img_art/12.jpg","2","","","","","","","","","","","","","","","","","","","","","","","","",""
"null","","html-keyboard-response","160","1057568","0.0-158.0","A2FGKKWP33DFWS","<p style=""font-size: 48px;"">+</p>","","","","","null","allTrialResponses","500","1","16","img_art/12.jpg","-42","no idea","Tyler,Timothy,Charles,Matthew,Bradley,Alexander","Different enough to be memorable. The gradient of hues is appealing and appeasing.,32,320,20","The shapes make me feel a bit uncomfortable,-10,240,20","Just not a fan, I can't figure out why,-17,100,20","It's boxy, cubist immpressionism? Very ncie.,32,120,20","Good technique. It's just not my thing.,2,300,20","Ugly color combinations, no focus.,-25,120,20","Alexander","Ugly color combinations, no focus.,-25,120,20","Timothy","The shapes make me feel a bit uncomfortable,-10,240,20","Charles","Just not a fan, I can't figure out why,-17,100,20","4"
"17980","","survey-text","161","1075555","0.0-159.0-0.0","A2FGKKWP33DFWS","","","","{""Q0"":""sleeping in a cave""}","","","","","","","","","","","","","","","","","","","","","","",""
"2062.4000000059605","","image-slider-response","162","1077619","0.0-160.0","A2FGKKWP33DFWS","","","","","18","","","","","","","","","","","","","","","","","","","","","",""
"2926","","image-button-response","163","1082621","0.0-161.0","A2FGKKWP33DFWS","img_art/9.jpg","4","","","","","","","","","","","","","","","","","","","","","","","","",""
"1112","","image-button-response","164","1083735","0.0-162.0","A2FGKKWP33DFWS","img_art/9.jpg","4","","","","","","","","","","","","","","","","","","","","","","","","",""
"857","","image-button-response","165","1084593","0.0-163.0-0.0","A2FGKKWP33DFWS","img_art/9.jpg","3","","","","","","","","","","","","","","","","","","","","","","","","",""
"2360","","image-button-response","166","1086955","0.0-164.0-0.0","A2FGKKWP33DFWS","img_art/9.jpg","0","","","","","","","","","","","","","","","","","","","","","","","","",""
"null","","html-keyboard-response","167","1087960","0.0-165.0","A2FGKKWP33DFWS","<p style=""font-size: 48px;"">+</p>","","","","","null","allTrialResponses","1000","1","17","img_art/9.jpg","18","sleeping in a cave","Eric,Timothy,Charles,Mason,Benjamin,Alexander","I see some of my favorite colors which I like, but I don't like what's portrayed.,35,100,20","A little too weird for me,-30,240,20","It's too all over the place,-37,100,20","Abstract titanic scene. It's nice though. I like how it makes me feel.,28,100,20","looks like sleeping beauty in a garden,10,260,20","The mouth of an ugly beast.,-25,120,20","Benjamin","looks like sleeping beauty in a garden,10,260,20","Mason","Abstract titanic scene. It's nice though. I like how it makes me feel.,28,100,20","Eric","I see some of my favorite colors which I like, but I don't like what's portrayed.,35,100,20","4"
"19627","","survey-text","168","1107596","0.0-166.0-0.0","A2FGKKWP33DFWS","","","","{""Q0"":""snakes in a cave""}","","","","","","","","","","","","","","","","","","","","","","",""
"4882.5","","image-slider-response","169","1112480","0.0-167.0","A2FGKKWP33DFWS","","","","","-11","","","","","","","","","","","","","","","","","","","","","",""
"null","","image-button-response","170","1117482","0.0-168.0","A2FGKKWP33DFWS","img_art/30.jpg","null","","","","","","","","","","","","","","","","","","","","","","","","",""
"1646","","image-button-response","171","1119130","0.0-169.0","A2FGKKWP33DFWS","img_art/30.jpg","4","","","","","","","","","","","","","","","","","","","","","","","","",""
"850","","image-button-response","172","1119982","0.0-170.0-0.0","A2FGKKWP33DFWS","img_art/30.jpg","3","","","","","","","","","","","","","","","","","","","","","","","","",""
"2948","","image-button-response","173","1122932","0.0-171.0-0.0","A2FGKKWP33DFWS","img_art/30.jpg","2","","","","","","","","","","","","","","","","","","","","","","","","",""
"null","","html-keyboard-response","174","1123948","0.0-172.0","A2FGKKWP33DFWS","<p style=""font-size: 48px;"">+</p>","","","","","null","allTrialResponses","1000","1","18","img_art/30.jpg","-11","snakes in a cave","Eric,Jack,Joseph,Mason,Benjamin,Lucas","I love the colors, the style, and the uniqueness in this piece. I love everything.,50,100,20","love the movement of the brush strokes. very interesting piece.,38,320,20","It's soothing- the page is full, but there aren't too many things happening.,23,220,20","Neat, but simple, I could make this. not skilled.,9,100,20","fresh and bold. outgoing.,15,260,20","I like the way the artist has painted his work.,40,380,20","Benjamin","fresh and bold. outgoing.,15,260,20","Mason","Neat, but simple, I could make this. not skilled.,9,100,20","Joseph","It's soothing- the page is full, but there aren't too many things happening.,23,220,20","4"
"18550","","survey-text","175","1142504","0.0-173.0-0.0","A2FGKKWP33DFWS","","","","{""Q0"":""a NY neighborhood""}","","","","","","","","","","","","","","","","","","","","","","",""
"5824.4000000059605","","image-slider-response","176","1148329","0.0-174.0","A2FGKKWP33DFWS","","","","","21","","","","","","","","","","","","","","","","","","","","","",""
"2786","","image-button-response","177","1153331","0.0-175.0","A2FGKKWP33DFWS","img_art/26.jpg","4","","","","","","","","","","","","","","","","","","","","","","","","",""
"1081","","image-button-response","178","1154414","0.0-176.0","A2FGKKWP33DFWS","img_art/26.jpg","1","","","","","","","","","","","","","","","","","","","","","","","","",""
"958","","image-button-response","179","1155374","0.0-177.0-0.0","A2FGKKWP33DFWS","img_art/26.jpg","2","","","","","","","","","","","","","","","","","","","","","","","","",""
"1345","","image-button-response","180","1156722","0.0-178.0-0.0","A2FGKKWP33DFWS","img_art/26.jpg","3","","","","","","","","","","","","","","","","","","","","","","","","",""
"null","","html-keyboard-response","181","1158229","0.0-179.0","A2FGKKWP33DFWS","<p style=""font-size: 48px;"">+</p>","","","","","null","allTrialResponses","1500","1","19","img_art/26.jpg","21","a NY neighborhood","Blake,Patrick,Joseph,Mason,Benjamin,Miguel","bedroom in the outdoors. warm,9,280,20","I can somewhat city a city in this drawing,11,280,20","Looks like the suburbs. I live in those.,13,220,20","I like the simple watercolor colors, makes my mind work, thumbs up.,27,100,20","The colors are muted.,1,260,20","Murky, messy, kid like.,-45,160,20","Patrick","I can somewhat city a city in this drawing,11,280,20","Joseph","Looks like the suburbs. I live in those.,13,220,20","Mason","I like the simple watercolor colors, makes my mind work, thumbs up.,27,100,20","4"
"60365","","survey-text","182","1218599","0.0-180.0-0.0","A2FGKKWP33DFWS","","","","{""Q0"":""a farm scene""}","","","","","","","","","","","","","","","","","","","","","","",""
"4260.5999999940395","","image-slider-response","183","1222861","0.0-181.0","A2FGKKWP33DFWS","","","","","12","","","","","","","","","","","","","","","","","","","","","",""
"2262","","image-button-response","184","1227874","0.0-182.0","A2FGKKWP33DFWS","img_art/2.jpg","5","","","","","","","","","","","","","","","","","","","","","","","","",""
"1155","","image-button-response","185","1229032","0.0-183.0","A2FGKKWP33DFWS","img_art/2.jpg","5","","","","","","","","","","","","","","","","","","","","","","","","",""
"1036","","image-button-response","186","1230070","0.0-184.0-0.0","A2FGKKWP33DFWS","img_art/2.jpg","4","","","","","","","","","","","","","","","","","","","","","","","","",""
"1086","","image-button-response","187","1231158","0.0-185.0-0.0","A2FGKKWP33DFWS","img_art/2.jpg","3","","","","","","","","","","","","","","","","","","","","","","","","",""
"null","","html-keyboard-response","188","1232662","0.0-186.0","A2FGKKWP33DFWS","<p style=""font-size: 48px;"">+</p>","","","","","null","allTrialResponses","1500","1","20","img_art/2.jpg","12","a farm scene","Jeremy,Patrick,Joseph,Mason,Chase,Christopher","Unhappy. I do not like it,-5,60,20","Dark tone feels sad,-30,280,20","Different cultures. I like that it brings differences together.,4,220,20","retro, amateurish, not a fan of the colors together.,-10,100,20","A bit ugly with the greens.,-20,120,20","nope. just looks like a mess,-28,160,20","Christopher","nope. just looks like a mess,-28,160,20","Chase","A bit ugly with the greens.,-20,120,20","Mason","retro, amateurish, not a fan of the colors together.,-10,100,20","4"
"5238","","survey-text","189","1237909","0.0-187.0-0.0","A2FGKKWP33DFWS","","","","{""Q0"":""we""}","","","","","","","","","","","","","","","","","","","","","","",""
"22724","","survey-text","190","1260635","0.0-188.0-0.0","A2FGKKWP33DFWS","","","","{""Q0"":""a cracked and scratched glass""}","","","","","","","","","","","","","","","","","","","","","","",""
"8106.200000017881","","image-slider-response","191","1268743","0.0-189.0","A2FGKKWP33DFWS","","","","","-32","","","","","","","","","","","","","","","","","","","","","",""
"4585","","image-button-response","192","1273745","0.0-190.0","A2FGKKWP33DFWS","img_art/13.jpg","2","","","","","","","","","","","","","","","","","","","","","","","","",""
"1749","","image-button-response","193","1275495","0.0-191.0","A2FGKKWP33DFWS","img_art/13.jpg","2","","","","","","","","","","","","","","","","","","","","","","","","",""
"2025","","image-button-response","194","1277521","0.0-192.0-0.0","A2FGKKWP33DFWS","img_art/13.jpg","4","","","","","","","","","","","","","","","","","","","","","","","","",""
"1871","","image-button-response","195","1279395","0.0-193.0-0.0","A2FGKKWP33DFWS","img_art/13.jpg","3","","","","","","","","","","","","","","","","","","","","","","","","",""
"null","","html-keyboard-response","196","1280901","0.0-194.0","A2FGKKWP33DFWS","<p style=""font-size: 48px;"">+</p>","","","","","null","allTrialResponses","1500","1","21","img_art/13.jpg","-32","a cracked and scratched glass","Noah,Spencer,Grant,Mason,Chase,Christopher","evokes a dampening feeling,-9,260,20","Like it a lot, reminds me of rainy day on glass,43,120,20","This elicits no reaction in me.,0,200,20","meh, 80's. retro,-9,100,20","Seems a little cold but I like the neuron looking splatters.,10,120,20","this is an appealing mix of textures to me and the color scheme is harmonious,36,160,20","Grant","This elicits no reaction in me.,0,200,20","Chase","Seems a little cold but I like the neuron looking splatters.,10,120,20","Mason","meh, 80's. retro,-9,100,20","4"
"19711","","survey-text","197","1300619","0.0-195.0-0.0","A2FGKKWP33DFWS","","","","{""Q0"":""a man hiding in the wall""}","","","","","","","","","","","","","","","","","","","","","","",""
"2100","","image-slider-response","198","1302721","0.0-196.0","A2FGKKWP33DFWS","","","","","17","","","","","","","","","","","","","","","","","","","","","",""
"1876","","image-button-response","199","1307731","0.0-197.0","A2FGKKWP33DFWS","img_art/8.jpg","5","","","","","","","","","","","","","","","","","","","","","","","","",""
"761","","image-button-response","200","1308495","0.0-198.0","A2FGKKWP33DFWS","img_art/8.jpg","5","","","","","","","","","","","","","","","","","","","","","","","","",""
"3878","","image-button-response","201","1312375","0.0-199.0-0.0","A2FGKKWP33DFWS","img_art/8.jpg","3","","","","","","","","","","","","","","","","","","","","","","","","",""
"1844","","image-button-response","202","1314221","0.0-200.0-0.0","A2FGKKWP33DFWS","img_art/8.jpg","2","","","","","","","","","","","","","","","","","","","","","","","","",""
"null","","html-keyboard-response","203","1314723","0.0-201.0","A2FGKKWP33DFWS","<p style=""font-size: 48px;"">+</p>","","","","","null","allTrialResponses","500","1","22","img_art/8.jpg","17","a man hiding in the wall","Jesse,Devon,Grant,Mason,Chase,Colton","I like the definition and the strong lines. It makes me think of someone watching over the world,24,80,20","wow - the colors were very well mixed,12,400,20","The stylized faces remind me of German expressionism in a very good way.,40,200,20","wow. blocky, angled, neat colors. The faces are what makes it. love it.,45,100,20","This is kind of neat. I really like how things are oriented and the shapes used.,18,120,20","looks like an aerial view, very pretty,32,220,20","Colton","looks like an aerial view, very pretty,32,220,20","Mason","wow. blocky, angled, neat colors. The faces are what makes it. love it.,45,100,20","Grant","The stylized faces remind me of German expressionism in a very good way.,40,200,20","4"
"18232","","survey-text","204","1332962","0.0-202.0-0.0","A2FGKKWP33DFWS","","","","{""Q0"":""scissors""}","","","","","","","","","","","","","","","","","","","","","","",""
"9930.199999988079","","image-slider-response","205","1342894","0.0-203.0","A2FGKKWP33DFWS","","","","","1","","","","","","","","","","","","","","","","","","","","","",""
"3128","","image-button-response","206","1347899","0.0-204.0","A2FGKKWP33DFWS","img_art/4.jpg","2","","","","","","","","","","","","","","","","","","","","","","","","",""
"1476","","image-button-response","207","1349377","0.0-205.0","A2FGKKWP33DFWS","img_art/4.jpg","2","","","","","","","","","","","","","","","","","","","","","","","","",""
"1956","","image-button-response","208","1351335","0.0-206.0-0.0","A2FGKKWP33DFWS","img_art/4.jpg","4","","","","","","","","","","","","","","","","","","","","","","","","",""
"776","","image-button-response","209","1352113","0.0-207.0-0.0","A2FGKKWP33DFWS","img_art/4.jpg","3","","","","","","","","","","","","","","","","","","","","","","","","",""
"null","","html-keyboard-response","210","1353617","0.0-208.0","A2FGKKWP33DFWS","<p style=""font-size: 48px;"">+</p>","","","","","null","allTrialResponses","1500","1","23","img_art/4.jpg","1","scissors","Isaac,Paul,Grant,Mason,Brandon,Colton","The colors remind me of McDonalds.,-41,280,20","The dark yellow color makes me think of mustard, which I dislike,-27,300,20","This elicits no reaction in me.,0,200,20","ordinary, bland. unmoving.,-6,100,20","Really don't like this. Kindergarten art, sorry.,-50,320,20","I really don't like the colors,-26,220,20","Grant","This elicits no reaction in me.,0,200,20","Brandon","Really don't like this. Kindergarten art, sorry.,-50,320,20","Mason","ordinary, bland. unmoving.,-6,100,20","4"
"17017","","survey-text","211","1370642","0.0-209.0-0.0","A2FGKKWP33DFWS","","","","{""Q0"":""a fight in eden""}","","","","","","","","","","","","","","","","","","","","","","",""
"2594.2999999821186","","image-slider-response","212","1373238","0.0-210.0","A2FGKKWP33DFWS","","","","","8","","","","","","","","","","","","","","","","","","","","","",""
"4205","","image-button-response","213","1378240","0.0-211.0","A2FGKKWP33DFWS","img_art/18.jpg","4","","","","","","","","","","","","","","","","","","","","","","","","",""
"881","","image-button-response","214","1379123","0.0-212.0","A2FGKKWP33DFWS","img_art/18.jpg","4","","","","","","","","","","","","","","","","","","","","","","","","",""
"1260","","image-button-response","215","1380384","0.0-213.0-0.0","A2FGKKWP33DFWS","img_art/18.jpg","3","","","","","","","","","","","","","","","","","","","","","","","","",""
"1332","","image-button-response","216","1381719","0.0-214.0-0.0","A2FGKKWP33DFWS","img_art/18.jpg","2","","","","","","","","","","","","","","","","","","","","","","","","",""
"null","","html-keyboard-response","217","1382727","0.0-215.0","A2FGKKWP33DFWS","<p style=""font-size: 48px;"">+</p>","","","","","null","allTrialResponses","1000","1","24","img_art/18.jpg","8","a fight in eden","Shane,Juan,Grant,Mason,Brandon,Dustin","Feels like a story of ancient war of the gods,26,80,20","Again, this is too abtract.,-25,260,20","This is a very energetic painting, and brings to mind scenes of battle.,50,200,20","Skeletons, death, bleak colors, still kinda like it.,16,100,20","Crusade-feel, but a little too abstract for my taste,23,320,20","Looks messy. Reminds me of a battle or war. I have an unpleasant feeling the more I look.,-20,20,20","Brandon","Crusade-feel, but a little too abstract for my taste,23,320,20","Mason","Skeletons, death, bleak colors, still kinda like it.,16,100,20","Grant","This is a very energetic painting, and brings to mind scenes of battle.,50,200,20","4"
"21984","","survey-text","218","1404718","0.0-216.0-0.0","A2FGKKWP33DFWS","","","","{""Q0"":""winter trees""}","","","","","","","","","","","","","","","","","","","","","","",""
"3998.199999988079","","image-slider-response","219","1408718","0.0-217.0","A2FGKKWP33DFWS","","","","","20","","","","","","","","","","","","","","","","","","","","","",""
"3956","","image-button-response","220","1413720","0.0-218.0","A2FGKKWP33DFWS","img_art/17.jpg","5","","","","","","","","","","","","","","","","","","","","","","","","",""
"1021","","image-button-response","221","1414743","0.0-219.0","A2FGKKWP33DFWS","img_art/17.jpg","5","","","","","","","","","","","","","","","","","","","","","","","","",""
"973","","image-button-response","222","1415718","0.0-220.0-0.0","A2FGKKWP33DFWS","img_art/17.jpg","4","","","","","","","","","","","","","","","","","","","","","","","","",""
"706","","image-button-response","223","1416427","0.0-221.0-0.0","A2FGKKWP33DFWS","img_art/17.jpg","3","","","","","","","","","","","","","","","","","","","","","","","","",""
"null","","html-keyboard-response","224","1416929","0.0-222.0","A2FGKKWP33DFWS","<p style=""font-size: 48px;"">+</p>","","","","","null","allTrialResponses","500","1","25","img_art/17.jpg","20","winter trees","Austin,William,Grant,Mason,Brandon,Vincent","Has a unique vibe to it,50,240,20","love the wispyness of it,34,380,20","This makes me feel trapped.,5,200,20","Like this one, super creative, calming.,43,100,20","Love the color and nature motif,36,320,20","Another favorite a relaxing day with nature a day to take it all In,34,360,20","Vincent","Another favorite a relaxing day with nature a day to take it all In,34,360,20","Brandon","Love the color and nature motif,36,320,20","Mason","Like this one, super creative, calming.,43,100,20","4"
"10995","","survey-text","225","1427934","0.0-223.0-0.0","A2FGKKWP33DFWS","","","","{""Q0"":""table""}","","","","","","","","","","","","","","","","","","","","","","",""
"23111","","survey-text","226","1451046","0.0-224.0-0.0","A2FGKKWP33DFWS","","","","{""Q0"":""a scrambled up mess""}","","","","","","","","","","","","","","","","","","","","","","",""
"3530.0999999940395","","image-slider-response","227","1454578","0.0-225.0","A2FGKKWP33DFWS","","","","","7","","","","","","","","","","","","","","","","","","","","","",""
"4565","","image-button-response","228","1459585","0.0-226.0","A2FGKKWP33DFWS","img_art/14.jpg","5","","","","","","","","","","","","","","","","","","","","","","","","",""
"1108","","image-button-response","229","1460695","0.0-227.0","A2FGKKWP33DFWS","img_art/14.jpg","5","","","","","","","","","","","","","","","","","","","","","","","","",""
"2218","","image-button-response","230","1462914","0.0-228.0-0.0","A2FGKKWP33DFWS","img_art/14.jpg","2","","","","","","","","","","","","","","","","","","","","","","","","",""
"1150","","image-button-response","231","1464066","0.0-229.0-0.0","A2FGKKWP33DFWS","img_art/14.jpg","0","","","","","","","","","","","","","","","","","","","","","","","","",""
"null","","html-keyboard-response","232","1465068","0.0-230.0","A2FGKKWP33DFWS","<p style=""font-size: 48px;"">+</p>","","","","","null","allTrialResponses","1000","1","26","img_art/14.jpg","7","a scrambled up mess","Gabriel,Travis,Bryan,Mason,Brandon,Vincent","i like this one!,23,160,20","I kind of like it...I like the white back ground,11,260,20","Like some of the colors but not much else.,1,400,20","ok, gloomy though.,12,100,20","Don't like the colors on this. Too simple,-20,320,20","Reminds me of the old days with my family and my grandma,41,360,20","Vincent","Reminds me of the old days with my family and my grandma,41,360,20","Bryan","Like some of the colors but not much else.,1,400,20","Gabriel","i like this one!,23,160,20","4"
"10275","","survey-text","233","1475348","0.0-231.0-0.0","A2FGKKWP33DFWS","","","","{""Q0"":""A wind sock""}","","","","","","","","","","","","","","","","","","","","","","",""
"4064.4000000059605","","image-slider-response","234","1479414","0.0-232.0","A2FGKKWP33DFWS","","","","","-26","","","","","","","","","","","","","","","","","","","","","",""
"1355","","image-button-response","235","1484416","0.0-233.0","A2FGKKWP33DFWS","img_art/6.jpg","5","","","","","","","","","","","","","","","","","","","","","","","","",""
"1236","","image-button-response","236","1485654","0.0-234.0","A2FGKKWP33DFWS","img_art/6.jpg","5","","","","","","","","","","","","","","","","","","","","","","","","",""
"1324","","image-button-response","237","1486980","0.0-235.0-0.0","A2FGKKWP33DFWS","img_art/6.jpg","4","","","","","","","","","","","","","","","","","","","","","","","","",""
"761","","image-button-response","238","1487744","0.0-236.0-0.0","A2FGKKWP33DFWS","img_art/6.jpg","3","","","","","","","","","","","","","","","","","","","","","","","","",""
"null","","html-keyboard-response","239","1488756","0.0-237.0","A2FGKKWP33DFWS","<p style=""font-size: 48px;"">+</p>","","","","","null","allTrialResponses","1000","1","27","img_art/6.jpg","-26","A wind sock","Gabriel,Shawn,Bryan,Kyle,Kenneth,Vincent","its like a jalapeno,-28,160,20","Cute and evocative,11,100,20","Growth in the desert?  Don't care for it very much.,-26,400,20","Simple and clean,11,340,20","Simple and pretty.,18,300,20","Calm and catching,30,360,20","Vincent","Calm and catching,30,360,20","Kenneth","Simple and pretty.,18,300,20","Kyle","Simple and clean,11,340,20","4"
"16050","","survey-text","240","1504812","0.0-238.0-0.0","A2FGKKWP33DFWS","","","","{""Q0"":""volcano""}","","","","","","","","","","","","","","","","","","","","","","",""
"3724.300000011921","","image-slider-response","241","1508538","0.0-239.0","A2FGKKWP33DFWS","","","","","-29","","","","","","","","","","","","","","","","","","","","","",""
"4572","","image-button-response","242","1513540","0.0-240.0","A2FGKKWP33DFWS","img_art/5.jpg","5","","","","","","","","","","","","","","","","","","","","","","","","",""
"1416","","image-button-response","243","1514958","0.0-241.0","A2FGKKWP33DFWS","img_art/5.jpg","5","","","","","","","","","","","","","","","","","","","","","","","","",""
"2354","","image-button-response","244","1517314","0.0-242.0-0.0","A2FGKKWP33DFWS","img_art/5.jpg","3","","","","","","","","","","","","","","","","","","","","","","","","",""
"1102","","image-button-response","245","1518418","0.0-243.0-0.0","A2FGKKWP33DFWS","img_art/5.jpg","2","","","","","","","","","","","","","","","","","","","","","","","","",""
"null","","html-keyboard-response","246","1519922","0.0-244.0","A2FGKKWP33DFWS","<p style=""font-size: 48px;"">+</p>","","","","","null","allTrialResponses","1500","1","28","img_art/5.jpg","-29","volcano","Isaiah,Daniel,Derek,Kyle,Kenneth,Vincent","I feel nothing looking at this.,-5,300,20","Cop out, easy money for artist for a 4 min piece,-29,320,20","It's okay. Don't hate it but don't love it either,0,360,20","Not sure what to say about this piece honestly. It's okay I guess.,0,340,20","It looks like daffy duck's leg with a random trail of pink.,-22,300,20","It speaks volumes to some. It's also a conversational piece. And very different ideas,34,360,20","Vincent","It speaks volumes to some. It's also a conversational piece. And very different ideas,34,360,20","Kyle","Not sure what to say about this piece honestly. It's okay I guess.,0,340,20","Derek","It's okay. Don't hate it but don't love it either,0,360,20","4"
"20316","","survey-text","247","1540245","0.0-245.0-0.0","A2FGKKWP33DFWS","","","","{""Q0"":""mess""}","","","","","","","","","","","","","","","","","","","","","","",""
"8017","","survey-text","248","1555847","0.0-245.1-0.1","A2FGKKWP33DFWS","","","","{""Q0"":""kind of a mess""}","","","","","","","","","","","","","","","","","","","","","","",""
"2782.4000000059605","","image-slider-response","249","1558631","0.0-246.0","A2FGKKWP33DFWS","","","","","-21","","","","","","","","","","","","","","","","","","","","","",""
"4975","","image-button-response","250","1563633","0.0-247.0","A2FGKKWP33DFWS","img_art/1.jpg","5","","","","","","","","","","","","","","","","","","","","","","","","",""
"1072","","image-button-response","251","1564707","0.0-248.0","A2FGKKWP33DFWS","img_art/1.jpg","5","","","","","","","","","","","","","","","","","","","","","","","","",""
"1112","","image-button-response","252","1565821","0.0-249.0-0.0","A2FGKKWP33DFWS","img_art/1.jpg","4","","","","","","","","","","","","","","","","","","","","","","","","",""
"980","","image-button-response","253","1566804","0.0-250.0-0.0","A2FGKKWP33DFWS","img_art/1.jpg","3","","","","","","","","","","","","","","","","","","","","","","","","",""
"null","","html-keyboard-response","254","1568313","0.0-251.0","A2FGKKWP33DFWS","<p style=""font-size: 48px;"">+</p>","","","","","null","allTrialResponses","1500","1","29","img_art/1.jpg","-21","kind of a mess","Richard,Ian,Derek,Kyle,Bryce,Vincent","nice piece, fall like,31,340,20","Someone painted a landscape and decided they didn't like it so they covered it up.,13,260,20","The blend of colors are gorgeous and reminds me of fall,32,360,20","Too similar to some of the other pieces,-18,340,20","Again kind a boring.,-38,20,20","I love the detail and colors like a beautiful autumn day,35,360,20","Vincent","I love the detail and colors like a beautiful autumn day,35,360,20","Bryce","Again kind a boring.,-38,20,20","Kyle","Too similar to some of the other pieces,-18,340,20","4"
"36906","","survey-text","255","1605227","0.0-252.0-0.0","A2FGKKWP33DFWS","","","","{""Q0"":""a scribble mess""}","","","","","","","","","","","","","","","","","","","","","","",""
"4716.199999988079","","image-slider-response","256","1609944","0.0-253.0","A2FGKKWP33DFWS","","","","","-19","","","","","","","","","","","","","","","","","","","","","",""
"null","","image-button-response","257","1614948","0.0-254.0","A2FGKKWP33DFWS","img_art/3.jpg","null","","","","","","","","","","","","","","","","","","","","","","","","",""
"413","","image-button-response","258","1615363","0.0-255.0","A2FGKKWP33DFWS","img_art/3.jpg","5","","","","","","","","","","","","","","","","","","","","","","","","",""
"2069","","image-button-response","259","1617435","0.0-256.0-0.0","A2FGKKWP33DFWS","img_art/3.jpg","3","","","","","","","","","","","","","","","","","","","","","","","","",""
"2760","","image-button-response","260","1620197","0.0-257.0-0.0","A2FGKKWP33DFWS","img_art/3.jpg","1","","","","","","","","","","","","","","","","","","","","","","","","",""
"null","","html-keyboard-response","261","1621698","0.0-258.0","A2FGKKWP33DFWS","<p style=""font-size: 48px;"">+</p>","","","","","null","allTrialResponses","1500","1","30","img_art/3.jpg","-19","a scribble mess","Taylor,Justin,Devin,Kyle,Bryce,Vincent","Why kids with color crayons is called art is beyond me. People pay for this???,-40,200,20","I don't care for art that looks like it was just scribbled.,-19,280,20","Scribbly a bit too much,-30,380,20","I don't really have a strong reaction to this one,0,340,20","Scary. Looks like blood.,-45,20,20","Iike this one it's a piece that I need to spend more time with to understand how i feel about it,20,360,20","Vincent","Iike this one it's a piece that I need to spend more time with to understand how i feel about it,20,360,20","Kyle","I don't really have a strong reaction to this one,0,340,20","Justin","I don't care for art that looks like it was just scribbled.,-19,280,20","4"
"6641","","image-button-response_instructions","262","1628348","0.0-259.0","A2FGKKWP33DFWS","","0","instructions","","","","","","","","","","","","","","","","","","","","","","","",""
"1397","","image-button-response","263","1629750","0.0-260.0","A2FGKKWP33DFWS","","0","","","","","","","","","","","","","","","","","","","","","","","","",""
