"rt","url","trial_type","trial_index","time_elapsed","internal_node_id","participant_id","stimulus","button_pressed","Name","responses","response","key_press","variableName","fixationTime","condition","trial","photo","subjectRating","subjectResponse","agentsNames","agent_1_Response","agent_2_Response","agent_3_Response","agent_4_Response","agent_5_Response","agent_6_Response","kept_1_name","kept_1_response","kept_2_name","kept_2_response","kept_3_name","kept_3_response","errorCounter"
"6464","external_page_harvard.html","external-html","0","6603","0.0-0.0","A2FJYDSAE26ILV","","","","","","","","","","","","","","","","","","","","","","","","","","",""
"1434","","image-button-response","1","8040","0.0-1.0","A2FJYDSAE26ILV","","1","","","","","","","","","","","","","","","","","","","","","","","","",""
"1141","","image-button-response","2","9192","0.0-2.0-0.0","A2FJYDSAE26ILV","","1","phone","","","","","","","","","","","","","","","","","","","","","","","",""
"2838","","survey-text","3","12032","0.0-3.0-0.0","A2FJYDSAE26ILV","","","","{""Q0"":""A2FJYDSAE26ILV""}","","","","","","","","","","","","","","","","","","","","","","",""
"4045","","image-button-response_instructions","4","16080","0.0-4.0","A2FJYDSAE26ILV","","0","instructions","","","","","","","","","","","","","","","","","","","","","","","",""
"12141","","image-button-response_instructions","5","28224","0.0-5.0","A2FJYDSAE26ILV","img_art/ins/popularity/ins1.png","0","instructions","","","","","","","","","","","","","","","","","","","","","","","",""
"7749","","image-button-response_instructions","6","35976","0.0-6.0","A2FJYDSAE26ILV","img_art/ins/popularity/ins2.png","0","instructions","","","","","","","","","","","","","","","","","","","","","","","",""
"4557","","image-button-response_instructions","7","40538","0.0-7.0","A2FJYDSAE26ILV","img_art/ins/popularity/ins2Extreme.png","0","instructions","","","","","","","","","","","","","","","","","","","","","","","",""
"20418","","image-button-response_instructions","8","60959","0.0-8.0","A2FJYDSAE26ILV","img_art/ins/popularity/ins3KEEPpop.PNG","0","instructions","","","","","","","","","","","","","","","","","","","","","","","",""
"4141","","image-button-response_instructions","9","65103","0.0-9.0","A2FJYDSAE26ILV","img_art/ins/popularity/ins3ANamepop.PNG","0","instructions","","","","","","","","","","","","","","","","","","","","","","","",""
"3102","","image-button-response_instructions","10","68207","0.0-10.0","A2FJYDSAE26ILV","img_art/ins/popularity/ins3ARatingpop.png","0","instructions","","","","","","","","","","","","","","","","","","","","","","","",""
"3109","","image-button-response_instructions","11","71319","0.0-11.0","A2FJYDSAE26ILV","img_art/ins/popularity/ins3ATextpop.png","0","instructions","","","","","","","","","","","","","","","","","","","","","","","",""
"9654","","image-button-response_instructions","12","80976","0.0-12.0","A2FJYDSAE26ILV","img_art/ins/popularity/ins3ALikespop.png","0","instructions","","","","","","","","","","","","","","","","","","","","","","","",""
"11580","","image-button-response_instructions","13","92560","0.0-13.0","A2FJYDSAE26ILV","img_art/ins/popularity/ins3KEEPpop.PNG","0","instructions","","","","","","","","","","","","","","","","","","","","","","","",""
"10757","","image-button-response_instructions","14","103320","0.0-14.0","A2FJYDSAE26ILV","img_art/ins/popularity/ins3_5RED.png","0","instructions","","","","","","","","","","","","","","","","","","","","","","","",""
"5516","","image-button-response_instructions","15","108840","0.0-15.0","A2FJYDSAE26ILV","img_art/ins/popularity/ins3KEEPpop.PNG","0","instructions","","","","","","","","","","","","","","","","","","","","","","","",""
"12492","","image-button-response_instructions","16","121335","0.0-16.0","A2FJYDSAE26ILV","img_art/ins/popularity/ins4KEEPpop.PNG","0","instructions","","","","","","","","","","","","","","","","","","","","","","","",""
"3591","","image-button-response_instructions","17","124928","0.0-17.0","A2FJYDSAE26ILV","img_art/ins/popularity/ins5KEEPpop.PNG","0","instructions","","","","","","","","","","","","","","","","","","","","","","","",""
"3805","","image-button-response_instructions","18","128735","0.0-18.0","A2FJYDSAE26ILV","","0","instructions","","","","","","","","","","","","","","","","","","","","","","","",""
"5219","","survey-text","19","133991","0.0-19.0-0.0","A2FJYDSAE26ILV","","","","{""Q0"":""but""}","","","","","","","","","","","","","","","","","","","","","","",""
"28796","","survey-text","20","162792","0.0-20.0-0.0","A2FJYDSAE26ILV","","","","{""Q0"":""It looks like cotton candy, but in painting form.""}","","","","","","","","","","","","","","","","","","","","","","",""
"6171.4000000059605","","image-slider-response","21","168968","0.0-21.0","A2FJYDSAE26ILV","","","","","15","","","","","","","","","","","","","","","","","","","","","",""
"null","","image-button-response","22","173974","0.0-22.0","A2FJYDSAE26ILV","img_art/ins/1.jpg","null","","","","","","","","","","","","","","","","","","","","","","","","",""
"6510","","image-button-response","23","180489","0.0-23.0","A2FJYDSAE26ILV","img_art/ins/1.jpg","5","","","","","","","","","","","","","","","","","","","","","","","","",""
"4386","","image-button-response","24","184880","0.0-24.0-0.0","A2FJYDSAE26ILV","img_art/ins/1.jpg","3","","","","","","","","","","","","","","","","","","","","","","","","",""
"2522","","image-button-response","25","187409","0.0-25.0-0.0","A2FJYDSAE26ILV","img_art/ins/1.jpg","0","","","","","","","","","","","","","","","","","","","","","","","","",""
"null","","html-keyboard-response","26","188913","0.0-26.0","A2FJYDSAE26ILV","<p style=""font-size: 48px;"">+</p>","","","","","null","allTrialResponses","1500","1","-2","img_art/ins/1.jpg","15","It looks like cotton candy, but in painting form.","Allison,Ashley,Beth,Dora,Erika,Jen","looks like a lot of things going on in the mist,20,20,20","I just don't get why these type of art would be popular,-32,40,20","This color reminds me of poo,-46,60,20","looks like what my niece in 3rd grade did this afternoon,-50,80,20","I like the sophisticated brushwork,40,100,20","It reminds me of a candy land dream I had,36,120,20","Jen","It reminds me of a candy land dream I had,36,120,20","Dora","looks like what my niece in 3rd grade did this afternoon,-50,80,20","Allison","looks like a lot of things going on in the mist,20,20,20","0"
"19519","","survey-text","27","208439","0.0-27.0-0.0","A2FJYDSAE26ILV","","","","{""Q0"":""Not professional, looks thrown together.""}","","","","","","","","","","","","","","","","","","","","","","",""
"4700.200000017881","","image-slider-response","28","213143","0.0-28.0","A2FJYDSAE26ILV","","","","","-25","","","","","","","","","","","","","","","","","","","","","",""
"null","","image-button-response","29","218147","0.0-29.0","A2FJYDSAE26ILV","img_art/ins/2.jpg","null","","","","","","","","","","","","","","","","","","","","","","","","",""
"857","","image-button-response","30","219008","0.0-30.0","A2FJYDSAE26ILV","img_art/ins/2.jpg","3","","","","","","","","","","","","","","","","","","","","","","","","",""
"4132","","image-button-response","31","223145","0.0-31.0-0.0","A2FJYDSAE26ILV","img_art/ins/2.jpg","5","","","","","","","","","","","","","","","","","","","","","","","","",""
"6466","","image-button-response","32","229617","0.0-32.0-0.0","A2FJYDSAE26ILV","img_art/ins/2.jpg","2","","","","","","","","","","","","","","","","","","","","","","","","",""
"null","","html-keyboard-response","33","231121","0.0-33.0","A2FJYDSAE26ILV","<p style=""font-size: 48px;"">+</p>","","","","","null","allTrialResponses","1500","1","-1","img_art/ins/2.jpg","-25","Not professional, looks thrown together.","Allison,Jenna,Katie,Dora,Kara,Jen","I don't have strong feelings about this,10,20,20","One of my pet peevs,-48,140,20","too much color!,-28,180,20","looks too angry,-50,80,20","I like the blocks of color arrangements,30,160,20","It reminds me of a fireplace,36,120,20","Dora","looks too angry,-50,80,20","Jen","It reminds me of a fireplace,36,120,20","Katie","too much color!,-28,180,20","0"
"13480","","survey-text","34","244608","0.0-34.0-0.0","A2FJYDSAE26ILV","","","","{""Q0"":""Arctic ice, in painting form. This is nice.""}","","","","","","","","","","","","","","","","","","","","","","",""
"6148.0999999940395","","image-slider-response","35","250759","0.0-35.0","A2FJYDSAE26ILV","","","","","40","","","","","","","","","","","","","","","","","","","","","",""
"null","","image-button-response","36","255764","0.0-36.0","A2FJYDSAE26ILV","img_art/ins/3.jpg","null","","","","","","","","","","","","","","","","","","","","","","","","",""
"1433","","image-button-response","37","257201","0.0-37.0","A2FJYDSAE26ILV","img_art/ins/3.jpg","4","","","","","","","","","","","","","","","","","","","","","","","","",""
"1507","","image-button-response","38","258713","0.0-38.0-0.0","A2FJYDSAE26ILV","img_art/ins/3.jpg","5","","","","","","","","","","","","","","","","","","","","","","","","",""
"1010","","image-button-response","39","259728","0.0-39.0-0.0","A2FJYDSAE26ILV","img_art/ins/3.jpg","0","","","","","","","","","","","","","","","","","","","","","","","","",""
"null","","html-keyboard-response","40","260731","0.0-40.0","A2FJYDSAE26ILV","<p style=""font-size: 48px;"">+</p>","","","","","null","allTrialResponses","1000","1","0","img_art/ins/3.jpg","40","Arctic ice, in painting form. This is nice.","Leslie,Rose,Katie,Dora,Mary,Jen","It's an alright work,15,200,20","My daily routine, it's depressing,-20,240,20","It looks depressing,-26,180,20","My worst nightmare,-42,80,20","I like the overlapping of brushes,41,220,20","I can feel a rainy day from this painting,18,120,20","Mary","I like the overlapping of brushes,41,220,20","Jen","I can feel a rainy day from this painting,18,120,20","Leslie","It's an alright work,15,200,20","0"
"7164","","image-button-response_instructions","41","267903","0.0-41.0","A2FJYDSAE26ILV","","0","instructions","","","","","","","","","","","","","","","","","","","","","","","",""
"8597","","survey-likert","42","276504","0.0-42.0-0.0","A2FJYDSAE26ILV","","","","{""Q0"":"""",""Q1"":0,""Q2"":1}","","","","","","","","","","","","","","","","","","","","","","",""
"4819","","survey-text","43","281335","0.0-43.0-0.0","A2FJYDSAE26ILV","","","","{""Q0"":""rock""}","","","","","","","","","","","","","","","","","","","","","","",""
"25236","","survey-text","44","306575","0.0-44.0-0.0","A2FJYDSAE26ILV","","","","{""Q0"":""Looks like a robot's home.""}","","","","","","","","","","","","","","","","","","","","","","",""
"5412.9000000059605","","image-slider-response","45","311991","0.0-45.0","A2FJYDSAE26ILV","","","","","-25","","","","","","","","","","","","","","","","","","","","","",""
"null","","image-button-response","46","317038","0.0-46.0","A2FJYDSAE26ILV","img_art/2.jpg","null","","","","","","","","","","","","","","","","","","","","","","","","",""
"1478","","image-button-response","47","318521","0.0-47.0","A2FJYDSAE26ILV","img_art/2.jpg","3","","","","","","","","","","","","","","","","","","","","","","","","",""
"7827","","image-button-response","48","326352","0.0-48.0-0.0","A2FJYDSAE26ILV","img_art/2.jpg","0","","","","","","","","","","","","","","","","","","","","","","","","",""
"4402","","image-button-response","49","330760","0.0-49.0-0.0","A2FJYDSAE26ILV","img_art/2.jpg","2","","","","","","","","","","","","","","","","","","","","","","","","",""
"null","","html-keyboard-response","50","332265","0.0-50.0","A2FJYDSAE26ILV","<p style=""font-size: 48px;"">+</p>","","","","","null","allTrialResponses","1500","1","1","img_art/2.jpg","-25","Looks like a robot's home.","Jessica,Kaitlyn,Sophia,Ashley,Marissa,Heather","I don't get the meaning of this piece either.,-13,400,20","Too jumbled and disorienting,-13,80,20","I'm not fond of the colors in this one.,-33,280,20","I think I can make out a face in there.,25,320,20","I feel bothered by the dark and dingy choice of colors,-22,160,20","i like the colors and again can make out my own picture,38,260,20","Ashley","I think I can make out a face in there.,25,320,20","Jessica","I don't get the meaning of this piece either.,-13,400,20","Sophia","I'm not fond of the colors in this one.,-33,280,20","0"
"17575","","survey-text","51","349847","0.0-51.0-0.0","A2FJYDSAE26ILV","","","","{""Q0"":""A Chinese dragon attacking a boat at sea.""}","","","","","","","","","","","","","","","","","","","","","","",""
"6133.0999999940395","","image-slider-response","52","355983","0.0-52.0","A2FJYDSAE26ILV","","","","","25","","","","","","","","","","","","","","","","","","","","","",""
"null","","image-button-response","53","360988","0.0-53.0","A2FJYDSAE26ILV","img_art/10.jpg","null","","","","","","","","","","","","","","","","","","","","","","","","",""
"2601","","image-button-response","54","363592","0.0-54.0","A2FJYDSAE26ILV","img_art/10.jpg","2","","","","","","","","","","","","","","","","","","","","","","","","",""
"4908","","image-button-response","55","368503","0.0-55.0-0.0","A2FJYDSAE26ILV","img_art/10.jpg","0","","","","","","","","","","","","","","","","","","","","","","","","",""
"5724","","image-button-response","56","374232","0.0-56.0-0.0","A2FJYDSAE26ILV","img_art/10.jpg","1","","","","","","","","","","","","","","","","","","","","","","","","",""
"null","","html-keyboard-response","57","375235","0.0-57.0","A2FJYDSAE26ILV","<p style=""font-size: 48px;"">+</p>","","","","","null","allTrialResponses","1000","1","2","img_art/10.jpg","25","A Chinese dragon attacking a boat at sea.","Jessica,Julia,Sophia,Ashley,Jennifer,Tiffany","I feel like this has a cool concept behind it.,11,400,20","this is a good painting, but feels musical in a way that I don't connect with.,-14,40,20","This piece is very intriguing to me.,3,280,20","AWESOME VIOLIN!`,26,320,20","I am neutral towards the artwork,1,380,20","I feel little to no emotion looking at this painting.,0,360,20","Sophia","This piece is very intriguing to me.,3,280,20","Jessica","I feel like this has a cool concept behind it.,11,400,20","Julia","this is a good painting, but feels musical in a way that I don't connect with.,-14,40,20","0"
"18732","","survey-text","58","393976","0.0-58.0-0.0","A2FJYDSAE26ILV","","","","{""Q0"":""A tree starting to blossom.""}","","","","","","","","","","","","","","","","","","","","","","",""
"6307.600000023842","","image-slider-response","59","400287","0.0-59.0","A2FJYDSAE26ILV","","","","","30","","","","","","","","","","","","","","","","","","","","","",""
"null","","image-button-response","60","405292","0.0-60.0","A2FJYDSAE26ILV","img_art/15.jpg","null","","","","","","","","","","","","","","","","","","","","","","","","",""
"5193","","image-button-response","61","410489","0.0-61.0","A2FJYDSAE26ILV","img_art/15.jpg","4","","","","","","","","","","","","","","","","","","","","","","","","",""
"5419","","image-button-response","62","415913","0.0-62.0-0.0","A2FJYDSAE26ILV","img_art/15.jpg","2","","","","","","","","","","","","","","","","","","","","","","","","",""
"4170","","image-button-response","63","420088","0.0-63.0-0.0","A2FJYDSAE26ILV","img_art/15.jpg","1","","","","","","","","","","","","","","","","","","","","","","","","",""
"null","","html-keyboard-response","64","420591","0.0-64.0","A2FJYDSAE26ILV","<p style=""font-size: 48px;"">+</p>","","","","","null","allTrialResponses","500","1","3","img_art/15.jpg","30","A tree starting to blossom.","Jessica,Julia,Sophia,Leslie,Rachel,Brianna","I think it's trying to execute a cool idea, but unfortunately it doesn't appeal,5,400,20","This is simply too ""old-school"",-27,40,20","I feel like there's ski jumping going on here.,2,280,20","This elicits no reaction in me.,0,380,20","Reminds me of blue birds in a tree at night. I love nature.,40,80,20","No opinion truthfully,1,20,20","Rachel","Reminds me of blue birds in a tree at night. I love nature.,40,80,20","Sophia","I feel like there's ski jumping going on here.,2,280,20","Julia","This is simply too ""old-school"",-27,40,20","0"
"18601","","survey-text","65","439199","0.0-65.0-0.0","A2FJYDSAE26ILV","","","","{""Q0"":""It looks like a crime scene painting. Don't like. At all.""}","","","","","","","","","","","","","","","","","","","","","","",""
"3324.300000011921","","image-slider-response","66","442527","0.0-66.0","A2FJYDSAE26ILV","","","","","-50","","","","","","","","","","","","","","","","","","","","","",""
"4812","","image-button-response","67","447531","0.0-67.0","A2FJYDSAE26ILV","img_art/29.jpg","1","","","","","","","","","","","","","","","","","","","","","","","","",""
"927","","image-button-response","68","448464","0.0-68.0","A2FJYDSAE26ILV","img_art/29.jpg","1","","","","","","","","","","","","","","","","","","","","","","","","",""
"7525","","image-button-response","69","456009","0.0-69.0-0.0","A2FJYDSAE26ILV","img_art/29.jpg","5","","","","","","","","","","","","","","","","","","","","","","","","",""
"1066","","image-button-response","70","457080","0.0-70.0-0.0","A2FJYDSAE26ILV","img_art/29.jpg","5","","","","","","","","","","","","","","","","","","","","","","","","",""
"862","","image-button-response","71","460744","0.0-70.1-0.1","A2FJYDSAE26ILV","img_art/29.jpg","3","","","","","","","","","","","","","","","","","","","","","","","","",""
"null","","html-keyboard-response","72","461248","0.0-71.0","A2FJYDSAE26ILV","<p style=""font-size: 48px;"">+</p>","","","","","null","allTrialResponses","500","1","4","img_art/29.jpg","-50","It looks like a crime scene painting. Don't like. At all.","Mackenzie,Julia,Sophia,Kelly,Rachel,Margaret","The light source is confusing, but still interesting to look at,11,20,20","it looks like a top-down battle arena,26,40,20","It's creative. It's just not my thing.,-32,280,20","Too much going on, and I don't like the colors. It looks like a crime scene.,-50,220,20","It looks like someone did not like their art and drew an x over it.,-32,80,20","this does nothing for me. hate the colors. hate the design,-50,100,20","Julia","it looks like a top-down battle arena,26,40,20","Margaret","this does nothing for me. hate the colors. hate the design,-50,100,20","Kelly","Too much going on, and I don't like the colors. It looks like a crime scene.,-50,220,20","2"
"14385","","survey-text","73","475640","0.0-72.0-0.0","A2FJYDSAE26ILV","","","","{""Q0"":""A trophy, but not worthy of it.""}","","","","","","","","","","","","","","","","","","","","","","",""
"4188","","image-slider-response","74","479832","0.0-73.0","A2FJYDSAE26ILV","","","","","-25","","","","","","","","","","","","","","","","","","","","","",""
"4099","","image-button-response","75","484837","0.0-74.0","A2FJYDSAE26ILV","img_art/4.jpg","1","","","","","","","","","","","","","","","","","","","","","","","","",""
"208","","image-button-response","76","485049","0.0-75.0","A2FJYDSAE26ILV","img_art/4.jpg","1","","","","","","","","","","","","","","","","","","","","","","","","",""
"6340","","image-button-response","77","491392","0.0-76.0-0.0","A2FJYDSAE26ILV","img_art/4.jpg","3","","","","","","","","","","","","","","","","","","","","","","","","",""
"1386","","image-button-response","78","492784","0.0-77.0-0.0","A2FJYDSAE26ILV","img_art/4.jpg","5","","","","","","","","","","","","","","","","","","","","","","","","",""
"null","","html-keyboard-response","79","494287","0.0-78.0","A2FJYDSAE26ILV","<p style=""font-size: 48px;"">+</p>","","","","","null","allTrialResponses","1500","1","5","img_art/4.jpg","-25","A trophy, but not worthy of it.","Katelyn,Julia,Chloe,Kelly,Jenna,Margaret","I like the warmth in the colors. Its reassuring.,9,100,20","it reminds me of McDonalds, and not in a good way.,-34,40,20","Great movement but don't love the yellowy tones.,31,220,20","The longer I stare at this the less I like it.,-19,220,20","creepy, looks like a deformed hand, but the background is pretty,5,360,20","doesn't do anything for me,-4,100,20","Julia","it reminds me of McDonalds, and not in a good way.,-34,40,20","Kelly","The longer I stare at this the less I like it.,-19,220,20","Margaret","doesn't do anything for me,-4,100,20","2"
"3898","","survey-text","80","498199","0.0-79.0-0.0","A2FJYDSAE26ILV","","","","{""Q0"":""sky""}","","","","","","","","","","","","","","","","","","","","","","",""
"22438","","survey-text","81","520641","0.0-80.0-0.0","A2FJYDSAE26ILV","","","","{""Q0"":""People buried by a volcanic eruption. Disturbing.""}","","","","","","","","","","","","","","","","","","","","","","",""
"3179.2000000178814","","image-slider-response","82","523823","0.0-81.0","A2FJYDSAE26ILV","","","","","-50","","","","","","","","","","","","","","","","","","","","","",""
"null","","image-button-response","83","528828","0.0-82.0","A2FJYDSAE26ILV","img_art/7.jpg","null","","","","","","","","","","","","","","","","","","","","","","","","",""
"1361","","image-button-response","84","530192","0.0-83.0","A2FJYDSAE26ILV","img_art/7.jpg","2","","","","","","","","","","","","","","","","","","","","","","","","",""
"8323","","image-button-response","85","538520","0.0-84.0-0.0","A2FJYDSAE26ILV","img_art/7.jpg","3","","","","","","","","","","","","","","","","","","","","","","","","",""
"1668","","image-button-response","86","540192","0.0-85.0-0.0","A2FJYDSAE26ILV","img_art/7.jpg","0","","","","","","","","","","","","","","","","","","","","","","","","",""
"null","","html-keyboard-response","87","541196","0.0-86.0","A2FJYDSAE26ILV","<p style=""font-size: 48px;"">+</p>","","","","","null","allTrialResponses","1000","1","6","img_art/7.jpg","-50","People buried by a volcanic eruption. Disturbing.","Diana,Julia,Katie,Kelly,Mary,Margaret","This piece reminds me of ants and it makes my skin crawl.,-37,380,20","I would like this more if I could pretend it was the moon.,-26,40,20","I see dryness, which is sad. Dirt, sand, the dessert. Barren dry lifeless,-30,160,20","My firs thought was ""gross""...not sure what this is and I dont think i want to know.,-19,220,20","This reminds me of a close up photo of a stone wall.,-19,180,20","looks like a close up of irritated skin under a microscope,-49,100,20","Katie","I see dryness, which is sad. Dirt, sand, the dessert. Barren dry lifeless,-30,160,20","Kelly","My firs thought was ""gross""...not sure what this is and I dont think i want to know.,-19,220,20","Diana","This piece reminds me of ants and it makes my skin crawl.,-37,380,20","2"
"21245","","survey-text","88","562448","0.0-87.0-0.0","A2FJYDSAE26ILV","","","","{""Q0"":""A tree at the beginning of Spring. Lovely.""}","","","","","","","","","","","","","","","","","","","","","","",""
"5403.200000017881","","image-slider-response","89","567855","0.0-88.0","A2FJYDSAE26ILV","","","","","35","","","","","","","","","","","","","","","","","","","","","",""
"3892","","image-button-response","90","572859","0.0-89.0","A2FJYDSAE26ILV","img_art/14.jpg","0","","","","","","","","","","","","","","","","","","","","","","","","",""
"1288","","image-button-response","91","574152","0.0-90.0","A2FJYDSAE26ILV","img_art/14.jpg","0","","","","","","","","","","","","","","","","","","","","","","","","",""
"3964","","image-button-response","92","578120","0.0-91.0-0.0","A2FJYDSAE26ILV","img_art/14.jpg","2","","","","","","","","","","","","","","","","","","","","","","","","",""
"8179","","image-button-response","93","586304","0.0-92.0-0.0","A2FJYDSAE26ILV","img_art/14.jpg","5","","","","","","","","","","","","","","","","","","","","","","","","",""
"null","","html-keyboard-response","94","587308","0.0-93.0","A2FJYDSAE26ILV","<p style=""font-size: 48px;"">+</p>","","","","","null","allTrialResponses","1000","1","7","img_art/14.jpg","35","A tree at the beginning of Spring. Lovely.","Diana,Melissa,Katie,Kelly,Kayla,Shannon","This piece feels inviting. It's like opening up the pages of your favorite book for the first time.,26,380,20","makes me feel sad,-2,240,20","It represents growth. I see a plant/tree growing out of the ground. I like the rainbow of color in the painting.,31,160,20","Its cute, but not my favorite.,8,220,20","I like that it looks like plants on a table, which reminds me of life.,4,180,20","I like this picture because it looks like a tree and the colors used look cool.,20,220,20","Diana","This piece feels inviting. It's like opening up the pages of your favorite book for the first time.,26,380,20","Katie","It represents growth. I see a plant/tree growing out of the ground. I like the rainbow of color in the painting.,31,160,20","Shannon","I like this picture because it looks like a tree and the colors used look cool.,20,220,20","2"
"10939","","survey-text","95","598255","0.0-94.0-0.0","A2FJYDSAE26ILV","","","","{""Q0"":""At home in the city. Peaceful.""}","","","","","","","","","","","","","","","","","","","","","","",""
"4532.799999982119","","image-slider-response","96","602791","0.0-95.0","A2FJYDSAE26ILV","","","","","40","","","","","","","","","","","","","","","","","","","","","",""
"null","","image-button-response","97","607796","0.0-96.0","A2FJYDSAE26ILV","img_art/26.jpg","null","","","","","","","","","","","","","","","","","","","","","","","","",""
"169","","image-button-response","98","607968","0.0-97.0","A2FJYDSAE26ILV","img_art/26.jpg","1","","","","","","","","","","","","","","","","","","","","","","","","",""
"8731","","image-button-response","99","616704","0.0-98.0-0.0","A2FJYDSAE26ILV","img_art/26.jpg","2","","","","","","","","","","","","","","","","","","","","","","","","",""
"722","","image-button-response","100","617432","0.0-99.0-0.0","A2FJYDSAE26ILV","img_art/26.jpg","3","","","","","","","","","","","","","","","","","","","","","","","","",""
"null","","html-keyboard-response","101","618936","0.0-100.0","A2FJYDSAE26ILV","<p style=""font-size: 48px;"">+</p>","","","","","null","allTrialResponses","1500","1","8","img_art/26.jpg","40","At home in the city. Peaceful.","Diana,Sierra,Katie,Jamie,Brooke,Shannon","I'm not sure if this is the image of a furniture store or not.,-20,380,20","soothing and subtle,1,260,20","Reminds me of watercolor. Muted tones and blurry soft brush strokes. Calm to me.,1,160,20","Street corner on a sunny day,5,320,20","street scene is okay?,15,60,20","I like that it looks like an actual picture and isn't just random colors.,25,220,20","Sierra","soothing and subtle,1,260,20","Katie","Reminds me of watercolor. Muted tones and blurry soft brush strokes. Calm to me.,1,160,20","Jamie","Street corner on a sunny day,5,320,20","2"
"13985","","survey-text","102","632927","0.0-101.0-0.0","A2FJYDSAE26ILV","","","","{""Q0"":""A bad day at work. Confrontational.""}","","","","","","","","","","","","","","","","","","","","","","",""
"6219.9000000059605","","image-slider-response","103","639151","0.0-102.0","A2FJYDSAE26ILV","","","","","-35","","","","","","","","","","","","","","","","","","","","","",""
"null","","image-button-response","104","644156","0.0-103.0","A2FJYDSAE26ILV","img_art/28.jpg","null","","","","","","","","","","","","","","","","","","","","","","","","",""
"2256","","image-button-response","105","646416","0.0-104.0","A2FJYDSAE26ILV","img_art/28.jpg","3","","","","","","","","","","","","","","","","","","","","","","","","",""
"5412","","image-button-response","106","651832","0.0-105.0-0.0","A2FJYDSAE26ILV","img_art/28.jpg","0","","","","","","","","","","","","","","","","","","","","","","","","",""
"2363","","image-button-response","107","654199","0.0-106.0-0.0","A2FJYDSAE26ILV","img_art/28.jpg","1","","","","","","","","","","","","","","","","","","","","","","","","",""
"null","","html-keyboard-response","108","655202","0.0-107.0","A2FJYDSAE26ILV","<p style=""font-size: 48px;"">+</p>","","","","","null","allTrialResponses","1000","1","9","img_art/28.jpg","-35","A bad day at work. Confrontational.","Breanna,Sierra,Katie,Jamie,Amy,Caroline","The colors are depressing,-5,380,20","i like the colors and the shapes look like people,20,260,20","Like the muted pink colors. However, the mood is sad because of the blurriness,22,160,20","Gloomy colors and picture,5,320,20","Contemplative and a little dark. The muted colors and subject create a sense of mystery.,15,220,20","Colors are pleasing. Made me think of two people kneeling and talking. A curious feeling.,15,100,20","Jamie","Gloomy colors and picture,5,320,20","Breanna","The colors are depressing,-5,380,20","Sierra","i like the colors and the shapes look like people,20,260,20","2"
"20759","","survey-text","109","675968","0.0-108.0-0.0","A2FJYDSAE26ILV","","","","{""Q0"":""Growing too old for teddy bears. Depressing!""}","","","","","","","","","","","","","","","","","","","","","","",""
"3060.5999999940395","","image-slider-response","110","679032","0.0-109.0","A2FJYDSAE26ILV","","","","","-50","","","","","","","","","","","","","","","","","","","","","",""
"null","","image-button-response","111","684036","0.0-110.0","A2FJYDSAE26ILV","img_art/16.jpg","null","","","","","","","","","","","","","","","","","","","","","","","","",""
"2977","","image-button-response","112","687016","0.0-111.0","A2FJYDSAE26ILV","img_art/16.jpg","5","","","","","","","","","","","","","","","","","","","","","","","","",""
"1651","","image-button-response","113","688672","0.0-112.0-0.0","A2FJYDSAE26ILV","img_art/16.jpg","4","","","","","","","","","","","","","","","","","","","","","","","","",""
"3868","","image-button-response","114","692544","0.0-113.0-0.0","A2FJYDSAE26ILV","img_art/16.jpg","2","","","","","","","","","","","","","","","","","","","","","","","","",""
"null","","html-keyboard-response","115","693547","0.0-114.0","A2FJYDSAE26ILV","<p style=""font-size: 48px;"">+</p>","","","","","null","allTrialResponses","1000","1","10","img_art/16.jpg","-50","Growing too old for teddy bears. Depressing!","Breanna,Sierra,Angela,Jamie,Briana,Paige","The bear is terrifying,-50,380,20","it looks psychotic,-31,260,20","Hate this, especially the jarring contrast of the super realistic teddybear face.,-50,260,20","Weird and funny,40,320,20","Weird mixed media piece,-50,400,20","very disturbed seening a gun in the same picture as a teddy bear,-50,60,20","Paige","very disturbed seening a gun in the same picture as a teddy bear,-50,60,20","Briana","Weird mixed media piece,-50,400,20","Angela","Hate this, especially the jarring contrast of the super realistic teddybear face.,-50,260,20","2"
"5470","","survey-text","116","699031","0.0-115.0-0.0","A2FJYDSAE26ILV","","","","{""Q0"":""our""}","","","","","","","","","","","","","","","","","","","","","","",""
"10285","","survey-text","117","709319","0.0-116.0-0.0","A2FJYDSAE26ILV","","","","{""Q0"":""Looks like throw-up.""}","","","","","","","","","","","","","","","","","","","","","","",""
"3029.100000023842","","image-slider-response","118","712352","0.0-117.0","A2FJYDSAE26ILV","","","","","-50","","","","","","","","","","","","","","","","","","","","","",""
"null","","image-button-response","119","717357","0.0-118.0","A2FJYDSAE26ILV","img_art/1.jpg","null","","","","","","","","","","","","","","","","","","","","","","","","",""
"4671","","image-button-response","120","722032","0.0-119.0","A2FJYDSAE26ILV","img_art/1.jpg","3","","","","","","","","","","","","","","","","","","","","","","","","",""
"1989","","image-button-response","121","724024","0.0-120.0-0.0","A2FJYDSAE26ILV","img_art/1.jpg","0","","","","","","","","","","","","","","","","","","","","","","","","",""
"1252","","image-button-response","122","725280","0.0-121.0-0.0","A2FJYDSAE26ILV","img_art/1.jpg","1","","","","","","","","","","","","","","","","","","","","","","","","",""
"null","","html-keyboard-response","123","726783","0.0-122.0","A2FJYDSAE26ILV","<p style=""font-size: 48px;"">+</p>","","","","","null","allTrialResponses","1500","1","11","img_art/1.jpg","-50","Looks like throw-up.","Alicia,Jasmine,Angela,Monica,Briana,Paige","just colors mixed together. not interesting.,5,120,20","Too similar to some of the other pieces,-18,340,20","Like the colors very much, and this piece makes me feel peaceful.,29,260,20","I like the yellow and purple but the large red spot reminds me of blood and isn't great,6,360,20","I like the colors. But it doesnt look like anything,27,400,20","fearful. Makes me think of fire,-10,60,20","Monica","I like the yellow and purple but the large red spot reminds me of blood and isn't great,6,360,20","Alicia","just colors mixed together. not interesting.,5,120,20","Jasmine","Too similar to some of the other pieces,-18,340,20","2"
"18008","","survey-text","124","744800","0.0-123.0-0.0","A2FJYDSAE26ILV","","","","{""Q0"":""Psychotic crime scene. Monster vibes.""}","","","","","","","","","","","","","","","","","","","","","","",""
"3227.5","","image-slider-response","125","748031","0.0-124.0","A2FJYDSAE26ILV","","","","","-50","","","","","","","","","","","","","","","","","","","","","",""
"null","","image-button-response","126","753035","0.0-125.0","A2FJYDSAE26ILV","img_art/3.jpg","null","","","","","","","","","","","","","","","","","","","","","","","","",""
"6657","","image-button-response","127","759696","0.0-126.0","A2FJYDSAE26ILV","img_art/3.jpg","4","","","","","","","","","","","","","","","","","","","","","","","","",""
"1395","","image-button-response","128","761096","0.0-127.0-0.0","A2FJYDSAE26ILV","img_art/3.jpg","3","","","","","","","","","","","","","","","","","","","","","","","","",""
"2867","","image-button-response","129","763968","0.0-128.0-0.0","A2FJYDSAE26ILV","img_art/3.jpg","0","","","","","","","","","","","","","","","","","","","","","","","","",""
"null","","html-keyboard-response","130","765471","0.0-129.0","A2FJYDSAE26ILV","<p style=""font-size: 48px;"">+</p>","","","","","null","allTrialResponses","1500","1","12","img_art/3.jpg","-50","Psychotic crime scene. Monster vibes.","Alicia,Jasmine,Madison,Monica,Megan,Alexa","scribbles in red. 2 minute piece.,-30,120,20","I don't really have a strong reaction to this one,0,340,20","This doesn't grab me. Perhaps the red is meant to be provocative; I find it gimmicky.,-9,60,20","It looks like random scribbles by a child and not appealing,-38,360,20","5 min scribble by a 3 year old,-46,200,20","Looks messy and too much for my eyes,-35,40,20","Megan","5 min scribble by a 3 year old,-46,200,20","Monica","It looks like random scribbles by a child and not appealing,-38,360,20","Alicia","scribbles in red. 2 minute piece.,-30,120,20","2"
"16801","","survey-text","131","782279","0.0-130.0-0.0","A2FJYDSAE26ILV","","","","{""Q0"":""Lamp and light contrast while studying.""}","","","","","","","","","","","","","","","","","","","","","","",""
"3660.7999999821186","","image-slider-response","132","785944","0.0-131.0","A2FJYDSAE26ILV","","","","","25","","","","","","","","","","","","","","","","","","","","","",""
"null","","image-button-response","133","790948","0.0-132.0","A2FJYDSAE26ILV","img_art/22.jpg","null","","","","","","","","","","","","","","","","","","","","","","","","",""
"945","","image-button-response","134","791896","0.0-133.0","A2FJYDSAE26ILV","img_art/22.jpg","1","","","","","","","","","","","","","","","","","","","","","","","","",""
"4693","","image-button-response","135","796592","0.0-134.0-0.0","A2FJYDSAE26ILV","img_art/22.jpg","4","","","","","","","","","","","","","","","","","","","","","","","","",""
"587","","image-button-response","136","797184","0.0-135.0-0.0","A2FJYDSAE26ILV","img_art/22.jpg","3","","","","","","","","","","","","","","","","","","","","","","","","",""
"null","","html-keyboard-response","137","798187","0.0-136.0","A2FJYDSAE26ILV","<p style=""font-size: 48px;"">+</p>","","","","","null","allTrialResponses","1000","1","13","img_art/22.jpg","25","Lamp and light contrast while studying.","Alicia,Haley,Alexandria,Monica,Megan,Savannah","Could be interpreted so many ways, bold. I like it.,29,120,20","Beautiful. I love the color contrast and gradients.,50,220,20","the colors and shapes makes me want to keep looking at it,22,80,20","I really like the bright colors and sunset feel,31,360,20","Organic sun spot on a flexible grid,18,200,20","Seems too simple.,-19,200,20","Haley","Beautiful. I love the color contrast and gradients.,50,220,20","Megan","Organic sun spot on a flexible grid,18,200,20","Monica","I really like the bright colors and sunset feel,31,360,20","2"
"21906","","survey-text","138","820103","0.0-137.0-0.0","A2FJYDSAE26ILV","","","","{""Q0"":""Floating above the clouds in a balloon.""}","","","","","","","","","","","","","","","","","","","","","","",""
"4589.0999999940395","","image-slider-response","139","824695","0.0-138.0","A2FJYDSAE26ILV","","","","","10","","","","","","","","","","","","","","","","","","","","","",""
"null","","image-button-response","140","829700","0.0-139.0","A2FJYDSAE26ILV","img_art/27.jpg","null","","","","","","","","","","","","","","","","","","","","","","","","",""
"8769","","image-button-response","141","838472","0.0-140.0","A2FJYDSAE26ILV","img_art/27.jpg","1","","","","","","","","","","","","","","","","","","","","","","","","",""
"1979","","image-button-response","142","840456","0.0-141.0-0.0","A2FJYDSAE26ILV","img_art/27.jpg","3","","","","","","","","","","","","","","","","","","","","","","","","",""
"2122","","image-button-response","143","842584","0.0-142.0-0.0","A2FJYDSAE26ILV","img_art/27.jpg","5","","","","","","","","","","","","","","","","","","","","","","","","",""
"null","","html-keyboard-response","144","843587","0.0-143.0","A2FJYDSAE26ILV","<p style=""font-size: 48px;"">+</p>","","","","","null","allTrialResponses","1000","1","14","img_art/27.jpg","10","Floating above the clouds in a balloon.","Emily,Haley,Molly,Monica,Megan,Autumn","Anyone could do that.,-31,40,20","First thought is again, that this looks like a child's art assignment,-20,220,20","No clue what to say.,0,340,20","It tries to remind me of the autumn season but it's grey and looks dirty,-5,360,20","Nice back ground with childish scribble on top,-30,200,20","Adult contemporary painting with child.,-33,340,20","Haley","First thought is again, that this looks like a child's art assignment,-20,220,20","Monica","It tries to remind me of the autumn season but it's grey and looks dirty,-5,360,20","Autumn","Adult contemporary painting with child.,-33,340,20","2"
"14068","","survey-text","145","857664","0.0-144.0-0.0","A2FJYDSAE26ILV","","","","{""Q0"":""The grim reaper, Egyptian style.""}","","","","","","","","","","","","","","","","","","","","","","",""
"5243.200000017881","","image-slider-response","146","862911","0.0-145.0","A2FJYDSAE26ILV","","","","","-25","","","","","","","","","","","","","","","","","","","","","",""
"null","","image-button-response","147","867915","0.0-146.0","A2FJYDSAE26ILV","img_art/25.jpg","null","","","","","","","","","","","","","","","","","","","","","","","","",""
"2154","","image-button-response","148","870072","0.0-147.0","A2FJYDSAE26ILV","img_art/25.jpg","2","","","","","","","","","","","","","","","","","","","","","","","","",""
"5955","","image-button-response","149","876032","0.0-148.0-0.0","A2FJYDSAE26ILV","img_art/25.jpg","3","","","","","","","","","","","","","","","","","","","","","","","","",""
"1915","","image-button-response","150","877952","0.0-149.0-0.0","A2FJYDSAE26ILV","img_art/25.jpg","4","","","","","","","","","","","","","","","","","","","","","","","","",""
"null","","html-keyboard-response","151","879454","0.0-150.0","A2FJYDSAE26ILV","<p style=""font-size: 48px;"">+</p>","","","","","null","allTrialResponses","1500","1","15","img_art/25.jpg","-25","The grim reaper, Egyptian style.","Christina,Haley,Madeline,Monica,Lindsey,Autumn","nice colors and it looks like a native work,32,240,20","I like the design but the brightness of the color feels almost blinding to me.,-3,220,20","It looks a bit strange to me, neck too long,-19,40,20","The skeletal figure is a bit scary,-12,360,20","This piece makes me think of oppression and fighting it. Makes me feel calm, sad and strong.,11,400,20","This is too simple,-22,340,20","Madeline","It looks a bit strange to me, neck too long,-19,40,20","Monica","The skeletal figure is a bit scary,-12,360,20","Lindsey","This piece makes me think of oppression and fighting it. Makes me feel calm, sad and strong.,11,400,20","2"
"4570","","survey-text","152","884039","0.0-151.0-0.0","A2FJYDSAE26ILV","","","","{""Q0"":""course""}","","","","","","","","","","","","","","","","","","","","","","",""
"22293","","survey-text","153","906335","0.0-152.0-0.0","A2FJYDSAE26ILV","","","","{""Q0"":""Too much to do in the city. Busy scene.""}","","","","","","","","","","","","","","","","","","","","","","",""
"4540.4000000059605","","image-slider-response","154","910880","0.0-153.0","A2FJYDSAE26ILV","","","","","5","","","","","","","","","","","","","","","","","","","","","",""
"null","","image-button-response","155","915884","0.0-154.0","A2FJYDSAE26ILV","img_art/19.jpg","null","","","","","","","","","","","","","","","","","","","","","","","","",""
"1008","","image-button-response","156","916897","0.0-155.0","A2FJYDSAE26ILV","img_art/19.jpg","3","","","","","","","","","","","","","","","","","","","","","","","","",""
"3554","","image-button-response","157","920456","0.0-156.0-0.0","A2FJYDSAE26ILV","img_art/19.jpg","4","","","","","","","","","","","","","","","","","","","","","","","","",""
"3099","","image-button-response","158","923560","0.0-157.0-0.0","A2FJYDSAE26ILV","img_art/19.jpg","1","","","","","","","","","","","","","","","","","","","","","","","","",""
"null","","html-keyboard-response","159","924564","0.0-158.0","A2FJYDSAE26ILV","<p style=""font-size: 48px;"">+</p>","","","","","null","allTrialResponses","1000","1","16","img_art/19.jpg","5","Too much to do in the city. Busy scene.","Rebecca,Samantha,Madeline,Monica,Lindsey,Erin","interesting take on depth (reminds me of those 1000 piece puzzles),2,100,20","Intersting but not for me,21,140,20","Looks a bit too loose,-2,40,20","The shapes make me recall a city scene but it looks dirty,-22,360,20","Pleasant colors with just enough detail to be recognizable. I can see a scene in it that tells a story.,7,400,20","Childish music hall,-20,120,20","Monica","The shapes make me recall a city scene but it looks dirty,-22,360,20","Lindsey","Pleasant colors with just enough detail to be recognizable. I can see a scene in it that tells a story.,7,400,20","Samantha","Intersting but not for me,21,140,20","2"
"18483","","survey-text","160","943055","0.0-159.0-0.0","A2FJYDSAE26ILV","","","","{""Q0"":""A beautiful stream and natural setting. Just lovely!""}","","","","","","","","","","","","","","","","","","","","","","",""
"3947.7999999821186","","image-slider-response","161","947007","0.0-160.0","A2FJYDSAE26ILV","","","","","50","","","","","","","","","","","","","","","","","","","","","",""
"2925","","image-button-response","162","952011","0.0-161.0","A2FJYDSAE26ILV","img_art/24.jpg","0","","","","","","","","","","","","","","","","","","","","","","","","",""
"5449","","image-button-response","163","957464","0.0-162.0","A2FJYDSAE26ILV","img_art/24.jpg","4","","","","","","","","","","","","","","","","","","","","","","","","",""
"2555","","image-button-response","164","960024","0.0-163.0-0.0","A2FJYDSAE26ILV","img_art/24.jpg","3","","","","","","","","","","","","","","","","","","","","","","","","",""
"3539","","image-button-response","165","963568","0.0-164.0-0.0","A2FJYDSAE26ILV","img_art/24.jpg","1","","","","","","","","","","","","","","","","","","","","","","","","",""
"null","","html-keyboard-response","166","964570","0.0-165.0","A2FJYDSAE26ILV","<p style=""font-size: 48px;"">+</p>","","","","","null","allTrialResponses","1000","1","17","img_art/24.jpg","50","A beautiful stream and natural setting. Just lovely!","Kylie,Samantha,Emma,Monica,Lindsey,Kaylee","Forest waterfall,40,300,20","Happy and relaxing bubbling brook,37,140,20","Beautiful, good colors, love water,50,60,20","It looks alive, like I can hear the water flowing,41,360,20","I like the colors and see a stream in a wooded setting. Makes me feel calm and cheerful.,27,400,20","lovely forest vibes,36,200,20","Lindsey","I like the colors and see a stream in a wooded setting. Makes me feel calm and cheerful.,27,400,20","Monica","It looks alive, like I can hear the water flowing,41,360,20","Samantha","Happy and relaxing bubbling brook,37,140,20","2"
"18491","","survey-text","167","983071","0.0-166.0-0.0","A2FJYDSAE26ILV","","","","{""Q0"":""Fireworks and people dancing and celebrating. Energetic piece.""}","","","","","","","","","","","","","","","","","","","","","","",""
"4612.5999999940395","","image-slider-response","168","987687","0.0-167.0","A2FJYDSAE26ILV","","","","","25","","","","","","","","","","","","","","","","","","","","","",""
"null","","image-button-response","169","992692","0.0-168.0","A2FJYDSAE26ILV","img_art/23.jpg","null","","","","","","","","","","","","","","","","","","","","","","","","",""
"1400","","image-button-response","170","994096","0.0-169.0","A2FJYDSAE26ILV","img_art/23.jpg","2","","","","","","","","","","","","","","","","","","","","","","","","",""
"6083","","image-button-response","171","1000184","0.0-170.0-0.0","A2FJYDSAE26ILV","img_art/23.jpg","0","","","","","","","","","","","","","","","","","","","","","","","","",""
"2226","","image-button-response","172","1002416","0.0-171.0-0.0","A2FJYDSAE26ILV","img_art/23.jpg","3","","","","","","","","","","","","","","","","","","","","","","","","",""
"null","","html-keyboard-response","173","1003419","0.0-172.0","A2FJYDSAE26ILV","<p style=""font-size: 48px;"">+</p>","","","","","null","allTrialResponses","1000","1","18","img_art/23.jpg","25","Fireworks and people dancing and celebrating. Energetic piece.","Makayla,Samantha,Alexis,Monica,Lindsey,Victoria","Reminds me of disco/70's, not my favorite design,-12,80,20","The more i look at it the more i like it  the dots of color and very interesting,50,140,20","Pretty cool. I love the white, reminds me of people lined up.,28,100,20","I like the sharp contrast of the white on the colorful background,27,360,20","Too much contrasting colors together. I hate it.,-50,400,20","enjoy the colors,23,400,20","Alexis","Pretty cool. I love the white, reminds me of people lined up.,28,100,20","Makayla","Reminds me of disco/70's, not my favorite design,-12,80,20","Monica","I like the sharp contrast of the white on the colorful background,27,360,20","2"
"11171","","survey-text","174","1014599","0.0-173.0-0.0","A2FJYDSAE26ILV","","","","{""Q0"":""A rainy day, calm yet depressing.""}","","","","","","","","","","","","","","","","","","","","","","",""
"6757.100000023842","","image-slider-response","175","1021359","0.0-174.0","A2FJYDSAE26ILV","","","","","15","","","","","","","","","","","","","","","","","","","","","",""
"null","","image-button-response","176","1026363","0.0-175.0","A2FJYDSAE26ILV","img_art/13.jpg","null","","","","","","","","","","","","","","","","","","","","","","","","",""
"226","","image-button-response","177","1026592","0.0-176.0","A2FJYDSAE26ILV","img_art/13.jpg","2","","","","","","","","","","","","","","","","","","","","","","","","",""
"8131","","image-button-response","178","1034728","0.0-177.0-0.0","A2FJYDSAE26ILV","img_art/13.jpg","5","","","","","","","","","","","","","","","","","","","","","","","","",""
"4691","","image-button-response","179","1039424","0.0-178.0-0.0","A2FJYDSAE26ILV","img_art/13.jpg","0","","","","","","","","","","","","","","","","","","","","","","","","",""
"null","","html-keyboard-response","180","1040928","0.0-179.0","A2FJYDSAE26ILV","<p style=""font-size: 48px;"">+</p>","","","","","null","allTrialResponses","1500","1","19","img_art/13.jpg","15","A rainy day, calm yet depressing.","Makayla,Courtney,Alexis,Monica,Shelby,Nicole","Reminds me of the aquarium,4,80,20","Debree on top of a calm pond.,18,280,20","Simple, but pleasing. The blue gradient is a favorite of mine,32,100,20","It's like any other splatter paint art piece, nothing special,1,360,20","Doesnt really provoke an emotional responce,0,240,20","It's pretty basic but it makes me feel like I'm looking at the ocean,30,20,20","Alexis","Simple, but pleasing. The blue gradient is a favorite of mine,32,100,20","Nicole","It's pretty basic but it makes me feel like I'm looking at the ocean,30,20,20","Makayla","Reminds me of the aquarium,4,80,20","2"
"15318","","survey-text","181","1056256","0.0-180.0-0.0","A2FJYDSAE26ILV","","","","{""Q0"":""Classic, predictable, child-like.""}","","","","","","","","","","","","","","","","","","","","","","",""
"6700.200000017881","","image-slider-response","182","1062959","0.0-181.0","A2FJYDSAE26ILV","","","","","-45","","","","","","","","","","","","","","","","","","","","","",""
"null","","image-button-response","183","1067964","0.0-182.0","A2FJYDSAE26ILV","img_art/12.jpg","null","","","","","","","","","","","","","","","","","","","","","","","","",""
"2954","","image-button-response","184","1070920","0.0-183.0","A2FJYDSAE26ILV","img_art/12.jpg","4","","","","","","","","","","","","","","","","","","","","","","","","",""
"3011","","image-button-response","185","1073936","0.0-184.0-0.0","A2FJYDSAE26ILV","img_art/12.jpg","5","","","","","","","","","","","","","","","","","","","","","","","","",""
"3468","","image-button-response","186","1077408","0.0-185.0-0.0","A2FJYDSAE26ILV","img_art/12.jpg","3","","","","","","","","","","","","","","","","","","","","","","","","",""
"null","","html-keyboard-response","187","1077911","0.0-186.0","A2FJYDSAE26ILV","<p style=""font-size: 48px;"">+</p>","","","","","null","allTrialResponses","500","1","20","img_art/12.jpg","-45","Classic, predictable, child-like.","Makayla,Gabrielle,Alexis,Natalie,Cheyenne,Nicole","Reminds me Early 2000's decor, don't favor it,-10,80,20","seems too dark on top and too common on the bottom,-19,160,20","I like the cubic feel.,11,100,20","my reaction is that the picture is wierd,-11,400,20","Comes off as a bit boring.,-11,200,20","I like all the squares and the colors but it feels too cluttered to me,20,20,20","Cheyenne","Comes off as a bit boring.,-11,200,20","Nicole","I like all the squares and the colors but it feels too cluttered to me,20,20,20","Natalie","my reaction is that the picture is wierd,-11,400,20","2"
"3630","","survey-text","188","1081559","0.0-187.0-0.0","A2FJYDSAE26ILV","","","","{""Q0"":""we""}","","","","","","","","","","","","","","","","","","","","","","",""
"14748","","survey-text","189","1096311","0.0-188.0-0.0","A2FJYDSAE26ILV","","","","{""Q0"":""A storm approaching, chaos ensuing.""}","","","","","","","","","","","","","","","","","","","","","","",""
"3756.5999999940395","","image-slider-response","190","1100071","0.0-189.0","A2FJYDSAE26ILV","","","","","45","","","","","","","","","","","","","","","","","","","","","",""
"2757","","image-button-response","191","1105075","0.0-190.0","A2FJYDSAE26ILV","img_art/21.jpg","0","","","","","","","","","","","","","","","","","","","","","","","","",""
"5289","","image-button-response","192","1110367","0.0-191.0","A2FJYDSAE26ILV","img_art/21.jpg","0","","","","","","","","","","","","","","","","","","","","","","","","",""
"916","","image-button-response","193","1111288","0.0-192.0-0.0","A2FJYDSAE26ILV","img_art/21.jpg","5","","","","","","","","","","","","","","","","","","","","","","","","",""
"5779","","image-button-response","194","1117072","0.0-193.0-0.0","A2FJYDSAE26ILV","img_art/21.jpg","2","","","","","","","","","","","","","","","","","","","","","","","","",""
"null","","html-keyboard-response","195","1118576","0.0-194.0","A2FJYDSAE26ILV","<p style=""font-size: 48px;"">+</p>","","","","","null","allTrialResponses","1500","1","21","img_art/21.jpg","45","A storm approaching, chaos ensuing.","Laura,Alyssa,Grace,Natalie,Cheyenne,Nicole","a serene, calm and eloquent storm,9,320,20","I like the colors that were used and the stark contrast between the two sides,25,160,20","Like the colors, the cloudy, airy effects. Nice.,46,180,20","my response to the picture is what is going on?,-13,400,20","Don't see anything special about it,-21,200,20","Makes me think of a natural disaster but I love how it looks. Makes you think,30,20,20","Laura","a serene, calm and eloquent storm,9,320,20","Nicole","Makes me think of a natural disaster but I love how it looks. Makes you think,30,20,20","Grace","Like the colors, the cloudy, airy effects. Nice.,46,180,20","2"
"11773","","survey-text","196","1130360","0.0-195.0-0.0","A2FJYDSAE26ILV","","","","{""Q0"":""The city on a Friday night. Crazy busy.""}","","","","","","","","","","","","","","","","","","","","","","",""
"6332.5999999940395","","image-slider-response","197","1136696","0.0-196.0","A2FJYDSAE26ILV","","","","","-35","","","","","","","","","","","","","","","","","","","","","",""
"null","","image-button-response","198","1141700","0.0-197.0","A2FJYDSAE26ILV","img_art/11.jpg","null","","","","","","","","","","","","","","","","","","","","","","","","",""
"1064","","image-button-response","199","1142768","0.0-198.0","A2FJYDSAE26ILV","img_art/11.jpg","2","","","","","","","","","","","","","","","","","","","","","","","","",""
"8436","","image-button-response","200","1151209","0.0-199.0-0.0","A2FJYDSAE26ILV","img_art/11.jpg","3","","","","","","","","","","","","","","","","","","","","","","","","",""
"2339","","image-button-response","201","1153552","0.0-200.0-0.0","A2FJYDSAE26ILV","img_art/11.jpg","1","","","","","","","","","","","","","","","","","","","","","","","","",""
"null","","html-keyboard-response","202","1155054","0.0-201.0","A2FJYDSAE26ILV","<p style=""font-size: 48px;"">+</p>","","","","","null","allTrialResponses","1500","1","22","img_art/11.jpg","-35","The city on a Friday night. Crazy busy.","Laura,Cassandra,Grace,Angelica,Kaitlin,Nicole","i think of beatnik music and dark piano lounges,25,320,20","I liked it it looked like an roller coasters at an amusment park.,16,120,20","Rainy asian city scape.,31,180,20","This is very unappealing.,-11,280,20","a beautiful piece of art,33,60,20","Those vertical strokes are to die for and I love these colors !!!,50,20,20","Grace","Rainy asian city scape.,31,180,20","Angelica","This is very unappealing.,-11,280,20","Cassandra","I liked it it looked like an roller coasters at an amusment park.,16,120,20","2"
"15856","","survey-text","203","1170920","0.0-202.0-0.0","A2FJYDSAE26ILV","","","","{""Q0"":""A child's work. Unprofessional.""}","","","","","","","","","","","","","","","","","","","","","","",""
"2635.5","","image-slider-response","204","1173559","0.0-203.0","A2FJYDSAE26ILV","","","","","-50","","","","","","","","","","","","","","","","","","","","","",""
"4164","","image-button-response","205","1178563","0.0-204.0","A2FJYDSAE26ILV","img_art/30.jpg","1","","","","","","","","","","","","","","","","","","","","","","","","",""
"528","","image-button-response","206","1179096","0.0-205.0","A2FJYDSAE26ILV","img_art/30.jpg","1","","","","","","","","","","","","","","","","","","","","","","","","",""
"5604","","image-button-response","207","1184704","0.0-206.0-0.0","A2FJYDSAE26ILV","img_art/30.jpg","3","","","","","","","","","","","","","","","","","","","","","","","","",""
"1051","","image-button-response","208","1185760","0.0-207.0-0.0","A2FJYDSAE26ILV","img_art/30.jpg","2","","","","","","","","","","","","","","","","","","","","","","","","",""
"null","","html-keyboard-response","209","1187263","0.0-208.0","A2FJYDSAE26ILV","<p style=""font-size: 48px;"">+</p>","","","","","null","allTrialResponses","1500","1","23","img_art/30.jpg","-50","A child's work. Unprofessional.","Morgan,Cassandra,Grace,Angelica,Amanda,Sydney","Sleek eel in the abstract ocean.,30,380,20","I didn't like this...it looks like someone just finger painted it.,-10,120,20","A little too dull. Would've liked brighter colors. Also looks washed out.,1,180,20","This is just simple and ugly.,-2,280,20","Love how the red stands out,20,180,20","I love the colors, the style, and the uniqueness in this piece. I love everything.,50,320,20","Cassandra","I didn't like this...it looks like someone just finger painted it.,-10,120,20","Angelica","This is just simple and ugly.,-2,280,20","Grace","A little too dull. Would've liked brighter colors. Also looks washed out.,1,180,20","2"
"19734","","survey-text","210","1207007","0.0-209.0-0.0","A2FJYDSAE26ILV","","","","{""Q0"":""Greek city, calm soothing atmosphere. Delightful.""}","","","","","","","","","","","","","","","","","","","","","","",""
"4956.4000000059605","","image-slider-response","211","1211967","0.0-210.0","A2FJYDSAE26ILV","","","","","35","","","","","","","","","","","","","","","","","","","","","",""
"null","","image-button-response","212","1216972","0.0-211.0","A2FJYDSAE26ILV","img_art/8.jpg","null","","","","","","","","","","","","","","","","","","","","","","","","",""
"5081","","image-button-response","213","1222056","0.0-212.0","A2FJYDSAE26ILV","img_art/8.jpg","2","","","","","","","","","","","","","","","","","","","","","","","","",""
"939","","image-button-response","214","1223001","0.0-213.0-0.0","A2FJYDSAE26ILV","img_art/8.jpg","1","","","","","","","","","","","","","","","","","","","","","","","","",""
"945","","image-button-response","215","1223952","0.0-214.0-0.0","A2FJYDSAE26ILV","img_art/8.jpg","0","","","","","","","","","","","","","","","","","","","","","","","","",""
"null","","html-keyboard-response","216","1224955","0.0-215.0","A2FJYDSAE26ILV","<p style=""font-size: 48px;"">+</p>","","","","","null","allTrialResponses","1000","1","24","img_art/8.jpg","35","Greek city, calm soothing atmosphere. Delightful.","Olivia,Cassandra,Grace,Angelica,Michaela,Stephanie","being watched over,17,40,20","I like the colors and the scene.,24,120,20","Like the colors & the imagery - old city, native peoples maybe.,20,180,20","It's a poor rendition of an MC Escher inspired piece.,-25,280,20","It's too boxy for my taste,-10,260,20","I like the colors and geometrical shapes but the face in the sky makes it look scary,-10,300,20","Grace","Like the colors & the imagery - old city, native peoples maybe.,20,180,20","Cassandra","I like the colors and the scene.,24,120,20","Olivia","being watched over,17,40,20","2"
"22730","","survey-text","217","1247695","0.0-216.0-0.0","A2FJYDSAE26ILV","","","","{""Q0"":""Lost and alone in the desert. Terrifying.""}","","","","","","","","","","","","","","","","","","","","","","",""
"2612.4000000059605","","image-slider-response","218","1250311","0.0-217.0","A2FJYDSAE26ILV","","","","","-50","","","","","","","","","","","","","","","","","","","","","",""
"null","","image-button-response","219","1255315","0.0-218.0","A2FJYDSAE26ILV","img_art/20.jpg","null","","","","","","","","","","","","","","","","","","","","","","","","",""
"5161","","image-button-response","220","1260480","0.0-219.0","A2FJYDSAE26ILV","img_art/20.jpg","0","","","","","","","","","","","","","","","","","","","","","","","","",""
"1699","","image-button-response","221","1262184","0.0-220.0-0.0","A2FJYDSAE26ILV","img_art/20.jpg","2","","","","","","","","","","","","","","","","","","","","","","","","",""
"6180","","image-button-response","222","1268368","0.0-221.0-0.0","A2FJYDSAE26ILV","img_art/20.jpg","4","","","","","","","","","","","","","","","","","","","","","","","","",""
"null","","html-keyboard-response","223","1269871","0.0-222.0","A2FJYDSAE26ILV","<p style=""font-size: 48px;"">+</p>","","","","","null","allTrialResponses","1500","1","25","img_art/20.jpg","-50","Lost and alone in the desert. Terrifying.","Olivia,Cassandra,Grace,Chelsea,Isabella,Allison","crash after traffic causing grief,-11,40,20","I liked this...I liked the blue and the black and I liked the smoothness to it.,31,120,20","Reminds me of Georgia O'Keefe.,11,180,20","It is abstract but it looks neat.,15,180,20","Feels like a town destroyed,-19,280,20","Melty picture. Reminiscent of Dali.,10,140,20","Olivia","crash after traffic causing grief,-11,40,20","Grace","Reminds me of Georgia O'Keefe.,11,180,20","Isabella","Feels like a town destroyed,-19,280,20","2"
"4654","","survey-text","224","1274543","0.0-223.0-0.0","A2FJYDSAE26ILV","","","","{""Q0"":""table""}","","","","","","","","","","","","","","","","","","","","","","",""
"23118","","survey-text","225","1297664","0.0-224.0-0.0","A2FJYDSAE26ILV","","","","{""Q0"":""A tree near death, but survives. Awaiting Spring.""}","","","","","","","","","","","","","","","","","","","","","","",""
"11404.300000011921","","image-slider-response","226","1309072","0.0-225.0","A2FJYDSAE26ILV","","","","","40","","","","","","","","","","","","","","","","","","","","","",""
"null","","image-button-response","227","1314076","0.0-226.0","A2FJYDSAE26ILV","img_art/17.jpg","null","","","","","","","","","","","","","","","","","","","","","","","","",""
"960","","image-button-response","228","1315040","0.0-227.0","A2FJYDSAE26ILV","img_art/17.jpg","2","","","","","","","","","","","","","","","","","","","","","","","","",""
"4171","","image-button-response","229","1319216","0.0-228.0-0.0","A2FJYDSAE26ILV","img_art/17.jpg","4","","","","","","","","","","","","","","","","","","","","","","","","",""
"716","","image-button-response","230","1319936","0.0-229.0-0.0","A2FJYDSAE26ILV","img_art/17.jpg","5","","","","","","","","","","","","","","","","","","","","","","","","",""
"null","","html-keyboard-response","231","1320438","0.0-230.0","A2FJYDSAE26ILV","<p style=""font-size: 48px;"">+</p>","","","","","null","allTrialResponses","500","1","26","img_art/17.jpg","40","A tree near death, but survives. Awaiting Spring.","Olivia,Katherine,Grace,Erica,Isabella,Brittany","muted tones brings me down,-13,40,20","Looks like a weird blurry heaven again! I dig,32,120,20","Reminds me of winters in Minnesota.,48,180,20","Makes me warm and cozy just by looking at it,29,80,20","Pleasant fall to winter day,22,280,20","I like the colors and the design.,20,40,20","Grace","Reminds me of winters in Minnesota.,48,180,20","Isabella","Pleasant fall to winter day,22,280,20","Brittany","I like the colors and the design.,20,40,20","2"
"16951","","survey-text","232","1337399","0.0-231.0-0.0","A2FJYDSAE26ILV","","","","{""Q0"":""An apple a day. Sick person dreaming.""}","","","","","","","","","","","","","","","","","","","","","","",""
"3492.5999999940395","","image-slider-response","233","1340895","0.0-232.0","A2FJYDSAE26ILV","","","","","10","","","","","","","","","","","","","","","","","","","","","",""
"null","","image-button-response","234","1345899","0.0-233.0","A2FJYDSAE26ILV","img_art/9.jpg","null","","","","","","","","","","","","","","","","","","","","","","","","",""
"2465","","image-button-response","235","1348368","0.0-234.0","A2FJYDSAE26ILV","img_art/9.jpg","3","","","","","","","","","","","","","","","","","","","","","","","","",""
"1596","","image-button-response","236","1349968","0.0-235.0-0.0","A2FJYDSAE26ILV","img_art/9.jpg","5","","","","","","","","","","","","","","","","","","","","","","","","",""
"4939","","image-button-response","237","1354912","0.0-236.0-0.0","A2FJYDSAE26ILV","img_art/9.jpg","4","","","","","","","","","","","","","","","","","","","","","","","","",""
"null","","html-keyboard-response","238","1355915","0.0-237.0","A2FJYDSAE26ILV","<p style=""font-size: 48px;"">+</p>","","","","","null","allTrialResponses","1000","1","27","img_art/9.jpg","10","An apple a day. Sick person dreaming.","Vanessa,Jordan,Grace,Andrea,Isabella,Brittany","It's too abstract for my taste. I wish there were more definition.,-9,380,20","I just dont like it, no reaction from me at all,-50,20,20","Huh?  Doesn't invoke much.,-37,180,20","Sleeping woman in a cave. Makes me feel safe.,20,240,20","Angry beast mouth,-37,280,20","It reminds me of an illustration for a fairy tale.,19,40,20","Andrea","Sleeping woman in a cave. Makes me feel safe.,20,240,20","Brittany","It reminds me of an illustration for a fairy tale.,19,40,20","Isabella","Angry beast mouth,-37,280,20","2"
"14786","","survey-text","239","1370711","0.0-238.0-0.0","A2FJYDSAE26ILV","","","","{""Q0"":""A bird alone. Surviving another day.""}","","","","","","","","","","","","","","","","","","","","","","",""
"8052.200000017881","","image-slider-response","240","1378767","0.0-239.0","A2FJYDSAE26ILV","","","","","40","","","","","","","","","","","","","","","","","","","","","",""
"2444","","image-button-response","241","1383772","0.0-240.0","A2FJYDSAE26ILV","img_art/6.jpg","3","","","","","","","","","","","","","","","","","","","","","","","","",""
"4520","","image-button-response","242","1388296","0.0-241.0","A2FJYDSAE26ILV","img_art/6.jpg","3","","","","","","","","","","","","","","","","","","","","","","","","",""
"739","","image-button-response","243","1389041","0.0-242.0-0.0","A2FJYDSAE26ILV","img_art/6.jpg","4","","","","","","","","","","","","","","","","","","","","","","","","",""
"954","","image-button-response","244","1390000","0.0-243.0-0.0","A2FJYDSAE26ILV","img_art/6.jpg","1","","","","","","","","","","","","","","","","","","","","","","","","",""
"null","","html-keyboard-response","245","1391003","0.0-244.0","A2FJYDSAE26ILV","<p style=""font-size: 48px;"">+</p>","","","","","null","allTrialResponses","1000","1","28","img_art/6.jpg","40","A bird alone. Surviving another day.","Kelsey,Kathryn,Claire,Andrea,Isabella,Brittany","its like a jalapeno,-28,240,20","This piece feels hopeful, like an oasis in the desert.,20,140,20","very minimalistic,22,260,20","So forlorn, and beauty amid desolation.,25,240,20","A bird standing in the sun,37,280,20","It's alright. I imagined the peach from James and the Giant Peach.,1,40,20","Andrea","So forlorn, and beauty amid desolation.,25,240,20","Isabella","A bird standing in the sun,37,280,20","Kathryn","This piece feels hopeful, like an oasis in the desert.,20,140,20","2"
"13535","","survey-text","246","1404551","0.0-245.0-0.0","A2FJYDSAE26ILV","","","","{""Q0"":""Fun shopping day. Together.""}","","","","","","","","","","","","","","","","","","","","","","",""
"5164.5","","image-slider-response","247","1409719","0.0-246.0","A2FJYDSAE26ILV","","","","","25","","","","","","","","","","","","","","","","","","","","","",""
"null","","image-button-response","248","1414723","0.0-247.0","A2FJYDSAE26ILV","img_art/5.jpg","null","","","","","","","","","","","","","","","","","","","","","","","","",""
"2018","","image-button-response","249","1416744","0.0-248.0","A2FJYDSAE26ILV","img_art/5.jpg","3","","","","","","","","","","","","","","","","","","","","","","","","",""
"1219","","image-button-response","250","1417968","0.0-249.0-0.0","A2FJYDSAE26ILV","img_art/5.jpg","4","","","","","","","","","","","","","","","","","","","","","","","","",""
"586","","image-button-response","251","1418560","0.0-250.0-0.0","A2FJYDSAE26ILV","img_art/5.jpg","5","","","","","","","","","","","","","","","","","","","","","","","","",""
"null","","html-keyboard-response","252","1419063","0.0-251.0","A2FJYDSAE26ILV","<p style=""font-size: 48px;"">+</p>","","","","","null","allTrialResponses","500","1","29","img_art/5.jpg","25","Fun shopping day. Together.","Danielle,Kathryn,Taylor,Andrea,Isabella,Meghan","Not a fan of the themes,-30,340,20","I see a sign advising me to be cautious.,-20,140,20","Doesn't make me think anything,-1,340,20","Perfume bottle, reminds of fancy nights out.,11,240,20","Seems clean and neat,11,280,20","I like it but I don't know why,15,220,20","Andrea","Perfume bottle, reminds of fancy nights out.,11,240,20","Isabella","Seems clean and neat,11,280,20","Meghan","I like it but I don't know why,15,220,20","2"
"23661","","survey-text","253","1442736","0.0-252.0-0.0","A2FJYDSAE26ILV","","","","{""Q0"":""Running from evil. Terror inducing.""}","","","","","","","","","","","","","","","","","","","","","","",""
"7411.799999982119","","image-slider-response","254","1450151","0.0-253.0","A2FJYDSAE26ILV","","","","","5","","","","","","","","","","","","","","","","","","","","","",""
"null","","image-button-response","255","1455155","0.0-254.0","A2FJYDSAE26ILV","img_art/18.jpg","null","","","","","","","","","","","","","","","","","","","","","","","","",""
"2457","","image-button-response","256","1457616","0.0-255.0","A2FJYDSAE26ILV","img_art/18.jpg","2","","","","","","","","","","","","","","","","","","","","","","","","",""
"5916","","image-button-response","257","1463536","0.0-256.0-0.0","A2FJYDSAE26ILV","img_art/18.jpg","3","","","","","","","","","","","","","","","","","","","","","","","","",""
"555","","image-button-response","258","1464097","0.0-257.0-0.0","A2FJYDSAE26ILV","img_art/18.jpg","4","","","","","","","","","","","","","","","","","","","","","","","","",""
"null","","html-keyboard-response","259","1465100","0.0-258.0","A2FJYDSAE26ILV","<p style=""font-size: 48px;"">+</p>","","","","","null","allTrialResponses","1000","1","30","img_art/18.jpg","5","Running from evil. Terror inducing.","Abigail,Gabriela,Hannah,Andrea,Isabella,Meghan","Interesting and capitvating to look at,19,20,20","It's possibly of a mermaid luring in a ship,15,140,20","Looks like ghost figures on a boat. It's okay.,7,240,20","I see an artistic representation of the riding of last of the four horseman. Its stunning.,45,240,20","Feels like a story of ancient war of the gods,26,280,20","reminds me of sailors on a boat,17,220,20","Hannah","Looks like ghost figures on a boat. It's okay.,7,240,20","Andrea","I see an artistic representation of the riding of last of the four horseman. Its stunning.,45,240,20","Isabella","Feels like a story of ancient war of the gods,26,280,20","2"
"3601","","image-button-response_instructions","260","1468713","0.0-259.0","A2FJYDSAE26ILV","","0","instructions","","","","","","","","","","","","","","","","","","","","","","","",""
"1172","","image-button-response","261","1469896","0.0-260.0","A2FJYDSAE26ILV","","0","","","","","","","","","","","","","","","","","","","","","","","","",""
