"rt","url","trial_type","trial_index","time_elapsed","internal_node_id","participant_id","stimulus","button_pressed","Name","responses","response","key_press","variableName","fixationTime","condition","trial","photo","subjectRating","subjectResponse","agentsNames","agent_1_Response","agent_2_Response","agent_3_Response","agent_4_Response","agent_5_Response","agent_6_Response","kept_1_name","kept_1_response","kept_2_name","kept_2_response","kept_3_name","kept_3_response","errorCounter"
"126636","external_page_harvard.html","external-html","0","126764","0.0-0.0","A2G43KS55YGYQE","","","","","","","","","","","","","","","","","","","","","","","","","","",""
"1418","","image-button-response","1","128183","0.0-1.0","A2G43KS55YGYQE","","0","","","","","","","","","","","","","","","","","","","","","","","","",""
"2108","","image-button-response","2","130294","0.0-2.0-0.0","A2G43KS55YGYQE","","1","phone","","","","","","","","","","","","","","","","","","","","","","","",""
"8123","","survey-text","3","138419","0.0-3.0-0.0","A2G43KS55YGYQE","","","","{""Q0"":""A2G43KS55YGYQE""}","","","","","","","","","","","","","","","","","","","","","","",""
"11242","","image-button-response_instructions","4","149663","0.0-4.0","A2G43KS55YGYQE","","0","instructions","","","","","","","","","","","","","","","","","","","","","","","",""
"20421","","image-button-response_instructions","5","170084","0.0-5.0","A2G43KS55YGYQE","img_art/ins/popularity/ins1.png","0","instructions","","","","","","","","","","","","","","","","","","","","","","","",""
"4885","","image-button-response_instructions","6","174970","0.0-6.0","A2G43KS55YGYQE","img_art/ins/popularity/ins2.png","0","instructions","","","","","","","","","","","","","","","","","","","","","","","",""
"3881","","image-button-response_instructions","7","178852","0.0-7.0","A2G43KS55YGYQE","img_art/ins/popularity/ins2Extreme.png","0","instructions","","","","","","","","","","","","","","","","","","","","","","","",""
"3508","","image-button-response_instructions","8","182362","0.0-8.0","A2G43KS55YGYQE","img_art/ins/popularity/ins3KEEPpop.PNG","0","instructions","","","","","","","","","","","","","","","","","","","","","","","",""
"5336","","image-button-response_instructions","9","187698","0.0-9.0","A2G43KS55YGYQE","img_art/ins/popularity/ins3ANamepop.PNG","0","instructions","","","","","","","","","","","","","","","","","","","","","","","",""
"5079","","image-button-response_instructions","10","192778","0.0-10.0","A2G43KS55YGYQE","img_art/ins/popularity/ins3ARatingpop.png","0","instructions","","","","","","","","","","","","","","","","","","","","","","","",""
"3245","","image-button-response_instructions","11","196025","0.0-11.0","A2G43KS55YGYQE","img_art/ins/popularity/ins3ATextpop.png","0","instructions","","","","","","","","","","","","","","","","","","","","","","","",""
"7339","","image-button-response_instructions","12","203364","0.0-12.0","A2G43KS55YGYQE","img_art/ins/popularity/ins3ALikespop.png","0","instructions","","","","","","","","","","","","","","","","","","","","","","","",""
"9978","","image-button-response_instructions","13","213343","0.0-13.0","A2G43KS55YGYQE","img_art/ins/popularity/ins3KEEPpop.PNG","0","instructions","","","","","","","","","","","","","","","","","","","","","","","",""
"7200","","image-button-response_instructions","14","220545","0.0-14.0","A2G43KS55YGYQE","img_art/ins/popularity/ins3_5RED.png","0","instructions","","","","","","","","","","","","","","","","","","","","","","","",""
"5450","","image-button-response_instructions","15","225996","0.0-15.0","A2G43KS55YGYQE","img_art/ins/popularity/ins3KEEPpop.PNG","0","instructions","","","","","","","","","","","","","","","","","","","","","","","",""
"8596","","image-button-response_instructions","16","234593","0.0-16.0","A2G43KS55YGYQE","img_art/ins/popularity/ins4KEEPpop.PNG","0","instructions","","","","","","","","","","","","","","","","","","","","","","","",""
"2927","","image-button-response_instructions","17","237520","0.0-17.0","A2G43KS55YGYQE","img_art/ins/popularity/ins5KEEPpop.PNG","0","instructions","","","","","","","","","","","","","","","","","","","","","","","",""
"2165","","image-button-response_instructions","18","239686","0.0-18.0","A2G43KS55YGYQE","","0","instructions","","","","","","","","","","","","","","","","","","","","","","","",""
"6953","","survey-text","19","246653","0.0-19.0-0.0","A2G43KS55YGYQE","","","","{""Q0"":""but""}","","","","","","","","","","","","","","","","","","","","","","",""
"23307","","survey-text","20","269960","0.0-20.0-0.0","A2G43KS55YGYQE","","","","{""Q0"":""colorful and chaotic, ""}","","","","","","","","","","","","","","","","","","","","","","",""
"3212.600000023842","","image-slider-response","21","273174","0.0-21.0","A2G43KS55YGYQE","","","","","13","","","","","","","","","","","","","","","","","","","","","",""
"null","","image-button-response","22","278176","0.0-22.0","A2G43KS55YGYQE","img_art/ins/1.jpg","null","","","","","","","","","","","","","","","","","","","","","","","","",""
"6316","","image-button-response","23","284494","0.0-23.0","A2G43KS55YGYQE","img_art/ins/1.jpg","5","","","","","","","","","","","","","","","","","","","","","","","","",""
"2156","","image-button-response","24","286653","0.0-24.0-0.0","A2G43KS55YGYQE","img_art/ins/1.jpg","3","","","","","","","","","","","","","","","","","","","","","","","","",""
"1651","","image-button-response","25","288306","0.0-25.0-0.0","A2G43KS55YGYQE","img_art/ins/1.jpg","1","","","","","","","","","","","","","","","","","","","","","","","","",""
"null","","html-keyboard-response","26","288808","0.0-26.0","A2G43KS55YGYQE","<p style=""font-size: 48px;"">+</p>","","","","","null","allTrialResponses","500","1","-2","img_art/ins/1.jpg","13","colorful and chaotic, ","Adam,Alex,Ben,Carl,Daniel,Jack","Seems like doodles,-20,20,20","very creative work.,36,40,20","This color reminds me of poo,-46,60,20","very calming artwork,42,80,20","It looks like a murder scene.,-48,100,20","I like the sophisticated brushwork,40,120,20","Jack","I like the sophisticated brushwork,40,120,20","Carl","very calming artwork,42,80,20","Alex","very creative work.,36,40,20","0"
"25742","","survey-text","27","314555","0.0-27.0-0.0","A2G43KS55YGYQE","","","","{""Q0"":""It draws me in.""}","","","","","","","","","","","","","","","","","","","","","","",""
"4277.899999976158","","image-slider-response","28","318834","0.0-28.0","A2G43KS55YGYQE","","","","","22","","","","","","","","","","","","","","","","","","","","","",""
"null","","image-button-response","29","323837","0.0-29.0","A2G43KS55YGYQE","img_art/ins/2.jpg","null","","","","","","","","","","","","","","","","","","","","","","","","",""
"1028","","image-button-response","30","324866","0.0-30.0","A2G43KS55YGYQE","img_art/ins/2.jpg","3","","","","","","","","","","","","","","","","","","","","","","","","",""
"5645","","image-button-response","31","330512","0.0-31.0-0.0","A2G43KS55YGYQE","img_art/ins/2.jpg","5","","","","","","","","","","","","","","","","","","","","","","","","",""
"2445","","image-button-response","32","332958","0.0-32.0-0.0","A2G43KS55YGYQE","img_art/ins/2.jpg","1","","","","","","","","","","","","","","","","","","","","","","","","",""
"null","","html-keyboard-response","33","333967","0.0-33.0","A2G43KS55YGYQE","<p style=""font-size: 48px;"">+</p>","","","","","null","allTrialResponses","1000","1","-1","img_art/ins/2.jpg","22","It draws me in.","James,Alex,Kyle,Carl,John,Jack","looks too angry,-50,140,20","I like the blocks of color arrangements,30,40,20","Idk, it is just annoying,-32,180,20","I can feel the artist's passion in it,45,80,20","love the texture of paint,48,160,20","I would never be able to compose a sophisticated pallete like this,48,120,20","Carl","I can feel the artist's passion in it,45,80,20","Jack","I would never be able to compose a sophisticated pallete like this,48,120,20","Alex","I like the blocks of color arrangements,30,40,20","0"
"20449","","survey-text","34","354424","0.0-34.0-0.0","A2G43KS55YGYQE","","","","{""Q0"":""This I like. I can get lost in this.""}","","","","","","","","","","","","","","","","","","","","","","",""
"6093.100000023842","","image-slider-response","35","360518","0.0-35.0","A2G43KS55YGYQE","","","","","33","","","","","","","","","","","","","","","","","","","","","",""
"null","","image-button-response","36","365531","0.0-36.0","A2G43KS55YGYQE","img_art/ins/3.jpg","null","","","","","","","","","","","","","","","","","","","","","","","","",""
"2334","","image-button-response","37","367867","0.0-37.0","A2G43KS55YGYQE","img_art/ins/3.jpg","2","","","","","","","","","","","","","","","","","","","","","","","","",""
"2646","","image-button-response","38","370514","0.0-38.0-0.0","A2G43KS55YGYQE","img_art/ins/3.jpg","0","","","","","","","","","","","","","","","","","","","","","","","","",""
"2151","","image-button-response","39","372667","0.0-39.0-0.0","A2G43KS55YGYQE","img_art/ins/3.jpg","0","","","","","","","","","","","","","","","","","","","","","","","","",""
"5583","","image-button-response","40","386413","0.0-39.1-0.1","A2G43KS55YGYQE","img_art/ins/3.jpg","0","","","","","","","","","","","","","","","","","","","","","","","","",""
"1397","","image-button-response","41","391746","0.0-39.2-0.2","A2G43KS55YGYQE","img_art/ins/3.jpg","1","","","","","","","","","","","","","","","","","","","","","","","","",""
"null","","html-keyboard-response","42","392248","0.0-40.0","A2G43KS55YGYQE","<p style=""font-size: 48px;"">+</p>","","","","","null","allTrialResponses","500","1","0","img_art/ins/3.jpg","33","This I like. I can get lost in this.","Mike,Alex,Sam,Carl,Ron,Jack","enjoy the different shades of blue,22,200,20","calming blue is very nice,36,40,20","I can feel a rainy day from this painting,18,240,20","It's an alright work,15,80,20","It looks depressing,-26,220,20","I feel connected to the artist,40,120,20","Sam","I can feel a rainy day from this painting,18,240,20","Mike","enjoy the different shades of blue,22,200,20","Alex","calming blue is very nice,36,40,20","4"
"37815","","image-button-response_instructions","43","430067","0.0-41.0","A2G43KS55YGYQE","","0","instructions","","","","","","","","","","","","","","","","","","","","","","","",""
"8253","","survey-likert","44","438321","0.0-42.0-0.0","A2G43KS55YGYQE","","","","{""Q0"":"""",""Q1"":0,""Q2"":1}","","","","","","","","","","","","","","","","","","","","","","",""
"5734","","survey-text","45","444061","0.0-43.0-0.0","A2G43KS55YGYQE","","","","{""Q0"":""rock""}","","","","","","","","","","","","","","","","","","","","","","",""
"29718","","survey-text","46","473780","0.0-44.0-0.0","A2G43KS55YGYQE","","","","{""Q0"":""Southwest feel, death and desolation""}","","","","","","","","","","","","","","","","","","","","","","",""
"4120.600000023842","","image-slider-response","47","477902","0.0-45.0","A2G43KS55YGYQE","","","","","27","","","","","","","","","","","","","","","","","","","","","",""
"null","","image-button-response","48","482931","0.0-46.0","A2G43KS55YGYQE","img_art/20.jpg","null","","","","","","","","","","","","","","","","","","","","","","","","",""
"11806","","image-button-response","49","494738","0.0-47.0","A2G43KS55YGYQE","img_art/20.jpg","1","","","","","","","","","","","","","","","","","","","","","","","","",""
"3874","","image-button-response","50","498614","0.0-48.0-0.0","A2G43KS55YGYQE","img_art/20.jpg","4","","","","","","","","","","","","","","","","","","","","","","","","",""
"5122","","image-button-response","51","503738","0.0-49.0-0.0","A2G43KS55YGYQE","img_art/20.jpg","5","","","","","","","","","","","","","","","","","","","","","","","","",""
"null","","html-keyboard-response","52","504240","0.0-50.0","A2G43KS55YGYQE","<p style=""font-size: 48px;"">+</p>","","","","","null","allTrialResponses","500","1","1","img_art/20.jpg","27","Southwest feel, death and desolation","Jordan,Matthew,Logan,Jose,Ethan,Devin","A mountain vacation,46,160,20","Painting within a painting, abstract.,32,120,20","truck? train? dead cow? plane?,10,360,20","More dark colors and blurry objects.,13,200,20","I can tell this artist has experience. I just don't care for the color combo.,7,120,20","Looks somewhat dark and emotional,-10,380,20","Matthew","Painting within a painting, abstract.,32,120,20","Ethan","I can tell this artist has experience. I just don't care for the color combo.,7,120,20","Devin","Looks somewhat dark and emotional,-10,380,20","4"
"20630","","survey-text","53","524876","0.0-51.0-0.0","A2G43KS55YGYQE","","","","{""Q0"":""explosion of music and dance.""}","","","","","","","","","","","","","","","","","","","","","","",""
"2622.3000000715256","","image-slider-response","54","527500","0.0-52.0","A2G43KS55YGYQE","","","","","14","","","","","","","","","","","","","","","","","","","","","",""
"null","","image-button-response","55","532513","0.0-53.0","A2G43KS55YGYQE","img_art/23.jpg","null","","","","","","","","","","","","","","","","","","","","","","","","",""
"9650","","image-button-response","56","542165","0.0-54.0","A2G43KS55YGYQE","img_art/23.jpg","1","","","","","","","","","","","","","","","","","","","","","","","","",""
"5109","","image-button-response","57","547275","0.0-55.0-0.0","A2G43KS55YGYQE","img_art/23.jpg","5","","","","","","","","","","","","","","","","","","","","","","","","",""
"936","","image-button-response","58","548213","0.0-56.0-0.0","A2G43KS55YGYQE","img_art/23.jpg","3","","","","","","","","","","","","","","","","","","","","","","","","",""
"null","","html-keyboard-response","59","548718","0.0-57.0","A2G43KS55YGYQE","<p style=""font-size: 48px;"">+</p>","","","","","null","allTrialResponses","500","1","2","img_art/23.jpg","14","explosion of music and dance.","Blake,Matthew,Jeremy,Chase,Ethan,Devin","cold and dark feeling,-27,280,20","A line dance, it's really strinkingly beautiful.,50,120,20","Does not incite any emotional response,1,60,20","It's kind of neat with the white slash marks.,13,120,20","The colors are ugly. I don't like the white. It doesn't compliment the piece at all.,-44,120,20","background is great but the white is a bit weird,3,380,20","Matthew","A line dance, it's really strinkingly beautiful.,50,120,20","Devin","background is great but the white is a bit weird,3,380,20","Chase","It's kind of neat with the white slash marks.,13,120,20","4"
"42968","","survey-text","60","591692","0.0-58.0-0.0","A2G43KS55YGYQE","","","","{""Q0"":""huddled masses. Not what it used to be. powerful""}","","","","","","","","","","","","","","","","","","","","","","",""
"2584.7999999523163","","image-slider-response","61","594278","0.0-59.0","A2G43KS55YGYQE","","","","","8","","","","","","","","","","","","","","","","","","","","","",""
"3960","","image-button-response","62","599281","0.0-60.0","A2G43KS55YGYQE","img_art/25.jpg","1","","","","","","","","","","","","","","","","","","","","","","","","",""
"454","","image-button-response","63","599738","0.0-61.0","A2G43KS55YGYQE","img_art/25.jpg","1","","","","","","","","","","","","","","","","","","","","","","","","",""
"9761","","image-button-response","64","609501","0.0-62.0-0.0","A2G43KS55YGYQE","img_art/25.jpg","2","","","","","","","","","","","","","","","","","","","","","","","","",""
"766","","image-button-response","65","610268","0.0-63.0-0.0","A2G43KS55YGYQE","img_art/25.jpg","0","","","","","","","","","","","","","","","","","","","","","","","","",""
"null","","html-keyboard-response","66","611272","0.0-64.0","A2G43KS55YGYQE","<p style=""font-size: 48px;"">+</p>","","","","","null","allTrialResponses","1000","1","3","img_art/25.jpg","8","huddled masses. Not what it used to be. powerful","Cody,Matthew,Corey,Chase,Aaron,Devin","Like the colors and the figure,30,180,20","haunting, a lovely impression.,50,120,20","love the color and the contrast of the black on teal,50,260,20","Not particularly interesting for me. The green color is strange mixed with this.,-11,120,20","I love the green and the texture,50,20,20","It looks a bit strange to me, neck too long,-19,380,20","Matthew","haunting, a lovely impression.,50,120,20","Corey","love the color and the contrast of the black on teal,50,260,20","Cody","Like the colors and the figure,30,180,20","4"
"21315","","survey-text","67","632590","0.0-65.0-0.0","A2G43KS55YGYQE","","","","{""Q0"":""confusion.""}","","","","","","","","","","","","","","","","","","","","","","",""
"6341.5","","image-slider-response","68","638932","0.0-66.0","A2G43KS55YGYQE","","","","","1","","","","","","","","","","","","","","","","","","","","","",""
"null","","image-button-response","69","643951","0.0-67.0","A2G43KS55YGYQE","img_art/12.jpg","null","","","","","","","","","","","","","","","","","","","","","","","","",""
"7475","","image-button-response","70","651428","0.0-68.0","A2G43KS55YGYQE","img_art/12.jpg","1","","","","","","","","","","","","","","","","","","","","","","","","",""
"2575","","image-button-response","71","654006","0.0-69.0-0.0","A2G43KS55YGYQE","img_art/12.jpg","3","","","","","","","","","","","","","","","","","","","","","","","","",""
"8021","","image-button-response","72","662029","0.0-70.0-0.0","A2G43KS55YGYQE","img_art/12.jpg","0","","","","","","","","","","","","","","","","","","","","","","","","",""
"null","","html-keyboard-response","73","662530","0.0-71.0","A2G43KS55YGYQE","<p style=""font-size: 48px;"">+</p>","","","","","null","allTrialResponses","500","1","4","img_art/12.jpg","1","confusion.","Cody,Matthew,Corey,Christopher,Hunter,Jared","Pretty but not a huge fan of the colors,20,180,20","It's boxy, cubist immpressionism? Very ncie.,32,120,20","I like the bottom half and hate the top half,7,260,20","i think it's a good piece but it doesn't appeal to me,-18,160,20","reminds me of a dixie cup,3,240,20","i dont see the point.,-19,400,20","Matthew","It's boxy, cubist immpressionism? Very ncie.,32,120,20","Christopher","i think it's a good piece but it doesn't appeal to me,-18,160,20","Cody","Pretty but not a huge fan of the colors,20,180,20","4"
"24870","","survey-text","74","687402","0.0-72.0-0.0","A2G43KS55YGYQE","","","","{""Q0"":""doesn't speak to me at all""}","","","","","","","","","","","","","","","","","","","","","","",""
"2017.7999999523163","","image-slider-response","75","689421","0.0-73.0","A2G43KS55YGYQE","","","","","-27","","","","","","","","","","","","","","","","","","","","","",""
"null","","image-button-response","76","694423","0.0-74.0","A2G43KS55YGYQE","img_art/27.jpg","null","","","","","","","","","","","","","","","","","","","","","","","","",""
"9652","","image-button-response","77","704076","0.0-75.0","A2G43KS55YGYQE","img_art/27.jpg","0","","","","","","","","","","","","","","","","","","","","","","","","",""
"3361","","image-button-response","78","707438","0.0-76.0-0.0","A2G43KS55YGYQE","img_art/27.jpg","1","","","","","","","","","","","","","","","","","","","","","","","","",""
"6676","","image-button-response","79","714116","0.0-77.0-0.0","A2G43KS55YGYQE","img_art/27.jpg","3","","","","","","","","","","","","","","","","","","","","","","","","",""
"null","","html-keyboard-response","80","715118","0.0-78.0","A2G43KS55YGYQE","<p style=""font-size: 48px;"">+</p>","","","","","null","allTrialResponses","1000","1","5","img_art/27.jpg","-27","doesn't speak to me at all","Cody,Matthew,Michael,Christopher,Joshua,Edward","Not sure how I feel about this. Messy, even for art. But good colors.,0,180,20","Lots of activity, layers, imagination at work here.,29,120,20","Anyone could do that.,-31,140,20","i don't think i should like this one because it's a little chaotic and simple but I do,6,160,20","Reminds me of something I'd see in a gold frame from the Eighties.,-9,240,20","It looks like a kid colored a picture and an adult added to it,19,60,20","Cody","Not sure how I feel about this. Messy, even for art. But good colors.,0,180,20","Matthew","Lots of activity, layers, imagination at work here.,29,120,20","Christopher","i don't think i should like this one because it's a little chaotic and simple but I do,6,160,20","4"
"6292","","survey-text","81","721418","0.0-79.0-0.0","A2G43KS55YGYQE","","","","{""Q0"":""sky""}","","","","","","","","","","","","","","","","","","","","","","",""
"18871","","survey-text","82","740290","0.0-80.0-0.0","A2G43KS55YGYQE","","","","{""Q0"":""chaos and movement, nice""}","","","","","","","","","","","","","","","","","","","","","","",""
"3391.7000000476837","","image-slider-response","83","743684","0.0-81.0","A2G43KS55YGYQE","","","","","17","","","","","","","","","","","","","","","","","","","","","",""
"null","","image-button-response","84","748691","0.0-82.0","A2G43KS55YGYQE","img_art/10.jpg","null","","","","","","","","","","","","","","","","","","","","","","","","",""
"5994","","image-button-response","85","754688","0.0-83.0","A2G43KS55YGYQE","img_art/10.jpg","5","","","","","","","","","","","","","","","","","","","","","","","","",""
"2027","","image-button-response","86","756717","0.0-84.0-0.0","A2G43KS55YGYQE","img_art/10.jpg","0","","","","","","","","","","","","","","","","","","","","","","","","",""
"774","","image-button-response","87","757492","0.0-85.0-0.0","A2G43KS55YGYQE","img_art/10.jpg","1","","","","","","","","","","","","","","","","","","","","","","","","",""
"null","","html-keyboard-response","88","757994","0.0-86.0","A2G43KS55YGYQE","<p style=""font-size: 48px;"">+</p>","","","","","null","allTrialResponses","500","1","6","img_art/10.jpg","17","chaos and movement, nice","Cody,Matthew,Caleb,Christopher,Lucas,Angel","Feels musical .....,40,180,20","AWESOME VIOLIN!`,26,120,20","This is a scribble of a mad man. Appears low effort.,-33,40,20","i like this, the mix of brush textures is cool,24,160,20","For me, it looks like a giant ship on the sea and it's astonishing.,30,380,20","This piece makes me think of music. The music is dark; I like dark music so it edges toward good.,10,180,20","Angel","This piece makes me think of music. The music is dark; I like dark music so it edges toward good.,10,180,20","Cody","Feels musical .....,40,180,20","Matthew","AWESOME VIOLIN!`,26,120,20","4"
"36182","","survey-text","89","794181","0.0-87.0-0.0","A2G43KS55YGYQE","","","","{""Q0"":""I like it, but I'm not sure why""}","","","","","","","","","","","","","","","","","","","","","","",""
"3616.100000023842","","image-slider-response","90","797798","0.0-88.0","A2G43KS55YGYQE","","","","","14","","","","","","","","","","","","","","","","","","","","","",""
"null","","image-button-response","91","802801","0.0-89.0","A2G43KS55YGYQE","img_art/13.jpg","null","","","","","","","","","","","","","","","","","","","","","","","","",""
"337","","image-button-response","92","803140","0.0-90.0","A2G43KS55YGYQE","img_art/13.jpg","4","","","","","","","","","","","","","","","","","","","","","","","","",""
"5336","","image-button-response","93","808477","0.0-91.0-0.0","A2G43KS55YGYQE","img_art/13.jpg","5","","","","","","","","","","","","","","","","","","","","","","","","",""
"4300","","image-button-response","94","812779","0.0-92.0-0.0","A2G43KS55YGYQE","img_art/13.jpg","1","","","","","","","","","","","","","","","","","","","","","","","","",""
"null","","html-keyboard-response","95","814283","0.0-93.0","A2G43KS55YGYQE","<p style=""font-size: 48px;"">+</p>","","","","","null","allTrialResponses","1500","1","7","img_art/13.jpg","14","I like it, but I'm not sure why","Cody,Matthew,Brendan,Derek,Carlos,Angel","It's pretty ...........,41,180,20","AWESOME! Pollack but with more direction.,32,120,20","its crazy to the point that i cant get it,-28,340,20","This looks like a staple bedroom or bathroom piece,41,360,20","Rain on a cold window.,22,80,20","Reminds me of depression anxiety, but negativity is dampened by motion. It's trying to release itself through expression.,-10,180,20","Carlos","Rain on a cold window.,22,80,20","Angel","Reminds me of depression anxiety, but negativity is dampened by motion. It's trying to release itself through expression.,-10,180,20","Matthew","AWESOME! Pollack but with more direction.,32,120,20","4"
"33197","","survey-text","96","847485","0.0-94.0-0.0","A2G43KS55YGYQE","","","","{""Q0"":""good focal point for meditation""}","","","","","","","","","","","","","","","","","","","","","","",""
"2052.5","","image-slider-response","97","849538","0.0-95.0","A2G43KS55YGYQE","","","","","7","","","","","","","","","","","","","","","","","","","","","",""
"null","","image-button-response","98","854553","0.0-96.0","A2G43KS55YGYQE","img_art/1.jpg","null","","","","","","","","","","","","","","","","","","","","","","","","",""
"2687","","image-button-response","99","857243","0.0-97.0","A2G43KS55YGYQE","img_art/1.jpg","1","","","","","","","","","","","","","","","","","","","","","","","","",""
"5564","","image-button-response","100","862809","0.0-98.0-0.0","A2G43KS55YGYQE","img_art/1.jpg","4","","","","","","","","","","","","","","","","","","","","","","","","",""
"6670","","image-button-response","101","869481","0.0-99.0-0.0","A2G43KS55YGYQE","img_art/1.jpg","0","","","","","","","","","","","","","","","","","","","","","","","","",""
"null","","html-keyboard-response","102","869982","0.0-100.0","A2G43KS55YGYQE","<p style=""font-size: 48px;"">+</p>","","","","","null","allTrialResponses","500","1","8","img_art/1.jpg","7","good focal point for meditation","Noah,Matthew,Travis,Brett,Carlos,Angel","the bright colours evoke the 90s, and not their best part,-10,260,20","More passable, colorful, abstract.,13,120,20","I didn't like this too much...I didn't like the red and the jaggedness to it.,-29,260,20","I don't know how I feel about this,1,360,20","Colors are pleasant, but feels incredibly generic.,9,80,20","For some reason this makes me want to go ice skating. It's whimsical and free but also very smooth.,20,180,20","Matthew","More passable, colorful, abstract.,13,120,20","Carlos","Colors are pleasant, but feels incredibly generic.,9,80,20","Noah","the bright colours evoke the 90s, and not their best part,-10,260,20","4"
"23642","","survey-text","103","893628","0.0-101.0-0.0","A2G43KS55YGYQE","","","","{""Q0"":""This just makes me feel sad.""}","","","","","","","","","","","","","","","","","","","","","","",""
"4135.700000047684","","image-slider-response","104","897765","0.0-102.0","A2G43KS55YGYQE","","","","","-7","","","","","","","","","","","","","","","","","","","","","",""
"null","","image-button-response","105","902768","0.0-103.0","A2G43KS55YGYQE","img_art/16.jpg","null","","","","","","","","","","","","","","","","","","","","","","","","",""
"9051","","image-button-response","106","911821","0.0-104.0","A2G43KS55YGYQE","img_art/16.jpg","0","","","","","","","","","","","","","","","","","","","","","","","","",""
"799","","image-button-response","107","912621","0.0-105.0-0.0","A2G43KS55YGYQE","img_art/16.jpg","1","","","","","","","","","","","","","","","","","","","","","","","","",""
"5101","","image-button-response","108","917723","0.0-106.0-0.0","A2G43KS55YGYQE","img_art/16.jpg","2","","","","","","","","","","","","","","","","","","","","","","","","",""
"null","","html-keyboard-response","109","918725","0.0-107.0","A2G43KS55YGYQE","<p style=""font-size: 48px;"">+</p>","","","","","null","allTrialResponses","1000","1","9","img_art/16.jpg","-7","This just makes me feel sad.","Noah,Matthew,Shane,Tyler,Carlos,Jesus","feel a little creeped out,-20,260,20","A lot fo these could abstract or childrens work.,23,120,20","This looks chaotic,-25,80,20","Pop art, Tate Modern horse dung.,-50,320,20","Why is that bear there? It looks like it would be gross to touch. The texture bothers me.,-20,80,20","I like the mixture of images,23,100,20","Noah","feel a little creeped out,-20,260,20","Matthew","A lot fo these could abstract or childrens work.,23,120,20","Shane","This looks chaotic,-25,80,20","4"
"39534","","survey-text","110","958265","0.0-108.0-0.0","A2G43KS55YGYQE","","","","{""Q0"":""loneliness.""}","","","","","","","","","","","","","","","","","","","","","","",""
"3173.8000000715256","","image-slider-response","111","961441","0.0-109.0","A2G43KS55YGYQE","","","","","8","","","","","","","","","","","","","","","","","","","","","",""
"4952","","image-button-response","112","966443","0.0-110.0","A2G43KS55YGYQE","img_art/6.jpg","0","","","","","","","","","","","","","","","","","","","","","","","","",""
"2179","","image-button-response","113","968625","0.0-111.0","A2G43KS55YGYQE","img_art/6.jpg","0","","","","","","","","","","","","","","","","","","","","","","","","",""
"14092","","image-button-response","114","982719","0.0-112.0-0.0","A2G43KS55YGYQE","img_art/6.jpg","4","","","","","","","","","","","","","","","","","","","","","","","","",""
"3594","","image-button-response","115","986315","0.0-113.0-0.0","A2G43KS55YGYQE","img_art/6.jpg","2","","","","","","","","","","","","","","","","","","","","","","","","",""
"null","","html-keyboard-response","116","986816","0.0-114.0","A2G43KS55YGYQE","<p style=""font-size: 48px;"">+</p>","","","","","null","allTrialResponses","500","1","10","img_art/6.jpg","8","loneliness.","Noah,Matthew,Shane,Isaiah,Gregory,Justin","intrigues me - not sure what I'm seeing, but I like combination of colour and texture,21,260,20","A lot of people will lvoe this, I do not.,1,120,20","A bird standing in the sun,37,80,20","The painting makes me happy. Like I'm looking at a little bird.,6,300,20","Tree growing in a desert. Gives me feelings of hope,5,220,20","It's alright. I imagined the peach from James and the Giant Peach.,1,280,20","Noah","intrigues me - not sure what I'm seeing, but I like combination of colour and texture,21,260,20","Gregory","Tree growing in a desert. Gives me feelings of hope,5,220,20","Shane","A bird standing in the sun,37,80,20","4"
"3626","","survey-text","117","990453","0.0-115.0-0.0","A2G43KS55YGYQE","","","","{""Q0"":""our""}","","","","","","","","","","","","","","","","","","","","","","",""
"65453","","survey-text","118","1055908","0.0-116.0-0.0","A2G43KS55YGYQE","","","","{""Q0"":""nice and spring like, calming""}","","","","","","","","","","","","","","","","","","","","","","",""
"4237.899999976158","","image-slider-response","119","1060147","0.0-117.0","A2G43KS55YGYQE","","","","","10","","","","","","","","","","","","","","","","","","","","","",""
"null","","image-button-response","120","1065150","0.0-118.0","A2G43KS55YGYQE","img_art/24.jpg","null","","","","","","","","","","","","","","","","","","","","","","","","",""
"7584","","image-button-response","121","1072735","0.0-119.0","A2G43KS55YGYQE","img_art/24.jpg","5","","","","","","","","","","","","","","","","","","","","","","","","",""
"1141","","image-button-response","122","1073877","0.0-120.0-0.0","A2G43KS55YGYQE","img_art/24.jpg","2","","","","","","","","","","","","","","","","","","","","","","","","",""
"565","","image-button-response","123","1074443","0.0-121.0-0.0","A2G43KS55YGYQE","img_art/24.jpg","1","","","","","","","","","","","","","","","","","","","","","","","","",""
"null","","html-keyboard-response","124","1075944","0.0-122.0","A2G43KS55YGYQE","<p style=""font-size: 48px;"">+</p>","","","","","null","allTrialResponses","1500","1","11","img_art/24.jpg","10","nice and spring like, calming","Noah,Daniel,Shane,Robert,Gregory,Mitchell","this evokes a gutural reaction - it displeases me how similar it is to art I saw growing up,-30,260,20","Classic palette lacks real world 3d construction,19,320,20","A peaceful day by the river,42,80,20","A beautiful waterfall in the springtime.,40,360,20","Beautiful waterfall with nice colors,40,220,20","Nature, Peace, connected.,50,180,20","Mitchell","Nature, Peace, connected.,50,180,20","Shane","A peaceful day by the river,42,80,20","Daniel","Classic palette lacks real world 3d construction,19,320,20","4"
"18853","","survey-text","125","1094803","0.0-123.0-0.0","A2G43KS55YGYQE","","","","{""Q0"":""nature triumphs over man""}","","","","","","","","","","","","","","","","","","","","","","",""
"4624.399999976158","","image-slider-response","126","1099429","0.0-124.0","A2G43KS55YGYQE","","","","","11","","","","","","","","","","","","","","","","","","","","","",""
"null","","image-button-response","127","1104431","0.0-125.0","A2G43KS55YGYQE","img_art/17.jpg","null","","","","","","","","","","","","","","","","","","","","","","","","",""
"3336","","image-button-response","128","1107769","0.0-126.0","A2G43KS55YGYQE","img_art/17.jpg","4","","","","","","","","","","","","","","","","","","","","","","","","",""
"2194","","image-button-response","129","1109965","0.0-127.0-0.0","A2G43KS55YGYQE","img_art/17.jpg","5","","","","","","","","","","","","","","","","","","","","","","","","",""
"2617","","image-button-response","130","1112583","0.0-128.0-0.0","A2G43KS55YGYQE","img_art/17.jpg","0","","","","","","","","","","","","","","","","","","","","","","","","",""
"null","","html-keyboard-response","131","1113585","0.0-129.0","A2G43KS55YGYQE","<p style=""font-size: 48px;"">+</p>","","","","","null","allTrialResponses","1000","1","12","img_art/17.jpg","11","nature triumphs over man","Spencer,Daniel,Shane,Shawn,Adrian,Mitchell","Love the colors, the flow, like a strange storm or tree off the balcony,50,120,20","2 paintings in 1 with shared colors,5,320,20","Pleasant fall to winter day,22,80,20","Pretty but a little cheesy,-10,100,20","Pretty composition and I like the colors.,20,60,20","Nature coming to the inside of your space that you are locked into.,50,180,20","Adrian","Pretty composition and I like the colors.,20,60,20","Mitchell","Nature coming to the inside of your space that you are locked into.,50,180,20","Spencer","Love the colors, the flow, like a strange storm or tree off the balcony,50,120,20","4"
"28024","","survey-text","132","1141617","0.0-130.0-0.0","A2G43KS55YGYQE","","","","{""Q0"":""view from a window on a bad day""}","","","","","","","","","","","","","","","","","","","","","","",""
"3446.4000000953674","","image-slider-response","133","1145065","0.0-131.0","A2G43KS55YGYQE","","","","","5","","","","","","","","","","","","","","","","","","","","","",""
"null","","image-button-response","134","1150082","0.0-132.0","A2G43KS55YGYQE","img_art/26.jpg","null","","","","","","","","","","","","","","","","","","","","","","","","",""
"5326","","image-button-response","135","1155409","0.0-133.0","A2G43KS55YGYQE","img_art/26.jpg","4","","","","","","","","","","","","","","","","","","","","","","","","",""
"1116","","image-button-response","136","1156527","0.0-134.0-0.0","A2G43KS55YGYQE","img_art/26.jpg","5","","","","","","","","","","","","","","","","","","","","","","","","",""
"7164","","image-button-response","137","1163693","0.0-135.0-0.0","A2G43KS55YGYQE","img_art/26.jpg","2","","","","","","","","","","","","","","","","","","","","","","","","",""
"null","","html-keyboard-response","138","1164194","0.0-136.0","A2G43KS55YGYQE","<p style=""font-size: 48px;"">+</p>","","","","","null","allTrialResponses","500","1","13","img_art/26.jpg","5","view from a window on a bad day","Spencer,Devon,Stephen,Dalton,Adrian,Mitchell","Really like it, a very nice neighborhood scene to me,42,120,20","i can feel the warmth,12,400,20","No strong reaction but the color scheme is nice,10,140,20","neighborhood and trees. i wonder if this is water paint.,1,300,20","I see a suburban neighborhood with townhouses and trees. Not a fan of the colors or style.,-16,60,20","Incomplete, The artist painted his impression of somthing he was thinking of,0,180,20","Adrian","I see a suburban neighborhood with townhouses and trees. Not a fan of the colors or style.,-16,60,20","Mitchell","Incomplete, The artist painted his impression of somthing he was thinking of,0,180,20","Stephen","No strong reaction but the color scheme is nice,10,140,20","4"
"21662","","survey-text","139","1185864","0.0-137.0-0.0","A2G43KS55YGYQE","","","","{""Q0"":""makes me feel neurotic.""}","","","","","","","","","","","","","","","","","","","","","","",""
"3687.100000023842","","image-slider-response","140","1189552","0.0-138.0","A2G43KS55YGYQE","","","","","-11","","","","","","","","","","","","","","","","","","","","","",""
"null","","image-button-response","141","1194558","0.0-139.0","A2G43KS55YGYQE","img_art/3.jpg","null","","","","","","","","","","","","","","","","","","","","","","","","",""
"4012","","image-button-response","142","1198573","0.0-140.0","A2G43KS55YGYQE","img_art/3.jpg","5","","","","","","","","","","","","","","","","","","","","","","","","",""
"7343","","image-button-response","143","1205917","0.0-141.0-0.0","A2G43KS55YGYQE","img_art/3.jpg","2","","","","","","","","","","","","","","","","","","","","","","","","",""
"2002","","image-button-response","144","1207921","0.0-142.0-0.0","A2G43KS55YGYQE","img_art/3.jpg","0","","","","","","","","","","","","","","","","","","","","","","","","",""
"null","","html-keyboard-response","145","1208423","0.0-143.0","A2G43KS55YGYQE","<p style=""font-size: 48px;"">+</p>","","","","","null","allTrialResponses","500","1","14","img_art/3.jpg","-11","makes me feel neurotic.","Isaac,Jeffrey,Stephen,Jacob,Adrian,Mitchell","It looks like scribbles.,-40,280,20","Associates with blood and crime scene,-12,40,20","Don't see what the purpose is.,-31,140,20","Don't get the scribbles.,-13,340,20","Angry red crayons, like a child throwing a tantrum. No thanks.,-10,60,20","Anger, like something a serial killer may paint.,-30,180,20","Mitchell","Anger, like something a serial killer may paint.,-30,180,20","Stephen","Don't see what the purpose is.,-31,140,20","Isaac","It looks like scribbles.,-40,280,20","4"
"44968","","survey-text","146","1253399","0.0-144.0-0.0","A2G43KS55YGYQE","","","","{""Q0"":""no real reaction, just blah""}","","","","","","","","","","","","","","","","","","","","","","",""
"3189.5","","image-slider-response","147","1256590","0.0-145.0","A2G43KS55YGYQE","","","","","-29","","","","","","","","","","","","","","","","","","","","","",""
"null","","image-button-response","148","1261598","0.0-146.0","A2G43KS55YGYQE","img_art/15.jpg","null","","","","","","","","","","","","","","","","","","","","","","","","",""
"1241","","image-button-response","149","1262842","0.0-147.0","A2G43KS55YGYQE","img_art/15.jpg","3","","","","","","","","","","","","","","","","","","","","","","","","",""
"9028","","image-button-response","150","1271872","0.0-148.0-0.0","A2G43KS55YGYQE","img_art/15.jpg","0","","","","","","","","","","","","","","","","","","","","","","","","",""
"861","","image-button-response","151","1272735","0.0-149.0-0.0","A2G43KS55YGYQE","img_art/15.jpg","1","","","","","","","","","","","","","","","","","","","","","","","","",""
"null","","html-keyboard-response","152","1274244","0.0-150.0","A2G43KS55YGYQE","<p style=""font-size: 48px;"">+</p>","","","","","null","allTrialResponses","1500","1","15","img_art/15.jpg","-29","no real reaction, just blah","Isaac,Bryan,Stephen,Charles,Adam,Mitchell","The colors are too busy.,-39,280,20","Interesting. Reminds me of a biopsy slide.,21,400,20","I like how the black and blue clash.,14,140,20","it looks like lavender,10,100,20","Eyes hunt for the blue in the black.,5,40,20","ants on the ground playing with bubble gum. They may be thinking of how they can use it to build something,-30,180,20","Charles","it looks like lavender,10,100,20","Isaac","The colors are too busy.,-39,280,20","Bryan","Interesting. Reminds me of a biopsy slide.,21,400,20","4"
"7372","","survey-text","153","1281626","0.0-151.0-0.0","A2G43KS55YGYQE","","","","{""Q0"":""course""}","","","","","","","","","","","","","","","","","","","","","","",""
"23648","","survey-text","154","1305275","0.0-152.0-0.0","A2G43KS55YGYQE","","","","{""Q0"":""desert landscape from above, calming""}","","","","","","","","","","","","","","","","","","","","","","",""
"3019","","image-slider-response","155","1308297","0.0-153.0","A2G43KS55YGYQE","","","","","13","","","","","","","","","","","","","","","","","","","","","",""
"null","","image-button-response","156","1313304","0.0-154.0","A2G43KS55YGYQE","img_art/7.jpg","null","","","","","","","","","","","","","","","","","","","","","","","","",""
"20215","","image-button-response","157","1333521","0.0-155.0","A2G43KS55YGYQE","img_art/7.jpg","2","","","","","","","","","","","","","","","","","","","","","","","","",""
"1109","","image-button-response","158","1334631","0.0-156.0-0.0","A2G43KS55YGYQE","img_art/7.jpg","3","","","","","","","","","","","","","","","","","","","","","","","","",""
"853","","image-button-response","159","1335485","0.0-157.0-0.0","A2G43KS55YGYQE","img_art/7.jpg","4","","","","","","","","","","","","","","","","","","","","","","","","",""
"null","","html-keyboard-response","160","1335987","0.0-158.0","A2G43KS55YGYQE","<p style=""font-size: 48px;"">+</p>","","","","","null","allTrialResponses","500","1","16","img_art/7.jpg","13","desert landscape from above, calming","Isaac,Bryan,Richard,Charles,Antonio,Nathan","It looks more like wallpaper rather than a painting.,-27,280,20","Makes me itch - looks like a closeup of an ant colony or something.,-1,400,20","looks like wallpaper,-6,340,20","Looks like a bad picture of a beach,-21,100,20","Looks like dirt on the ground. Makes me feel unclean,-37,220,20","I don't like this kind of color scheme or look they went for,-50,200,20","Richard","looks like wallpaper,-6,340,20","Charles","Looks like a bad picture of a beach,-21,100,20","Antonio","Looks like dirt on the ground. Makes me feel unclean,-37,220,20","4"
"33745","","survey-text","161","1369740","0.0-159.0-0.0","A2G43KS55YGYQE","","","","{""Q0"":""ships in harbor, draws me in. ""}","","","","","","","","","","","","","","","","","","","","","","",""
"3647.899999976158","","image-slider-response","162","1373389","0.0-160.0","A2G43KS55YGYQE","","","","","12","","","","","","","","","","","","","","","","","","","","","",""
"4449","","image-button-response","163","1378392","0.0-161.0","A2G43KS55YGYQE","img_art/11.jpg","2","","","","","","","","","","","","","","","","","","","","","","","","",""
"1355","","image-button-response","164","1379750","0.0-162.0","A2G43KS55YGYQE","img_art/11.jpg","2","","","","","","","","","","","","","","","","","","","","","","","","",""
"4868","","image-button-response","165","1384620","0.0-163.0-0.0","A2G43KS55YGYQE","img_art/11.jpg","4","","","","","","","","","","","","","","","","","","","","","","","","",""
"2444","","image-button-response","166","1387066","0.0-164.0-0.0","A2G43KS55YGYQE","img_art/11.jpg","5","","","","","","","","","","","","","","","","","","","","","","","","",""
"null","","html-keyboard-response","167","1387567","0.0-165.0","A2G43KS55YGYQE","<p style=""font-size: 48px;"">+</p>","","","","","null","allTrialResponses","500","1","17","img_art/11.jpg","12","ships in harbor, draws me in. ","Brandon,Vincent,Richard,Charles,Antonio,John","Don't like cityscapes, which this picture reminds me of,-29,320,20","Looks like a familiar area,31,360,20","I like this one mostly a good combination of colors and light and dark,12,340,20","It's cables in a city,21,100,20","Makes me think of far away places and traveling. Makes me feel like wandering,20,220,20","Its interesting.,20,120,20","Richard","I like this one mostly a good combination of colors and light and dark,12,340,20","Antonio","Makes me think of far away places and traveling. Makes me feel like wandering,20,220,20","John","Its interesting.,20,120,20","4"
"65546","","survey-text","168","1453121","0.0-166.0-0.0","A2G43KS55YGYQE","","","","{""Q0"":""A lot of force here. Unsettling.""}","","","","","","","","","","","","","","","","","","","","","","",""
"3143.899999976158","","image-slider-response","169","1456267","0.0-167.0","A2G43KS55YGYQE","","","","","14","","","","","","","","","","","","","","","","","","","","","",""
"null","","image-button-response","170","1461279","0.0-168.0","A2G43KS55YGYQE","img_art/5.jpg","null","","","","","","","","","","","","","","","","","","","","","","","","",""
"9090","","image-button-response","171","1470371","0.0-169.0","A2G43KS55YGYQE","img_art/5.jpg","3","","","","","","","","","","","","","","","","","","","","","","","","",""
"1907","","image-button-response","172","1472282","0.0-170.0-0.0","A2G43KS55YGYQE","img_art/5.jpg","4","","","","","","","","","","","","","","","","","","","","","","","","",""
"1512","","image-button-response","173","1473796","0.0-171.0-0.0","A2G43KS55YGYQE","img_art/5.jpg","5","","","","","","","","","","","","","","","","","","","","","","","","",""
"null","","html-keyboard-response","174","1474797","0.0-172.0","A2G43KS55YGYQE","<p style=""font-size: 48px;"">+</p>","","","","","null","allTrialResponses","1000","1","18","img_art/5.jpg","14","A lot of force here. Unsettling.","Christian,Dylan,Richard,Victor,Antonio,John","sorry not my style,-37,140,20","This looks like a twelve year old did it,-40,40,20","looks like a 2nd grader did it,-50,340,20","I like these colors together and the tiny splatters, but what is this?,7,340,20","Too much angular things happening, makes me think of stabbing something which makes me uncomfortable,-50,220,20","It has a sense of vague familiarity that i like.Like a stick starting a fire at a campsite.,30,120,20","Victor","I like these colors together and the tiny splatters, but what is this?,7,340,20","Antonio","Too much angular things happening, makes me think of stabbing something which makes me uncomfortable,-50,220,20","John","It has a sense of vague familiarity that i like.Like a stick starting a fire at a campsite.,30,120,20","4"
"34977","","survey-text","175","1509781","0.0-173.0-0.0","A2G43KS55YGYQE","","","","{""Q0"":""This just doesn't touch any part of me.""}","","","","","","","","","","","","","","","","","","","","","","",""
"3306.7000000476837","","image-slider-response","176","1513090","0.0-174.0","A2G43KS55YGYQE","","","","","-41","","","","","","","","","","","","","","","","","","","","","",""
"null","","image-button-response","177","1518096","0.0-175.0","A2G43KS55YGYQE","img_art/2.jpg","null","","","","","","","","","","","","","","","","","","","","","","","","",""
"5633","","image-button-response","178","1523732","0.0-176.0","A2G43KS55YGYQE","img_art/2.jpg","5","","","","","","","","","","","","","","","","","","","","","","","","",""
"4860","","image-button-response","179","1528594","0.0-177.0-0.0","A2G43KS55YGYQE","img_art/2.jpg","1","","","","","","","","","","","","","","","","","","","","","","","","",""
"4307","","image-button-response","180","1532903","0.0-178.0-0.0","A2G43KS55YGYQE","img_art/2.jpg","4","","","","","","","","","","","","","","","","","","","","","","","","",""
"null","","html-keyboard-response","181","1533905","0.0-179.0","A2G43KS55YGYQE","<p style=""font-size: 48px;"">+</p>","","","","","null","allTrialResponses","1000","1","19","img_art/2.jpg","-41","This just doesn't touch any part of me.","Alexander,Grant,Peter,Victor,Antonio,John","Old, dull, messy.,-10,120,20","The colors are entirely unappealing and very unpleasant to look at.,-20,200,20","I don't feel indifferent,4,320,20","It's interesting. The chunks of black here and there are nice,13,340,20","Colors are drab and cause a sense of blandness,-28,220,20","Its meh. Doesnt illicit any strong feelings in me,1,120,20","John","Its meh. Doesnt illicit any strong feelings in me,1,120,20","Grant","The colors are entirely unappealing and very unpleasant to look at.,-20,200,20","Antonio","Colors are drab and cause a sense of blandness,-28,220,20","4"
"26813","","survey-text","182","1560725","0.0-180.0-0.0","A2G43KS55YGYQE","","","","{""Q0"":""Makes me want to travel. ""}","","","","","","","","","","","","","","","","","","","","","","",""
"2748.8000000715256","","image-slider-response","183","1563475","0.0-181.0","A2G43KS55YGYQE","","","","","7","","","","","","","","","","","","","","","","","","","","","",""
"null","","image-button-response","184","1568477","0.0-182.0","A2G43KS55YGYQE","img_art/19.jpg","null","","","","","","","","","","","","","","","","","","","","","","","","",""
"3275","","image-button-response","185","1571753","0.0-183.0","A2G43KS55YGYQE","img_art/19.jpg","1","","","","","","","","","","","","","","","","","","","","","","","","",""
"2398","","image-button-response","186","1574153","0.0-184.0-0.0","A2G43KS55YGYQE","img_art/19.jpg","2","","","","","","","","","","","","","","","","","","","","","","","","",""
"2212","","image-button-response","187","1576367","0.0-185.0-0.0","A2G43KS55YGYQE","img_art/19.jpg","4","","","","","","","","","","","","","","","","","","","","","","","","",""
"null","","html-keyboard-response","188","1577869","0.0-186.0","A2G43KS55YGYQE","<p style=""font-size: 48px;"">+</p>","","","","","null","allTrialResponses","1500","1","20","img_art/19.jpg","7","Makes me want to travel. ","Gabriel,Grant,Seth,Jonathan,Antonio,John","not sure if i like it or not,1,160,20","It's a cute city scene, but nothing special.,10,200,20","I wasn't sure if I liked it or hated it. It oddly reminds me of a clothing store.,11,60,20","Feels like something I would hang in my dining room,42,140,20","Chaotic. Too much going on in the picture,14,220,20","There's alot of elements to it bordering on clutter and chaotic,-20,120,20","Grant","It's a cute city scene, but nothing special.,10,200,20","Seth","I wasn't sure if I liked it or hated it. It oddly reminds me of a clothing store.,11,60,20","Antonio","Chaotic. Too much going on in the picture,14,220,20","4"
"3559","","survey-text","189","1581437","0.0-187.0-0.0","A2G43KS55YGYQE","","","","{""Q0"":""we""}","","","","","","","","","","","","","","","","","","","","","","",""
"27602","","survey-text","190","1609041","0.0-188.0-0.0","A2G43KS55YGYQE","","","","{""Q0"":""Dentist office wall, nothing special to me.""}","","","","","","","","","","","","","","","","","","","","","","",""
"3997.2000000476837","","image-slider-response","191","1613039","0.0-189.0","A2G43KS55YGYQE","","","","","-10","","","","","","","","","","","","","","","","","","","","","",""
"null","","image-button-response","192","1618052","0.0-190.0","A2G43KS55YGYQE","img_art/22.jpg","null","","","","","","","","","","","","","","","","","","","","","","","","",""
"5097","","image-button-response","193","1623152","0.0-191.0","A2G43KS55YGYQE","img_art/22.jpg","5","","","","","","","","","","","","","","","","","","","","","","","","",""
"3182","","image-button-response","194","1626336","0.0-192.0-0.0","A2G43KS55YGYQE","img_art/22.jpg","3","","","","","","","","","","","","","","","","","","","","","","","","",""
"836","","image-button-response","195","1627174","0.0-193.0-0.0","A2G43KS55YGYQE","img_art/22.jpg","1","","","","","","","","","","","","","","","","","","","","","","","","",""
"null","","html-keyboard-response","196","1628175","0.0-194.0","A2G43KS55YGYQE","<p style=""font-size: 48px;"">+</p>","","","","","null","allTrialResponses","1000","1","21","img_art/22.jpg","-10","Dentist office wall, nothing special to me.","Kevin,Grant,Seth,William,Antonio,Ian","Looks hot where ever that is.,-8,320,20","The way the colors seem to be reflected is a bit mesmerizing.,10,200,20","I think the colors are beautiful they remind me of a sunset.,13,60,20","love how the colors blend,42,380,20","Felt blah. Bunch of nothingness,-42,220,20","Its very warm, it reminds of someone not liking their painting so they destoryed it,26,260,20","Ian","Its very warm, it reminds of someone not liking their painting so they destoryed it,26,260,20","William","love how the colors blend,42,380,20","Grant","The way the colors seem to be reflected is a bit mesmerizing.,10,200,20","4"
"46597","","survey-text","197","1674779","0.0-195.0-0.0","A2G43KS55YGYQE","","","","{""Q0"":""I feel foreboding, Death is riding.""}","","","","","","","","","","","","","","","","","","","","","","",""
"2134.2000000476837","","image-slider-response","198","1676915","0.0-196.0","A2G43KS55YGYQE","","","","","15","","","","","","","","","","","","","","","","","","","","","",""
"4947","","image-button-response","199","1681920","0.0-197.0","A2G43KS55YGYQE","img_art/18.jpg","4","","","","","","","","","","","","","","","","","","","","","","","","",""
"2023","","image-button-response","200","1683946","0.0-198.0","A2G43KS55YGYQE","img_art/18.jpg","4","","","","","","","","","","","","","","","","","","","","","","","","",""
"9614","","image-button-response","201","1693561","0.0-199.0-0.0","A2G43KS55YGYQE","img_art/18.jpg","1","","","","","","","","","","","","","","","","","","","","","","","","",""
"3292","","image-button-response","202","1696856","0.0-200.0-0.0","A2G43KS55YGYQE","img_art/18.jpg","5","","","","","","","","","","","","","","","","","","","","","","","","",""
"null","","html-keyboard-response","203","1697357","0.0-201.0","A2G43KS55YGYQE","<p style=""font-size: 48px;"">+</p>","","","","","null","allTrialResponses","500","1","22","img_art/18.jpg","15","I feel foreboding, Death is riding.","Luke,Grant,Alexis,William,Mason,Ian","the harsh lines with the smooth lines makes me think of wild animals,20,20,20","This is a very energetic painting, and brings to mind scenes of battle.,50,200,20","It's possibly of a mermaid luring in a ship,15,140,20","Makes me think of stormy oceans,20,380,20","Skeletons, death, bleak colors, still kinda like it.,16,100,20","This one raises some questions, there could be some sort of fight or battle going on.,11,260,20","Mason","Skeletons, death, bleak colors, still kinda like it.,16,100,20","Grant","This is a very energetic painting, and brings to mind scenes of battle.,50,200,20","Ian","This one raises some questions, there could be some sort of fight or battle going on.,11,260,20","4"
"35420","","survey-text","204","1732787","0.0-202.0-0.0","A2G43KS55YGYQE","","","","{""Q0"":""I don't usually feel this way, but this is a doodle.""}","","","","","","","","","","","","","","","","","","","","","","",""
"3772.8000000715256","","image-slider-response","205","1736561","0.0-203.0","A2G43KS55YGYQE","","","","","-28","","","","","","","","","","","","","","","","","","","","","",""
"4395","","image-button-response","206","1741565","0.0-204.0","A2G43KS55YGYQE","img_art/4.jpg","1","","","","","","","","","","","","","","","","","","","","","","","","",""
"6933","","image-button-response","207","1748500","0.0-205.0","A2G43KS55YGYQE","img_art/4.jpg","4","","","","","","","","","","","","","","","","","","","","","","","","",""
"1856","","image-button-response","208","1750358","0.0-206.0-0.0","A2G43KS55YGYQE","img_art/4.jpg","5","","","","","","","","","","","","","","","","","","","","","","","","",""
"2111","","image-button-response","209","1752469","0.0-207.0-0.0","A2G43KS55YGYQE","img_art/4.jpg","1","","","","","","","","","","","","","","","","","","","","","","","","",""
"null","","html-keyboard-response","210","1753470","0.0-208.0","A2G43KS55YGYQE","<p style=""font-size: 48px;"">+</p>","","","","","null","allTrialResponses","1000","1","23","img_art/4.jpg","-28","I don't usually feel this way, but this is a doodle.","Nicholas,Grant,David,Samuel,Mason,Ian","I domt like the yellow black blended smear,-50,240,20","This elicits no reaction in me.,0,200,20","I like the design. It can be interpreted in various ways, such as a hand of horror or still piece.,15,340,20","The muted tones,-11,400,20","ordinary, bland. unmoving.,-6,100,20","I just don't understand this one at all, I do not like it,-43,260,20","Mason","ordinary, bland. unmoving.,-6,100,20","Ian","I just don't understand this one at all, I do not like it,-43,260,20","Grant","This elicits no reaction in me.,0,200,20","4"
"32596","","survey-text","211","1786074","0.0-209.0-0.0","A2G43KS55YGYQE","","","","{""Q0"":""Colorful, but leaves me indifferent.""}","","","","","","","","","","","","","","","","","","","","","","",""
"3291.2999999523163","","image-slider-response","212","1789367","0.0-210.0","A2G43KS55YGYQE","","","","","-14","","","","","","","","","","","","","","","","","","","","","",""
"null","","image-button-response","213","1794380","0.0-211.0","A2G43KS55YGYQE","img_art/30.jpg","null","","","","","","","","","","","","","","","","","","","","","","","","",""
"8041","","image-button-response","214","1802423","0.0-212.0","A2G43KS55YGYQE","img_art/30.jpg","0","","","","","","","","","","","","","","","","","","","","","","","","",""
"2413","","image-button-response","215","1804837","0.0-213.0-0.0","A2G43KS55YGYQE","img_art/30.jpg","2","","","","","","","","","","","","","","","","","","","","","","","","",""
"6012","","image-button-response","216","1810851","0.0-214.0-0.0","A2G43KS55YGYQE","img_art/30.jpg","4","","","","","","","","","","","","","","","","","","","","","","","","",""
"null","","html-keyboard-response","217","1811852","0.0-215.0","A2G43KS55YGYQE","<p style=""font-size: 48px;"">+</p>","","","","","null","allTrialResponses","1000","1","24","img_art/30.jpg","-14","Colorful, but leaves me indifferent.","Bryce,Grant,Andrew,Malik,Mason,Ian","Very colorful! Wow!,22,20,20","The brush strokes are appealing, and make me want to look at this longer.,11,200,20","It's a really interesting piece,20,160,20","I can't parse any intention or emotion,-17,40,20","Neat, but simple, I could make this. not skilled.,9,100,20","It looks like it was made by pre-k students.,-30,260,20","Bryce","Very colorful! Wow!,22,20,20","Andrew","It's a really interesting piece,20,160,20","Mason","Neat, but simple, I could make this. not skilled.,9,100,20","4"
"47538","","survey-text","218","1859397","0.0-216.0-0.0","A2G43KS55YGYQE","","","","{""Q0"":""nudes come in many forms, this one leaves me cold.""}","","","","","","","","","","","","","","","","","","","","","","",""
"3120.5","","image-slider-response","219","1862519","0.0-217.0","A2G43KS55YGYQE","","","","","-2","","","","","","","","","","","","","","","","","","","","","",""
"null","","image-button-response","220","1867533","0.0-218.0","A2G43KS55YGYQE","img_art/9.jpg","null","","","","","","","","","","","","","","","","","","","","","","","","",""
"12541","","image-button-response","221","1880075","0.0-219.0","A2G43KS55YGYQE","img_art/9.jpg","3","","","","","","","","","","","","","","","","","","","","","","","","",""
"1187","","image-button-response","222","1881264","0.0-220.0-0.0","A2G43KS55YGYQE","img_art/9.jpg","4","","","","","","","","","","","","","","","","","","","","","","","","",""
"3524","","image-button-response","223","1884789","0.0-221.0-0.0","A2G43KS55YGYQE","img_art/9.jpg","1","","","","","","","","","","","","","","","","","","","","","","","","",""
"null","","html-keyboard-response","224","1886292","0.0-222.0","A2G43KS55YGYQE","<p style=""font-size: 48px;"">+</p>","","","","","null","allTrialResponses","1500","1","25","img_art/9.jpg","-2","nudes come in many forms, this one leaves me cold.","Bryce,Garrett,Andrew,Scott,Mason,Jake","Looks like a crayon drawing.,21,20,20","This looks like someone sleeping in a bed, and I think the colors make it look interesting.,20,180,20","The peacock theme gives me negative connotations of my ex-sister-in-law,-10,160,20","looks like someone resting,12,20,20","Abstract titanic scene. It's nice though. I like how it makes me feel.,28,100,20","The colors and image is ugly.,-7,360,20","Scott","looks like someone resting,12,20,20","Mason","Abstract titanic scene. It's nice though. I like how it makes me feel.,28,100,20","Garrett","This looks like someone sleeping in a bed, and I think the colors make it look interesting.,20,180,20","4"
"5415","","survey-text","225","1891718","0.0-223.0-0.0","A2G43KS55YGYQE","","","","{""Q0"":""table""}","","","","","","","","","","","","","","","","","","","","","","",""
"27008","","survey-text","226","1918728","0.0-224.0-0.0","A2G43KS55YGYQE","","","","{""Q0"":""very introspective""}","","","","","","","","","","","","","","","","","","","","","","",""
"2266.100000023842","","image-slider-response","227","1920995","0.0-225.0","A2G43KS55YGYQE","","","","","12","","","","","","","","","","","","","","","","","","","","","",""
"null","","image-button-response","228","1926008","0.0-226.0","A2G43KS55YGYQE","img_art/29.jpg","null","","","","","","","","","","","","","","","","","","","","","","","","",""
"7306","","image-button-response","229","1933316","0.0-227.0","A2G43KS55YGYQE","img_art/29.jpg","0","","","","","","","","","","","","","","","","","","","","","","","","",""
"5739","","image-button-response","230","1939056","0.0-228.0-0.0","A2G43KS55YGYQE","img_art/29.jpg","5","","","","","","","","","","","","","","","","","","","","","","","","",""
"2344","","image-button-response","231","1941402","0.0-229.0-0.0","A2G43KS55YGYQE","img_art/29.jpg","2","","","","","","","","","","","","","","","","","","","","","","","","",""
"null","","html-keyboard-response","232","1941903","0.0-230.0","A2G43KS55YGYQE","<p style=""font-size: 48px;"">+</p>","","","","","null","allTrialResponses","500","1","26","img_art/29.jpg","12","very introspective","Alejandro,Garrett,Mark,Scott,Mason,Bradley","Reminiscent of Jackson Pollock with a hint of abstract structure with the bordering.,32,80,20","I think this image looks ugly and needs more colors so it looks nicer.,-30,180,20","Bottomless pit and prison. Feels like its saying time is precious.,11,80,20","feels random and not thoughtout,-37,20,20","easy, too abstract for me, don't get it.,-25,100,20","It's creative. It's just not my thing.,-32,300,20","Alejandro","Reminiscent of Jackson Pollock with a hint of abstract structure with the bordering.,32,80,20","Bradley","It's creative. It's just not my thing.,-32,300,20","Mark","Bottomless pit and prison. Feels like its saying time is precious.,11,80,20","4"
"43951","","survey-text","233","1985861","0.0-231.0-0.0","A2G43KS55YGYQE","","","","{""Q0"":""lots of open space to look at, wistful""}","","","","","","","","","","","","","","","","","","","","","","",""
"2312.899999976158","","image-slider-response","234","1988176","0.0-232.0","A2G43KS55YGYQE","","","","","10","","","","","","","","","","","","","","","","","","","","","",""
"null","","image-button-response","235","1993185","0.0-233.0","A2G43KS55YGYQE","img_art/21.jpg","null","","","","","","","","","","","","","","","","","","","","","","","","",""
"3829","","image-button-response","236","1997016","0.0-234.0","A2G43KS55YGYQE","img_art/21.jpg","3","","","","","","","","","","","","","","","","","","","","","","","","",""
"6204","","image-button-response","237","2003222","0.0-235.0-0.0","A2G43KS55YGYQE","img_art/21.jpg","1","","","","","","","","","","","","","","","","","","","","","","","","",""
"1700","","image-button-response","238","2004923","0.0-236.0-0.0","A2G43KS55YGYQE","img_art/21.jpg","0","","","","","","","","","","","","","","","","","","","","","","","","",""
"null","","html-keyboard-response","239","2005939","0.0-237.0","A2G43KS55YGYQE","<p style=""font-size: 48px;"">+</p>","","","","","null","allTrialResponses","1000","1","27","img_art/21.jpg","10","lots of open space to look at, wistful","Alejandro,Kenneth,Mark,Ryan,Luis,Bradley","Feels like a clash between land and sea,31,80,20","It actually reminded me of a place I've been to. So I had a positive reaction to it.,22,300,20","It feels like a day at sea but the pink is slightly jarring and holding my eye.,26,80,20","Very calming and nice to look at,30,380,20","I like the representation of love and hate in this,43,400,20","Indifferent toward this one.,6,300,20","Ryan","Very calming and nice to look at,30,380,20","Kenneth","It actually reminded me of a place I've been to. So I had a positive reaction to it.,22,300,20","Alejandro","Feels like a clash between land and sea,31,80,20","4"
"49197","","survey-text","240","2055144","0.0-238.0-0.0","A2G43KS55YGYQE","","","","{""Q0"":""Not sure, this is just bland.""}","","","","","","","","","","","","","","","","","","","","","","",""
"3499.899999976158","","image-slider-response","241","2058645","0.0-239.0","A2G43KS55YGYQE","","","","","-8","","","","","","","","","","","","","","","","","","","","","",""
"null","","image-button-response","242","2063659","0.0-240.0","A2G43KS55YGYQE","img_art/28.jpg","null","","","","","","","","","","","","","","","","","","","","","","","","",""
"8997","","image-button-response","243","2072659","0.0-241.0","A2G43KS55YGYQE","img_art/28.jpg","3","","","","","","","","","","","","","","","","","","","","","","","","",""
"1902","","image-button-response","244","2074562","0.0-242.0-0.0","A2G43KS55YGYQE","img_art/28.jpg","1","","","","","","","","","","","","","","","","","","","","","","","","",""
"882","","image-button-response","245","2075446","0.0-243.0-0.0","A2G43KS55YGYQE","img_art/28.jpg","2","","","","","","","","","","","","","","","","","","","","","","","","",""
"null","","html-keyboard-response","246","2076447","0.0-244.0","A2G43KS55YGYQE","<p style=""font-size: 48px;"">+</p>","","","","","null","allTrialResponses","1000","1","28","img_art/28.jpg","-8","Not sure, this is just bland.","Alejandro,Kenneth,Anthony,Ryan,Marcus,Tanner","I like the flow and abstract nature of what seems to be humans,40,80,20","This one is too bleak, not a fan of the image or colors.,-28,300,20","This picture doesn't really stand out to me,1,200,20","Colors look too muddy for my liking,-33,380,20","This reminds me of internal organs.,-10,60,20","almost reminds me of thomas becket getting his head cut off,21,180,20","Ryan","Colors look too muddy for my liking,-33,380,20","Kenneth","This one is too bleak, not a fan of the image or colors.,-28,300,20","Anthony","This picture doesn't really stand out to me,1,200,20","4"
"29291","","survey-text","247","2105746","0.0-245.0-0.0","A2G43KS55YGYQE","","","","{""Q0"":""spring blooms, nice image,""}","","","","","","","","","","","","","","","","","","","","","","",""
"3021.399999976158","","image-slider-response","248","2108768","0.0-246.0","A2G43KS55YGYQE","","","","","16","","","","","","","","","","","","","","","","","","","","","",""
"4743","","image-button-response","249","2113770","0.0-247.0","A2G43KS55YGYQE","img_art/14.jpg","3","","","","","","","","","","","","","","","","","","","","","","","","",""
"5092","","image-button-response","250","2118864","0.0-248.0","A2G43KS55YGYQE","img_art/14.jpg","1","","","","","","","","","","","","","","","","","","","","","","","","",""
"3150","","image-button-response","251","2122015","0.0-249.0-0.0","A2G43KS55YGYQE","img_art/14.jpg","4","","","","","","","","","","","","","","","","","","","","","","","","",""
"2266","","image-button-response","252","2124284","0.0-250.0-0.0","A2G43KS55YGYQE","img_art/14.jpg","3","","","","","","","","","","","","","","","","","","","","","","","","",""
"null","","html-keyboard-response","253","2125285","0.0-251.0","A2G43KS55YGYQE","<p style=""font-size: 48px;"">+</p>","","","","","null","allTrialResponses","1000","1","29","img_art/14.jpg","16","spring blooms, nice image,","Taylor,Kenneth,Anthony,Ryan,Austin,Timothy","Are they blowing up a tree?,-5,200,20","Its cute, but not my favorite.,8,300,20","This piece is average compared to the others.,1,200,20","Gorgeous use of water color,50,380,20","Love the abstractness of this painting,39,240,20","Something about the cahotic imagery makes me uncomfortable,-15,240,20","Kenneth","Its cute, but not my favorite.,8,300,20","Austin","Love the abstractness of this painting,39,240,20","Ryan","Gorgeous use of water color,50,380,20","4"
"29290","","survey-text","254","2154582","0.0-252.0-0.0","A2G43KS55YGYQE","","","","{""Q0"":""a bad acid trip, disorienting""}","","","","","","","","","","","","","","","","","","","","","","",""
"4681.799999952316","","image-slider-response","255","2159265","0.0-253.0","A2G43KS55YGYQE","","","","","3","","","","","","","","","","","","","","","","","","","","","",""
"null","","image-button-response","256","2164277","0.0-254.0","A2G43KS55YGYQE","img_art/8.jpg","null","","","","","","","","","","","","","","","","","","","","","","","","",""
"17312","","image-button-response","257","2181592","0.0-255.0","A2G43KS55YGYQE","img_art/8.jpg","2","","","","","","","","","","","","","","","","","","","","","","","","",""
"1210","","image-button-response","258","2182803","0.0-256.0-0.0","A2G43KS55YGYQE","img_art/8.jpg","4","","","","","","","","","","","","","","","","","","","","","","","","",""
"5591","","image-button-response","259","2188395","0.0-257.0-0.0","A2G43KS55YGYQE","img_art/8.jpg","1","","","","","","","","","","","","","","","","","","","","","","","","",""
"null","","html-keyboard-response","260","2189397","0.0-258.0","A2G43KS55YGYQE","<p style=""font-size: 48px;"">+</p>","","","","","null","allTrialResponses","1000","1","30","img_art/8.jpg","3","a bad acid trip, disorienting","Cole,Kenneth,Zachary,Ryan,Austin,Benjamin","Its abstract and interesting,24,200,20","Interesting, i really like the face and the moon. Realy detailed and you see something new with each look.,11,300,20","I like all of the faces that can be found in this piece. Interesting.,35,400,20","I love architectural paintings,46,380,20","Very unique and different,31,240,20","Very colorful. Looks like the hustle and bustle of a city.,11,260,20","Zachary","I like all of the faces that can be found in this piece. Interesting.,35,400,20","Austin","Very unique and different,31,240,20","Kenneth","Interesting, i really like the face and the moon. Realy detailed and you see something new with each look.,11,300,20","4"
"22744","","image-button-response_instructions","261","2212150","0.0-259.0","A2G43KS55YGYQE","","0","instructions","","","","","","","","","","","","","","","","","","","","","","","",""
