"rt","url","trial_type","trial_index","time_elapsed","internal_node_id","participant_id","stimulus","button_pressed","Name","responses","response","key_press","variableName","fixationTime","condition","trial","photo","subjectRating","subjectResponse","agentsNames","agent_1_Response","agent_2_Response","agent_3_Response","agent_4_Response","agent_5_Response","agent_6_Response","kept_1_name","kept_1_response","kept_2_name","kept_2_response","kept_3_name","kept_3_response","errorCounter"
"10327","external_page_harvard.html","external-html","0","10401","0.0-0.0","A2G7XPM051Q1XB","","","","","","","","","","","","","","","","","","","","","","","","","","",""
"2876","","image-button-response","1","13277","0.0-1.0","A2G7XPM051Q1XB","","1","","","","","","","","","","","","","","","","","","","","","","","","",""
"1422","","image-button-response","2","14703","0.0-2.0-0.0","A2G7XPM051Q1XB","","1","phone","","","","","","","","","","","","","","","","","","","","","","","",""
"5554","","survey-text","3","20259","0.0-3.0-0.0","A2G7XPM051Q1XB","","","","{""Q0"":""A2G7XPM051Q1XB""}","","","","","","","","","","","","","","","","","","","","","","",""
"21791","","image-button-response_instructions","4","42052","0.0-4.0","A2G7XPM051Q1XB","","0","instructions","","","","","","","","","","","","","","","","","","","","","","","",""
"28588","","image-button-response_instructions","5","70640","0.0-5.0","A2G7XPM051Q1XB","img_art/ins/popularity/ins1.png","0","instructions","","","","","","","","","","","","","","","","","","","","","","","",""
"8243","","image-button-response_instructions","6","78884","0.0-6.0","A2G7XPM051Q1XB","img_art/ins/popularity/ins2.png","0","instructions","","","","","","","","","","","","","","","","","","","","","","","",""
"24991","","image-button-response_instructions","7","103877","0.0-7.0","A2G7XPM051Q1XB","img_art/ins/popularity/ins2Extreme.png","0","instructions","","","","","","","","","","","","","","","","","","","","","","","",""
"17622","","image-button-response_instructions","8","121499","0.0-8.0","A2G7XPM051Q1XB","img_art/ins/popularity/ins3KEEPpop.PNG","0","instructions","","","","","","","","","","","","","","","","","","","","","","","",""
"4417","","image-button-response_instructions","9","125917","0.0-9.0","A2G7XPM051Q1XB","img_art/ins/popularity/ins3ANamepop.PNG","0","instructions","","","","","","","","","","","","","","","","","","","","","","","",""
"3078","","image-button-response_instructions","10","128995","0.0-10.0","A2G7XPM051Q1XB","img_art/ins/popularity/ins3ARatingpop.png","0","instructions","","","","","","","","","","","","","","","","","","","","","","","",""
"3867","","image-button-response_instructions","11","132863","0.0-11.0","A2G7XPM051Q1XB","img_art/ins/popularity/ins3ATextpop.png","0","instructions","","","","","","","","","","","","","","","","","","","","","","","",""
"22171","","image-button-response_instructions","12","155035","0.0-12.0","A2G7XPM051Q1XB","img_art/ins/popularity/ins3ALikespop.png","0","instructions","","","","","","","","","","","","","","","","","","","","","","","",""
"20637","","image-button-response_instructions","13","175673","0.0-13.0","A2G7XPM051Q1XB","img_art/ins/popularity/ins3KEEPpop.PNG","0","instructions","","","","","","","","","","","","","","","","","","","","","","","",""
"6978","","image-button-response_instructions","14","182651","0.0-14.0","A2G7XPM051Q1XB","img_art/ins/popularity/ins3_5RED.png","0","instructions","","","","","","","","","","","","","","","","","","","","","","","",""
"4327","","image-button-response_instructions","15","186979","0.0-15.0","A2G7XPM051Q1XB","img_art/ins/popularity/ins3KEEPpop.PNG","0","instructions","","","","","","","","","","","","","","","","","","","","","","","",""
"21487","","image-button-response_instructions","16","208467","0.0-16.0","A2G7XPM051Q1XB","img_art/ins/popularity/ins4KEEPpop.PNG","0","instructions","","","","","","","","","","","","","","","","","","","","","","","",""
"6388","","image-button-response_instructions","17","214855","0.0-17.0","A2G7XPM051Q1XB","img_art/ins/popularity/ins5KEEPpop.PNG","0","instructions","","","","","","","","","","","","","","","","","","","","","","","",""
"3580","","image-button-response_instructions","18","218435","0.0-18.0","A2G7XPM051Q1XB","","0","instructions","","","","","","","","","","","","","","","","","","","","","","","",""
"9269","","survey-text","19","227721","0.0-19.0-0.0","A2G7XPM051Q1XB","","","","{""Q0"":""but""}","","","","","","","","","","","","","","","","","","","","","","",""
"50012","","survey-text","20","277735","0.0-20.0-0.0","A2G7XPM051Q1XB","","","","{""Q0"":""nice color palette""}","","","","","","","","","","","","","","","","","","","","","","",""
"19786.59999999404","","image-slider-response","21","297523","0.0-21.0","A2G7XPM051Q1XB","","","","","-8","","","","","","","","","","","","","","","","","","","","","",""
"null","","image-button-response","22","302537","0.0-22.0","A2G7XPM051Q1XB","img_art/ins/1.jpg","null","","","","","","","","","","","","","","","","","","","","","","","","",""
"4541","","image-button-response","23","307079","0.0-23.0","A2G7XPM051Q1XB","img_art/ins/1.jpg","1","","","","","","","","","","","","","","","","","","","","","","","","",""
"4243","","image-button-response","24","311323","0.0-24.0-0.0","A2G7XPM051Q1XB","img_art/ins/1.jpg","3","","","","","","","","","","","","","","","","","","","","","","","","",""
"29067","","image-button-response","25","340393","0.0-25.0-0.0","A2G7XPM051Q1XB","img_art/ins/1.jpg","5","","","","","","","","","","","","","","","","","","","","","","","","",""
"null","","html-keyboard-response","26","341395","0.0-26.0","A2G7XPM051Q1XB","<p style=""font-size: 48px;"">+</p>","","","","","null","allTrialResponses","1000","1","-2","img_art/ins/1.jpg","-8","nice color palette","Allison,Ashley,Beth,Dora,Erika,Jen","looks like a lot of things going on in the mist,20,20,20","I just don't get why these type of art would be popular,-32,40,20","This color reminds me of poo,-46,60,20","looks like what my niece in 3rd grade did this afternoon,-50,80,20","I like the sophisticated brushwork,40,100,20","It reminds me of a candy land dream I had,36,120,20","Ashley","I just don't get why these type of art would be popular,-32,40,20","Dora","looks like what my niece in 3rd grade did this afternoon,-50,80,20","Jen","It reminds me of a candy land dream I had,36,120,20","0"
"30253","","survey-text","27","371651","0.0-27.0-0.0","A2G7XPM051Q1XB","","","","{""Q0"":""looks like painted over duct tape""}","","","","","","","","","","","","","","","","","","","","","","",""
"4172.4000000059605","","image-slider-response","28","375824","0.0-28.0","A2G7XPM051Q1XB","","","","","-24","","","","","","","","","","","","","","","","","","","","","",""
"2828","","image-button-response","29","380833","0.0-29.0","A2G7XPM051Q1XB","img_art/ins/2.jpg","1","","","","","","","","","","","","","","","","","","","","","","","","",""
"10886","","image-button-response","30","391721","0.0-30.0","A2G7XPM051Q1XB","img_art/ins/2.jpg","3","","","","","","","","","","","","","","","","","","","","","","","","",""
"4024","","image-button-response","31","395747","0.0-31.0-0.0","A2G7XPM051Q1XB","img_art/ins/2.jpg","0","","","","","","","","","","","","","","","","","","","","","","","","",""
"11223","","image-button-response","32","406974","0.0-32.0-0.0","A2G7XPM051Q1XB","img_art/ins/2.jpg","1","","","","","","","","","","","","","","","","","","","","","","","","",""
"null","","html-keyboard-response","33","408487","0.0-33.0","A2G7XPM051Q1XB","<p style=""font-size: 48px;"">+</p>","","","","","null","allTrialResponses","1500","1","-1","img_art/ins/2.jpg","-24","looks like painted over duct tape","Jenna,Ashley,Katie,Dora,Kara,Jen","One of my pet peevs,-48,140,20","Idk, it is just annoying,-32,40,20","too much color!,-28,180,20","looks too angry,-50,80,20","I like the blocks of color arrangements,30,160,20","It reminds me of a fireplace,36,120,20","Dora","looks too angry,-50,80,20","Jenna","One of my pet peevs,-48,140,20","Ashley","Idk, it is just annoying,-32,40,20","0"
"11542","","survey-text","34","420031","0.0-34.0-0.0","A2G7XPM051Q1XB","","","","{""Q0"":""it feels cold""}","","","","","","","","","","","","","","","","","","","","","","",""
"4602.700000017881","","image-slider-response","35","424635","0.0-35.0","A2G7XPM051Q1XB","","","","","22","","","","","","","","","","","","","","","","","","","","","",""
"null","","image-button-response","36","429645","0.0-36.0","A2G7XPM051Q1XB","img_art/ins/3.jpg","null","","","","","","","","","","","","","","","","","","","","","","","","",""
"8171","","image-button-response","37","437818","0.0-37.0","A2G7XPM051Q1XB","img_art/ins/3.jpg","2","","","","","","","","","","","","","","","","","","","","","","","","",""
"3953","","image-button-response","38","441771","0.0-38.0-0.0","A2G7XPM051Q1XB","img_art/ins/3.jpg","1","","","","","","","","","","","","","","","","","","","","","","","","",""
"8923","","image-button-response","39","450696","0.0-39.0-0.0","A2G7XPM051Q1XB","img_art/ins/3.jpg","5","","","","","","","","","","","","","","","","","","","","","","","","",""
"null","","html-keyboard-response","40","451210","0.0-40.0","A2G7XPM051Q1XB","<p style=""font-size: 48px;"">+</p>","","","","","null","allTrialResponses","500","1","0","img_art/ins/3.jpg","22","it feels cold","Jenna,Ashley,Leslie,Dora,Mary,Rose","looks like a murder room,-35,140,20","It looks like a playground for bats,-36,40,20","It's an alright work,15,200,20","My worst nightmare,-42,80,20","I like the overlapping of brushes,41,220,20","My daily routine, it's depressing,-20,240,20","Leslie","It's an alright work,15,200,20","Ashley","It looks like a playground for bats,-36,40,20","Rose","My daily routine, it's depressing,-20,240,20","0"
"52328","","image-button-response_instructions","41","503541","0.0-41.0","A2G7XPM051Q1XB","","0","instructions","","","","","","","","","","","","","","","","","","","","","","","",""
"11867","","survey-likert","42","515410","0.0-42.0-0.0","A2G7XPM051Q1XB","","","","{""Q0"":"""",""Q1"":0,""Q2"":1}","","","","","","","","","","","","","","","","","","","","","","",""
"8462","","survey-text","43","523875","0.0-43.0-0.0","A2G7XPM051Q1XB","","","","{""Q0"":""rock""}","","","","","","","","","","","","","","","","","","","","","","",""
"35357","","survey-text","44","559233","0.0-44.0-0.0","A2G7XPM051Q1XB","","","","{""Q0"":""it looks disorganized""}","","","","","","","","","","","","","","","","","","","","","","",""
"4714.899999976158","","image-slider-response","45","563949","0.0-45.0","A2G7XPM051Q1XB","","","","","-27","","","","","","","","","","","","","","","","","","","","","",""
"null","","image-button-response","46","568973","0.0-46.0","A2G7XPM051Q1XB","img_art/20.jpg","null","","","","","","","","","","","","","","","","","","","","","","","","",""
"5228","","image-button-response","47","574202","0.0-47.0","A2G7XPM051Q1XB","img_art/20.jpg","2","","","","","","","","","","","","","","","","","","","","","","","","",""
"4623","","image-button-response","48","578825","0.0-48.0-0.0","A2G7XPM051Q1XB","img_art/20.jpg","3","","","","","","","","","","","","","","","","","","","","","","","","",""
"5660","","image-button-response","49","584488","0.0-49.0-0.0","A2G7XPM051Q1XB","img_art/20.jpg","5","","","","","","","","","","","","","","","","","","","","","","","","",""
"null","","html-keyboard-response","50","586002","0.0-50.0","A2G7XPM051Q1XB","<p style=""font-size: 48px;"">+</p>","","","","","null","allTrialResponses","1500","1","1","img_art/20.jpg","-27","it looks disorganized","Katherine,Caitlin,Leslie,Mariah,Kylie,Maria","More dark colors and blurry objects.,13,120,20","Not bad for all the southwestern people.,15,80,20","This elicits no reaction in me.,0,380,20","It feels like it ""almost"" several things.,-10,140,20","City life vs shore life,40,300,20","just feels generic,-18,120,20","Leslie","This elicits no reaction in me.,0,380,20","Mariah","It feels like it ""almost"" several things.,-10,140,20","Maria","just feels generic,-18,120,20","0"
"19777","","survey-text","51","605783","0.0-51.0-0.0","A2G7XPM051Q1XB","","","","{""Q0"":""makes me feel itchy""}","","","","","","","","","","","","","","","","","","","","","","",""
"3244.800000011921","","image-slider-response","52","609029","0.0-52.0","A2G7XPM051Q1XB","","","","","-39","","","","","","","","","","","","","","","","","","","","","",""
"4917","","image-button-response","53","614031","0.0-53.0","A2G7XPM051Q1XB","img_art/13.jpg","0","","","","","","","","","","","","","","","","","","","","","","","","",""
"3190","","image-button-response","54","617223","0.0-54.0","A2G7XPM051Q1XB","img_art/13.jpg","2","","","","","","","","","","","","","","","","","","","","","","","","",""
"7326","","image-button-response","55","624551","0.0-55.0-0.0","A2G7XPM051Q1XB","img_art/13.jpg","5","","","","","","","","","","","","","","","","","","","","","","","","",""
"10618","","image-button-response","56","635171","0.0-56.0-0.0","A2G7XPM051Q1XB","img_art/13.jpg","0","","","","","","","","","","","","","","","","","","","","","","","","",""
"null","","html-keyboard-response","57","636679","0.0-57.0","A2G7XPM051Q1XB","<p style=""font-size: 48px;"">+</p>","","","","","null","allTrialResponses","1500","1","2","img_art/13.jpg","-39","makes me feel itchy","Destiny,Brooke,Leslie,Mariah,Michaela,Maria","so simple and stupid this looks like what I did to my cousins wall when we repainted it for her 13th bday,0,360,20","Like the use of color, not a fan of the splatter,29,60,20","This elicits no reaction in me.,0,380,20","Rain on a cold window.,22,140,20","The colors are really pretty together,39,260,20","evokes a dampening feeling,-9,120,20","Leslie","This elicits no reaction in me.,0,380,20","Maria","evokes a dampening feeling,-9,120,20","Destiny","so simple and stupid this looks like what I did to my cousins wall when we repainted it for her 13th bday,0,360,20","0"
"45451","","survey-text","58","682133","0.0-58.0-0.0","A2G7XPM051Q1XB","","","","{""Q0"":""lovely colors, but picture looks to random""}","","","","","","","","","","","","","","","","","","","","","","",""
"2732.600000023842","","image-slider-response","59","684867","0.0-59.0","A2G7XPM051Q1XB","","","","","-9","","","","","","","","","","","","","","","","","","","","","",""
"null","","image-button-response","60","689884","0.0-60.0","A2G7XPM051Q1XB","img_art/28.jpg","null","","","","","","","","","","","","","","","","","","","","","","","","",""
"7231","","image-button-response","61","697117","0.0-61.0","A2G7XPM051Q1XB","img_art/28.jpg","1","","","","","","","","","","","","","","","","","","","","","","","","",""
"14302","","image-button-response","62","711421","0.0-62.0-0.0","A2G7XPM051Q1XB","img_art/28.jpg","5","","","","","","","","","","","","","","","","","","","","","","","","",""
"4286","","image-button-response","63","715709","0.0-63.0-0.0","A2G7XPM051Q1XB","img_art/28.jpg","0","","","","","","","","","","","","","","","","","","","","","","","","",""
"null","","html-keyboard-response","64","716210","0.0-64.0","A2G7XPM051Q1XB","<p style=""font-size: 48px;"">+</p>","","","","","null","allTrialResponses","500","1","3","img_art/28.jpg","-9","lovely colors, but picture looks to random","Destiny,Megan,Leslie,Makayla,Amy,Maria","I wish I knew why I liked it, maybes its the pinky tones,36,360,20","Compact grey mess lack negative space,-10,200,20","The darker colors make this unnerving.,40,380,20","The earthy colors smeared around looks like prison food tray,-17,80,20","Contemplative and a little dark. The muted colors and subject create a sense of mystery.,15,220,20","I want to like it, but I'm not really sure what to make of it,2,120,20","Megan","Compact grey mess lack negative space,-10,200,20","Maria","I want to like it, but I'm not really sure what to make of it,2,120,20","Destiny","I wish I knew why I liked it, maybes its the pinky tones,36,360,20","0"
"83859","","survey-text","65","800071","0.0-65.0-0.0","A2G7XPM051Q1XB","","","","{""Q0"":""there's no good point of focus ""}","","","","","","","","","","","","","","","","","","","","","","",""
"4084.0999999940395","","image-slider-response","66","804157","0.0-66.0","A2G7XPM051Q1XB","","","","","-47","","","","","","","","","","","","","","","","","","","","","",""
"null","","image-button-response","67","809174","0.0-67.0","A2G7XPM051Q1XB","img_art/10.jpg","null","","","","","","","","","","","","","","","","","","","","","","","","",""
"16399","","image-button-response","68","825575","0.0-68.0","A2G7XPM051Q1XB","img_art/10.jpg","3","","","","","","","","","","","","","","","","","","","","","","","","",""
"3438","","image-button-response","69","829015","0.0-69.0-0.0","A2G7XPM051Q1XB","img_art/10.jpg","4","","","","","","","","","","","","","","","","","","","","","","","","",""
"3954","","image-button-response","70","832971","0.0-70.0-0.0","A2G7XPM051Q1XB","img_art/10.jpg","5","","","","","","","","","","","","","","","","","","","","","","","","",""
"null","","html-keyboard-response","71","833479","0.0-71.0","A2G7XPM051Q1XB","<p style=""font-size: 48px;"">+</p>","","","","","null","allTrialResponses","500","1","4","img_art/10.jpg","-47","there's no good point of focus ","Destiny,Megan,Haley,Sara,Miranda,Maria","The more I look the more I like. Reminds me of a rollercoaster and a war scene. A lot going on which is unnerving, like a rollercoaster but still fun,22,360,20","Music visualized with subtle color,17,200,20","Makes me want to know more about it, and potentially the artist.,20,220,20","I don't like the colors,-20,160,20","It reminds me of how my dog has to run all over the place just to poop in one specific location.,-20,320,20","not sure what to make of this one,0,120,20","Sara","I don't like the colors,-20,160,20","Miranda","It reminds me of how my dog has to run all over the place just to poop in one specific location.,-20,320,20","Maria","not sure what to make of this one,0,120,20","0"
"59271","","survey-text","72","892753","0.0-72.0-0.0","A2G7XPM051Q1XB","","","","{""Q0"":""nice colors, but to random""}","","","","","","","","","","","","","","","","","","","","","","",""
"4822.299999982119","","image-slider-response","73","897577","0.0-73.0","A2G7XPM051Q1XB","","","","","9","","","","","","","","","","","","","","","","","","","","","",""
"null","","image-button-response","74","902589","0.0-74.0","A2G7XPM051Q1XB","img_art/21.jpg","null","","","","","","","","","","","","","","","","","","","","","","","","",""
"10786","","image-button-response","75","913377","0.0-75.0","A2G7XPM051Q1XB","img_art/21.jpg","3","","","","","","","","","","","","","","","","","","","","","","","","",""
"9146","","image-button-response","76","922525","0.0-76.0-0.0","A2G7XPM051Q1XB","img_art/21.jpg","5","","","","","","","","","","","","","","","","","","","","","","","","",""
"6112","","image-button-response","77","928639","0.0-77.0-0.0","A2G7XPM051Q1XB","img_art/21.jpg","4","","","","","","","","","","","","","","","","","","","","","","","","",""
"null","","html-keyboard-response","78","929641","0.0-78.0","A2G7XPM051Q1XB","<p style=""font-size: 48px;"">+</p>","","","","","null","allTrialResponses","1000","1","5","img_art/21.jpg","9","nice colors, but to random","Danielle,Rachel,Jessica,Sara,Miranda,Maria","I like it. It's some of war-scene, bloodshed and battle on the left, field of dispair on the right, dark and rich,40,340,20","Looks like a body of water during a sunset. I like this piece.,21,80,20","I like how the colors blend together like a beautiful sunset.,25,400,20","It looks confusing,-21,160,20","This looks very interesting because something is happening but I can't tell what.,28,320,20","brings up imagery of the sea and clashing, though not in a negative way,31,120,20","Sara","It looks confusing,-21,160,20","Maria","brings up imagery of the sea and clashing, though not in a negative way,31,120,20","Miranda","This looks very interesting because something is happening but I can't tell what.,28,320,20","0"
"5225","","survey-text","79","934871","0.0-79.0-0.0","A2G7XPM051Q1XB","","","","{""Q0"":""sky""}","","","","","","","","","","","","","","","","","","","","","","",""
"47054","","survey-text","80","981926","0.0-80.0-0.0","A2G7XPM051Q1XB","","","","{""Q0"":""ants setting of a light show from their hill""}","","","","","","","","","","","","","","","","","","","","","","",""
"3205.300000011921","","image-slider-response","81","985133","0.0-81.0","A2G7XPM051Q1XB","","","","","-50","","","","","","","","","","","","","","","","","","","","","",""
"3128","","image-button-response","82","990147","0.0-82.0","A2G7XPM051Q1XB","img_art/5.jpg","1","","","","","","","","","","","","","","","","","","","","","","","","",""
"1612","","image-button-response","83","991761","0.0-83.0","A2G7XPM051Q1XB","img_art/5.jpg","2","","","","","","","","","","","","","","","","","","","","","","","","",""
"15549","","image-button-response","84","1007310","0.0-84.0-0.0","A2G7XPM051Q1XB","img_art/5.jpg","4","","","","","","","","","","","","","","","","","","","","","","","","",""
"3534","","image-button-response","85","1010847","0.0-85.0-0.0","A2G7XPM051Q1XB","img_art/5.jpg","1","","","","","","","","","","","","","","","","","","","","","","","","",""
"null","","html-keyboard-response","86","1012357","0.0-86.0","A2G7XPM051Q1XB","<p style=""font-size: 48px;"">+</p>","","","","","null","allTrialResponses","1500","1","6","img_art/5.jpg","-50","ants setting of a light show from their hill","Amanda,Emily,Abigail,Sara,Miranda,Maria","Very good color coordination,41,180,20","Complete garbage. Looks like a kid drew it.,-50,40,20","Reminds me of a broken umbrella,-9,20,20","It looks random,-10,160,20","This either looks like a bell or aliens finishing the pyramids,-34,320,20","this feels like something I should like, but I'm not feeling the execution,-10,120,20","Abigail","Reminds me of a broken umbrella,-9,20,20","Miranda","This either looks like a bell or aliens finishing the pyramids,-34,320,20","Emily","Complete garbage. Looks like a kid drew it.,-50,40,20","0"
"22720","","survey-text","87","1035080","0.0-87.0-0.0","A2G7XPM051Q1XB","","","","{""Q0"":""looks like a pretty serious skin rash""}","","","","","","","","","","","","","","","","","","","","","","",""
"2938.399999976158","","image-slider-response","88","1038020","0.0-88.0","A2G7XPM051Q1XB","","","","","-50","","","","","","","","","","","","","","","","","","","","","",""
"4989","","image-button-response","89","1043023","0.0-89.0","A2G7XPM051Q1XB","img_art/7.jpg","1","","","","","","","","","","","","","","","","","","","","","","","","",""
"1532","","image-button-response","90","1044556","0.0-90.0","A2G7XPM051Q1XB","img_art/7.jpg","2","","","","","","","","","","","","","","","","","","","","","","","","",""
"18927","","image-button-response","91","1063485","0.0-91.0-0.0","A2G7XPM051Q1XB","img_art/7.jpg","1","","","","","","","","","","","","","","","","","","","","","","","","",""
"18604","","image-button-response","92","1082091","0.0-92.0-0.0","A2G7XPM051Q1XB","img_art/7.jpg","4","","","","","","","","","","","","","","","","","","","","","","","","",""
"null","","html-keyboard-response","93","1082593","0.0-93.0","A2G7XPM051Q1XB","<p style=""font-size: 48px;"">+</p>","","","","","null","allTrialResponses","500","1","7","img_art/7.jpg","-50","looks like a pretty serious skin rash","Cassandra,Emily,Abigail,Mackenzie,Miranda,Jamie","Just neutral...looks like sand at the beach.,3,120,20","Ugly. I don't like the colors or the scattering.,-50,40,20","Looks like a skin disease,-31,20,20","Is simple in color and texture,11,20,20","This looks like a literal picture of the ground so I'm really not too sure about this one.,-42,320,20","Looks like a battle raging on,20,320,20","Abigail","Looks like a skin disease,-31,20,20","Emily","Ugly. I don't like the colors or the scattering.,-50,40,20","Miranda","This looks like a literal picture of the ground so I'm really not too sure about this one.,-42,320,20","0"
"60121","","survey-text","94","1142717","0.0-94.0-0.0","A2G7XPM051Q1XB","","","","{""Q0"":""looks like a glorified checker board""}","","","","","","","","","","","","","","","","","","","","","","",""
"3304.699999988079","","image-slider-response","95","1146023","0.0-95.0","A2G7XPM051Q1XB","","","","","-49","","","","","","","","","","","","","","","","","","","","","",""
"null","","image-button-response","96","1151027","0.0-96.0","A2G7XPM051Q1XB","img_art/12.jpg","null","","","","","","","","","","","","","","","","","","","","","","","","",""
"2633","","image-button-response","97","1153661","0.0-97.0","A2G7XPM051Q1XB","img_art/12.jpg","2","","","","","","","","","","","","","","","","","","","","","","","","",""
"6160","","image-button-response","98","1159823","0.0-98.0-0.0","A2G7XPM051Q1XB","img_art/12.jpg","4","","","","","","","","","","","","","","","","","","","","","","","","",""
"5110","","image-button-response","99","1164935","0.0-99.0-0.0","A2G7XPM051Q1XB","img_art/12.jpg","5","","","","","","","","","","","","","","","","","","","","","","","","",""
"null","","html-keyboard-response","100","1165437","0.0-100.0","A2G7XPM051Q1XB","<p style=""font-size: 48px;"">+</p>","","","","","null","allTrialResponses","500","1","8","img_art/12.jpg","-49","looks like a glorified checker board","Caroline,Emily,Abigail,Sophia,Miranda,Christina","I like the colors in both sections, brights compared to neutrals. Each block has a different view. I think of the future,11,100,20","Not quite my style but there more of a pattern and it is interesting to look at.,15,40,20","Made me uncomfortable, reminded me of the 90s,-9,20,20","Good technique. It's just not my thing.,2,280,20","This is like going to a really old mcdoanlds in a tiny town and it's never been renovated so it's breaking down,-31,320,20","way too 90s/80s for me,-9,240,20","Abigail","Made me uncomfortable, reminded me of the 90s,-9,20,20","Miranda","This is like going to a really old mcdoanlds in a tiny town and it's never been renovated so it's breaking down,-31,320,20","Christina","way too 90s/80s for me,-9,240,20","0"
"91240","","survey-text","101","1256680","0.0-101.0-0.0","A2G7XPM051Q1XB","","","","{""Q0"":""looks like the artists five year old child snuck into studio and scribbled on it ""}","","","","","","","","","","","","","","","","","","","","","","",""
"3708.4000000059605","","image-slider-response","102","1260390","0.0-102.0","A2G7XPM051Q1XB","","","","","-44","","","","","","","","","","","","","","","","","","","","","",""
"null","","image-button-response","103","1265397","0.0-103.0","A2G7XPM051Q1XB","img_art/27.jpg","null","","","","","","","","","","","","","","","","","","","","","","","","",""
"3034","","image-button-response","104","1268433","0.0-104.0","A2G7XPM051Q1XB","img_art/27.jpg","2","","","","","","","","","","","","","","","","","","","","","","","","",""
"2897","","image-button-response","105","1271331","0.0-105.0-0.0","A2G7XPM051Q1XB","img_art/27.jpg","3","","","","","","","","","","","","","","","","","","","","","","","","",""
"8591","","image-button-response","106","1279924","0.0-106.0-0.0","A2G7XPM051Q1XB","img_art/27.jpg","4","","","","","","","","","","","","","","","","","","","","","","","","",""
"null","","html-keyboard-response","107","1281434","0.0-107.0","A2G7XPM051Q1XB","<p style=""font-size: 48px;"">+</p>","","","","","null","allTrialResponses","1500","1","9","img_art/27.jpg","-44","looks like the artists five year old child snuck into studio and scribbled on it ","Dominique,Kaylee,Abigail,Cheyenne,Miranda,Christina","A beautiful day full of Hope and Inspiritation. The warmth of hot cocoa with the family gathering around,33,400,20","nice firestorm on desert,23,200,20","Looks like a little kids drawing,20,20,20","This one does nothing for me.,2,200,20","I'm not a fan. It looks like something my nephews (1 and 2) would make,-8,320,20","I like the orange but it's a little blah,1,240,20","Abigail","Looks like a little kids drawing,20,20,20","Cheyenne","This one does nothing for me.,2,200,20","Miranda","I'm not a fan. It looks like something my nephews (1 and 2) would make,-8,320,20","0"
"48819","","survey-text","108","1330257","0.0-108.0-0.0","A2G7XPM051Q1XB","","","","{""Q0"":""the artist painted a picture of their floor?""}","","","","","","","","","","","","","","","","","","","","","","",""
"2846.5","","image-slider-response","109","1333105","0.0-109.0","A2G7XPM051Q1XB","","","","","-50","","","","","","","","","","","","","","","","","","","","","",""
"null","","image-button-response","110","1338107","0.0-110.0","A2G7XPM051Q1XB","img_art/29.jpg","null","","","","","","","","","","","","","","","","","","","","","","","","",""
"512","","image-button-response","111","1338621","0.0-111.0","A2G7XPM051Q1XB","img_art/29.jpg","1","","","","","","","","","","","","","","","","","","","","","","","","",""
"1339","","image-button-response","112","1339961","0.0-112.0-0.0","A2G7XPM051Q1XB","img_art/29.jpg","2","","","","","","","","","","","","","","","","","","","","","","","","",""
"7034","","image-button-response","113","1346997","0.0-113.0-0.0","A2G7XPM051Q1XB","img_art/29.jpg","5","","","","","","","","","","","","","","","","","","","","","","","","",""
"null","","html-keyboard-response","114","1348011","0.0-114.0","A2G7XPM051Q1XB","<p style=""font-size: 48px;"">+</p>","","","","","null","allTrialResponses","1000","1","10","img_art/29.jpg","-50","the artist painted a picture of their floor?","Laura,Autumn,Abigail,Cheyenne,Miranda,Jacqueline","this is not art to me - it's random collage,-45,320,20","It's too messy.,-25,340,20","Messy and disorganized, to odark,-31,20,20","Really enjoy everything about this one.,50,200,20","This feels chaotic and I like the energy that it gives off.,21,320,20","This is ugly as fuck,-50,300,20","Autumn","It's too messy.,-25,340,20","Abigail","Messy and disorganized, to odark,-31,20,20","Jacqueline","This is ugly as fuck,-50,300,20","0"
"14522","","survey-text","115","1362539","0.0-115.0-0.0","A2G7XPM051Q1XB","","","","{""Q0"":""our""}","","","","","","","","","","","","","","","","","","","","","","",""
"41422","","survey-text","116","1403962","0.0-116.0-0.0","A2G7XPM051Q1XB","","","","{""Q0"":""pretty, feels like Thanksgiving""}","","","","","","","","","","","","","","","","","","","","","","",""
"5658.5999999940395","","image-slider-response","117","1409622","0.0-117.0","A2G7XPM051Q1XB","","","","","10","","","","","","","","","","","","","","","","","","","","","",""
"null","","image-button-response","118","1414632","0.0-118.0","A2G7XPM051Q1XB","img_art/1.jpg","null","","","","","","","","","","","","","","","","","","","","","","","","",""
"5068","","image-button-response","119","1419701","0.0-119.0","A2G7XPM051Q1XB","img_art/1.jpg","2","","","","","","","","","","","","","","","","","","","","","","","","",""
"1306","","image-button-response","120","1421009","0.0-120.0-0.0","A2G7XPM051Q1XB","img_art/1.jpg","2","","","","","","","","","","","","","","","","","","","","","","","","",""
"8223","","image-button-response","121","1435851","0.0-120.1-0.1","A2G7XPM051Q1XB","img_art/1.jpg","4","","","","","","","","","","","","","","","","","","","","","","","","",""
"11630","","image-button-response","122","1447482","0.0-121.0-0.0","A2G7XPM051Q1XB","img_art/1.jpg","5","","","","","","","","","","","","","","","","","","","","","","","","",""
"null","","html-keyboard-response","123","1448494","0.0-122.0","A2G7XPM051Q1XB","<p style=""font-size: 48px;"">+</p>","","","","","null","allTrialResponses","1000","1","11","img_art/1.jpg","10","pretty, feels like Thanksgiving","Madison,Autumn,Abigail,Katie,Angela,Jacqueline","This looks like the same artist as the first picture, but cropped? Looks incomplete.,28,60,20","Doesn't represent anything in particular.,-47,340,20","I like the warmth of the picture,21,20,20","Too messy. Just looks like a mess of dark colors.,-20,160,20","Like the colors very much, and this piece makes me feel peaceful.,29,260,20","It's alright but lacks any depth.,-5,300,20","Abigail","I like the warmth of the picture,21,20,20","Angela","Like the colors very much, and this piece makes me feel peaceful.,29,260,20","Jacqueline","It's alright but lacks any depth.,-5,300,20","2"
"44606","","survey-text","124","1493104","0.0-123.0-0.0","A2G7XPM051Q1XB","","","","{""Q0"":""i see a battle of capture the flag going on here""}","","","","","","","","","","","","","","","","","","","","","","",""
"7124.700000017881","","image-slider-response","125","1500230","0.0-124.0","A2G7XPM051Q1XB","","","","","2","","","","","","","","","","","","","","","","","","","","","",""
"null","","image-button-response","126","1505242","0.0-125.0","A2G7XPM051Q1XB","img_art/14.jpg","null","","","","","","","","","","","","","","","","","","","","","","","","",""
"9790","","image-button-response","127","1515032","0.0-126.0","A2G7XPM051Q1XB","img_art/14.jpg","5","","","","","","","","","","","","","","","","","","","","","","","","",""
"17491","","image-button-response","128","1532524","0.0-127.0-0.0","A2G7XPM051Q1XB","img_art/14.jpg","3","","","","","","","","","","","","","","","","","","","","","","","","",""
"5238","","image-button-response","129","1537765","0.0-128.0-0.0","A2G7XPM051Q1XB","img_art/14.jpg","1","","","","","","","","","","","","","","","","","","","","","","","","",""
"null","","html-keyboard-response","130","1538266","0.0-129.0","A2G7XPM051Q1XB","<p style=""font-size: 48px;"">+</p>","","","","","null","allTrialResponses","500","1","12","img_art/14.jpg","2","i see a battle of capture the flag going on here","Brittany,Rebecca,Abigail,Angelica,Angela,Jacqueline","The colors are good and the design is intriguing.,15,40,20","medium recalls back to an oriental style,16,100,20","Reminds me of art class,22,20,20","This is poorly done and not aesthetically appealing.,-2,280,20","I like the colors and the shapes are interesting,11,260,20","It kind of looks like a tree but I feel very netural.,0,300,20","Jacqueline","It kind of looks like a tree but I feel very netural.,0,300,20","Angelica","This is poorly done and not aesthetically appealing.,-2,280,20","Rebecca","medium recalls back to an oriental style,16,100,20","2"
"56068","","survey-text","131","1594338","0.0-130.0-0.0","A2G7XPM051Q1XB","","","","{""Q0"":""it feels sad to me""}","","","","","","","","","","","","","","","","","","","","","","",""
"4956.5999999940395","","image-slider-response","132","1599296","0.0-131.0","A2G7XPM051Q1XB","","","","","-26","","","","","","","","","","","","","","","","","","","","","",""
"3336","","image-button-response","133","1604307","0.0-132.0","A2G7XPM051Q1XB","img_art/4.jpg","0","","","","","","","","","","","","","","","","","","","","","","","","",""
"3620","","image-button-response","134","1607928","0.0-133.0","A2G7XPM051Q1XB","img_art/4.jpg","1","","","","","","","","","","","","","","","","","","","","","","","","",""
"8440","","image-button-response","135","1616371","0.0-134.0-0.0","A2G7XPM051Q1XB","img_art/4.jpg","4","","","","","","","","","","","","","","","","","","","","","","","","",""
"20496","","image-button-response","136","1636869","0.0-135.0-0.0","A2G7XPM051Q1XB","img_art/4.jpg","3","","","","","","","","","","","","","","","","","","","","","","","","",""
"null","","html-keyboard-response","137","1638370","0.0-136.0","A2G7XPM051Q1XB","<p style=""font-size: 48px;"">+</p>","","","","","null","allTrialResponses","1500","1","13","img_art/4.jpg","-26","it feels sad to me","Savannah,Rebecca,Molly,Angelica,Diana,Jacqueline","Colors are horrendous, look like bodily fluids have been smeared.,-50,200,20","no sorry i can't really understand,-18,100,20","Not bad at all.,20,340,20","This is ugly in color and in terms of the shape on it.,-32,280,20","Odd but intriguing. I feel emotion from this. Like a woman bent over carrying these emotions on her back.,33,380,20","It looks like smeared poop.,-27,300,20","Rebecca","no sorry i can't really understand,-18,100,20","Diana","Odd but intriguing. I feel emotion from this. Like a woman bent over carrying these emotions on her back.,33,380,20","Angelica","This is ugly in color and in terms of the shape on it.,-32,280,20","2"
"32404","","survey-text","138","1670778","0.0-137.0-0.0","A2G7XPM051Q1XB","","","","{""Q0"":""it looks unfinished""}","","","","","","","","","","","","","","","","","","","","","","",""
"3336.300000011921","","image-slider-response","139","1674116","0.0-138.0","A2G7XPM051Q1XB","","","","","-18","","","","","","","","","","","","","","","","","","","","","",""
"1667","","image-button-response","140","1679119","0.0-139.0","A2G7XPM051Q1XB","img_art/26.jpg","0","","","","","","","","","","","","","","","","","","","","","","","","",""
"2236","","image-button-response","141","1681356","0.0-140.0","A2G7XPM051Q1XB","img_art/26.jpg","2","","","","","","","","","","","","","","","","","","","","","","","","",""
"8747","","image-button-response","142","1690104","0.0-141.0-0.0","A2G7XPM051Q1XB","img_art/26.jpg","3","","","","","","","","","","","","","","","","","","","","","","","","",""
"3884","","image-button-response","143","1693990","0.0-142.0-0.0","A2G7XPM051Q1XB","img_art/26.jpg","0","","","","","","","","","","","","","","","","","","","","","","","","",""
"null","","html-keyboard-response","144","1695005","0.0-143.0","A2G7XPM051Q1XB","<p style=""font-size: 48px;"">+</p>","","","","","null","allTrialResponses","1000","1","14","img_art/26.jpg","-18","it looks unfinished","Emma,Rebecca,Kaitlyn,Angelica,Diana,Tiffany","Looks unfinished,-31,60,20","love the ""lowkey"" vibrant colors that are colorful but at the same time greyscale,12,100,20","The colors look faded and blurry,2,80,20","It's not ugly but not beautiful at all.,-3,280,20","I'm not sure if this is the image of a furniture store or not.,-20,380,20","It is very relaxing to look at, almost a relief.,21,360,20","Kaitlyn","The colors look faded and blurry,2,80,20","Angelica","It's not ugly but not beautiful at all.,-3,280,20","Emma","Looks unfinished,-31,60,20","2"
"39237","","survey-text","145","1734246","0.0-144.0-0.0","A2G7XPM051Q1XB","","","","{""Q0"":""nice colors, but to busy""}","","","","","","","","","","","","","","","","","","","","","","",""
"4114.600000023842","","image-slider-response","146","1738362","0.0-145.0","A2G7XPM051Q1XB","","","","","13","","","","","","","","","","","","","","","","","","","","","",""
"null","","image-button-response","147","1743365","0.0-146.0","A2G7XPM051Q1XB","img_art/19.jpg","null","","","","","","","","","","","","","","","","","","","","","","","","",""
"23914","","image-button-response","148","1767281","0.0-147.0","A2G7XPM051Q1XB","img_art/19.jpg","5","","","","","","","","","","","","","","","","","","","","","","","","",""
"2932","","image-button-response","149","1770215","0.0-148.0-0.0","A2G7XPM051Q1XB","img_art/19.jpg","1","","","","","","","","","","","","","","","","","","","","","","","","",""
"2380","","image-button-response","150","1772597","0.0-149.0-0.0","A2G7XPM051Q1XB","img_art/19.jpg","2","","","","","","","","","","","","","","","","","","","","","","","","",""
"null","","html-keyboard-response","151","1774101","0.0-150.0","A2G7XPM051Q1XB","<p style=""font-size: 48px;"">+</p>","","","","","null","allTrialResponses","1500","1","15","img_art/19.jpg","13","nice colors, but to busy","Emma,Kimberly,Kaitlyn,Angelica,Anna,Lauren","Interesting, leaves you wondering what it is,40,60,20","The blue makes it look like it has depth,11,260,20","The picture contains a lot of brown and weird drips,-4,80,20","This is like an ugly version of a Basquiat.,-24,280,20","I like the shapes.,22,300,20","The image doesn't really invoke any emotions strongly.,0,340,20","Lauren","The image doesn't really invoke any emotions strongly.,0,340,20","Kimberly","The blue makes it look like it has depth,11,260,20","Kaitlyn","The picture contains a lot of brown and weird drips,-4,80,20","2"
"7699","","survey-text","152","1781806","0.0-151.0-0.0","A2G7XPM051Q1XB","","","","{""Q0"":""course""}","","","","","","","","","","","","","","","","","","","","","","",""
"47327","","survey-text","153","1829134","0.0-152.0-0.0","A2G7XPM051Q1XB","","","","{""Q0"":""reminds me of street graffiti""}","","","","","","","","","","","","","","","","","","","","","","",""
"5050.600000023842","","image-slider-response","154","1834186","0.0-153.0","A2G7XPM051Q1XB","","","","","21","","","","","","","","","","","","","","","","","","","","","",""
"null","","image-button-response","155","1839194","0.0-154.0","A2G7XPM051Q1XB","img_art/30.jpg","null","","","","","","","","","","","","","","","","","","","","","","","","",""
"5441","","image-button-response","156","1844637","0.0-155.0","A2G7XPM051Q1XB","img_art/30.jpg","4","","","","","","","","","","","","","","","","","","","","","","","","",""
"5298","","image-button-response","157","1849937","0.0-156.0-0.0","A2G7XPM051Q1XB","img_art/30.jpg","5","","","","","","","","","","","","","","","","","","","","","","","","",""
"16718","","image-button-response","158","1866656","0.0-157.0-0.0","A2G7XPM051Q1XB","img_art/30.jpg","1","","","","","","","","","","","","","","","","","","","","","","","","",""
"null","","html-keyboard-response","159","1867665","0.0-158.0","A2G7XPM051Q1XB","<p style=""font-size: 48px;"">+</p>","","","","","null","allTrialResponses","1000","1","16","img_art/30.jpg","21","reminds me of street graffiti","Sabrina,Kimberly,Kaitlyn,Alexa,Andrea,Lauren","Flowing freely of the rest of the world,42,120,20","looks like eels,-20,260,20","Do not like the streaks,-14,80,20","Looks quite basic but the colors are nice and there is a wildness about it that I love,0,40,20","It feels like graffiti and the dark colors do nothing for the mood.,-5,240,20","I like how the strokes invokes a sense of fluidity.,20,340,20","Andrea","It feels like graffiti and the dark colors do nothing for the mood.,-5,240,20","Lauren","I like how the strokes invokes a sense of fluidity.,20,340,20","Kimberly","looks like eels,-20,260,20","2"
"45737","","survey-text","160","1913406","0.0-159.0-0.0","A2G7XPM051Q1XB","","","","{""Q0"":""the keys provoke thought""}","","","","","","","","","","","","","","","","","","","","","","",""
"2800.9000000059605","","image-slider-response","161","1916208","0.0-160.0","A2G7XPM051Q1XB","","","","","-15","","","","","","","","","","","","","","","","","","","","","",""
"4399","","image-button-response","162","1921219","0.0-161.0","A2G7XPM051Q1XB","img_art/22.jpg","0","","","","","","","","","","","","","","","","","","","","","","","","",""
"9064","","image-button-response","163","1930284","0.0-162.0","A2G7XPM051Q1XB","img_art/22.jpg","1","","","","","","","","","","","","","","","","","","","","","","","","",""
"10111","","image-button-response","164","1940396","0.0-163.0-0.0","A2G7XPM051Q1XB","img_art/22.jpg","2","","","","","","","","","","","","","","","","","","","","","","","","",""
"2450","","image-button-response","165","1942848","0.0-164.0-0.0","A2G7XPM051Q1XB","img_art/22.jpg","0","","","","","","","","","","","","","","","","","","","","","","","","",""
"null","","html-keyboard-response","166","1943351","0.0-165.0","A2G7XPM051Q1XB","<p style=""font-size: 48px;"">+</p>","","","","","null","allTrialResponses","500","1","17","img_art/22.jpg","-15","the keys provoke thought","Michelle,Kimberly,Victoria,Bailey,Andrea,Lauren","Not a huge fan of the blocks, also very abstract, I have no idea what it is,8,280,20","I like the key near the sphere in the center,19,260,20","love how the colors blend,42,400,20","Looks like a giant blob,-45,360,20","I don't feel much of anything.,0,240,20","This doesn't invoke anything, since I can't tell what the piece represents.,0,340,20","Kimberly","I like the key near the sphere in the center,19,260,20","Victoria","love how the colors blend,42,400,20","Michelle","Not a huge fan of the blocks, also very abstract, I have no idea what it is,8,280,20","2"
"24218","","survey-text","167","1967572","0.0-166.0-0.0","A2G7XPM051Q1XB","","","","{""Q0"":""its very chaotic""}","","","","","","","","","","","","","","","","","","","","","","",""
"2884.199999988079","","image-slider-response","168","1970458","0.0-167.0","A2G7XPM051Q1XB","","","","","-44","","","","","","","","","","","","","","","","","","","","","",""
"4215","","image-button-response","169","1975466","0.0-168.0","A2G7XPM051Q1XB","img_art/18.jpg","0","","","","","","","","","","","","","","","","","","","","","","","","",""
"21778","","image-button-response","170","1997245","0.0-169.0","A2G7XPM051Q1XB","img_art/18.jpg","5","","","","","","","","","","","","","","","","","","","","","","","","",""
"5910","","image-button-response","171","2003157","0.0-170.0-0.0","A2G7XPM051Q1XB","img_art/18.jpg","0","","","","","","","","","","","","","","","","","","","","","","","","",""
"6346","","image-button-response","172","2009505","0.0-171.0-0.0","A2G7XPM051Q1XB","img_art/18.jpg","2","","","","","","","","","","","","","","","","","","","","","","","","",""
"null","","html-keyboard-response","173","2011010","0.0-172.0","A2G7XPM051Q1XB","<p style=""font-size: 48px;"">+</p>","","","","","null","allTrialResponses","1500","1","18","img_art/18.jpg","-44","its very chaotic","Michelle,Kimberly,Victoria,Hailey,Gabrielle,Catherine","The small lines elicit a very nauseating response for some reason, too Dali like for me,-19,280,20","I enjoy the detailed line work in this one,21,260,20","Makes me think of stormy oceans,20,400,20","i like the colors. outerspace,21,200,20","interesting piece, I like the horse and people inserted in spots,22,160,20","Karma. being ruthless and all the time knowing the shit is gonna catch up with you.,10,160,20","Catherine","Karma. being ruthless and all the time knowing the shit is gonna catch up with you.,10,160,20","Michelle","The small lines elicit a very nauseating response for some reason, too Dali like for me,-19,280,20","Victoria","Makes me think of stormy oceans,20,400,20","2"
"108786","","survey-text","174","2119800","0.0-173.0-0.0","A2G7XPM051Q1XB","","","","{""Q0"":""i see a tree, but cant make sense of this picture in my mind""}","","","","","","","","","","","","","","","","","","","","","","",""
"3120.800000011921","","image-slider-response","175","2122922","0.0-174.0","A2G7XPM051Q1XB","","","","","-46","","","","","","","","","","","","","","","","","","","","","",""
"null","","image-button-response","176","2127925","0.0-175.0","A2G7XPM051Q1XB","img_art/17.jpg","null","","","","","","","","","","","","","","","","","","","","","","","","",""
"283","","image-button-response","177","2128209","0.0-176.0","A2G7XPM051Q1XB","img_art/17.jpg","0","","","","","","","","","","","","","","","","","","","","","","","","",""
"17061","","image-button-response","178","2145271","0.0-177.0-0.0","A2G7XPM051Q1XB","img_art/17.jpg","2","","","","","","","","","","","","","","","","","","","","","","","","",""
"11376","","image-button-response","179","2156649","0.0-178.0-0.0","A2G7XPM051Q1XB","img_art/17.jpg","5","","","","","","","","","","","","","","","","","","","","","","","","",""
"null","","html-keyboard-response","180","2157657","0.0-179.0","A2G7XPM051Q1XB","<p style=""font-size: 48px;"">+</p>","","","","","null","allTrialResponses","1000","1","19","img_art/17.jpg","-46","i see a tree, but cant make sense of this picture in my mind","Michelle,Kathryn,Victoria,Amber,Kristen,Catherine","I can tell there are tress and maybe some doors but I'm not a fan of the style,-2,280,20","Reminds me of the modern art museum in Rome. I didn't ""get"" many pieces, but had a positive cultural experience overall.,20,140,20","love the wispyness of it,34,400,20","Don't really like pastels.,-10,200,20","calm, tranquil, happy,50,280,20","Nature coming to the inside of your space that you are locked into.,50,160,20","Michelle","I can tell there are tress and maybe some doors but I'm not a fan of the style,-2,280,20","Victoria","love the wispyness of it,34,400,20","Catherine","Nature coming to the inside of your space that you are locked into.,50,160,20","2"
"55122","","survey-text","181","2212782","0.0-180.0-0.0","A2G7XPM051Q1XB","","","","{""Q0"":""relaxing and irritating at the same time""}","","","","","","","","","","","","","","","","","","","","","","",""
"3340.5999999940395","","image-slider-response","182","2216124","0.0-181.0","A2G7XPM051Q1XB","","","","","-48","","","","","","","","","","","","","","","","","","","","","",""
"4189","","image-button-response","183","2221127","0.0-182.0","A2G7XPM051Q1XB","img_art/9.jpg","0","","","","","","","","","","","","","","","","","","","","","","","","",""
"1772","","image-button-response","184","2222900","0.0-183.0","A2G7XPM051Q1XB","img_art/9.jpg","1","","","","","","","","","","","","","","","","","","","","","","","","",""
"5941","","image-button-response","185","2228842","0.0-184.0-0.0","A2G7XPM051Q1XB","img_art/9.jpg","4","","","","","","","","","","","","","","","","","","","","","","","","",""
"12298","","image-button-response","186","2241142","0.0-185.0-0.0","A2G7XPM051Q1XB","img_art/9.jpg","0","","","","","","","","","","","","","","","","","","","","","","","","",""
"null","","html-keyboard-response","187","2242647","0.0-186.0","A2G7XPM051Q1XB","<p style=""font-size: 48px;"">+</p>","","","","","null","allTrialResponses","1500","1","20","img_art/9.jpg","-48","relaxing and irritating at the same time","Michelle,Leah,Victoria,Mikayla,Natalie,Catherine","Alright, I can see a reclining lady, I'm just glad to be able to tell what's in the picture,5,280,20","Depressing to me, like a dark dream,-11,360,20","reminds me of a story book,18,400,20","Looks like a crayon drawing.,21,300,20","Gives me anxiety,-23,400,20","Cozy, In her own world. feminine .,30,160,20","Leah","Depressing to me, like a dark dream,-11,360,20","Natalie","Gives me anxiety,-23,400,20","Michelle","Alright, I can see a reclining lady, I'm just glad to be able to tell what's in the picture,5,280,20","2"
"8924","","survey-text","188","2251578","0.0-187.0-0.0","A2G7XPM051Q1XB","","","","{""Q0"":""we""}","","","","","","","","","","","","","","","","","","","","","","",""
"14131","","survey-text","189","2265710","0.0-188.0-0.0","A2G7XPM051Q1XB","","","","{""Q0"":""a simple crow""}","","","","","","","","","","","","","","","","","","","","","","",""
"2762.2000000178814","","image-slider-response","190","2268474","0.0-189.0","A2G7XPM051Q1XB","","","","","14","","","","","","","","","","","","","","","","","","","","","",""
"4279","","image-button-response","191","2273491","0.0-190.0","A2G7XPM051Q1XB","img_art/6.jpg","0","","","","","","","","","","","","","","","","","","","","","","","","",""
"3086","","image-button-response","192","2276578","0.0-191.0","A2G7XPM051Q1XB","img_art/6.jpg","3","","","","","","","","","","","","","","","","","","","","","","","","",""
"7208","","image-button-response","193","2283788","0.0-192.0-0.0","A2G7XPM051Q1XB","img_art/6.jpg","5","","","","","","","","","","","","","","","","","","","","","","","","",""
"1911","","image-button-response","194","2285700","0.0-193.0-0.0","A2G7XPM051Q1XB","img_art/6.jpg","0","","","","","","","","","","","","","","","","","","","","","","","","",""
"null","","html-keyboard-response","195","2286209","0.0-194.0","A2G7XPM051Q1XB","<p style=""font-size: 48px;"">+</p>","","","","","null","allTrialResponses","500","1","21","img_art/6.jpg","14","a simple crow","Michelle,Leah,Lindsey,Claire,Natalie,Erika","Definitely belongs at a doctor's office, I think it's a crow or a tree?,-3,280,20","Boring, looks like a sad tree in wind,-37,360,20","Simple, warm, hopeful.,12,400,20","very minimalistic,22,260,20","reminds me a giant peach,19,400,20","Lonesome in nature,13,100,20","Claire","very minimalistic,22,260,20","Erika","Lonesome in nature,13,100,20","Michelle","Definitely belongs at a doctor's office, I think it's a crow or a tree?,-3,280,20","2"
"18745","","survey-text","196","2304958","0.0-195.0-0.0","A2G7XPM051Q1XB","","","","{""Q0"":""looks like the end of the world""}","","","","","","","","","","","","","","","","","","","","","","",""
"6820.600000023842","","image-slider-response","197","2311780","0.0-196.0","A2G7XPM051Q1XB","","","","","-22","","","","","","","","","","","","","","","","","","","","","",""
"null","","image-button-response","198","2316792","0.0-197.0","A2G7XPM051Q1XB","img_art/8.jpg","null","","","","","","","","","","","","","","","","","","","","","","","","",""
"8416","","image-button-response","199","2325209","0.0-198.0","A2G7XPM051Q1XB","img_art/8.jpg","5","","","","","","","","","","","","","","","","","","","","","","","","",""
"7208","","image-button-response","200","2332419","0.0-199.0-0.0","A2G7XPM051Q1XB","img_art/8.jpg","0","","","","","","","","","","","","","","","","","","","","","","","","",""
"1168","","image-button-response","201","2333589","0.0-200.0-0.0","A2G7XPM051Q1XB","img_art/8.jpg","2","","","","","","","","","","","","","","","","","","","","","","","","",""
"null","","html-keyboard-response","202","2335101","0.0-201.0","A2G7XPM051Q1XB","<p style=""font-size: 48px;"">+</p>","","","","","null","allTrialResponses","1500","1","22","img_art/8.jpg","-22","looks like the end of the world","Michelle,Briana,Morgan,Claire,Breanna,Erika","I appreciate the complexity of this piece but it's too cubist for me,3,280,20","Its abstract and interesting,24,400,20","Falling into a city's heart.,10,380,20","looks like an aerial view, very pretty,32,260,20","Makes me feel nice,23,380,20","Striking, but not my taste,20,100,20","Erika","Striking, but not my taste,20,100,20","Michelle","I appreciate the complexity of this piece but it's too cubist for me,3,280,20","Morgan","Falling into a city's heart.,10,380,20","2"
"53436","","survey-text","203","2388542","0.0-202.0-0.0","A2G7XPM051Q1XB","","","","{""Q0"":""this feels evil..like something Tony Podesta would own""}","","","","","","","","","","","","","","","","","","","","","","",""
"3673","","image-slider-response","204","2392216","0.0-203.0","A2G7XPM051Q1XB","","","","","-50","","","","","","","","","","","","","","","","","","","","","",""
"4479","","image-button-response","205","2397218","0.0-204.0","A2G7XPM051Q1XB","img_art/16.jpg","1","","","","","","","","","","","","","","","","","","","","","","","","",""
"1598","","image-button-response","206","2398817","0.0-205.0","A2G7XPM051Q1XB","img_art/16.jpg","1","","","","","","","","","","","","","","","","","","","","","","","","",""
"3311","","image-button-response","207","2402130","0.0-206.0-0.0","A2G7XPM051Q1XB","img_art/16.jpg","3","","","","","","","","","","","","","","","","","","","","","","","","",""
"7551","","image-button-response","208","2409682","0.0-207.0-0.0","A2G7XPM051Q1XB","img_art/16.jpg","2","","","","","","","","","","","","","","","","","","","","","","","","",""
"null","","html-keyboard-response","209","2410690","0.0-208.0","A2G7XPM051Q1XB","<p style=""font-size: 48px;"">+</p>","","","","","null","allTrialResponses","1000","1","23","img_art/16.jpg","-50","this feels evil..like something Tony Podesta would own","Michelle,Stephanie,Morgan,Sierra,Erin,Erika","I'm a fan of collage and of reminiscing about childhood so this was nice,10,280,20","It looks violent.,-30,300,20","Strange and bleak.,-20,380,20","it looks psychotic,-31,260,20","Not original. Bear is odd,-50,120,20","Very emotional,23,100,20","Stephanie","It looks violent.,-30,300,20","Sierra","it looks psychotic,-31,260,20","Morgan","Strange and bleak.,-20,380,20","2"
"70996","","survey-text","210","2481692","0.0-209.0-0.0","A2G7XPM051Q1XB","","","","{""Q0"":""i see a dead animal, or a rushing brook depending how I look at it""}","","","","","","","","","","","","","","","","","","","","","","",""
"3236.800000011921","","image-slider-response","211","2484930","0.0-210.0","A2G7XPM051Q1XB","","","","","-34","","","","","","","","","","","","","","","","","","","","","",""
"null","","image-button-response","212","2489933","0.0-211.0","A2G7XPM051Q1XB","img_art/24.jpg","null","","","","","","","","","","","","","","","","","","","","","","","","",""
"5244","","image-button-response","213","2495178","0.0-212.0","A2G7XPM051Q1XB","img_art/24.jpg","0","","","","","","","","","","","","","","","","","","","","","","","","",""
"11575","","image-button-response","214","2506754","0.0-213.0-0.0","A2G7XPM051Q1XB","img_art/24.jpg","1","","","","","","","","","","","","","","","","","","","","","","","","",""
"7592","","image-button-response","215","2514348","0.0-214.0-0.0","A2G7XPM051Q1XB","img_art/24.jpg","4","","","","","","","","","","","","","","","","","","","","","","","","",""
"null","","html-keyboard-response","216","2514850","0.0-215.0","A2G7XPM051Q1XB","<p style=""font-size: 48px;"">+</p>","","","","","null","allTrialResponses","500","1","24","img_art/24.jpg","-34","i see a dead animal, or a rushing brook depending how I look at it","Kayla,Stephanie,Morgan,Sierra,Crystal,Meghan","It looks like a poor dead bunny in a field of flowers. I don't want the bunny to be dead.,-37,180,20","A beautiful waterfall in the springtime.,40,300,20","Water through the fruit.,15,380,20","i like that the water seems in motion,6,260,20","I don't like this painting because of its blottedness. It lacks conviction, direction and purpose.,-31,300,20","pretty like a waterfall,22,220,20","Kayla","It looks like a poor dead bunny in a field of flowers. I don't want the bunny to be dead.,-37,180,20","Stephanie","A beautiful waterfall in the springtime.,40,300,20","Crystal","I don't like this painting because of its blottedness. It lacks conviction, direction and purpose.,-31,300,20","2"
"16915","","survey-text","217","2531770","0.0-216.0-0.0","A2G7XPM051Q1XB","","","","{""Q0"":""MURDER!""}","","","","","","","","","","","","","","","","","","","","","","",""
"3091","","image-slider-response","218","2534862","0.0-217.0","A2G7XPM051Q1XB","","","","","-50","","","","","","","","","","","","","","","","","","","","","",""
"null","","image-button-response","219","2539877","0.0-218.0","A2G7XPM051Q1XB","img_art/3.jpg","null","","","","","","","","","","","","","","","","","","","","","","","","",""
"3320","","image-button-response","220","2543198","0.0-219.0","A2G7XPM051Q1XB","img_art/3.jpg","3","","","","","","","","","","","","","","","","","","","","","","","","",""
"6897","","image-button-response","221","2550096","0.0-220.0-0.0","A2G7XPM051Q1XB","img_art/3.jpg","1","","","","","","","","","","","","","","","","","","","","","","","","",""
"15243","","image-button-response","222","2565342","0.0-221.0-0.0","A2G7XPM051Q1XB","img_art/3.jpg","5","","","","","","","","","","","","","","","","","","","","","","","","",""
"null","","html-keyboard-response","223","2566855","0.0-222.0","A2G7XPM051Q1XB","<p style=""font-size: 48px;"">+</p>","","","","","null","allTrialResponses","1500","1","25","img_art/3.jpg","-50","MURDER!","Kayla,Stephanie,Monica,Shelby,Crystal,Cynthia","Really have no idea what I'm looking at.,1,180,20","I think of an angry child,-50,300,20","It looks like random scribbles by a child and not appealing,-38,360,20","This makes me feel a bit disturbed,-35,240,20","I like the abstract flowing lines. It lacks hard rigid marks and flow nicely into a piece of calamity.,32,300,20","This makes me feel vulnerable,-32,320,20","Shelby","This makes me feel a bit disturbed,-35,240,20","Stephanie","I think of an angry child,-50,300,20","Cynthia","This makes me feel vulnerable,-32,320,20","2"
"7235","","survey-text","224","2574098","0.0-223.0-0.0","A2G7XPM051Q1XB","","","","{""Q0"":""table""}","","","","","","","","","","","","","","","","","","","","","","",""
"20352","","survey-text","225","2594452","0.0-224.0-0.0","A2G7XPM051Q1XB","","","","{""Q0"":""a rainy wet city""}","","","","","","","","","","","","","","","","","","","","","","",""
"2974.7999999821186","","image-slider-response","226","2597428","0.0-225.0","A2G7XPM051Q1XB","","","","","20","","","","","","","","","","","","","","","","","","","","","",""
"3265","","image-button-response","227","2602440","0.0-226.0","A2G7XPM051Q1XB","img_art/11.jpg","0","","","","","","","","","","","","","","","","","","","","","","","","",""
"3845","","image-button-response","228","2606286","0.0-227.0","A2G7XPM051Q1XB","img_art/11.jpg","1","","","","","","","","","","","","","","","","","","","","","","","","",""
"5744","","image-button-response","229","2612032","0.0-228.0-0.0","A2G7XPM051Q1XB","img_art/11.jpg","5","","","","","","","","","","","","","","","","","","","","","","","","",""
"1998","","image-button-response","230","2614032","0.0-229.0-0.0","A2G7XPM051Q1XB","img_art/11.jpg","0","","","","","","","","","","","","","","","","","","","","","","","","",""
"null","","html-keyboard-response","231","2615538","0.0-230.0","A2G7XPM051Q1XB","<p style=""font-size: 48px;"">+</p>","","","","","null","allTrialResponses","1500","1","26","img_art/11.jpg","20","a rainy wet city","Julia,Stephanie,Alexandria,Shelby,Sarah,Cynthia","this looks like a beautiful rainy day in a hellish urban mountain city,14,40,20","Rainy dreary day in a town.,7,300,20","it reminds me of music,43,80,20","The movement in this one is extremely pleasent,40,240,20","i like the gray tones with black lines and bits of color,23,180,20","Sad but hopeful,43,320,20","Stephanie","Rainy dreary day in a town.,7,300,20","Cynthia","Sad but hopeful,43,320,20","Julia","this looks like a beautiful rainy day in a hellish urban mountain city,14,40,20","2"
"26927","","survey-text","232","2642470","0.0-231.0-0.0","A2G7XPM051Q1XB","","","","{""Q0"":""i dont like the colors""}","","","","","","","","","","","","","","","","","","","","","","",""
"3574.5999999940395","","image-slider-response","233","2646046","0.0-232.0","A2G7XPM051Q1XB","","","","","-50","","","","","","","","","","","","","","","","","","","","","",""
"null","","image-button-response","234","2651058","0.0-233.0","A2G7XPM051Q1XB","img_art/2.jpg","null","","","","","","","","","","","","","","","","","","","","","","","","",""
"8515","","image-button-response","235","2659574","0.0-234.0","A2G7XPM051Q1XB","img_art/2.jpg","3","","","","","","","","","","","","","","","","","","","","","","","","",""
"2361","","image-button-response","236","2661937","0.0-235.0-0.0","A2G7XPM051Q1XB","img_art/2.jpg","4","","","","","","","","","","","","","","","","","","","","","","","","",""
"1400","","image-button-response","237","2663338","0.0-236.0-0.0","A2G7XPM051Q1XB","img_art/2.jpg","5","","","","","","","","","","","","","","","","","","","","","","","","",""
"null","","html-keyboard-response","238","2663846","0.0-237.0","A2G7XPM051Q1XB","<p style=""font-size: 48px;"">+</p>","","","","","null","allTrialResponses","500","1","27","img_art/2.jpg","-50","i dont like the colors","Julia,Stephanie,Ashley,Jasmine,Kelly,Cynthia","I like how it looks like a cute smiling face,43,40,20","The colors are what I like. It looks like a smiling face too.,32,300,20","I think I can make out a face in there.,25,320,20","Color picks are a bad mesh with each other,-17,340,20","I cant tell whats happening here and that shade of green is just not my thing.,-17,220,20","Confused and disoriented,-33,320,20","Jasmine","Color picks are a bad mesh with each other,-17,340,20","Kelly","I cant tell whats happening here and that shade of green is just not my thing.,-17,220,20","Cynthia","Confused and disoriented,-33,320,20","2"
"87867","","survey-text","239","2751719","0.0-238.0-0.0","A2G7XPM051Q1XB","","","","{""Q0"":""branches infested with insects""}","","","","","","","","","","","","","","","","","","","","","","",""
"4896.700000017881","","image-slider-response","240","2756617","0.0-239.0","A2G7XPM051Q1XB","","","","","-50","","","","","","","","","","","","","","","","","","","","","",""
"null","","image-button-response","241","2761633","0.0-240.0","A2G7XPM051Q1XB","img_art/15.jpg","null","","","","","","","","","","","","","","","","","","","","","","","","",""
"7676","","image-button-response","242","2769311","0.0-241.0","A2G7XPM051Q1XB","img_art/15.jpg","4","","","","","","","","","","","","","","","","","","","","","","","","",""
"2964","","image-button-response","243","2772277","0.0-242.0-0.0","A2G7XPM051Q1XB","img_art/15.jpg","1","","","","","","","","","","","","","","","","","","","","","","","","",""
"1926","","image-button-response","244","2774205","0.0-243.0-0.0","A2G7XPM051Q1XB","img_art/15.jpg","2","","","","","","","","","","","","","","","","","","","","","","","","",""
"null","","html-keyboard-response","245","2775206","0.0-244.0","A2G7XPM051Q1XB","<p style=""font-size: 48px;"">+</p>","","","","","null","allTrialResponses","1000","1","28","img_art/15.jpg","-50","branches infested with insects","Katelyn,Sydney,Paige,Jasmine,Kelly,Cynthia","Doesnt trigger much of a reaction overall,-2,100,20","This picture is too confusing for me. I wouldn't want to stare at it to figure it out.,-10,320,20","I feel nothing when looking at this,1,60,20","I like it as the colors complement each other well,21,340,20","I can't really make out what this is supposed to be.,-8,220,20","interested in this transformation,20,320,20","Kelly","I can't really make out what this is supposed to be.,-8,220,20","Sydney","This picture is too confusing for me. I wouldn't want to stare at it to figure it out.,-10,320,20","Paige","I feel nothing when looking at this,1,60,20","2"
"91619","","survey-text","246","2866830","0.0-245.0-0.0","A2G7XPM051Q1XB","","","","{""Q0"":""I like the simplicity""}","","","","","","","","","","","","","","","","","","","","","","",""
"3424.600000023842","","image-slider-response","247","2870256","0.0-246.0","A2G7XPM051Q1XB","","","","","22","","","","","","","","","","","","","","","","","","","","","",""
"null","","image-button-response","248","2875273","0.0-247.0","A2G7XPM051Q1XB","img_art/25.jpg","null","","","","","","","","","","","","","","","","","","","","","","","","",""
"2496","","image-button-response","249","2877770","0.0-248.0","A2G7XPM051Q1XB","img_art/25.jpg","2","","","","","","","","","","","","","","","","","","","","","","","","",""
"10901","","image-button-response","250","2888672","0.0-249.0-0.0","A2G7XPM051Q1XB","img_art/25.jpg","1","","","","","","","","","","","","","","","","","","","","","","","","",""
"2836","","image-button-response","251","2891510","0.0-250.0-0.0","A2G7XPM051Q1XB","img_art/25.jpg","0","","","","","","","","","","","","","","","","","","","","","","","","",""
"null","","html-keyboard-response","252","2892027","0.0-251.0","A2G7XPM051Q1XB","<p style=""font-size: 48px;"">+</p>","","","","","null","allTrialResponses","500","1","29","img_art/25.jpg","22","I like the simplicity","Marissa,Sydney,Paige,Alexandra,Kelly,Allison","I really like the green and the fact that it is tattered on the edges,23,160,20","This piece gives me a lot of questions which I kind of like.,10,320,20","reminds me of ancient history which makes me happy,40,60,20","This is too dark and creepy. I also hate the color,-30,60,20","I love the color. I don't know what exactly is going on but I like it.,24,220,20","high contrast draws attention to the image, but I'm not sure what I'm seeing,-5,140,20","Paige","reminds me of ancient history which makes me happy,40,60,20","Sydney","This piece gives me a lot of questions which I kind of like.,10,320,20","Marissa","I really like the green and the fact that it is tattered on the edges,23,160,20","2"
"57444","","survey-text","253","2949476","0.0-252.0-0.0","A2G7XPM051Q1XB","","","","{""Q0"":""i dont know what to think with this one""}","","","","","","","","","","","","","","","","","","","","","","",""
"2421","","image-slider-response","254","2951898","0.0-253.0","A2G7XPM051Q1XB","","","","","-50","","","","","","","","","","","","","","","","","","","","","",""
"null","","image-button-response","255","2956913","0.0-254.0","A2G7XPM051Q1XB","img_art/23.jpg","null","","","","","","","","","","","","","","","","","","","","","","","","",""
"1276","","image-button-response","256","2958190","0.0-255.0","A2G7XPM051Q1XB","img_art/23.jpg","2","","","","","","","","","","","","","","","","","","","","","","","","",""
"16311","","image-button-response","257","2974503","0.0-256.0-0.0","A2G7XPM051Q1XB","img_art/23.jpg","1","","","","","","","","","","","","","","","","","","","","","","","","",""
"4884","","image-button-response","258","2979389","0.0-257.0-0.0","A2G7XPM051Q1XB","img_art/23.jpg","4","","","","","","","","","","","","","","","","","","","","","","","","",""
"null","","html-keyboard-response","259","2979890","0.0-258.0","A2G7XPM051Q1XB","<p style=""font-size: 48px;"">+</p>","","","","","null","allTrialResponses","500","1","30","img_art/23.jpg","-50","i dont know what to think with this one","Marissa,Sydney,Paige,Jennifer,Chloe,Samantha","It feels exciting,23,160,20","The piece seems chaotic, and I dislike the random pop of white within so many colors.,-10,320,20","Does not incite any emotional response,1,60,20","The cluster of white silhouettes against the colorful background makes me feel uneasy for some reason,-36,380,20","Poster shop camp.,-40,220,20","The more i look at it the more i like it  the dots of color and very interesting,50,140,20","Paige","Does not incite any emotional response,1,60,20","Sydney","The piece seems chaotic, and I dislike the random pop of white within so many colors.,-10,320,20","Chloe","Poster shop camp.,-40,220,20","2"
"4866","","image-button-response_instructions","260","2984762","0.0-259.0","A2G7XPM051Q1XB","","0","instructions","","","","","","","","","","","","","","","","","","","","","","","",""
"1435","","image-button-response","261","2986200","0.0-260.0","A2G7XPM051Q1XB","","0","","","","","","","","","","","","","","","","","","","","","","","","",""
