"rt","url","trial_type","trial_index","time_elapsed","internal_node_id","participant_id","stimulus","button_pressed","Name","responses","response","key_press","variableName","fixationTime","condition","trial","photo","subjectRating","subjectResponse","agentsNames","agent_1_Response","agent_2_Response","agent_3_Response","agent_4_Response","agent_5_Response","agent_6_Response","kept_1_name","kept_1_response","kept_2_name","kept_2_response","kept_3_name","kept_3_response","errorCounter"
"59455","external_page_harvard.html","external-html","0","59681","0.0-0.0","A2GJBE6D4GIADZ","","","","","","","","","","","","","","","","","","","","","","","","","","",""
"2326","","image-button-response","1","62010","0.0-1.0","A2GJBE6D4GIADZ","","1","","","","","","","","","","","","","","","","","","","","","","","","",""
"3205","","image-button-response","2","65225","0.0-2.0-0.0","A2GJBE6D4GIADZ","","1","phone","","","","","","","","","","","","","","","","","","","","","","","",""
"6323","","survey-text","3","71551","0.0-3.0-0.0","A2GJBE6D4GIADZ","","","","{""Q0"":""A2GJBE6D4GIADZ""}","","","","","","","","","","","","","","","","","","","","","","",""
"6123","","image-button-response_instructions","4","77680","0.0-4.0","A2GJBE6D4GIADZ","","0","instructions","","","","","","","","","","","","","","","","","","","","","","","",""
"65338","","image-button-response_instructions","5","143021","0.0-5.0","A2GJBE6D4GIADZ","img_art/ins/popularity/ins1.png","0","instructions","","","","","","","","","","","","","","","","","","","","","","","",""
"14149","","image-button-response_instructions","6","157172","0.0-6.0","A2GJBE6D4GIADZ","img_art/ins/popularity/ins2.png","0","instructions","","","","","","","","","","","","","","","","","","","","","","","",""
"5310","","image-button-response_instructions","7","162484","0.0-7.0","A2GJBE6D4GIADZ","img_art/ins/popularity/ins2Extreme.png","0","instructions","","","","","","","","","","","","","","","","","","","","","","","",""
"9326","","image-button-response_instructions","8","171813","0.0-8.0","A2GJBE6D4GIADZ","img_art/ins/popularity/ins3KEEPpop.PNG","0","instructions","","","","","","","","","","","","","","","","","","","","","","","",""
"7858","","image-button-response_instructions","9","179672","0.0-9.0","A2GJBE6D4GIADZ","img_art/ins/popularity/ins3ANamepop.PNG","0","instructions","","","","","","","","","","","","","","","","","","","","","","","",""
"6489","","image-button-response_instructions","10","186163","0.0-10.0","A2GJBE6D4GIADZ","img_art/ins/popularity/ins3ARatingpop.png","0","instructions","","","","","","","","","","","","","","","","","","","","","","","",""
"4251","","image-button-response_instructions","11","190416","0.0-11.0","A2GJBE6D4GIADZ","img_art/ins/popularity/ins3ATextpop.png","0","instructions","","","","","","","","","","","","","","","","","","","","","","","",""
"11041","","image-button-response_instructions","12","201460","0.0-12.0","A2GJBE6D4GIADZ","img_art/ins/popularity/ins3ALikespop.png","0","instructions","","","","","","","","","","","","","","","","","","","","","","","",""
"18698","","image-button-response_instructions","13","220159","0.0-13.0","A2GJBE6D4GIADZ","img_art/ins/popularity/ins3KEEPpop.PNG","0","instructions","","","","","","","","","","","","","","","","","","","","","","","",""
"63574","","image-button-response_instructions","14","283735","0.0-14.0","A2GJBE6D4GIADZ","img_art/ins/popularity/ins3_5RED.png","0","instructions","","","","","","","","","","","","","","","","","","","","","","","",""
"9217","","image-button-response_instructions","15","292954","0.0-15.0","A2GJBE6D4GIADZ","img_art/ins/popularity/ins3KEEPpop.PNG","0","instructions","","","","","","","","","","","","","","","","","","","","","","","",""
"9969","","image-button-response_instructions","16","302925","0.0-16.0","A2GJBE6D4GIADZ","img_art/ins/popularity/ins4KEEPpop.PNG","0","instructions","","","","","","","","","","","","","","","","","","","","","","","",""
"8700","","image-button-response_instructions","17","311627","0.0-17.0","A2GJBE6D4GIADZ","img_art/ins/popularity/ins5KEEPpop.PNG","0","instructions","","","","","","","","","","","","","","","","","","","","","","","",""
"1909","","image-button-response_instructions","18","313538","0.0-18.0","A2GJBE6D4GIADZ","","0","instructions","","","","","","","","","","","","","","","","","","","","","","","",""
"7553","","survey-text","19","321136","0.0-19.0-0.0","A2GJBE6D4GIADZ","","","","{""Q0"":""but""}","","","","","","","","","","","","","","","","","","","","","","",""
"36051","","survey-text","20","357191","0.0-20.0-0.0","A2GJBE6D4GIADZ","","","","{""Q0"":""it seems like it would be in a teenager girls room""}","","","","","","","","","","","","","","","","","","","","","","",""
"6222.600000023842","","image-slider-response","21","363418","0.0-21.0","A2GJBE6D4GIADZ","","","","","8","","","","","","","","","","","","","","","","","","","","","",""
"null","","image-button-response","22","368426","0.0-22.0","A2GJBE6D4GIADZ","img_art/ins/1.jpg","null","","","","","","","","","","","","","","","","","","","","","","","","",""
"10969","","image-button-response","23","379399","0.0-23.0","A2GJBE6D4GIADZ","img_art/ins/1.jpg","3","","","","","","","","","","","","","","","","","","","","","","","","",""
"10714","","image-button-response","24","390118","0.0-24.0-0.0","A2GJBE6D4GIADZ","img_art/ins/1.jpg","1","","","","","","","","","","","","","","","","","","","","","","","","",""
"9936","","image-button-response","25","400058","0.0-25.0-0.0","A2GJBE6D4GIADZ","img_art/ins/1.jpg","5","","","","","","","","","","","","","","","","","","","","","","","","",""
"null","","html-keyboard-response","26","401571","0.0-26.0","A2GJBE6D4GIADZ","<p style=""font-size: 48px;"">+</p>","","","","","null","allTrialResponses","1500","1","-2","img_art/ins/1.jpg","8","it seems like it would be in a teenager girls room","Allison,Ashley,Beth,Dora,Erika,Jen","looks like a lot of things going on in the mist,20,20,20","I just don't get why these type of art would be popular,-32,40,20","This color reminds me of poo,-46,60,20","looks like what my niece in 3rd grade did this afternoon,-50,80,20","I like the sophisticated brushwork,40,100,20","It reminds me of a candy land dream I had,36,120,20","Dora","looks like what my niece in 3rd grade did this afternoon,-50,80,20","Ashley","I just don't get why these type of art would be popular,-32,40,20","Jen","It reminds me of a candy land dream I had,36,120,20","0"
"30551","","survey-text","27","432130","0.0-27.0-0.0","A2GJBE6D4GIADZ","","","","{""Q0"":""This looks like it would be used to stage a home""}","","","","","","","","","","","","","","","","","","","","","","",""
"7582.899999976158","","image-slider-response","28","439716","0.0-28.0","A2GJBE6D4GIADZ","","","","","-23","","","","","","","","","","","","","","","","","","","","","",""
"null","","image-button-response","29","444728","0.0-29.0","A2GJBE6D4GIADZ","img_art/ins/2.jpg","null","","","","","","","","","","","","","","","","","","","","","","","","",""
"7220","","image-button-response","30","451951","0.0-30.0","A2GJBE6D4GIADZ","img_art/ins/2.jpg","5","","","","","","","","","","","","","","","","","","","","","","","","",""
"3519","","image-button-response","31","455474","0.0-31.0-0.0","A2GJBE6D4GIADZ","img_art/ins/2.jpg","1","","","","","","","","","","","","","","","","","","","","","","","","",""
"7846","","image-button-response","32","463326","0.0-32.0-0.0","A2GJBE6D4GIADZ","img_art/ins/2.jpg","3","","","","","","","","","","","","","","","","","","","","","","","","",""
"null","","html-keyboard-response","33","463833","0.0-33.0","A2GJBE6D4GIADZ","<p style=""font-size: 48px;"">+</p>","","","","","null","allTrialResponses","500","1","-1","img_art/ins/2.jpg","-23","This looks like it would be used to stage a home","Jenna,Ashley,Katie,Dora,Kara,Jen","One of my pet peevs,-48,140,20","Idk, it is just annoying,-32,40,20","too much color!,-28,180,20","looks too angry,-50,80,20","I like the blocks of color arrangements,30,160,20","It reminds me of a fireplace,36,120,20","Jen","It reminds me of a fireplace,36,120,20","Ashley","Idk, it is just annoying,-32,40,20","Dora","looks too angry,-50,80,20","0"
"8414","","survey-text","34","472255","0.0-34.0-0.0","A2GJBE6D4GIADZ","","","","{""Q0"":""makes me feel cold""}","","","","","","","","","","","","","","","","","","","","","","",""
"5660.5","","image-slider-response","35","477918","0.0-35.0","A2GJBE6D4GIADZ","","","","","-35","","","","","","","","","","","","","","","","","","","","","",""
"null","","image-button-response","36","482929","0.0-36.0","A2GJBE6D4GIADZ","img_art/ins/3.jpg","null","","","","","","","","","","","","","","","","","","","","","","","","",""
"8070","","image-button-response","37","491002","0.0-37.0","A2GJBE6D4GIADZ","img_art/ins/3.jpg","2","","","","","","","","","","","","","","","","","","","","","","","","",""
"5555","","image-button-response","38","496560","0.0-38.0-0.0","A2GJBE6D4GIADZ","img_art/ins/3.jpg","5","","","","","","","","","","","","","","","","","","","","","","","","",""
"3700","","image-button-response","39","500264","0.0-39.0-0.0","A2GJBE6D4GIADZ","img_art/ins/3.jpg","1","","","","","","","","","","","","","","","","","","","","","","","","",""
"null","","html-keyboard-response","40","501267","0.0-40.0","A2GJBE6D4GIADZ","<p style=""font-size: 48px;"">+</p>","","","","","null","allTrialResponses","1000","1","0","img_art/ins/3.jpg","-35","makes me feel cold","Leslie,Ashley,Rose,Dora,Mary,Jen","It's an alright work,15,200,20","It looks like a playground for bats,-36,40,20","My daily routine, it's depressing,-20,240,20","My worst nightmare,-42,80,20","I like the overlapping of brushes,41,220,20","I can feel a rainy day from this painting,18,120,20","Rose","My daily routine, it's depressing,-20,240,20","Jen","I can feel a rainy day from this painting,18,120,20","Ashley","It looks like a playground for bats,-36,40,20","0"
"16627","","image-button-response_instructions","41","517902","0.0-41.0","A2GJBE6D4GIADZ","","0","instructions","","","","","","","","","","","","","","","","","","","","","","","",""
"18601","","survey-likert","42","536506","0.0-42.0-0.0","A2GJBE6D4GIADZ","","","","{""Q0"":"""",""Q1"":0,""Q2"":1}","","","","","","","","","","","","","","","","","","","","","","",""
"7457","","survey-text","43","543973","0.0-43.0-0.0","A2GJBE6D4GIADZ","","","","{""Q0"":""rock""}","","","","","","","","","","","","","","","","","","","","","","",""
"20382","","survey-text","44","564358","0.0-44.0-0.0","A2GJBE6D4GIADZ","","","","{""Q0"":""it reminds me of a Christmas nutcracker.""}","","","","","","","","","","","","","","","","","","","","","","",""
"5703","","image-slider-response","45","570064","0.0-45.0","A2GJBE6D4GIADZ","","","","","-30","","","","","","","","","","","","","","","","","","","","","",""
"null","","image-button-response","46","575132","0.0-46.0","A2GJBE6D4GIADZ","img_art/2.jpg","null","","","","","","","","","","","","","","","","","","","","","","","","",""
"3287","","image-button-response","47","578422","0.0-47.0","A2GJBE6D4GIADZ","img_art/2.jpg","1","","","","","","","","","","","","","","","","","","","","","","","","",""
"14716","","image-button-response","48","593140","0.0-48.0-0.0","A2GJBE6D4GIADZ","img_art/2.jpg","3","","","","","","","","","","","","","","","","","","","","","","","","",""
"2564","","image-button-response","49","595708","0.0-49.0-0.0","A2GJBE6D4GIADZ","img_art/2.jpg","0","","","","","","","","","","","","","","","","","","","","","","","","",""
"null","","html-keyboard-response","50","596214","0.0-50.0","A2GJBE6D4GIADZ","<p style=""font-size: 48px;"">+</p>","","","","","null","allTrialResponses","500","1","1","img_art/2.jpg","-30","it reminds me of a Christmas nutcracker.","Katie,Anna,Shelby,Tiffany,Emma,Kayla","Doesn't look like anything. Just a blob of colors.,1,160,20","The colors are pretty but I don't really like the shapes in it.,-20,300,20","The contrasting colors are a bit harsh,-10,240,20","I feel claustrophobic. I'm looking at a busy shop, but the simple shapes and continuous colors make it hectic.,-8,360,20","Don't love the colors,-30,60,20","Different cultures. I like that it brings differences together.,4,180,20","Anna","The colors are pretty but I don't really like the shapes in it.,-20,300,20","Tiffany","I feel claustrophobic. I'm looking at a busy shop, but the simple shapes and continuous colors make it hectic.,-8,360,20","Katie","Doesn't look like anything. Just a blob of colors.,1,160,20","0"
"28780","","survey-text","51","625001","0.0-51.0-0.0","A2GJBE6D4GIADZ","","","","{""Q0"":""I see a cow and skull on the prairie ""}","","","","","","","","","","","","","","","","","","","","","","",""
"3708","","image-slider-response","52","628712","0.0-52.0","A2GJBE6D4GIADZ","","","","","-24","","","","","","","","","","","","","","","","","","","","","",""
"4461","","image-button-response","53","633716","0.0-53.0","A2GJBE6D4GIADZ","img_art/20.jpg","0","","","","","","","","","","","","","","","","","","","","","","","","",""
"8439","","image-button-response","54","642159","0.0-54.0","A2GJBE6D4GIADZ","img_art/20.jpg","2","","","","","","","","","","","","","","","","","","","","","","","","",""
"1412","","image-button-response","55","643573","0.0-55.0-0.0","A2GJBE6D4GIADZ","img_art/20.jpg","0","","","","","","","","","","","","","","","","","","","","","","","","",""
"1531","","image-button-response","56","645108","0.0-56.0-0.0","A2GJBE6D4GIADZ","img_art/20.jpg","0","","","","","","","","","","","","","","","","","","","","","","","","",""
"11687","","image-button-response","57","663838","0.0-56.1-0.1","A2GJBE6D4GIADZ","img_art/20.jpg","5","","","","","","","","","","","","","","","","","","","","","","","","",""
"null","","html-keyboard-response","58","664849","0.0-57.0","A2GJBE6D4GIADZ","<p style=""font-size: 48px;"">+</p>","","","","","null","allTrialResponses","1000","1","2","img_art/20.jpg","-24","I see a cow and skull on the prairie ","Katie,Anna,Lindsey,Tiffany,Makayla,Hailey","I don't like it. Dark sky and black figures. White objects remind me of bones.,-30,160,20","I would like it more without the frame.,10,300,20","Not sure what it is. The colors are pleasant; makes me want to figure it out. An animal skull in the desert?,10,400,20","I feel powerful, like I am looking out a window at this machine, that I am in charge.,17,360,20","Little picturesque town that I would like to visit,19,80,20","reminds me of a dead animal in the west. ugly,-25,200,20","Lindsey","Not sure what it is. The colors are pleasant; makes me want to figure it out. An animal skull in the desert?,10,400,20","Katie","I don't like it. Dark sky and black figures. White objects remind me of bones.,-30,160,20","Hailey","reminds me of a dead animal in the west. ugly,-25,200,20","2"
"13152","","survey-text","59","678009","0.0-58.0-0.0","A2GJBE6D4GIADZ","","","","{""Q0"":""Scary. Looks like blood""}","","","","","","","","","","","","","","","","","","","","","","",""
"4203.199999928474","","image-slider-response","60","682216","0.0-59.0","A2GJBE6D4GIADZ","","","","","-48","","","","","","","","","","","","","","","","","","","","","",""
"null","","image-button-response","61","687232","0.0-60.0","A2GJBE6D4GIADZ","img_art/3.jpg","null","","","","","","","","","","","","","","","","","","","","","","","","",""
"1387","","image-button-response","62","688621","0.0-61.0","A2GJBE6D4GIADZ","img_art/3.jpg","0","","","","","","","","","","","","","","","","","","","","","","","","",""
"4649","","image-button-response","63","693273","0.0-62.0-0.0","A2GJBE6D4GIADZ","img_art/3.jpg","2","","","","","","","","","","","","","","","","","","","","","","","","",""
"10211","","image-button-response","64","703488","0.0-63.0-0.0","A2GJBE6D4GIADZ","img_art/3.jpg","4","","","","","","","","","","","","","","","","","","","","","","","","",""
"null","","html-keyboard-response","65","704502","0.0-64.0","A2GJBE6D4GIADZ","<p style=""font-size: 48px;"">+</p>","","","","","null","allTrialResponses","1000","1","3","img_art/3.jpg","-48","Scary. Looks like blood","Katie,Caroline,Lindsey,Madison,Breanna,Hailey","Messy. Looks like a children's drawing being passed off as expensive art. Too much red.,-50,160,20","The red makes me think of blood which makes me think of pain,-50,100,20","Angry red crayons, like a child throwing a tantrum. No thanks.,-10,400,20","This doesn't grab me. Perhaps the red is meant to be provocative; I find it gimmicky.,-9,60,20","Somebody scribbled on a piece of paper,-35,380,20","painted by a 2 year old. cold and boring,-30,200,20","Katie","Messy. Looks like a children's drawing being passed off as expensive art. Too much red.,-50,160,20","Lindsey","Angry red crayons, like a child throwing a tantrum. No thanks.,-10,400,20","Breanna","Somebody scribbled on a piece of paper,-35,380,20","2"
"45276","","survey-text","66","749786","0.0-65.0-0.0","A2GJBE6D4GIADZ","","","","{""Q0"":""Childs arts and crafts at Mothers Day Out""}","","","","","","","","","","","","","","","","","","","","","","",""
"3296.899999976158","","image-slider-response","67","753086","0.0-66.0","A2GJBE6D4GIADZ","","","","","-26","","","","","","","","","","","","","","","","","","","","","",""
"null","","image-button-response","68","758101","0.0-67.0","A2GJBE6D4GIADZ","img_art/14.jpg","null","","","","","","","","","","","","","","","","","","","","","","","","",""
"5856","","image-button-response","69","763962","0.0-68.0","A2GJBE6D4GIADZ","img_art/14.jpg","3","","","","","","","","","","","","","","","","","","","","","","","","",""
"658","","image-button-response","70","764625","0.0-69.0-0.0","A2GJBE6D4GIADZ","img_art/14.jpg","5","","","","","","","","","","","","","","","","","","","","","","","","",""
"9714","","image-button-response","71","774342","0.0-70.0-0.0","A2GJBE6D4GIADZ","img_art/14.jpg","0","","","","","","","","","","","","","","","","","","","","","","","","",""
"null","","html-keyboard-response","72","775358","0.0-71.0","A2GJBE6D4GIADZ","<p style=""font-size: 48px;"">+</p>","","","","","null","allTrialResponses","1000","1","4","img_art/14.jpg","-26","Childs arts and crafts at Mothers Day Out","Katie,Mary,Lindsey,Hannah,Breanna,Meghan","It represents growth. I see a plant/tree growing out of the ground. I like the rainbow of color in the painting.,31,160,20","I like the layers of color in this piece. The circles and lines are interesting.,29,180,20","Warm, positive, growth.,8,400,20","This doesn't speak to me on an emotional level,-6,240,20","Makes me feel good,30,380,20","its okay nothing special,11,220,20","Hannah","This doesn't speak to me on an emotional level,-6,240,20","Meghan","its okay nothing special,11,220,20","Katie","It represents growth. I see a plant/tree growing out of the ground. I like the rainbow of color in the painting.,31,160,20","2"
"41500","","survey-text","73","816867","0.0-72.0-0.0","A2GJBE6D4GIADZ","","","","{""Q0"":""a busy French café next to a river ""}","","","","","","","","","","","","","","","","","","","","","","",""
"3458.5999999046326","","image-slider-response","74","820329","0.0-73.0","A2GJBE6D4GIADZ","","","","","-45","","","","","","","","","","","","","","","","","","","","","",""
"3297","","image-button-response","75","825339","0.0-74.0","A2GJBE6D4GIADZ","img_art/19.jpg","0","","","","","","","","","","","","","","","","","","","","","","","","",""
"1024","","image-button-response","76","826365","0.0-75.0","A2GJBE6D4GIADZ","img_art/19.jpg","0","","","","","","","","","","","","","","","","","","","","","","","","",""
"9606","","image-button-response","77","835974","0.0-76.0-0.0","A2GJBE6D4GIADZ","img_art/19.jpg","2","","","","","","","","","","","","","","","","","","","","","","","","",""
"1114","","image-button-response","78","837091","0.0-77.0-0.0","A2GJBE6D4GIADZ","img_art/19.jpg","1","","","","","","","","","","","","","","","","","","","","","","","","",""
"null","","html-keyboard-response","79","838106","0.0-78.0","A2GJBE6D4GIADZ","<p style=""font-size: 48px;"">+</p>","","","","","null","allTrialResponses","1000","1","5","img_art/19.jpg","-45","a busy French café next to a river ","Katie,Cassidy,Chloe,Hannah,Megan,Meghan","Too busy, makes me anxious and frustrated. Lots of movement in the brush strokes.,-9,160,20","too much going on, can't tell what it is,-14,140,20","The use of space isn't my favorite.,-20,220,20","Just don't like this one.,-9,240,20","Simple, scratchy lack of negative space.,-10,200,20","looks like a shopping center,20,220,20","Katie","Too busy, makes me anxious and frustrated. Lots of movement in the brush strokes.,-9,160,20","Chloe","The use of space isn't my favorite.,-20,220,20","Cassidy","too much going on, can't tell what it is,-14,140,20","2"
"3434","","survey-text","80","841556","0.0-79.0-0.0","A2GJBE6D4GIADZ","","","","{""Q0"":""sky""}","","","","","","","","","","","","","","","","","","","","","","",""
"31441","","survey-text","81","872999","0.0-80.0-0.0","A2GJBE6D4GIADZ","","","","{""Q0"":""Pawprints. Not interesting. Next!""}","","","","","","","","","","","","","","","","","","","","","","",""
"5480.899999976158","","image-slider-response","82","878484","0.0-81.0","A2GJBE6D4GIADZ","","","","","-49","","","","","","","","","","","","","","","","","","","","","",""
"null","","image-button-response","83","883499","0.0-82.0","A2GJBE6D4GIADZ","img_art/7.jpg","null","","","","","","","","","","","","","","","","","","","","","","","","",""
"7654","","image-button-response","84","891157","0.0-83.0","A2GJBE6D4GIADZ","img_art/7.jpg","4","","","","","","","","","","","","","","","","","","","","","","","","",""
"3256","","image-button-response","85","894417","0.0-84.0-0.0","A2GJBE6D4GIADZ","img_art/7.jpg","5","","","","","","","","","","","","","","","","","","","","","","","","",""
"2049","","image-button-response","86","896469","0.0-85.0-0.0","A2GJBE6D4GIADZ","img_art/7.jpg","0","","","","","","","","","","","","","","","","","","","","","","","","",""
"null","","html-keyboard-response","87","897486","0.0-86.0","A2GJBE6D4GIADZ","<p style=""font-size: 48px;"">+</p>","","","","","null","allTrialResponses","1000","1","6","img_art/7.jpg","-49","Pawprints. Not interesting. Next!","Katie,Cassidy,Chloe,Shannon,Alexandra,Kelsey","I see dryness, which is sad. Dirt, sand, the dessert. Barren dry lifeless,-30,160,20","I like the texture,12,140,20","Like the tactile quality,30,220,20","I don't like the repetitiveness of the colors, and I think there should be more colors.,-50,220,20","I do not like the boring colors in this.,-20,60,20","its like oatmeal with granola,-47,240,20","Alexandra","I do not like the boring colors in this.,-20,60,20","Kelsey","its like oatmeal with granola,-47,240,20","Katie","I see dryness, which is sad. Dirt, sand, the dessert. Barren dry lifeless,-30,160,20","2"
"30554","","survey-text","88","928048","0.0-87.0-0.0","A2GJBE6D4GIADZ","","","","{""Q0"":""This looks like a picture in a hotel lobby.""}","","","","","","","","","","","","","","","","","","","","","","",""
"2767.7999999523163","","image-slider-response","89","930818","0.0-88.0","A2GJBE6D4GIADZ","","","","","-40","","","","","","","","","","","","","","","","","","","","","",""
"null","","image-button-response","90","935835","0.0-89.0","A2GJBE6D4GIADZ","img_art/21.jpg","null","","","","","","","","","","","","","","","","","","","","","","","","",""
"5877","","image-button-response","91","941715","0.0-90.0","A2GJBE6D4GIADZ","img_art/21.jpg","2","","","","","","","","","","","","","","","","","","","","","","","","",""
"14968","","image-button-response","92","956686","0.0-91.0-0.0","A2GJBE6D4GIADZ","img_art/21.jpg","0","","","","","","","","","","","","","","","","","","","","","","","","",""
"4813","","image-button-response","93","961503","0.0-92.0-0.0","A2GJBE6D4GIADZ","img_art/21.jpg","3","","","","","","","","","","","","","","","","","","","","","","","","",""
"null","","html-keyboard-response","94","962022","0.0-93.0","A2GJBE6D4GIADZ","<p style=""font-size: 48px;"">+</p>","","","","","null","allTrialResponses","500","1","7","img_art/21.jpg","-40","This looks like a picture in a hotel lobby.","Katie,Amy,Sara,Jenna,Alexandra,Kelsey","Immediately a positive response! I like the muted colors. the blurriness calms me. It's serene,40,160,20","A landscape that leaves me inspired and hopeful.,20,220,20","It looks confusing,-21,160,20","beautiful. reminds me of a storm brewing over sea. i love the white dots.,45,360,20","This one is nice, it reminds me of the sky,42,60,20","i like watercolor,22,240,20","Sara","It looks confusing,-21,160,20","Katie","Immediately a positive response! I like the muted colors. the blurriness calms me. It's serene,40,160,20","Jenna","beautiful. reminds me of a storm brewing over sea. i love the white dots.,45,360,20","2"
"39825","","survey-text","95","1001854","0.0-94.0-0.0","A2GJBE6D4GIADZ","","","","{""Q0"":""This is cool. I like the colors. It makes me feel lively.""}","","","","","","","","","","","","","","","","","","","","","","",""
"3445.5","","image-slider-response","96","1005302","0.0-95.0","A2GJBE6D4GIADZ","","","","","10","","","","","","","","","","","","","","","","","","","","","",""
"4099","","image-button-response","97","1010318","0.0-96.0","A2GJBE6D4GIADZ","img_art/23.jpg","1","","","","","","","","","","","","","","","","","","","","","","","","",""
"2514","","image-button-response","98","1012835","0.0-97.0","A2GJBE6D4GIADZ","img_art/23.jpg","1","","","","","","","","","","","","","","","","","","","","","","","","",""
"6266","","image-button-response","99","1019104","0.0-98.0-0.0","A2GJBE6D4GIADZ","img_art/23.jpg","3","","","","","","","","","","","","","","","","","","","","","","","","",""
"2788","","image-button-response","100","1021896","0.0-99.0-0.0","A2GJBE6D4GIADZ","img_art/23.jpg","4","","","","","","","","","","","","","","","","","","","","","","","","",""
"null","","html-keyboard-response","101","1022399","0.0-100.0","A2GJBE6D4GIADZ","<p style=""font-size: 48px;"">+</p>","","","","","null","allTrialResponses","500","1","8","img_art/23.jpg","10","This is cool. I like the colors. It makes me feel lively.","Katie,Erin,Sara,Jenna,Gabriela,Taylor","I don't get it! the white in the middle of the speckled rainbow is confusing.,-10,160,20","Confetti dancer,-7,120,20","Beautiful color scheme,21,160,20","awesome colors. love the white drawing the eye to the center. oddly comforting.,50,360,20","It looks like a parade of musicians full of excitement. Makes me feel upbeat,33,140,20","The color contrast makes me happy,40,340,20","Erin","Confetti dancer,-7,120,20","Jenna","awesome colors. love the white drawing the eye to the center. oddly comforting.,50,360,20","Gabriela","It looks like a parade of musicians full of excitement. Makes me feel upbeat,33,140,20","2"
"30681","","survey-text","102","1053088","0.0-101.0-0.0","A2GJBE6D4GIADZ","","","","{""Q0"":""Is this ducks in a river, caught in brush? Weird.""}","","","","","","","","","","","","","","","","","","","","","","",""
"2056.399999976158","","image-slider-response","103","1055148","0.0-102.0","A2GJBE6D4GIADZ","","","","","-35","","","","","","","","","","","","","","","","","","","","","",""
"null","","image-button-response","104","1060164","0.0-103.0","A2GJBE6D4GIADZ","img_art/18.jpg","null","","","","","","","","","","","","","","","","","","","","","","","","",""
"15317","","image-button-response","105","1075485","0.0-104.0","A2GJBE6D4GIADZ","img_art/18.jpg","0","","","","","","","","","","","","","","","","","","","","","","","","",""
"6502","","image-button-response","106","1081991","0.0-105.0-0.0","A2GJBE6D4GIADZ","img_art/18.jpg","3","","","","","","","","","","","","","","","","","","","","","","","","",""
"1204","","image-button-response","107","1083198","0.0-106.0-0.0","A2GJBE6D4GIADZ","img_art/18.jpg","4","","","","","","","","","","","","","","","","","","","","","","","","",""
"null","","html-keyboard-response","108","1084202","0.0-107.0","A2GJBE6D4GIADZ","<p style=""font-size: 48px;"">+</p>","","","","","null","allTrialResponses","1000","1","9","img_art/18.jpg","-35","Is this ducks in a river, caught in brush? Weird.","Kaitlyn,Erin,Amber,Jenna,Gabriela,Alexa","Umclear what is present in the picture,0,80,20","See a weird horse,-22,120,20","ugly and lots of movement,-6,200,20","hauntingly beautiful. more things revealed the longer you look. love the spirit-like figure in the top left.,47,360,20","It's possibly of a mermaid luring in a ship,15,140,20","Very wild and abstract. I love it and would definitely hang this up in my home,50,40,20","Kaitlyn","Umclear what is present in the picture,0,80,20","Jenna","hauntingly beautiful. more things revealed the longer you look. love the spirit-like figure in the top left.,47,360,20","Gabriela","It's possibly of a mermaid luring in a ship,15,140,20","2"
"23437","","survey-text","109","1107647","0.0-108.0-0.0","A2GJBE6D4GIADZ","","","","{""Q0"":""I don't like the blocky technique used.""}","","","","","","","","","","","","","","","","","","","","","","",""
"4668","","image-slider-response","110","1112317","0.0-109.0","A2GJBE6D4GIADZ","","","","","-43","","","","","","","","","","","","","","","","","","","","","",""
"null","","image-button-response","111","1117329","0.0-110.0","A2GJBE6D4GIADZ","img_art/8.jpg","null","","","","","","","","","","","","","","","","","","","","","","","","",""
"8034","","image-button-response","112","1125365","0.0-111.0","A2GJBE6D4GIADZ","img_art/8.jpg","4","","","","","","","","","","","","","","","","","","","","","","","","",""
"2514","","image-button-response","113","1127884","0.0-112.0-0.0","A2GJBE6D4GIADZ","img_art/8.jpg","0","","","","","","","","","","","","","","","","","","","","","","","","",""
"714","","image-button-response","114","1128601","0.0-113.0-0.0","A2GJBE6D4GIADZ","img_art/8.jpg","1","","","","","","","","","","","","","","","","","","","","","","","","",""
"null","","html-keyboard-response","115","1129110","0.0-114.0","A2GJBE6D4GIADZ","<p style=""font-size: 48px;"">+</p>","","","","","null","allTrialResponses","500","1","10","img_art/8.jpg","-43","I don't like the blocky technique used.","Kaitlyn,Olivia,Miranda,Jenna,Gabriela,Katherine","There are a lot of different interesting elements in the picture.,12,80,20","being watched over,17,40,20","I like this, the longer I look at in the more details I see.,41,320,20","beautiful colors & details. love the surrealism & strange angle. the faces are interesting.,50,360,20","I like that it sort of looks like a cityscape,9,140,20","This is really cool, I love the fragments of faces,38,120,20","Gabriela","I like that it sort of looks like a cityscape,9,140,20","Kaitlyn","There are a lot of different interesting elements in the picture.,12,80,20","Olivia","being watched over,17,40,20","2"
"2795","","survey-text","116","1131919","0.0-115.0-0.0","A2GJBE6D4GIADZ","","","","{""Q0"":""our""}","","","","","","","","","","","","","","","","","","","","","","",""
"20532","","survey-text","117","1152454","0.0-116.0-0.0","A2GJBE6D4GIADZ","","","","{""Q0"":""This is strange. Looks like random things cut out of a magazine.""}","","","","","","","","","","","","","","","","","","","","","","",""
"3699.5","","image-slider-response","118","1156157","0.0-117.0","A2GJBE6D4GIADZ","","","","","-49","","","","","","","","","","","","","","","","","","","","","",""
"2989","","image-button-response","119","1161167","0.0-118.0","A2GJBE6D4GIADZ","img_art/16.jpg","0","","","","","","","","","","","","","","","","","","","","","","","","",""
"887","","image-button-response","120","1162057","0.0-119.0","A2GJBE6D4GIADZ","img_art/16.jpg","0","","","","","","","","","","","","","","","","","","","","","","","","",""
"778","","image-button-response","121","1162838","0.0-120.0-0.0","A2GJBE6D4GIADZ","img_art/16.jpg","1","","","","","","","","","","","","","","","","","","","","","","","","",""
"6677","","image-button-response","122","1169519","0.0-121.0-0.0","A2GJBE6D4GIADZ","img_art/16.jpg","3","","","","","","","","","","","","","","","","","","","","","","","","",""
"null","","html-keyboard-response","123","1170035","0.0-122.0","A2GJBE6D4GIADZ","<p style=""font-size: 48px;"">+</p>","","","","","null","allTrialResponses","500","1","11","img_art/16.jpg","-49","This is strange. Looks like random things cut out of a magazine.","Kaitlyn,Olivia,Alexandria,Marissa,Gabriela,Kaylee","The bear is a weird choice,-22,80,20","childhood horror,3,40,20","while simple, it seems to have a deeper meaning on childhood,33,80,20","I do not like this dark and twisted portrayal of childhood,-42,160,20","It looks very generic, like items were pasted onto the background,-38,140,20","cool teddy bear,50,200,20","Kaitlyn","The bear is a weird choice,-22,80,20","Olivia","childhood horror,3,40,20","Marissa","I do not like this dark and twisted portrayal of childhood,-42,160,20","2"
"44224","","survey-text","124","1214266","0.0-123.0-0.0","A2GJBE6D4GIADZ","","","","{""Q0"":""Secret murder room in a home? Creepy.""}","","","","","","","","","","","","","","","","","","","","","","",""
"2844.600000023842","","image-slider-response","125","1217114","0.0-124.0","A2GJBE6D4GIADZ","","","","","-31","","","","","","","","","","","","","","","","","","","","","",""
"null","","image-button-response","126","1222125","0.0-125.0","A2GJBE6D4GIADZ","img_art/29.jpg","null","","","","","","","","","","","","","","","","","","","","","","","","",""
"7917","","image-button-response","127","1230045","0.0-126.0","A2GJBE6D4GIADZ","img_art/29.jpg","3","","","","","","","","","","","","","","","","","","","","","","","","",""
"4836","","image-button-response","128","1234884","0.0-127.0-0.0","A2GJBE6D4GIADZ","img_art/29.jpg","5","","","","","","","","","","","","","","","","","","","","","","","","",""
"1560","","image-button-response","129","1236448","0.0-128.0-0.0","A2GJBE6D4GIADZ","img_art/29.jpg","0","","","","","","","","","","","","","","","","","","","","","","","","",""
"null","","html-keyboard-response","130","1236959","0.0-129.0","A2GJBE6D4GIADZ","<p style=""font-size: 48px;"">+</p>","","","","","null","allTrialResponses","500","1","12","img_art/29.jpg","-31","Secret murder room in a home? Creepy.","Kaitlyn,Olivia,Sierra,Marissa,Leslie,Diana","I do not like the red x present in the picture,-6,80,20","too challenging to comprehend,-28,40,20","not digging the paintbrush,1,260,20","It makes me feel as though the artist put in a lot of time and effort and then gave up,10,160,20","I can relate to the frustration this evokes.,20,380,20","I rated it lower because it looked like a crime scene. It didn't make me feel good.,-44,380,20","Marissa","It makes me feel as though the artist put in a lot of time and effort and then gave up,10,160,20","Diana","I rated it lower because it looked like a crime scene. It didn't make me feel good.,-44,380,20","Kaitlyn","I do not like the red x present in the picture,-6,80,20","2"
"28853","","survey-text","131","1265821","0.0-130.0-0.0","A2GJBE6D4GIADZ","","","","{""Q0"":""It seems like this would go well with metal artwork.""}","","","","","","","","","","","","","","","","","","","","","","",""
"2719.5","","image-slider-response","132","1268544","0.0-131.0","A2GJBE6D4GIADZ","","","","","-24","","","","","","","","","","","","","","","","","","","","","",""
"null","","image-button-response","133","1273550","0.0-132.0","A2GJBE6D4GIADZ","img_art/11.jpg","null","","","","","","","","","","","","","","","","","","","","","","","","",""
"2811","","image-button-response","134","1276365","0.0-133.0","A2GJBE6D4GIADZ","img_art/11.jpg","1","","","","","","","","","","","","","","","","","","","","","","","","",""
"1358","","image-button-response","135","1277727","0.0-134.0-0.0","A2GJBE6D4GIADZ","img_art/11.jpg","3","","","","","","","","","","","","","","","","","","","","","","","","",""
"1029","","image-button-response","136","1278760","0.0-135.0-0.0","A2GJBE6D4GIADZ","img_art/11.jpg","4","","","","","","","","","","","","","","","","","","","","","","","","",""
"null","","html-keyboard-response","137","1279267","0.0-136.0","A2GJBE6D4GIADZ","<p style=""font-size: 48px;"">+</p>","","","","","null","allTrialResponses","500","1","13","img_art/11.jpg","-24","It seems like this would go well with metal artwork.","Kaitlyn,Vanessa,Elizabeth,Marissa,Stephanie,Diana","Interesting use of color,9,80,20","It makes me think of a rainy day and I like the colors. Also like the wavy lines.,22,380,20","Very unique piece of art,50,20,20","I dislike how dark this is,-21,160,20","Rainy dreary day in a town.,7,300,20","It makes my head feel dizzy. So I rated it lower.,-25,380,20","Vanessa","It makes me think of a rainy day and I like the colors. Also like the wavy lines.,22,380,20","Marissa","I dislike how dark this is,-21,160,20","Stephanie","Rainy dreary day in a town.,7,300,20","2"
"34876","","survey-text","138","1314152","0.0-137.0-0.0","A2GJBE6D4GIADZ","","","","{""Q0"":""Childs artwork made representing Autumn.""}","","","","","","","","","","","","","","","","","","","","","","",""
"3166.899999976158","","image-slider-response","139","1317322","0.0-138.0","A2GJBE6D4GIADZ","","","","","-17","","","","","","","","","","","","","","","","","","","","","",""
"null","","image-button-response","140","1322328","0.0-139.0","A2GJBE6D4GIADZ","img_art/27.jpg","null","","","","","","","","","","","","","","","","","","","","","","","","",""
"1934","","image-button-response","141","1324264","0.0-140.0","A2GJBE6D4GIADZ","img_art/27.jpg","1","","","","","","","","","","","","","","","","","","","","","","","","",""
"18690","","image-button-response","142","1342957","0.0-141.0-0.0","A2GJBE6D4GIADZ","img_art/27.jpg","4","","","","","","","","","","","","","","","","","","","","","","","","",""
"952","","image-button-response","143","1343914","0.0-142.0-0.0","A2GJBE6D4GIADZ","img_art/27.jpg","3","","","","","","","","","","","","","","","","","","","","","","","","",""
"null","","html-keyboard-response","144","1344926","0.0-143.0","A2GJBE6D4GIADZ","<p style=""font-size: 48px;"">+</p>","","","","","null","allTrialResponses","1000","1","14","img_art/27.jpg","-17","Childs artwork made representing Autumn.","Amanda,Vanessa,Jennifer,Marissa,Stephanie,Gabrielle","I love the childish aspect to it,37,180,20","Colors make me think of fall, but I don't like how the picture was done or the weird lines across the background,6,380,20","Somewhat boring piece,-3,380,20","I am bothered by the green doodles,-20,160,20","The black sketchy over the colors doesn't fit.,-4,300,20","like the patterns and colors all but the orange blob on the right,32,160,20","Vanessa","Colors make me think of fall, but I don't like how the picture was done or the weird lines across the background,6,380,20","Stephanie","The black sketchy over the colors doesn't fit.,-4,300,20","Marissa","I am bothered by the green doodles,-20,160,20","2"
"35602","","survey-text","145","1380536","0.0-144.0-0.0","A2GJBE6D4GIADZ","","","","{""Q0"":""It looks like it was meant to be a hand coming out of a sleeve but the artist messed up and got angry.""}","","","","","","","","","","","","","","","","","","","","","","",""
"3042","","image-slider-response","146","1383581","0.0-145.0","A2GJBE6D4GIADZ","","","","","-42","","","","","","","","","","","","","","","","","","","","","",""
"null","","image-button-response","147","1388587","0.0-146.0","A2GJBE6D4GIADZ","img_art/4.jpg","null","","","","","","","","","","","","","","","","","","","","","","","","",""
"12143","","image-button-response","148","1400733","0.0-147.0","A2GJBE6D4GIADZ","img_art/4.jpg","4","","","","","","","","","","","","","","","","","","","","","","","","",""
"1755","","image-button-response","149","1402493","0.0-148.0-0.0","A2GJBE6D4GIADZ","img_art/4.jpg","5","","","","","","","","","","","","","","","","","","","","","","","","",""
"1121","","image-button-response","150","1403617","0.0-149.0-0.0","A2GJBE6D4GIADZ","img_art/4.jpg","0","","","","","","","","","","","","","","","","","","","","","","","","",""
"null","","html-keyboard-response","151","1404121","0.0-150.0","A2GJBE6D4GIADZ","<p style=""font-size: 48px;"">+</p>","","","","","null","allTrialResponses","500","1","15","img_art/4.jpg","-42","It looks like it was meant to be a hand coming out of a sleeve but the artist messed up and got angry.","Ashley,Vanessa,Kristen,Marissa,Stephanie,Alexis","It looks like a hand.,25,320,20","Again, this is too abstract and I really don't like the colors.,-21,380,20","stresses me out, uncomfortable,-18,280,20","I'm disappointed that such a simple piece, with very little effort spent, could be grouped with other detailed pieces,-31,160,20","It looks like a hand someone scribbled over,-30,300,20","Really don't like this. Kindergarten art, sorry.,-50,100,20","Stephanie","It looks like a hand someone scribbled over,-30,300,20","Alexis","Really don't like this. Kindergarten art, sorry.,-50,100,20","Ashley","It looks like a hand.,25,320,20","2"
"4451","","survey-text","152","1408588","0.0-151.0-0.0","A2GJBE6D4GIADZ","","","","{""Q0"":""course""}","","","","","","","","","","","","","","","","","","","","","","",""
"29989","","survey-text","153","1438579","0.0-152.0-0.0","A2GJBE6D4GIADZ","","","","{""Q0"":""I like splatter paint. The colors compliment each other well.""}","","","","","","","","","","","","","","","","","","","","","","",""
"4074.7999999523163","","image-slider-response","154","1442657","0.0-153.0","A2GJBE6D4GIADZ","","","","","9","","","","","","","","","","","","","","","","","","","","","",""
"null","","image-button-response","155","1447670","0.0-154.0","A2GJBE6D4GIADZ","img_art/13.jpg","null","","","","","","","","","","","","","","","","","","","","","","","","",""
"2603","","image-button-response","156","1450276","0.0-155.0","A2GJBE6D4GIADZ","img_art/13.jpg","2","","","","","","","","","","","","","","","","","","","","","","","","",""
"4787","","image-button-response","157","1455066","0.0-156.0-0.0","A2GJBE6D4GIADZ","img_art/13.jpg","4","","","","","","","","","","","","","","","","","","","","","","","","",""
"2971","","image-button-response","158","1458041","0.0-157.0-0.0","A2GJBE6D4GIADZ","img_art/13.jpg","5","","","","","","","","","","","","","","","","","","","","","","","","",""
"null","","html-keyboard-response","159","1459050","0.0-158.0","A2GJBE6D4GIADZ","<p style=""font-size: 48px;"">+</p>","","","","","null","allTrialResponses","1000","1","16","img_art/13.jpg","9","I like splatter paint. The colors compliment each other well.","Ashley,Angelica,Margaret,Chelsea,Stephanie,Alexis","AWESOME! Pollack but with more direction.,32,320,20","It's too violent looking and there's too much contrast between the white/black.,-21,280,20","i like the splatters and the colors,21,100,20","The colors are okay but I don't like the shapes here.,-18,180,20","Raindrops splashing on the window.,50,300,20","Simple, but pleasing. The blue gradient is a favorite of mine,32,100,20","Margaret","i like the splatters and the colors,21,100,20","Stephanie","Raindrops splashing on the window.,50,300,20","Alexis","Simple, but pleasing. The blue gradient is a favorite of mine,32,100,20","2"
"23712","","survey-text","160","1482772","0.0-159.0-0.0","A2GJBE6D4GIADZ","","","","{""Q0"":""I feel like I could fold this in half.""}","","","","","","","","","","","","","","","","","","","","","","",""
"3558.5","","image-slider-response","161","1486333","0.0-160.0","A2GJBE6D4GIADZ","","","","","-17","","","","","","","","","","","","","","","","","","","","","",""
"null","","image-button-response","162","1491349","0.0-161.0","A2GJBE6D4GIADZ","img_art/12.jpg","null","","","","","","","","","","","","","","","","","","","","","","","","",""
"4465","","image-button-response","163","1495817","0.0-162.0","A2GJBE6D4GIADZ","img_art/12.jpg","3","","","","","","","","","","","","","","","","","","","","","","","","",""
"1114","","image-button-response","164","1496934","0.0-163.0-0.0","A2GJBE6D4GIADZ","img_art/12.jpg","0","","","","","","","","","","","","","","","","","","","","","","","","",""
"3182","","image-button-response","165","1500119","0.0-164.0-0.0","A2GJBE6D4GIADZ","img_art/12.jpg","2","","","","","","","","","","","","","","","","","","","","","","","","",""
"null","","html-keyboard-response","166","1501128","0.0-165.0","A2GJBE6D4GIADZ","<p style=""font-size: 48px;"">+</p>","","","","","null","allTrialResponses","1000","1","17","img_art/12.jpg","-17","I feel like I could fold this in half.","Sophia,Allison,Margaret,Jasmine,Stephanie,Alexis","Good technique. It's just not my thing.,2,280,20","Minimalist colors and shapes.,-5,140,20","I like the bottom half and hate the top half,7,100,20","It's just not my style,-18,340,20","I like the pattern to it.,31,300,20","I like the cubic feel.,11,100,20","Jasmine","It's just not my style,-18,340,20","Sophia","Good technique. It's just not my thing.,2,280,20","Margaret","I like the bottom half and hate the top half,7,100,20","2"
"24960","","survey-text","167","1526097","0.0-166.0-0.0","A2GJBE6D4GIADZ","","","","{""Q0"":""Reminds me of sand art. I'm not into it.""}","","","","","","","","","","","","","","","","","","","","","","",""
"4370.100000023842","","image-slider-response","168","1530470","0.0-167.0","A2GJBE6D4GIADZ","","","","","-36","","","","","","","","","","","","","","","","","","","","","",""
"4055","","image-button-response","169","1535482","0.0-168.0","A2GJBE6D4GIADZ","img_art/25.jpg","1","","","","","","","","","","","","","","","","","","","","","","","","",""
"1569","","image-button-response","170","1537054","0.0-169.0","A2GJBE6D4GIADZ","img_art/25.jpg","1","","","","","","","","","","","","","","","","","","","","","","","","",""
"6991","","image-button-response","171","1544048","0.0-170.0-0.0","A2GJBE6D4GIADZ","img_art/25.jpg","0","","","","","","","","","","","","","","","","","","","","","","","","",""
"1058","","image-button-response","172","1545111","0.0-171.0-0.0","A2GJBE6D4GIADZ","img_art/25.jpg","4","","","","","","","","","","","","","","","","","","","","","","","","",""
"null","","html-keyboard-response","173","1546618","0.0-172.0","A2GJBE6D4GIADZ","<p style=""font-size: 48px;"">+</p>","","","","","null","allTrialResponses","1500","1","18","img_art/25.jpg","-36","Reminds me of sand art. I'm not into it.","Sophia,Erika,Margaret,Jasmine,Katelyn,Savannah","This one just has a dark feeling to me.,-50,280,20","Very cryptic and ancient,36,100,20","love the color and the contrast of the black on teal,50,100,20","I liked it as it seems unique in a way,21,340,20","Creates a bit of fear in me for some reason,-26,100,20","Very cool color, very clear message!,50,200,20","Erika","Very cryptic and ancient,36,100,20","Sophia","This one just has a dark feeling to me.,-50,280,20","Katelyn","Creates a bit of fear in me for some reason,-26,100,20","2"
"56181","","survey-text","174","1602809","0.0-173.0-0.0","A2GJBE6D4GIADZ","","","","{""Q0"":""I feel like I am watching Tv of a woman laying in bed.""}","","","","","","","","","","","","","","","","","","","","","","",""
"3968.7999999523163","","image-slider-response","175","1606781","0.0-174.0","A2GJBE6D4GIADZ","","","","","-41","","","","","","","","","","","","","","","","","","","","","",""
"null","","image-button-response","176","1611800","0.0-175.0","A2GJBE6D4GIADZ","img_art/9.jpg","null","","","","","","","","","","","","","","","","","","","","","","","","",""
"6086","","image-button-response","177","1617890","0.0-176.0","A2GJBE6D4GIADZ","img_art/9.jpg","4","","","","","","","","","","","","","","","","","","","","","","","","",""
"1575","","image-button-response","178","1619469","0.0-177.0-0.0","A2GJBE6D4GIADZ","img_art/9.jpg","5","","","","","","","","","","","","","","","","","","","","","","","","",""
"1413","","image-button-response","179","1620885","0.0-178.0-0.0","A2GJBE6D4GIADZ","img_art/9.jpg","0","","","","","","","","","","","","","","","","","","","","","","","","",""
"null","","html-keyboard-response","180","1621890","0.0-179.0","A2GJBE6D4GIADZ","<p style=""font-size: 48px;"">+</p>","","","","","null","allTrialResponses","1000","1","19","img_art/9.jpg","-41","I feel like I am watching Tv of a woman laying in bed.","Sophia,Erika,Kaitlin,Cassandra,Katelyn,Alyssa","Yikes. I'm not sure what to make of this one.,-14,280,20","Colorful and expressive,15,100,20","this looks to be a child nightmare,-10,60,20","Stuipid looking...dumb,-48,120,20","The lack of concrete form kind of turns me off,-2,100,20","Unpleasant, alot of dark colors and strange lines,-26,160,20","Katelyn","The lack of concrete form kind of turns me off,-2,100,20","Alyssa","Unpleasant, alot of dark colors and strange lines,-26,160,20","Sophia","Yikes. I'm not sure what to make of this one.,-14,280,20","2"
"21140","","survey-text","181","1643038","0.0-180.0-0.0","A2GJBE6D4GIADZ","","","","{""Q0"":""Seems like it would be a hit at an art show but I don't like it.""}","","","","","","","","","","","","","","","","","","","","","","",""
"3551.100000023842","","image-slider-response","182","1646592","0.0-181.0","A2GJBE6D4GIADZ","","","","","-46","","","","","","","","","","","","","","","","","","","","","",""
"null","","image-button-response","183","1651600","0.0-182.0","A2GJBE6D4GIADZ","img_art/22.jpg","null","","","","","","","","","","","","","","","","","","","","","","","","",""
"4555","","image-button-response","184","1656158","0.0-183.0","A2GJBE6D4GIADZ","img_art/22.jpg","1","","","","","","","","","","","","","","","","","","","","","","","","",""
"5744","","image-button-response","185","1661905","0.0-184.0-0.0","A2GJBE6D4GIADZ","img_art/22.jpg","5","","","","","","","","","","","","","","","","","","","","","","","","",""
"4546","","image-button-response","186","1666455","0.0-185.0-0.0","A2GJBE6D4GIADZ","img_art/22.jpg","0","","","","","","","","","","","","","","","","","","","","","","","","",""
"null","","html-keyboard-response","187","1666959","0.0-186.0","A2GJBE6D4GIADZ","<p style=""font-size: 48px;"">+</p>","","","","","null","allTrialResponses","500","1","20","img_art/22.jpg","-46","Seems like it would be a hit at an art show but I don't like it.","Sophia,Michelle,Bailey,Isabella,Katelyn,Alyssa","I like this one. There is a lot to see if you keep looking for it.,27,280,20","Not a huge fan of the blocks, also very abstract, I have no idea what it is,8,280,20","Looks like a giant blob,-45,360,20","Sunsets at the beach,42,280,20","I usually dont like blurry pieces but the colors are amazing in this,14,100,20","Its okay,it doesnt make me feel any sort of strong emotion,1,160,20","Michelle","Not a huge fan of the blocks, also very abstract, I have no idea what it is,8,280,20","Alyssa","Its okay,it doesnt make me feel any sort of strong emotion,1,160,20","Sophia","I like this one. There is a lot to see if you keep looking for it.,27,280,20","2"
"3370","","survey-text","188","1670345","0.0-187.0-0.0","A2GJBE6D4GIADZ","","","","{""Q0"":""we""}","","","","","","","","","","","","","","","","","","","","","","",""
"17004","","survey-text","189","1687353","0.0-188.0-0.0","A2GJBE6D4GIADZ","","","","{""Q0"":""The colors aren't very inviting.""}","","","","","","","","","","","","","","","","","","","","","","",""
"2993.7999999523163","","image-slider-response","190","1690350","0.0-189.0","A2GJBE6D4GIADZ","","","","","-36","","","","","","","","","","","","","","","","","","","","","",""
"null","","image-button-response","191","1695365","0.0-190.0","A2GJBE6D4GIADZ","img_art/26.jpg","null","","","","","","","","","","","","","","","","","","","","","","","","",""
"1490","","image-button-response","192","1696857","0.0-191.0","A2GJBE6D4GIADZ","img_art/26.jpg","1","","","","","","","","","","","","","","","","","","","","","","","","",""
"12499","","image-button-response","193","1709359","0.0-192.0-0.0","A2GJBE6D4GIADZ","img_art/26.jpg","2","","","","","","","","","","","","","","","","","","","","","","","","",""
"1525","","image-button-response","194","1710888","0.0-193.0-0.0","A2GJBE6D4GIADZ","img_art/26.jpg","1","","","","","","","","","","","","","","","","","","","","","","","","",""
"593","","image-button-response","195","1725130","0.0-193.1-0.1","A2GJBE6D4GIADZ","img_art/26.jpg","4","","","","","","","","","","","","","","","","","","","","","","","","",""
"null","","html-keyboard-response","196","1726132","0.0-194.0","A2GJBE6D4GIADZ","<p style=""font-size: 48px;"">+</p>","","","","","null","allTrialResponses","1000","1","21","img_art/26.jpg","-36","The colors aren't very inviting.","Sophia,Michelle,Danielle,Cheyenne,Sabrina,Alyssa","I like this. Looks like a city street and I can use my imagination to make it come alive.,15,280,20","I can make out a street view and I am a fan of watercolors but still too boring,15,280,20","It's a little too yellow-y for me, I'm not a huge fan of the color schemes or setting it portrays.,-20,340,20","No strong reaction but the color scheme is nice,10,200,20","I dont see any expression,-29,120,20","Its pretty.And a nice use of water colors.,25,160,20","Michelle","I can make out a street view and I am a fan of watercolors but still too boring,15,280,20","Danielle","It's a little too yellow-y for me, I'm not a huge fan of the color schemes or setting it portrays.,-20,340,20","Sabrina","I dont see any expression,-29,120,20","4"
"15028","","survey-text","197","1741171","0.0-195.0-0.0","A2GJBE6D4GIADZ","","","","{""Q0"":""A child painting on a window.""}","","","","","","","","","","","","","","","","","","","","","","",""
"4572.300000071526","","image-slider-response","198","1745744","0.0-196.0","A2GJBE6D4GIADZ","","","","","-49","","","","","","","","","","","","","","","","","","","","","",""
"null","","image-button-response","199","1750752","0.0-197.0","A2GJBE6D4GIADZ","img_art/30.jpg","null","","","","","","","","","","","","","","","","","","","","","","","","",""
"116","","image-button-response","200","1750871","0.0-198.0","A2GJBE6D4GIADZ","img_art/30.jpg","1","","","","","","","","","","","","","","","","","","","","","","","","",""
"14873","","image-button-response","201","1765747","0.0-199.0-0.0","A2GJBE6D4GIADZ","img_art/30.jpg","5","","","","","","","","","","","","","","","","","","","","","","","","",""
"1112","","image-button-response","202","1766863","0.0-200.0-0.0","A2GJBE6D4GIADZ","img_art/30.jpg","3","","","","","","","","","","","","","","","","","","","","","","","","",""
"null","","html-keyboard-response","203","1767867","0.0-201.0","A2GJBE6D4GIADZ","<p style=""font-size: 48px;"">+</p>","","","","","null","allTrialResponses","1000","1","22","img_art/30.jpg","-49","A child painting on a window.","Jessica,Michelle,Danielle,Andrea,Sabrina,Claire","Looks cool , but no meaning,1,400,20","Don't like it at all, looks like a someone smeared paint with their fingers,-25,280,20","It's okay. It should either have stuck to the grey-blue, or added more red. Seems unorganized (maybe that's the point?),-9,340,20","It feels like graffiti and the dark colors do nothing for the mood.,-5,240,20","Flowing freely of the rest of the world,42,120,20","too segmented, looks sloppy,-37,260,20","Michelle","Don't like it at all, looks like a someone smeared paint with their fingers,-25,280,20","Claire","too segmented, looks sloppy,-37,260,20","Andrea","It feels like graffiti and the dark colors do nothing for the mood.,-5,240,20","4"
"37263","","survey-text","204","1805140","0.0-202.0-0.0","A2GJBE6D4GIADZ","","","","{""Q0"":""This is interesting. Possibly a guitar and characteristics of the artist.""}","","","","","","","","","","","","","","","","","","","","","","",""
"2673.8000000715256","","image-slider-response","205","1807817","0.0-203.0","A2GJBE6D4GIADZ","","","","","10","","","","","","","","","","","","","","","","","","","","","",""
"null","","image-button-response","206","1812835","0.0-204.0","A2GJBE6D4GIADZ","img_art/10.jpg","null","","","","","","","","","","","","","","","","","","","","","","","","",""
"2499","","image-button-response","207","1815337","0.0-205.0","A2GJBE6D4GIADZ","img_art/10.jpg","1","","","","","","","","","","","","","","","","","","","","","","","","",""
"4621","","image-button-response","208","1819961","0.0-206.0-0.0","A2GJBE6D4GIADZ","img_art/10.jpg","4","","","","","","","","","","","","","","","","","","","","","","","","",""
"555","","image-button-response","209","1820519","0.0-207.0-0.0","A2GJBE6D4GIADZ","img_art/10.jpg","5","","","","","","","","","","","","","","","","","","","","","","","","",""
"null","","html-keyboard-response","210","1822033","0.0-208.0","A2GJBE6D4GIADZ","<p style=""font-size: 48px;"">+</p>","","","","","null","allTrialResponses","1500","1","23","img_art/10.jpg","10","This is interesting. Possibly a guitar and characteristics of the artist.","Laura,Michelle,Angela,Andrea,Jacqueline,Claire","I feel a state of readiness without anxiety.,24,320,20","This could be a guitar, or it could be a completely random shape.,-3,280,20","This makes me think of a city, specifically London.,20,260,20","Kraken, and I love it.,39,240,20","Seems more harmonic with the strokes and colors.,31,300,20","it looks very musical,24,260,20","Michelle","This could be a guitar, or it could be a completely random shape.,-3,280,20","Jacqueline","Seems more harmonic with the strokes and colors.,31,300,20","Claire","it looks very musical,24,260,20","4"
"26399","","survey-text","211","1848443","0.0-209.0-0.0","A2GJBE6D4GIADZ","","","","{""Q0"":""It's okay. Nothing amazing but nothing awful.""}","","","","","","","","","","","","","","","","","","","","","","",""
"3467.100000023842","","image-slider-response","212","1851912","0.0-210.0","A2GJBE6D4GIADZ","","","","","-28","","","","","","","","","","","","","","","","","","","","","",""
"2518","","image-button-response","213","1856920","0.0-211.0","A2GJBE6D4GIADZ","img_art/24.jpg","0","","","","","","","","","","","","","","","","","","","","","","","","",""
"835","","image-button-response","214","1857758","0.0-212.0","A2GJBE6D4GIADZ","img_art/24.jpg","0","","","","","","","","","","","","","","","","","","","","","","","","",""
"10822","","image-button-response","215","1868583","0.0-213.0-0.0","A2GJBE6D4GIADZ","img_art/24.jpg","4","","","","","","","","","","","","","","","","","","","","","","","","",""
"4346","","image-button-response","216","1872933","0.0-214.0-0.0","A2GJBE6D4GIADZ","img_art/24.jpg","2","","","","","","","","","","","","","","","","","","","","","","","","",""
"null","","html-keyboard-response","217","1873440","0.0-215.0","A2GJBE6D4GIADZ","<p style=""font-size: 48px;"">+</p>","","","","","null","allTrialResponses","500","1","24","img_art/24.jpg","-28","It's okay. Nothing amazing but nothing awful.","Sarah,Michelle,Julia,Jordan,Jacqueline,Claire","it's fine, the colors are pleasing, but not my taste,9,180,20","Looks like a waterfall or a brook, the colors are very nice,15,280,20","it's a nice stream, but I don't care for plain nature,-15,40,20","It's beautiful! I love it! I see a waterfall, and they are my favorite things in the world,50,20,20","This one isn't that abstract. It clearly looks like a waterfall.,31,300,20","reminds me of a beautiful waterfall,50,260,20","Sarah","it's fine, the colors are pleasing, but not my taste,9,180,20","Jacqueline","This one isn't that abstract. It clearly looks like a waterfall.,31,300,20","Julia","it's a nice stream, but I don't care for plain nature,-15,40,20","4"
"35709","","survey-text","218","1909160","0.0-216.0-0.0","A2GJBE6D4GIADZ","","","","{""Q0"":""I see a man rowing a canoe away from an intimidating sunset.""}","","","","","","","","","","","","","","","","","","","","","","",""
"3553.2000000476837","","image-slider-response","219","1912716","0.0-217.0","A2GJBE6D4GIADZ","","","","","-16","","","","","","","","","","","","","","","","","","","","","",""
"null","","image-button-response","220","1917736","0.0-218.0","A2GJBE6D4GIADZ","img_art/1.jpg","null","","","","","","","","","","","","","","","","","","","","","","","","",""
"5846","","image-button-response","221","1923585","0.0-219.0","A2GJBE6D4GIADZ","img_art/1.jpg","3","","","","","","","","","","","","","","","","","","","","","","","","",""
"3650","","image-button-response","222","1927238","0.0-220.0-0.0","A2GJBE6D4GIADZ","img_art/1.jpg","5","","","","","","","","","","","","","","","","","","","","","","","","",""
"3223","","image-button-response","223","1930466","0.0-221.0-0.0","A2GJBE6D4GIADZ","img_art/1.jpg","0","","","","","","","","","","","","","","","","","","","","","","","","",""
"null","","html-keyboard-response","224","1931469","0.0-222.0","A2GJBE6D4GIADZ","<p style=""font-size: 48px;"">+</p>","","","","","null","allTrialResponses","1000","1","25","img_art/1.jpg","-16","I see a man rowing a canoe away from an intimidating sunset.","Sarah,Natalie,Julia,Jamie,Jacqueline,Rachel","it's boring despite all the colors,-2,180,20","my reaction is that the picture is that Ive seen it before,-14,400,20","I don't feel like much is happening in this painting,-25,40,20","Looks like just a bunch of colors with no real point,-5,320,20","It's alright but lacks any depth.,-5,300,20","While I like the colors, I find nothing interesting or thought provoking about it.,10,80,20","Jamie","Looks like just a bunch of colors with no real point,-5,320,20","Rachel","While I like the colors, I find nothing interesting or thought provoking about it.,10,80,20","Sarah","it's boring despite all the colors,-2,180,20","4"
"3657","","survey-text","225","1935145","0.0-223.0-0.0","A2GJBE6D4GIADZ","","","","{""Q0"":""table""}","","","","","","","","","","","","","","","","","","","","","","",""
"45892","","survey-text","226","1981040","0.0-224.0-0.0","A2GJBE6D4GIADZ","","","","{""Q0"":"" Oh this is cool. Some kind of tree growing in to a house.""}","","","","","","","","","","","","","","","","","","","","","","",""
"3504.2999999523163","","image-slider-response","227","1984547","0.0-225.0","A2GJBE6D4GIADZ","","","","","20","","","","","","","","","","","","","","","","","","","","","",""
"null","","image-button-response","228","1989559","0.0-226.0","A2GJBE6D4GIADZ","img_art/17.jpg","null","","","","","","","","","","","","","","","","","","","","","","","","",""
"5139","","image-button-response","229","1994701","0.0-227.0","A2GJBE6D4GIADZ","img_art/17.jpg","2","","","","","","","","","","","","","","","","","","","","","","","","",""
"1686","","image-button-response","230","1996392","0.0-228.0-0.0","A2GJBE6D4GIADZ","img_art/17.jpg","3","","","","","","","","","","","","","","","","","","","","","","","","",""
"4454","","image-button-response","231","2000849","0.0-229.0-0.0","A2GJBE6D4GIADZ","img_art/17.jpg","5","","","","","","","","","","","","","","","","","","","","","","","","",""
"null","","html-keyboard-response","232","2002363","0.0-230.0","A2GJBE6D4GIADZ","<p style=""font-size: 48px;"">+</p>","","","","","null","allTrialResponses","1500","1","26","img_art/17.jpg","20"," Oh this is cool. Some kind of tree growing in to a house.","Sarah,Kimberly,Leah,Jamie,Samantha,Rachel","i like the delicate wispy part, but overall i don't love it,10,180,20","I like the trees, but the doors less so,19,260,20","Love the colors, the flow, like a strange storm or tree off the balcony,50,360,20","Looks like some fantasy tree. Nice,30,320,20","Nice colors, shapes, flow,31,140,20","Reminds me of a beautiful tree growing in a courtyard. I like the light and airy technique used.,34,80,20","Leah","Love the colors, the flow, like a strange storm or tree off the balcony,50,360,20","Jamie","Looks like some fantasy tree. Nice,30,320,20","Rachel","Reminds me of a beautiful tree growing in a courtyard. I like the light and airy technique used.,34,80,20","4"
"13671","","survey-text","233","2016044","0.0-231.0-0.0","A2GJBE6D4GIADZ","","","","{""Q0"":""This is somewhat jazzy. Not my style.""}","","","","","","","","","","","","","","","","","","","","","","",""
"4251.399999976158","","image-slider-response","234","2020300","0.0-232.0","A2GJBE6D4GIADZ","","","","","-43","","","","","","","","","","","","","","","","","","","","","",""
"null","","image-button-response","235","2025314","0.0-233.0","A2GJBE6D4GIADZ","img_art/28.jpg","null","","","","","","","","","","","","","","","","","","","","","","","","",""
"4057","","image-button-response","236","2029374","0.0-234.0","A2GJBE6D4GIADZ","img_art/28.jpg","3","","","","","","","","","","","","","","","","","","","","","","","","",""
"1931","","image-button-response","237","2031308","0.0-235.0-0.0","A2GJBE6D4GIADZ","img_art/28.jpg","5","","","","","","","","","","","","","","","","","","","","","","","","",""
"3761","","image-button-response","238","2035073","0.0-236.0-0.0","A2GJBE6D4GIADZ","img_art/28.jpg","1","","","","","","","","","","","","","","","","","","","","","","","","",""
"null","","html-keyboard-response","239","2035577","0.0-237.0","A2GJBE6D4GIADZ","<p style=""font-size: 48px;"">+</p>","","","","","null","allTrialResponses","500","1","27","img_art/28.jpg","-43","This is somewhat jazzy. Not my style.","Melissa,Morgan,Leah,Jamie,Emily,Rachel","reminds me of kandinsky,14,240,20","Apartment throw up.,-5,380,20","Too me it's a mish mash, true abstract,-37,360,20","Gloomy colors and picture,5,320,20","Incoherent ugly mess.,-50,40,20","Too muted and bland. I like my art to be vivid.,-11,80,20","Jamie","Gloomy colors and picture,5,320,20","Rachel","Too muted and bland. I like my art to be vivid.,-11,80,20","Morgan","Apartment throw up.,-5,380,20","4"
"35132","","survey-text","240","2070721","0.0-238.0-0.0","A2GJBE6D4GIADZ","","","","{""Q0"":""A bell? I could see this in a modern, cool salon.""}","","","","","","","","","","","","","","","","","","","","","","",""
"3575.2999999523163","","image-slider-response","241","2074299","0.0-239.0","A2GJBE6D4GIADZ","","","","","8","","","","","","","","","","","","","","","","","","","","","",""
"null","","image-button-response","242","2079314","0.0-240.0","A2GJBE6D4GIADZ","img_art/5.jpg","null","","","","","","","","","","","","","","","","","","","","","","","","",""
"4790","","image-button-response","243","2084108","0.0-241.0","A2GJBE6D4GIADZ","img_art/5.jpg","5","","","","","","","","","","","","","","","","","","","","","","","","",""
"1638","","image-button-response","244","2085749","0.0-242.0-0.0","A2GJBE6D4GIADZ","img_art/5.jpg","0","","","","","","","","","","","","","","","","","","","","","","","","",""
"2742","","image-button-response","245","2088495","0.0-243.0-0.0","A2GJBE6D4GIADZ","img_art/5.jpg","1","","","","","","","","","","","","","","","","","","","","","","","","",""
"null","","html-keyboard-response","246","2089997","0.0-244.0","A2GJBE6D4GIADZ","<p style=""font-size: 48px;"">+</p>","","","","","null","allTrialResponses","1500","1","28","img_art/5.jpg","8","A bell? I could see this in a modern, cool salon.","Grace,Morgan,Cynthia,Jamie,Alicia,Rachel","Looks like a yellow plastic trash bag.,-42,180,20","Dull pyramid that says nothing.,7,380,20","boring and unsure,-25,320,20","Don't really see it and yellow/pink don't go well together,-35,320,20","pointless, ugly, not creative.,-50,120,20","Not sure what to make of this one.,-1,80,20","Rachel","Not sure what to make of this one.,-1,80,20","Grace","Looks like a yellow plastic trash bag.,-42,180,20","Morgan","Dull pyramid that says nothing.,7,380,20","4"
"29209","","survey-text","247","2119219","0.0-245.0-0.0","A2GJBE6D4GIADZ","","","","{""Q0"":""Looks like an illustration in a children's book that I wouldn't be interested in.""}","","","","","","","","","","","","","","","","","","","","","","",""
"4692.800000071526","","image-slider-response","248","2123914","0.0-246.0","A2GJBE6D4GIADZ","","","","","-38","","","","","","","","","","","","","","","","","","","","","",""
"null","","image-button-response","249","2128928","0.0-247.0","A2GJBE6D4GIADZ","img_art/6.jpg","null","","","","","","","","","","","","","","","","","","","","","","","","",""
"10761","","image-button-response","250","2139691","0.0-248.0","A2GJBE6D4GIADZ","img_art/6.jpg","5","","","","","","","","","","","","","","","","","","","","","","","","",""
"1296","","image-button-response","251","2140991","0.0-249.0-0.0","A2GJBE6D4GIADZ","img_art/6.jpg","0","","","","","","","","","","","","","","","","","","","","","","","","",""
"1038","","image-button-response","252","2142032","0.0-250.0-0.0","A2GJBE6D4GIADZ","img_art/6.jpg","1","","","","","","","","","","","","","","","","","","","","","","","","",""
"null","","html-keyboard-response","253","2143041","0.0-251.0","A2GJBE6D4GIADZ","<p style=""font-size: 48px;"">+</p>","","","","","null","allTrialResponses","1000","1","29","img_art/6.jpg","-38","Looks like an illustration in a children's book that I wouldn't be interested in.","Grace,Morgan,Nicole,Mariah,Erica,Rachel","Growth in the desert?  Don't care for it very much.,-26,180,20","Desert that's too simple.,-15,380,20","The colors and rough brush strokes make me nervous,-10,20,20","Clean and simple, a pleasant resting place for the eyes.,21,140,20","positive because of bright colours and a bird,20,80,20","Reminds me of a plant poking through the soil. It reminds me of new life.,31,80,20","Rachel","Reminds me of a plant poking through the soil. It reminds me of new life.,31,80,20","Grace","Growth in the desert?  Don't care for it very much.,-26,180,20","Morgan","Desert that's too simple.,-15,380,20","4"
"30932","","survey-text","254","2173986","0.0-252.0-0.0","A2GJBE6D4GIADZ","","","","{""Q0"":""Somewhat got marker-happy. Not interesting.""}","","","","","","","","","","","","","","","","","","","","","","",""
"7681.5","","image-slider-response","255","2181670","0.0-253.0","A2GJBE6D4GIADZ","","","","","-49","","","","","","","","","","","","","","","","","","","","","",""
"null","","image-button-response","256","2186687","0.0-254.0","A2GJBE6D4GIADZ","img_art/15.jpg","null","","","","","","","","","","","","","","","","","","","","","","","","",""
"29563","","image-button-response","257","2216253","0.0-255.0","A2GJBE6D4GIADZ","img_art/15.jpg","4","","","","","","","","","","","","","","","","","","","","","","","","",""
"1625","","image-button-response","258","2217881","0.0-256.0-0.0","A2GJBE6D4GIADZ","img_art/15.jpg","5","","","","","","","","","","","","","","","","","","","","","","","","",""
"1267","","image-button-response","259","2219152","0.0-257.0-0.0","A2GJBE6D4GIADZ","img_art/15.jpg","0","","","","","","","","","","","","","","","","","","","","","","","","",""
"null","","html-keyboard-response","260","2220165","0.0-258.0","A2GJBE6D4GIADZ","<p style=""font-size: 48px;"">+</p>","","","","","null","allTrialResponses","1000","1","30","img_art/15.jpg","-49","Somewhat got marker-happy. Not interesting.","Grace,Morgan,Madeline,Lauren,Briana,Rachel","Interesting. Reminds me of a biopsy slide.,21,180,20","Leafs spread on the ground.,27,380,20","Simple but needs some more detail somehow,-3,40,20","Hard to tell what I'm looking at, but it does a gives a slight impression of a of garden.,5,340,20","It reminds me of when you look up into a tree,21,400,20","Reminds me of blue birds in a tree at night. I love nature.,40,80,20","Briana","It reminds me of when you look up into a tree,21,400,20","Rachel","Reminds me of blue birds in a tree at night. I love nature.,40,80,20","Grace","Interesting. Reminds me of a biopsy slide.,21,180,20","4"
"4321","","image-button-response_instructions","261","2224496","0.0-259.0","A2GJBE6D4GIADZ","","0","instructions","","","","","","","","","","","","","","","","","","","","","","","",""
"1570","","image-button-response","262","2226076","0.0-260.0","A2GJBE6D4GIADZ","","0","","","","","","","","","","","","","","","","","","","","","","","","",""
