"rt","url","trial_type","trial_index","time_elapsed","internal_node_id","participant_id","stimulus","button_pressed","Name","responses","response","key_press","variableName","fixationTime","condition","trial","photo","subjectRating","subjectResponse","agentsNames","agent_1_Response","agent_2_Response","agent_3_Response","agent_4_Response","agent_5_Response","agent_6_Response","kept_1_name","kept_1_response","kept_2_name","kept_2_response","kept_3_name","kept_3_response","errorCounter"
"37210","external_page_harvard.html","external-html","0","37363","0.0-0.0","A2GSLJEIPG3QD9","","","","","","","","","","","","","","","","","","","","","","","","","","",""
"14838","","image-button-response","1","52204","0.0-1.0","A2GSLJEIPG3QD9","","0","","","","","","","","","","","","","","","","","","","","","","","","",""
"6755","","image-button-response","2","58969","0.0-2.0-0.0","A2GSLJEIPG3QD9","","1","phone","","","","","","","","","","","","","","","","","","","","","","","",""
"7116","","survey-text","3","66087","0.0-3.0-0.0","A2GSLJEIPG3QD9","","","","{""Q0"":""A2GSLJEIPG3QD9""}","","","","","","","","","","","","","","","","","","","","","","",""
"7438","","image-button-response_instructions","4","73528","0.0-4.0","A2GSLJEIPG3QD9","","0","instructions","","","","","","","","","","","","","","","","","","","","","","","",""
"24798","","image-button-response_instructions","5","98327","0.0-5.0","A2GSLJEIPG3QD9","img_art/ins/popularity/ins1.png","0","instructions","","","","","","","","","","","","","","","","","","","","","","","",""
"9848","","image-button-response_instructions","6","108176","0.0-6.0","A2GSLJEIPG3QD9","img_art/ins/popularity/ins2.png","0","instructions","","","","","","","","","","","","","","","","","","","","","","","",""
"4203","","image-button-response_instructions","7","112380","0.0-7.0","A2GSLJEIPG3QD9","img_art/ins/popularity/ins2Extreme.png","0","instructions","","","","","","","","","","","","","","","","","","","","","","","",""
"4532","","image-button-response_instructions","8","116914","0.0-8.0","A2GSLJEIPG3QD9","img_art/ins/popularity/ins3KEEPpop.PNG","0","instructions","","","","","","","","","","","","","","","","","","","","","","","",""
"3179","","image-button-response_instructions","9","120094","0.0-9.0","A2GSLJEIPG3QD9","img_art/ins/popularity/ins3ANamepop.PNG","0","instructions","","","","","","","","","","","","","","","","","","","","","","","",""
"3563","","image-button-response_instructions","10","123659","0.0-10.0","A2GSLJEIPG3QD9","img_art/ins/popularity/ins3ARatingpop.png","0","instructions","","","","","","","","","","","","","","","","","","","","","","","",""
"2537","","image-button-response_instructions","11","126199","0.0-11.0","A2GSLJEIPG3QD9","img_art/ins/popularity/ins3ATextpop.png","0","instructions","","","","","","","","","","","","","","","","","","","","","","","",""
"6151","","image-button-response_instructions","12","132351","0.0-12.0","A2GSLJEIPG3QD9","img_art/ins/popularity/ins3ALikespop.png","0","instructions","","","","","","","","","","","","","","","","","","","","","","","",""
"10116","","image-button-response_instructions","13","142469","0.0-13.0","A2GSLJEIPG3QD9","img_art/ins/popularity/ins3KEEPpop.PNG","0","instructions","","","","","","","","","","","","","","","","","","","","","","","",""
"6590","","image-button-response_instructions","14","149062","0.0-14.0","A2GSLJEIPG3QD9","img_art/ins/popularity/ins3_5RED.png","0","instructions","","","","","","","","","","","","","","","","","","","","","","","",""
"8351","","image-button-response_instructions","15","157413","0.0-15.0","A2GSLJEIPG3QD9","img_art/ins/popularity/ins3KEEPpop.PNG","0","instructions","","","","","","","","","","","","","","","","","","","","","","","",""
"6568","","image-button-response_instructions","16","163983","0.0-16.0","A2GSLJEIPG3QD9","img_art/ins/popularity/ins4KEEPpop.PNG","0","instructions","","","","","","","","","","","","","","","","","","","","","","","",""
"7691","","image-button-response_instructions","17","171675","0.0-17.0","A2GSLJEIPG3QD9","img_art/ins/popularity/ins5KEEPpop.PNG","0","instructions","","","","","","","","","","","","","","","","","","","","","","","",""
"1603","","image-button-response_instructions","18","173278","0.0-18.0","A2GSLJEIPG3QD9","","0","instructions","","","","","","","","","","","","","","","","","","","","","","","",""
"12870","","survey-text","19","186184","0.0-19.0-0.0","A2GSLJEIPG3QD9","","","","{""Q0"":""but""}","","","","","","","","","","","","","","","","","","","","","","",""
"15840","","survey-text","20","202027","0.0-20.0-0.0","A2GSLJEIPG3QD9","","","","{""Q0"":""it looks childish""}","","","","","","","","","","","","","","","","","","","","","","",""
"3794","","image-slider-response","21","205824","0.0-21.0","A2GSLJEIPG3QD9","","","","","-41","","","","","","","","","","","","","","","","","","","","","",""
"null","","image-button-response","22","210827","0.0-22.0","A2GSLJEIPG3QD9","img_art/ins/1.jpg","null","","","","","","","","","","","","","","","","","","","","","","","","",""
"3038","","image-button-response","23","213867","0.0-23.0","A2GSLJEIPG3QD9","img_art/ins/1.jpg","4","","","","","","","","","","","","","","","","","","","","","","","","",""
"983","","image-button-response","24","214851","0.0-24.0-0.0","A2GSLJEIPG3QD9","img_art/ins/1.jpg","2","","","","","","","","","","","","","","","","","","","","","","","","",""
"933","","image-button-response","25","215788","0.0-25.0-0.0","A2GSLJEIPG3QD9","img_art/ins/1.jpg","0","","","","","","","","","","","","","","","","","","","","","","","","",""
"null","","html-keyboard-response","26","217290","0.0-26.0","A2GSLJEIPG3QD9","<p style=""font-size: 48px;"">+</p>","","","","","null","allTrialResponses","1500","1","-2","img_art/ins/1.jpg","-41","it looks childish","Adam,Alex,Ben,Carl,Daniel,Jack","Seems like doodles,-20,20,20","very creative work.,36,40,20","This color reminds me of poo,-46,60,20","very calming artwork,42,80,20","It looks like a murder scene.,-48,100,20","I like the sophisticated brushwork,40,120,20","Daniel","It looks like a murder scene.,-48,100,20","Ben","This color reminds me of poo,-46,60,20","Adam","Seems like doodles,-20,20,20","0"
"44299","","survey-text","27","261600","0.0-27.0-0.0","A2GSLJEIPG3QD9","","","","{""Q0"":""it looks like something that has been blurred""}","","","","","","","","","","","","","","","","","","","","","","",""
"6516","","image-slider-response","28","268118","0.0-28.0","A2GSLJEIPG3QD9","","","","","-26","","","","","","","","","","","","","","","","","","","","","",""
"4968","","image-button-response","29","273121","0.0-29.0","A2GSLJEIPG3QD9","img_art/ins/2.jpg","3","","","","","","","","","","","","","","","","","","","","","","","","",""
"1770","","image-button-response","30","274892","0.0-30.0","A2GSLJEIPG3QD9","img_art/ins/2.jpg","4","","","","","","","","","","","","","","","","","","","","","","","","",""
"814","","image-button-response","31","275709","0.0-31.0-0.0","A2GSLJEIPG3QD9","img_art/ins/2.jpg","2","","","","","","","","","","","","","","","","","","","","","","","","",""
"5472","","image-button-response","32","281183","0.0-32.0-0.0","A2GSLJEIPG3QD9","img_art/ins/2.jpg","3","","","","","","","","","","","","","","","","","","","","","","","","",""
"null","","html-keyboard-response","33","282187","0.0-33.0","A2GSLJEIPG3QD9","<p style=""font-size: 48px;"">+</p>","","","","","null","allTrialResponses","1000","1","-1","img_art/ins/2.jpg","-26","it looks like something that has been blurred","Adam,John,Ben,James,Daniel,Kyle","too much color,-18,20,20","love the texture of paint,48,160,20","meaningless painting,-45,60,20","looks too angry,-50,140,20","One of my pet peevs,-48,100,20","Idk, it is just annoying,-32,180,20","Daniel","One of my pet peevs,-48,100,20","Ben","meaningless painting,-45,60,20","James","looks too angry,-50,140,20","0"
"12508","","survey-text","34","294702","0.0-34.0-0.0","A2GSLJEIPG3QD9","","","","{""Q0"":""the colors look nice together""}","","","","","","","","","","","","","","","","","","","","","","",""
"3853","","image-slider-response","35","298555","0.0-35.0","A2GSLJEIPG3QD9","","","","","5","","","","","","","","","","","","","","","","","","","","","",""
"null","","image-button-response","36","303559","0.0-36.0","A2GSLJEIPG3QD9","img_art/ins/3.jpg","null","","","","","","","","","","","","","","","","","","","","","","","","",""
"30052","","image-button-response","37","333612","0.0-37.0","A2GSLJEIPG3QD9","img_art/ins/3.jpg","0","","","","","","","","","","","","","","","","","","","","","","","","",""
"1031","","image-button-response","38","334646","0.0-38.0-0.0","A2GSLJEIPG3QD9","img_art/ins/3.jpg","5","","","","","","","","","","","","","","","","","","","","","","","","",""
"1690","","image-button-response","39","336339","0.0-39.0-0.0","A2GSLJEIPG3QD9","img_art/ins/3.jpg","1","","","","","","","","","","","","","","","","","","","","","","","","",""
"null","","html-keyboard-response","40","337840","0.0-40.0","A2GSLJEIPG3QD9","<p style=""font-size: 48px;"">+</p>","","","","","null","allTrialResponses","1500","1","0","img_art/ins/3.jpg","5","the colors look nice together","Mike,Ron,Ben,James,Daniel,Sam","enjoy the different shades of blue,22,200,20","It looks depressing,-26,220,20","This thing gives me anxiety,-41,60,20","My worst nightmare,-42,140,20","looks like a murder room,-35,100,20","I can feel a rainy day from this painting,18,240,20","Mike","enjoy the different shades of blue,22,200,20","Sam","I can feel a rainy day from this painting,18,240,20","Ron","It looks depressing,-26,220,20","0"
"6368","","image-button-response_instructions","41","344216","0.0-41.0","A2GSLJEIPG3QD9","","0","instructions","","","","","","","","","","","","","","","","","","","","","","","",""
"26611","","survey-likert","42","370828","0.0-42.0-0.0","A2GSLJEIPG3QD9","","","","{""Q0"":"""",""Q1"":0,""Q2"":1}","","","","","","","","","","","","","","","","","","","","","","",""
"4937","","survey-text","43","375771","0.0-43.0-0.0","A2GSLJEIPG3QD9","","","","{""Q0"":""rock""}","","","","","","","","","","","","","","","","","","","","","","",""
"10643","","survey-text","44","386415","0.0-44.0-0.0","A2GSLJEIPG3QD9","","","","{""Q0"":""it looks very messy""}","","","","","","","","","","","","","","","","","","","","","","",""
"8165","","image-slider-response","45","394582","0.0-45.0","A2GSLJEIPG3QD9","","","","","-39","","","","","","","","","","","","","","","","","","","","","",""
"2531","","image-button-response","46","399600","0.0-46.0","A2GSLJEIPG3QD9","img_art/1.jpg","1","","","","","","","","","","","","","","","","","","","","","","","","",""
"2483","","image-button-response","47","402084","0.0-47.0","A2GSLJEIPG3QD9","img_art/1.jpg","1","","","","","","","","","","","","","","","","","","","","","","","","",""
"1355","","image-button-response","48","403440","0.0-48.0-0.0","A2GSLJEIPG3QD9","img_art/1.jpg","5","","","","","","","","","","","","","","","","","","","","","","","","",""
"1311","","image-button-response","49","404753","0.0-49.0-0.0","A2GSLJEIPG3QD9","img_art/1.jpg","2","","","","","","","","","","","","","","","","","","","","","","","","",""
"null","","html-keyboard-response","50","406257","0.0-50.0","A2GSLJEIPG3QD9","<p style=""font-size: 48px;"">+</p>","","","","","null","allTrialResponses","1500","1","1","img_art/1.jpg","-39","it looks very messy","Derek,Stephen,Brendan,Cody,Anthony,Jacob","The blend of colors are gorgeous and reminds me of fall,32,360,20","Nothing really going on but good color choices.,-3,140,20","a colorful piece of art,25,340,20","Pretty, nice use of color,40,180,20","Bright and colorful without being overpowering,32,200,20","Looks like the same thing as the last piece shown to me,10,340,20","Stephen","Nothing really going on but good color choices.,-3,140,20","Jacob","Looks like the same thing as the last piece shown to me,10,340,20","Brendan","a colorful piece of art,25,340,20","0"
"303513","","survey-text","51","709776","0.0-51.0-0.0","A2GSLJEIPG3QD9","","","","{""Q0"":""it reminds me of a bunch of blurry photographs all put together""}","","","","","","","","","","","","","","","","","","","","","","",""
"5550","","image-slider-response","52","715329","0.0-52.0","A2GSLJEIPG3QD9","","","","","-7","","","","","","","","","","","","","","","","","","","","","",""
"2272","","image-button-response","53","720333","0.0-53.0","A2GSLJEIPG3QD9","img_art/12.jpg","1","","","","","","","","","","","","","","","","","","","","","","","","",""
"1212","","image-button-response","54","721547","0.0-54.0","A2GSLJEIPG3QD9","img_art/12.jpg","2","","","","","","","","","","","","","","","","","","","","","","","","",""
"1127","","image-button-response","55","722677","0.0-55.0-0.0","A2GSLJEIPG3QD9","img_art/12.jpg","1","","","","","","","","","","","","","","","","","","","","","","","","",""
"974","","image-button-response","56","723654","0.0-56.0-0.0","A2GSLJEIPG3QD9","img_art/12.jpg","0","","","","","","","","","","","","","","","","","","","","","","","","",""
"null","","html-keyboard-response","57","724656","0.0-57.0","A2GSLJEIPG3QD9","<p style=""font-size: 48px;"">+</p>","","","","","null","allTrialResponses","1000","1","2","img_art/12.jpg","-7","it reminds me of a bunch of blurry photographs all put together","Bryce,Stephen,Brendan,Austin,Shane,Jacob","A little bit boring.,-24,20,20","Comes off as a bit boring.,-11,140,20","wtf is that i dont get it,-50,340,20","Explosion of texture,31,240,20","Something you would see in a government building hallway,3,80,20","I like this concept.,11,340,20","Brendan","wtf is that i dont get it,-50,340,20","Stephen","Comes off as a bit boring.,-11,140,20","Bryce","A little bit boring.,-24,20,20","0"
"22509","","survey-text","58","747178","0.0-58.0-0.0","A2GSLJEIPG3QD9","","","","{""Q0"":""it looks like a child scribbled on the wall""}","","","","","","","","","","","","","","","","","","","","","","",""
"4304","","image-slider-response","59","751483","0.0-59.0","A2GSLJEIPG3QD9","","","","","-44","","","","","","","","","","","","","","","","","","","","","",""
"null","","image-button-response","60","756488","0.0-60.0","A2GSLJEIPG3QD9","img_art/3.jpg","null","","","","","","","","","","","","","","","","","","","","","","","","",""
"1736","","image-button-response","61","758226","0.0-61.0","A2GSLJEIPG3QD9","img_art/3.jpg","1","","","","","","","","","","","","","","","","","","","","","","","","",""
"1593","","image-button-response","62","759820","0.0-62.0-0.0","A2GSLJEIPG3QD9","img_art/3.jpg","1","","","","","","","","","","","","","","","","","","","","","","","","",""
"1018","","image-button-response","63","764664","0.0-62.1-0.1","A2GSLJEIPG3QD9","img_art/3.jpg","1","","","","","","","","","","","","","","","","","","","","","","","","",""
"1216","","image-button-response","64","767995","0.0-62.2-0.2","A2GSLJEIPG3QD9","img_art/3.jpg","3","","","","","","","","","","","","","","","","","","","","","","","","",""
"8487","","image-button-response","65","776485","0.0-63.0-0.0","A2GSLJEIPG3QD9","img_art/3.jpg","1","","","","","","","","","","","","","","","","","","","","","","","","",""
"811","","image-button-response","66","780615","0.0-63.1-0.1","A2GSLJEIPG3QD9","img_art/3.jpg","1","","","","","","","","","","","","","","","","","","","","","","","","",""
"409","","image-button-response","67","781028","0.0-63.2-0.2","A2GSLJEIPG3QD9","img_art/3.jpg","1","","","","","","","","","","","","","","","","","","","","","","","","",""
"263","","image-button-response","68","781292","0.0-63.3-0.3","A2GSLJEIPG3QD9","img_art/3.jpg","1","","","","","","","","","","","","","","","","","","","","","","","","",""
"230","","image-button-response","69","781524","0.0-63.4-0.4","A2GSLJEIPG3QD9","img_art/3.jpg","1","","","","","","","","","","","","","","","","","","","","","","","","",""
"207","","image-button-response","70","781733","0.0-63.5-0.5","A2GSLJEIPG3QD9","img_art/3.jpg","1","","","","","","","","","","","","","","","","","","","","","","","","",""
"359","","image-button-response","71","782093","0.0-63.6-0.6","A2GSLJEIPG3QD9","img_art/3.jpg","1","","","","","","","","","","","","","","","","","","","","","","","","",""
"1873","","image-button-response","72","783969","0.0-63.7-0.7","A2GSLJEIPG3QD9","img_art/3.jpg","3","","","","","","","","","","","","","","","","","","","","","","","","",""
"1088","","image-button-response","73","785059","0.0-63.8-0.8","A2GSLJEIPG3QD9","img_art/3.jpg","3","","","","","","","","","","","","","","","","","","","","","","","","",""
"2178","","image-button-response","74","787238","0.0-63.9-0.9","A2GSLJEIPG3QD9","img_art/3.jpg","0","","","","","","","","","","","","","","","","","","","","","","","","",""
"null","","html-keyboard-response","75","788242","0.0-64.0","A2GSLJEIPG3QD9","<p style=""font-size: 48px;"">+</p>","","","","","null","allTrialResponses","1000","1","3","img_art/3.jpg","-44","it looks like a child scribbled on the wall","Bryce,Stephen,Brendan,Patrick,James,Angel","Scary. Looks like blood.,-45,20,20","Don't see what the purpose is.,-31,140,20","i really cant get it,-44,340,20","Random use of red and looks scary,-50,280,20","It's very plain,-20,380,20","This gives me a negative feeling, like someone trying to scratch out their flaws. I see low self-esteem.,-20,180,20","Stephen","Don't see what the purpose is.,-31,140,20","Patrick","Random use of red and looks scary,-50,280,20","Bryce","Scary. Looks like blood.,-45,20,20","22"
"21742","","survey-text","76","809997","0.0-65.0-0.0","A2GSLJEIPG3QD9","","","","{""Q0"":""it looks like something a child would make in art class""}","","","","","","","","","","","","","","","","","","","","","","",""
"4607","","image-slider-response","77","814606","0.0-66.0","A2GSLJEIPG3QD9","","","","","-21","","","","","","","","","","","","","","","","","","","","","",""
"4446","","image-button-response","78","819611","0.0-67.0","A2GSLJEIPG3QD9","img_art/27.jpg","3","","","","","","","","","","","","","","","","","","","","","","","","",""
"1726","","image-button-response","79","821340","0.0-68.0","A2GSLJEIPG3QD9","img_art/27.jpg","5","","","","","","","","","","","","","","","","","","","","","","","","",""
"1409","","image-button-response","80","822750","0.0-69.0-0.0","A2GSLJEIPG3QD9","img_art/27.jpg","2","","","","","","","","","","","","","","","","","","","","","","","","",""
"1512","","image-button-response","81","824265","0.0-70.0-0.0","A2GSLJEIPG3QD9","img_art/27.jpg","3","","","","","","","","","","","","","","","","","","","","","","","","",""
"null","","html-keyboard-response","82","825767","0.0-71.0","A2GSLJEIPG3QD9","<p style=""font-size: 48px;"">+</p>","","","","","null","allTrialResponses","1500","1","4","img_art/27.jpg","-21","it looks like something a child would make in art class","Bryce,Stephen,Connor,Patrick,Peter,Carlos","It kinda reminds me of sushi.,16,20,20","This one does nothing for me.,2,140,20","Looks like someone vandalized the original piece with a marker,-36,240,20","Not cohesive design,-31,280,20","Calming sky , relaxing,23,320,20","The green lines disrupt the image in an unpleasant and hurried way.,-30,80,20","Carlos","The green lines disrupt the image in an unpleasant and hurried way.,-30,80,20","Connor","Looks like someone vandalized the original piece with a marker,-36,240,20","Patrick","Not cohesive design,-31,280,20","22"
"19510","","survey-text","83","845289","0.0-72.0-0.0","A2GSLJEIPG3QD9","","","","{""Q0"":""it think it's a picture of ahand""}","","","","","","","","","","","","","","","","","","","","","","",""
"4121","","image-slider-response","84","849411","0.0-73.0","A2GSLJEIPG3QD9","","","","","-7","","","","","","","","","","","","","","","","","","","","","",""
"3385","","image-button-response","85","854413","0.0-74.0","A2GSLJEIPG3QD9","img_art/4.jpg","1","","","","","","","","","","","","","","","","","","","","","","","","",""
"1054","","image-button-response","86","855468","0.0-75.0","A2GSLJEIPG3QD9","img_art/4.jpg","2","","","","","","","","","","","","","","","","","","","","","","","","",""
"872","","image-button-response","87","856342","0.0-76.0-0.0","A2GSLJEIPG3QD9","img_art/4.jpg","1","","","","","","","","","","","","","","","","","","","","","","","","",""
"4092","","image-button-response","88","860437","0.0-77.0-0.0","A2GSLJEIPG3QD9","img_art/4.jpg","0","","","","","","","","","","","","","","","","","","","","","","","","",""
"null","","html-keyboard-response","89","861939","0.0-78.0","A2GSLJEIPG3QD9","<p style=""font-size: 48px;"">+</p>","","","","","null","allTrialResponses","1500","1","5","img_art/4.jpg","-7","it think it's a picture of ahand","Cameron,Bradley,Connor,Patrick,Jesse,Carlos","Looks like the roomba got into dog poop,-30,60,20","This looks like what happens when someone steps on a mustard packet.,-7,300,20","Seems simplistic,-8,240,20","Random swirls again,-30,280,20","I like the warmth in the colors. Its reassuring.,9,80,20","Movement. Snakes. Hair. The uncertainty makes my eye return.,21,80,20","Connor","Seems simplistic,-8,240,20","Bradley","This looks like what happens when someone steps on a mustard packet.,-7,300,20","Cameron","Looks like the roomba got into dog poop,-30,60,20","22"
"4515","","survey-text","90","866466","0.0-79.0-0.0","A2GSLJEIPG3QD9","","","","{""Q0"":""sky""}","","","","","","","","","","","","","","","","","","","","","","",""
"26827","","survey-text","91","893293","0.0-80.0-0.0","A2GSLJEIPG3QD9","","","","{""Q0"":""this might look nice hanging in my bathroom""}","","","","","","","","","","","","","","","","","","","","","","",""
"3429","","image-slider-response","92","896724","0.0-81.0","A2GSLJEIPG3QD9","","","","","16","","","","","","","","","","","","","","","","","","","","","",""
"null","","image-button-response","93","901727","0.0-82.0","A2GSLJEIPG3QD9","img_art/26.jpg","null","","","","","","","","","","","","","","","","","","","","","","","","",""
"416","","image-button-response","94","902143","0.0-83.0","A2GSLJEIPG3QD9","img_art/26.jpg","2","","","","","","","","","","","","","","","","","","","","","","","","",""
"616","","image-button-response","95","902760","0.0-84.0-0.0","A2GSLJEIPG3QD9","img_art/26.jpg","1","","","","","","","","","","","","","","","","","","","","","","","","",""
"512","","image-button-response","96","903273","0.0-85.0-0.0","A2GSLJEIPG3QD9","img_art/26.jpg","0","","","","","","","","","","","","","","","","","","","","","","","","",""
"null","","html-keyboard-response","97","904775","0.0-86.0","A2GSLJEIPG3QD9","<p style=""font-size: 48px;"">+</p>","","","","","null","allTrialResponses","1500","1","6","img_art/26.jpg","16","this might look nice hanging in my bathroom","Cameron,Bradley,Connor,Timothy,Juan,Taylor","street scene is okay?,15,60,20","I like this. Looks like a city street and I can use my imagination to make it come alive.,15,300,20","City scene in a park,23,240,20","Very pleasent little scene,40,240,20","Something I'd see in a thrift store. It looks like not much effort was used to paint this.,9,260,20","At least it is a bit of scenery.,10,200,20","Connor","City scene in a park,23,240,20","Bradley","I like this. Looks like a city street and I can use my imagination to make it come alive.,15,300,20","Cameron","street scene is okay?,15,60,20","22"
"23149","","survey-text","98","927929","0.0-87.0-0.0","A2GSLJEIPG3QD9","","","","{""Q0"":""it would loook better without all of the splashes of paint on it""}","","","","","","","","","","","","","","","","","","","","","","",""
"4349","","image-slider-response","99","932280","0.0-88.0","A2GSLJEIPG3QD9","","","","","-27","","","","","","","","","","","","","","","","","","","","","",""
"null","","image-button-response","100","937282","0.0-89.0","A2GSLJEIPG3QD9","img_art/13.jpg","null","","","","","","","","","","","","","","","","","","","","","","","","",""
"248","","image-button-response","101","937532","0.0-90.0","A2GSLJEIPG3QD9","img_art/13.jpg","1","","","","","","","","","","","","","","","","","","","","","","","","",""
"4799","","image-button-response","102","942333","0.0-91.0-0.0","A2GSLJEIPG3QD9","img_art/13.jpg","3","","","","","","","","","","","","","","","","","","","","","","","","",""
"839","","image-button-response","103","943174","0.0-92.0-0.0","A2GSLJEIPG3QD9","img_art/13.jpg","4","","","","","","","","","","","","","","","","","","","","","","","","",""
"null","","html-keyboard-response","104","944677","0.0-93.0","A2GSLJEIPG3QD9","<p style=""font-size: 48px;"">+</p>","","","","","null","allTrialResponses","1500","1","7","img_art/13.jpg","-27","it would loook better without all of the splashes of paint on it","Cameron,Bradley,Connor,Christian,Alexander,Richard","Like the use of color, not a fan of the splatter,29,60,20","I like the colors used in this piece.,2,300,20","Color palette is complementary,40,240,20","love the style but not very novel,9,140,20","Seeing the world through different lenses.,15,120,20","kind of like the pattern and colors but don't love it,13,340,20","Bradley","I like the colors used in this piece.,2,300,20","Christian","love the style but not very novel,9,140,20","Alexander","Seeing the world through different lenses.,15,120,20","22"
"31846","","survey-text","105","976530","0.0-94.0-0.0","A2GSLJEIPG3QD9","","","","{""Q0"":""I have no clue what this is supposed to be, maybe a pyramid""}","","","","","","","","","","","","","","","","","","","","","","",""
"4529","","image-slider-response","106","981060","0.0-95.0","A2GSLJEIPG3QD9","","","","","-47","","","","","","","","","","","","","","","","","","","","","",""
"3631","","image-button-response","107","986062","0.0-96.0","A2GSLJEIPG3QD9","img_art/5.jpg","5","","","","","","","","","","","","","","","","","","","","","","","","",""
"561","","image-button-response","108","986624","0.0-97.0","A2GSLJEIPG3QD9","img_art/5.jpg","3","","","","","","","","","","","","","","","","","","","","","","","","",""
"1017","","image-button-response","109","987643","0.0-98.0-0.0","A2GSLJEIPG3QD9","img_art/5.jpg","5","","","","","","","","","","","","","","","","","","","","","","","","",""
"2886","","image-button-response","110","990530","0.0-99.0-0.0","A2GSLJEIPG3QD9","img_art/5.jpg","0","","","","","","","","","","","","","","","","","","","","","","","","",""
"null","","html-keyboard-response","111","991032","0.0-100.0","A2GSLJEIPG3QD9","<p style=""font-size: 48px;"">+</p>","","","","","null","allTrialResponses","500","1","8","img_art/5.jpg","-47","I have no clue what this is supposed to be, maybe a pyramid","Malik,Bradley,Justin,Christian,Alexander,Jonathan","Not sure what I'm looking at,-16,40,20","Looks like a tied up trash bag.,-10,300,20","Although it's very simple, there's something about the colors that really draws the eye.,11,280,20","sorry not my style,-37,140,20","Dull pyramid that says nothing.,7,120,20","I hate the shapes,-30,140,20","Christian","sorry not my style,-37,140,20","Jonathan","I hate the shapes,-30,140,20","Malik","Not sure what I'm looking at,-16,40,20","22"
"27314","","survey-text","112","1018350","0.0-101.0-0.0","A2GSLJEIPG3QD9","","","","{""Q0"":""it reminds me of car traffic""}","","","","","","","","","","","","","","","","","","","","","","",""
"4286","","image-slider-response","113","1022637","0.0-102.0","A2GSLJEIPG3QD9","","","","","-5","","","","","","","","","","","","","","","","","","","","","",""
"null","","image-button-response","114","1027639","0.0-103.0","A2GSLJEIPG3QD9","img_art/11.jpg","null","","","","","","","","","","","","","","","","","","","","","","","","",""
"12374","","image-button-response","115","1040014","0.0-104.0","A2GSLJEIPG3QD9","img_art/11.jpg","2","","","","","","","","","","","","","","","","","","","","","","","","",""
"2571","","image-button-response","116","1042587","0.0-105.0-0.0","A2GSLJEIPG3QD9","img_art/11.jpg","1","","","","","","","","","","","","","","","","","","","","","","","","",""
"3368","","image-button-response","117","1045957","0.0-106.0-0.0","A2GSLJEIPG3QD9","img_art/11.jpg","0","","","","","","","","","","","","","","","","","","","","","","","","",""
"null","","html-keyboard-response","118","1046958","0.0-107.0","A2GSLJEIPG3QD9","<p style=""font-size: 48px;"">+</p>","","","","","null","allTrialResponses","1000","1","9","img_art/11.jpg","-5","it reminds me of car traffic","Malik,Kenneth,Jared,Christian,Steven,Jonathan","I want to know which skyline the artist is depicting,26,40,20","Its a little psychedelic.,10,300,20","i like the colors and patters and waves,5,400,20","to me, perfect reflection of the modern commute,32,140,20","Oh, I love this one, it says to me that life is very busy,50,160,20","Those vertical strokes are to die for and I love these colors !!!,50,140,20","Jared","i like the colors and patters and waves,5,400,20","Kenneth","Its a little psychedelic.,10,300,20","Malik","I want to know which skyline the artist is depicting,26,40,20","22"
"43090","","survey-text","119","1090052","0.0-108.0-0.0","A2GSLJEIPG3QD9","","","","{""Q0"":""I like the colors used in this painting""}","","","","","","","","","","","","","","","","","","","","","","",""
"5386","","image-slider-response","120","1095440","0.0-109.0","A2GSLJEIPG3QD9","","","","","14","","","","","","","","","","","","","","","","","","","","","",""
"4392","","image-button-response","121","1100443","0.0-110.0","A2GSLJEIPG3QD9","img_art/22.jpg","0","","","","","","","","","","","","","","","","","","","","","","","","",""
"961","","image-button-response","122","1101406","0.0-111.0","A2GSLJEIPG3QD9","img_art/22.jpg","0","","","","","","","","","","","","","","","","","","","","","","","","",""
"1434","","image-button-response","123","1102840","0.0-112.0-0.0","A2GSLJEIPG3QD9","img_art/22.jpg","0","","","","","","","","","","","","","","","","","","","","","","","","",""
"2949","","image-button-response","124","1105792","0.0-112.1-0.1","A2GSLJEIPG3QD9","img_art/22.jpg","4","","","","","","","","","","","","","","","","","","","","","","","","",""
"3854","","image-button-response","125","1109648","0.0-113.0-0.0","A2GSLJEIPG3QD9","img_art/22.jpg","5","","","","","","","","","","","","","","","","","","","","","","","","",""
"null","","html-keyboard-response","126","1110649","0.0-114.0","A2GSLJEIPG3QD9","<p style=""font-size: 48px;"">+</p>","","","","","null","allTrialResponses","1000","1","10","img_art/22.jpg","14","I like the colors used in this painting","Malik,Kenneth,Jared,Victor,Charles,Alejandro","Beautiful forms, using color to define shape,14,40,20","I really enjoy the blended colors.,20,300,20","colorful. but not much happening,1,400,20","I don't really know why, I just like looking at it,10,340,20","I like the key near the sphere in the center,19,100,20","Beautiful use of chalk or pastels. Love the abstract nature.,35,80,20","Malik","Beautiful forms, using color to define shape,14,40,20","Charles","I like the key near the sphere in the center,19,100,20","Alejandro","Beautiful use of chalk or pastels. Love the abstract nature.,35,80,20","24"
"4745","","survey-text","127","1115405","0.0-115.0-0.0","A2GSLJEIPG3QD9","","","","{""Q0"":""our""}","","","","","","","","","","","","","","","","","","","","","","",""
"35970","","survey-text","128","1151375","0.0-116.0-0.0","A2GSLJEIPG3QD9","","","","{""Q0"":""I think I see Death riding a carousel horse""}","","","","","","","","","","","","","","","","","","","","","","",""
"5491","","image-slider-response","129","1156867","0.0-117.0","A2GSLJEIPG3QD9","","","","","-14","","","","","","","","","","","","","","","","","","","","","",""
"null","","image-button-response","130","1161871","0.0-118.0","A2GSLJEIPG3QD9","img_art/18.jpg","null","","","","","","","","","","","","","","","","","","","","","","","","",""
"2685","","image-button-response","131","1164556","0.0-119.0","A2GSLJEIPG3QD9","img_art/18.jpg","3","","","","","","","","","","","","","","","","","","","","","","","","",""
"1137","","image-button-response","132","1165694","0.0-120.0-0.0","A2GSLJEIPG3QD9","img_art/18.jpg","1","","","","","","","","","","","","","","","","","","","","","","","","",""
"607","","image-button-response","133","1166303","0.0-121.0-0.0","A2GSLJEIPG3QD9","img_art/18.jpg","2","","","","","","","","","","","","","","","","","","","","","","","","",""
"null","","html-keyboard-response","134","1166804","0.0-122.0","A2GSLJEIPG3QD9","<p style=""font-size: 48px;"">+</p>","","","","","null","allTrialResponses","500","1","11","img_art/18.jpg","-14","I think I see Death riding a carousel horse","Malik,Benjamin,Andrew,Edward,Charles,Alejandro","Gently chaotic and beautiful,40,40,20","ugly and lots of movement,-6,260,20","Another ominous painting,-10,160,20","Reminds me of the four horsemen of the apocalypse,29,60,20","I enjoy the detailed line work in this one,21,100,20","I love this because abstractly depicts the apocalypse. The white horse and its rider as Death, described in religious texts and pop culture. ""He rode a pale horse and his name was death."",50,80,20","Edward","Reminds me of the four horsemen of the apocalypse,29,60,20","Benjamin","ugly and lots of movement,-6,260,20","Andrew","Another ominous painting,-10,160,20","24"
"29605","","survey-text","135","1196416","0.0-123.0-0.0","A2GSLJEIPG3QD9","","","","{""Q0"":""it looks like it was made of images cut from magazines and newspapers""}","","","","","","","","","","","","","","","","","","","","","","",""
"3309","","image-slider-response","136","1199727","0.0-124.0","A2GSLJEIPG3QD9","","","","","-21","","","","","","","","","","","","","","","","","","","","","",""
"2908","","image-button-response","137","1204730","0.0-125.0","A2GSLJEIPG3QD9","img_art/16.jpg","2","","","","","","","","","","","","","","","","","","","","","","","","",""
"2682","","image-button-response","138","1207413","0.0-126.0","A2GSLJEIPG3QD9","img_art/16.jpg","0","","","","","","","","","","","","","","","","","","","","","","","","",""
"560","","image-button-response","139","1207975","0.0-127.0-0.0","A2GSLJEIPG3QD9","img_art/16.jpg","1","","","","","","","","","","","","","","","","","","","","","","","","",""
"632","","image-button-response","140","1208609","0.0-128.0-0.0","A2GSLJEIPG3QD9","img_art/16.jpg","2","","","","","","","","","","","","","","","","","","","","","","","","",""
"null","","html-keyboard-response","141","1209611","0.0-129.0","A2GSLJEIPG3QD9","<p style=""font-size: 48px;"">+</p>","","","","","null","allTrialResponses","1000","1","12","img_art/16.jpg","-21","it looks like it was made of images cut from magazines and newspapers","Jeremy,Benjamin,Andrew,Edward,Tanner,Dylan","very disturbed seening a gun in the same picture as a teddy bear,-50,60,20","Don't like the teddy bear. It takes away from the painting.,-39,260,20","It just makes me feel uncomfortable,-25,160,20","It feels lazily done,-9,60,20","sad. desth of childhood,-5,180,20","This is weird and creepy.,-40,40,20","Jeremy","very disturbed seening a gun in the same picture as a teddy bear,-50,60,20","Benjamin","Don't like the teddy bear. It takes away from the painting.,-39,260,20","Andrew","It just makes me feel uncomfortable,-25,160,20","24"
"44000","","survey-text","142","1253615","0.0-130.0-0.0","A2GSLJEIPG3QD9","","","","{""Q0"":""this picture reminds me of San Francisco""}","","","","","","","","","","","","","","","","","","","","","","",""
"6900","","image-slider-response","143","1260516","0.0-131.0","A2GSLJEIPG3QD9","","","","","9","","","","","","","","","","","","","","","","","","","","","",""
"null","","image-button-response","144","1265520","0.0-132.0","A2GSLJEIPG3QD9","img_art/19.jpg","null","","","","","","","","","","","","","","","","","","","","","","","","",""
"2933","","image-button-response","145","1268453","0.0-133.0","A2GSLJEIPG3QD9","img_art/19.jpg","0","","","","","","","","","","","","","","","","","","","","","","","","",""
"1081","","image-button-response","146","1269535","0.0-134.0-0.0","A2GSLJEIPG3QD9","img_art/19.jpg","1","","","","","","","","","","","","","","","","","","","","","","","","",""
"9266","","image-button-response","147","1278803","0.0-135.0-0.0","A2GSLJEIPG3QD9","img_art/19.jpg","2","","","","","","","","","","","","","","","","","","","","","","","","",""
"null","","html-keyboard-response","148","1279805","0.0-136.0","A2GSLJEIPG3QD9","<p style=""font-size: 48px;"">+</p>","","","","","null","allTrialResponses","1000","1","13","img_art/19.jpg","9","this picture reminds me of San Francisco","Jeremy,Benjamin,Andrew,Devon,David,Shawn","it's too busy for me. Makes me feel stressed.,1,60,20","Reminds me of a busy village.,16,260,20","It reminds me of sitting at a cafe on the side of a river.,45,160,20","this looks like a busy city lifestyle,24,400,20","The image doesn't really invoke any emotions strongly.,0,340,20","The use of space isn't my favorite.,-20,100,20","Jeremy","it's too busy for me. Makes me feel stressed.,1,60,20","Benjamin","Reminds me of a busy village.,16,260,20","Andrew","It reminds me of sitting at a cafe on the side of a river.,45,160,20","24"
"27555","","survey-text","149","1307372","0.0-137.0-0.0","A2GSLJEIPG3QD9","","","","{""Q0"":""it looks like a cookie magnified really close up""}","","","","","","","","","","","","","","","","","","","","","","",""
"5491","","image-slider-response","150","1312865","0.0-138.0","A2GSLJEIPG3QD9","","","","","-10","","","","","","","","","","","","","","","","","","","","","",""
"null","","image-button-response","151","1317867","0.0-139.0","A2GSLJEIPG3QD9","img_art/7.jpg","null","","","","","","","","","","","","","","","","","","","","","","","","",""
"6053","","image-button-response","152","1323922","0.0-140.0","A2GSLJEIPG3QD9","img_art/7.jpg","4","","","","","","","","","","","","","","","","","","","","","","","","",""
"10692","","image-button-response","153","1334615","0.0-141.0-0.0","A2GSLJEIPG3QD9","img_art/7.jpg","2","","","","","","","","","","","","","","","","","","","","","","","","",""
"3790","","image-button-response","154","1338406","0.0-142.0-0.0","A2GSLJEIPG3QD9","img_art/7.jpg","3","","","","","","","","","","","","","","","","","","","","","","","","",""
"null","","html-keyboard-response","155","1338909","0.0-143.0","A2GSLJEIPG3QD9","<p style=""font-size: 48px;"">+</p>","","","","","null","allTrialResponses","500","1","14","img_art/7.jpg","-10","it looks like a cookie magnified really close up","Jeremy,Benjamin,Andrew,Mason,Corey,Scott","Happy. Looking at the moon,43,60,20","Dull and confusing,-24,260,20","It makes me think of new archaeology discoveries,15,160,20","I don't get it. looks like a picture of the ground.,-42,100,20","looks like a close up of irritated skin under a microscope,-49,260,20","I don't like the texture,-49,20,20","Corey","looks like a close up of irritated skin under a microscope,-49,260,20","Andrew","It makes me think of new archaeology discoveries,15,160,20","Mason","I don't get it. looks like a picture of the ground.,-42,100,20","24"
"23132","","survey-text","156","1362045","0.0-144.0-0.0","A2GSLJEIPG3QD9","","","","{""Q0"":""I think it's a semi truck that was in an accident""}","","","","","","","","","","","","","","","","","","","","","","",""
"6238","","image-slider-response","157","1368286","0.0-145.0","A2GSLJEIPG3QD9","","","","","-42","","","","","","","","","","","","","","","","","","","","","",""
"null","","image-button-response","158","1373288","0.0-146.0","A2GSLJEIPG3QD9","img_art/20.jpg","null","","","","","","","","","","","","","","","","","","","","","","","","",""
"2964","","image-button-response","159","1376253","0.0-147.0","A2GSLJEIPG3QD9","img_art/20.jpg","1","","","","","","","","","","","","","","","","","","","","","","","","",""
"5336","","image-button-response","160","1381591","0.0-148.0-0.0","A2GSLJEIPG3QD9","img_art/20.jpg","4","","","","","","","","","","","","","","","","","","","","","","","","",""
"3446","","image-button-response","161","1385039","0.0-149.0-0.0","A2GSLJEIPG3QD9","img_art/20.jpg","5","","","","","","","","","","","","","","","","","","","","","","","","",""
"null","","html-keyboard-response","162","1386041","0.0-150.0","A2GSLJEIPG3QD9","<p style=""font-size: 48px;"">+</p>","","","","","null","allTrialResponses","1000","1","15","img_art/20.jpg","-42","I think it's a semi truck that was in an accident","Seth,Jesus,Andrew,Mason,Corey,Travis","I'm not sure why this reminds me of surrealism. It might be the colors used.,16,60,20","Shapes are fun to interpret,21,100,20","I just love this painting,47,160,20","Very cool, and calming (again) Love it.,47,100,20","It seems to be a neutral cool toned art piece. Gives me alamo/desert vibes,2,260,20","I liked this...I liked the blue and the black and I liked the smoothness to it.,31,260,20","Jesus","Shapes are fun to interpret,21,100,20","Corey","It seems to be a neutral cool toned art piece. Gives me alamo/desert vibes,2,260,20","Travis","I liked this...I liked the blue and the black and I liked the smoothness to it.,31,260,20","24"
"4173","","survey-text","163","1390223","0.0-151.0-0.0","A2GSLJEIPG3QD9","","","","{""Q0"":""course""}","","","","","","","","","","","","","","","","","","","","","","",""
"23500","","survey-text","164","1413726","0.0-152.0-0.0","A2GSLJEIPG3QD9","","","","{""Q0"":""I don't think the colors go well together""}","","","","","","","","","","","","","","","","","","","","","","",""
"4116","","image-slider-response","165","1417843","0.0-153.0","A2GSLJEIPG3QD9","","","","","-19","","","","","","","","","","","","","","","","","","","","","",""
"null","","image-button-response","166","1422846","0.0-154.0","A2GSLJEIPG3QD9","img_art/14.jpg","null","","","","","","","","","","","","","","","","","","","","","","","","",""
"4905","","image-button-response","167","1427751","0.0-155.0","A2GSLJEIPG3QD9","img_art/14.jpg","3","","","","","","","","","","","","","","","","","","","","","","","","",""
"4359","","image-button-response","168","1432112","0.0-156.0-0.0","A2GSLJEIPG3QD9","img_art/14.jpg","5","","","","","","","","","","","","","","","","","","","","","","","","",""
"2128","","image-button-response","169","1434244","0.0-157.0-0.0","A2GSLJEIPG3QD9","img_art/14.jpg","0","","","","","","","","","","","","","","","","","","","","","","","","",""
"null","","html-keyboard-response","170","1434747","0.0-158.0","A2GSLJEIPG3QD9","<p style=""font-size: 48px;"">+</p>","","","","","null","allTrialResponses","500","1","16","img_art/14.jpg","-19","I don't think the colors go well together","Gregory,Jesus,Thomas,Grant,Corey,Travis","Not as cool as other tree looking paintings,-5,220,20","I like the combination of colors and textures.,35,100,20","I like the colors in the background, but not the bottom/center. It almost looks sloppy.,-20,220,20","This elicits no reaction in me.,0,200,20","its okay. pretty bland but looks like nature,8,260,20","I kind of like it...I like the white back ground,11,260,20","Grant","This elicits no reaction in me.,0,200,20","Travis","I kind of like it...I like the white back ground,11,260,20","Gregory","Not as cool as other tree looking paintings,-5,220,20","24"
"24001","","survey-text","171","1458753","0.0-159.0-0.0","A2GSLJEIPG3QD9","","","","{""Q0"":""it looks like a painting a child would make""}","","","","","","","","","","","","","","","","","","","","","","",""
"3849","","image-slider-response","172","1462602","0.0-160.0","A2GSLJEIPG3QD9","","","","","-31","","","","","","","","","","","","","","","","","","","","","",""
"null","","image-button-response","173","1467605","0.0-161.0","A2GSLJEIPG3QD9","img_art/2.jpg","null","","","","","","","","","","","","","","","","","","","","","","","","",""
"3336","","image-button-response","174","1470941","0.0-162.0","A2GSLJEIPG3QD9","img_art/2.jpg","4","","","","","","","","","","","","","","","","","","","","","","","","",""
"1634","","image-button-response","175","1472576","0.0-163.0-0.0","A2GSLJEIPG3QD9","img_art/2.jpg","5","","","","","","","","","","","","","","","","","","","","","","","","",""
"7536","","image-button-response","176","1480113","0.0-164.0-0.0","A2GSLJEIPG3QD9","img_art/2.jpg","0","","","","","","","","","","","","","","","","","","","","","","","","",""
"null","","html-keyboard-response","177","1481115","0.0-165.0","A2GSLJEIPG3QD9","<p style=""font-size: 48px;"">+</p>","","","","","null","allTrialResponses","1000","1","17","img_art/2.jpg","-31","it looks like a painting a child would make","Gregory,Nicholas,Adam,Grant,Christopher,Travis","Awful color coordination and design,-35,220,20","Cute and happy,22,240,20","Hate the vomit green.,-31,40,20","The colors are entirely unappealing and very unpleasant to look at.,-20,200,20","nope. just looks like a mess,-28,160,20","I didn't like this it looked like a kindergardner painted it and the green was out of place.,-46,260,20","Christopher","nope. just looks like a mess,-28,160,20","Travis","I didn't like this it looked like a kindergardner painted it and the green was out of place.,-46,260,20","Gregory","Awful color coordination and design,-35,220,20","24"
"40378","","survey-text","178","1521498","0.0-166.0-0.0","A2GSLJEIPG3QD9","","","","{""Q0"":""I think the aritst tried to combine too many styles together""}","","","","","","","","","","","","","","","","","","","","","","",""
"4826","","image-slider-response","179","1526324","0.0-167.0","A2GSLJEIPG3QD9","","","","","-16","","","","","","","","","","","","","","","","","","","","","",""
"3198","","image-button-response","180","1531327","0.0-168.0","A2GSLJEIPG3QD9","img_art/8.jpg","1","","","","","","","","","","","","","","","","","","","","","","","","",""
"215","","image-button-response","181","1531544","0.0-169.0","A2GSLJEIPG3QD9","img_art/8.jpg","1","","","","","","","","","","","","","","","","","","","","","","","","",""
"5220","","image-button-response","182","1536767","0.0-170.0-0.0","A2GSLJEIPG3QD9","img_art/8.jpg","4","","","","","","","","","","","","","","","","","","","","","","","","",""
"7497","","image-button-response","183","1544265","0.0-171.0-0.0","A2GSLJEIPG3QD9","img_art/8.jpg","2","","","","","","","","","","","","","","","","","","","","","","","","",""
"null","","html-keyboard-response","184","1545267","0.0-172.0","A2GSLJEIPG3QD9","<p style=""font-size: 48px;"">+</p>","","","","","null","allTrialResponses","1000","1","18","img_art/8.jpg","-16","I think the aritst tried to combine too many styles together","Gregory,Dakota,Mitchell,Noah,Christopher,Travis","Cool designs and color schemes,44,220,20","chaotic and disassembled,-8,280,20","Lost in a big city confuse as to where to go to next. No matter if you live in a mansion or homeless. Being bigger than what is going on around you,30,180,20","not sure what to make of this - just neutral again,-1,260,20","it's interesting but i don't enjoy the style,-5,160,20","I like the colors and the scene.,24,260,20","Dakota","chaotic and disassembled,-8,280,20","Christopher","it's interesting but i don't enjoy the style,-5,160,20","Mitchell","Lost in a big city confuse as to where to go to next. No matter if you live in a mansion or homeless. Being bigger than what is going on around you,30,180,20","24"
"35698","","survey-text","185","1580970","0.0-173.0-0.0","A2GSLJEIPG3QD9","","","","{""Q0"":""reminds me of bacteria under a microscope""}","","","","","","","","","","","","","","","","","","","","","","",""
"3528","","image-slider-response","186","1584499","0.0-174.0","A2GSLJEIPG3QD9","","","","","-47","","","","","","","","","","","","","","","","","","","","","",""
"3286","","image-button-response","187","1589502","0.0-175.0","A2GSLJEIPG3QD9","img_art/15.jpg","1","","","","","","","","","","","","","","","","","","","","","","","","",""
"519","","image-button-response","188","1590024","0.0-176.0","A2GSLJEIPG3QD9","img_art/15.jpg","1","","","","","","","","","","","","","","","","","","","","","","","","",""
"4570","","image-button-response","189","1594595","0.0-177.0-0.0","A2GSLJEIPG3QD9","img_art/15.jpg","5","","","","","","","","","","","","","","","","","","","","","","","","",""
"2298","","image-button-response","190","1596896","0.0-178.0-0.0","A2GSLJEIPG3QD9","img_art/15.jpg","0","","","","","","","","","","","","","","","","","","","","","","","","",""
"null","","html-keyboard-response","191","1597399","0.0-179.0","A2GSLJEIPG3QD9","<p style=""font-size: 48px;"">+</p>","","","","","null","allTrialResponses","500","1","19","img_art/15.jpg","-47","reminds me of bacteria under a microscope","Jordan,Dakota,Mitchell,Joshua,Christopher,Colton","This also has nice contrast,34,160,20","abrasive, rough, uneven,-31,280,20","ants on the ground playing with bubble gum. They may be thinking of how they can use it to build something,-30,180,20","Like this for the colors and arrangement.,11,240,20","this is really pretty! i like the pops of blue in all the black,26,160,20","it's alright but a little cluttered,14,220,20","Dakota","abrasive, rough, uneven,-31,280,20","Colton","it's alright but a little cluttered,14,220,20","Jordan","This also has nice contrast,34,160,20","24"
"17648","","survey-text","192","1615051","0.0-180.0-0.0","A2GSLJEIPG3QD9","","","","{""Q0"":""the colors work unusually well together""}","","","","","","","","","","","","","","","","","","","","","","",""
"5948","","image-slider-response","193","1621001","0.0-181.0","A2GSLJEIPG3QD9","","","","","31","","","","","","","","","","","","","","","","","","","","","",""
"null","","image-button-response","194","1626004","0.0-182.0","A2GSLJEIPG3QD9","img_art/17.jpg","null","","","","","","","","","","","","","","","","","","","","","","","","",""
"586","","image-button-response","195","1626590","0.0-183.0","A2GSLJEIPG3QD9","img_art/17.jpg","2","","","","","","","","","","","","","","","","","","","","","","","","",""
"2775","","image-button-response","196","1629366","0.0-184.0-0.0","A2GSLJEIPG3QD9","img_art/17.jpg","3","","","","","","","","","","","","","","","","","","","","","","","","",""
"1626","","image-button-response","197","1630993","0.0-185.0-0.0","A2GSLJEIPG3QD9","img_art/17.jpg","5","","","","","","","","","","","","","","","","","","","","","","","","",""
"null","","html-keyboard-response","198","1632496","0.0-186.0","A2GSLJEIPG3QD9","<p style=""font-size: 48px;"">+</p>","","","","","null","allTrialResponses","1500","1","20","img_art/17.jpg","31","the colors work unusually well together","Jordan,Dakota,Vincent,Eric,Jason,Colton","Really love the branches. The bottom made it not perfect,42,160,20","home - reminds me of fond memories of the Barnes Museum courtyard (looks just like it),30,280,20","Another favorite a relaxing day with nature a day to take it all In,34,360,20","This picture is calming to me, and I love the colors.,45,100,20","Very beautiful,19,20,20","its whimsical and light,50,220,20","Vincent","Another favorite a relaxing day with nature a day to take it all In,34,360,20","Eric","This picture is calming to me, and I love the colors.,45,100,20","Colton","its whimsical and light,50,220,20","24"
"3746","","survey-text","199","1636252","0.0-187.0-0.0","A2GSLJEIPG3QD9","","","","{""Q0"":""we""}","","","","","","","","","","","","","","","","","","","","","","",""
"35735","","survey-text","200","1671988","0.0-188.0-0.0","A2GSLJEIPG3QD9","","","","{""Q0"":""reminds me of getting drunk at a bar""}","","","","","","","","","","","","","","","","","","","","","","",""
"4289","","image-slider-response","201","1676279","0.0-189.0","A2GSLJEIPG3QD9","","","","","38","","","","","","","","","","","","","","","","","","","","","",""
"null","","image-button-response","202","1681282","0.0-190.0","A2GSLJEIPG3QD9","img_art/28.jpg","null","","","","","","","","","","","","","","","","","","","","","","","","",""
"1883","","image-button-response","203","1683165","0.0-191.0","A2GSLJEIPG3QD9","img_art/28.jpg","1","","","","","","","","","","","","","","","","","","","","","","","","",""
"5355","","image-button-response","204","1688523","0.0-192.0-0.0","A2GSLJEIPG3QD9","img_art/28.jpg","0","","","","","","","","","","","","","","","","","","","","","","","","",""
"5572","","image-button-response","205","1694097","0.0-193.0-0.0","A2GSLJEIPG3QD9","img_art/28.jpg","2","","","","","","","","","","","","","","","","","","","","","","","","",""
"null","","html-keyboard-response","206","1695098","0.0-194.0","A2GSLJEIPG3QD9","<p style=""font-size: 48px;"">+</p>","","","","","null","allTrialResponses","1000","1","21","img_art/28.jpg","38","reminds me of getting drunk at a bar","Brandon,Isaiah,Vincent,Eric,Devin,Colton","Interesting. I like the ""old woman"" on the left. Lots of different entities to look at,21,320,20","It makes me feel happy, and a little anxious.,50,300,20","This is one of my favorites. It says to me to take time for people,37,360,20","I enjoy the colors.,25,100,20","It is a bit drab,-10,380,20","not a fan of the colors or strokes used,-27,220,20","Isaiah","It makes me feel happy, and a little anxious.,50,300,20","Brandon","Interesting. I like the ""old woman"" on the left. Lots of different entities to look at,21,320,20","Vincent","This is one of my favorites. It says to me to take time for people,37,360,20","24"
"39878","","survey-text","207","1734981","0.0-195.0-0.0","A2GSLJEIPG3QD9","","","","{""Q0"":""It makes me think of those really old paintings that archeologists find in a cave""}","","","","","","","","","","","","","","","","","","","","","","",""
"4400","","image-slider-response","208","1739383","0.0-196.0","A2GSLJEIPG3QD9","","","","","18","","","","","","","","","","","","","","","","","","","","","",""
"2757","","image-button-response","209","1744385","0.0-197.0","A2GSLJEIPG3QD9","img_art/25.jpg","0","","","","","","","","","","","","","","","","","","","","","","","","",""
"1075","","image-button-response","210","1745461","0.0-198.0","A2GSLJEIPG3QD9","img_art/25.jpg","0","","","","","","","","","","","","","","","","","","","","","","","","",""
"2869","","image-button-response","211","1748333","0.0-199.0-0.0","A2GSLJEIPG3QD9","img_art/25.jpg","4","","","","","","","","","","","","","","","","","","","","","","","","",""
"2829","","image-button-response","212","1751164","0.0-200.0-0.0","A2GSLJEIPG3QD9","img_art/25.jpg","5","","","","","","","","","","","","","","","","","","","","","","","","",""
"null","","html-keyboard-response","213","1751665","0.0-201.0","A2GSLJEIPG3QD9","<p style=""font-size: 48px;"">+</p>","","","","","null","allTrialResponses","500","1","22","img_art/25.jpg","18","It makes me think of those really old paintings that archeologists find in a cave","Brandon,Isaiah,Vincent,Lucas,Alexis,Tristan","Reminds me of cave drawings,21,320,20","I feel little to no emotion looking at this painting.,0,300,20","Iike this picture; it speaks to me on a personal level. But seems to scare the ones around me.,7,360,20","Well-designed, interesting.,30,380,20","It looks like a person at a graveyard,18,140,20","The limited palette make this figure mysterious and interpret-able.,20,300,20","Brandon","Reminds me of cave drawings,21,320,20","Alexis","It looks like a person at a graveyard,18,140,20","Tristan","The limited palette make this figure mysterious and interpret-able.,20,300,20","24"
"33367","","survey-text","214","1785037","0.0-202.0-0.0","A2GSLJEIPG3QD9","","","","{""Q0"":""a very colorful nature scene with waterfalls and rapids""}","","","","","","","","","","","","","","","","","","","","","","",""
"3695","","image-slider-response","215","1788734","0.0-203.0","A2GSLJEIPG3QD9","","","","","5","","","","","","","","","","","","","","","","","","","","","",""
"null","","image-button-response","216","1793736","0.0-204.0","A2GSLJEIPG3QD9","img_art/24.jpg","null","","","","","","","","","","","","","","","","","","","","","","","","",""
"322","","image-button-response","217","1794059","0.0-205.0","A2GSLJEIPG3QD9","img_art/24.jpg","1","","","","","","","","","","","","","","","","","","","","","","","","",""
"4795","","image-button-response","218","1798855","0.0-206.0-0.0","A2GSLJEIPG3QD9","img_art/24.jpg","3","","","","","","","","","","","","","","","","","","","","","","","","",""
"5925","","image-button-response","219","1804782","0.0-207.0-0.0","A2GSLJEIPG3QD9","img_art/24.jpg","4","","","","","","","","","","","","","","","","","","","","","","","","",""
"null","","html-keyboard-response","220","1805783","0.0-208.0","A2GSLJEIPG3QD9","<p style=""font-size: 48px;"">+</p>","","","","","null","allTrialResponses","1000","1","23","img_art/24.jpg","5","a very colorful nature scene with waterfalls and rapids","Brandon,Jorge,Daniel,Dustin,Alexis,Tristan","Simple. Not too abstract. Love the different flower colors.,20,320,20","Interested in visiting this place,18,180,20","Classic palette lacks real world 3d construction,19,320,20","I see a waterfall, which is relaxing and peaceful!  I like the blue coloring,30,20,20","I love how bold and vibrant the colors are,40,140,20","The contorted angles of the flowing water upset the harmony,-20,300,20","Jorge","Interested in visiting this place,18,180,20","Dustin","I see a waterfall, which is relaxing and peaceful!  I like the blue coloring,30,20,20","Alexis","I love how bold and vibrant the colors are,40,140,20","24"
"40143","","survey-text","221","1845932","0.0-209.0-0.0","A2GSLJEIPG3QD9","","","","{""Q0"":""some sort of warning about falling in a hole""}","","","","","","","","","","","","","","","","","","","","","","",""
"5734","","image-slider-response","222","1851667","0.0-210.0","A2GSLJEIPG3QD9","","","","","-40","","","","","","","","","","","","","","","","","","","","","",""
"null","","image-button-response","223","1856670","0.0-211.0","A2GSLJEIPG3QD9","img_art/29.jpg","null","","","","","","","","","","","","","","","","","","","","","","","","",""
"8785","","image-button-response","224","1865456","0.0-212.0","A2GSLJEIPG3QD9","img_art/29.jpg","3","","","","","","","","","","","","","","","","","","","","","","","","",""
"3183","","image-button-response","225","1868640","0.0-213.0-0.0","A2GSLJEIPG3QD9","img_art/29.jpg","1","","","","","","","","","","","","","","","","","","","","","","","","",""
"519","","image-button-response","226","1869162","0.0-214.0-0.0","A2GSLJEIPG3QD9","img_art/29.jpg","2","","","","","","","","","","","","","","","","","","","","","","","","",""
"null","","html-keyboard-response","227","1870163","0.0-215.0","A2GSLJEIPG3QD9","<p style=""font-size: 48px;"">+</p>","","","","","null","allTrialResponses","1000","1","24","img_art/29.jpg","-40","some sort of warning about falling in a hole","Brian,Jorge,Gabriel,Dustin,Alexis,Elijah","it looks like a top-down battle arena,26,380,20","makes me feel busy and unorganized,4,180,20","dont like this one,-20,160,20","Don't get it! Too dark and random. Perhaps it was the start of something but the artist stopped and cancelled out the work.,-50,20,20","I like that it looks like a scene from perhaps a failed painted project,10,140,20","Makes me feel untidy,-9,80,20","Dustin","Don't get it! Too dark and random. Perhaps it was the start of something but the artist stopped and cancelled out the work.,-50,20,20","Jorge","makes me feel busy and unorganized,4,180,20","Gabriel","dont like this one,-20,160,20","24"
"15715","","survey-text","228","1885885","0.0-216.0-0.0","A2GSLJEIPG3QD9","","","","{""Q0"":""they are celebrating something very triumphant""}","","","","","","","","","","","","","","","","","","","","","","",""
"6133","","image-slider-response","229","1892020","0.0-217.0","A2GSLJEIPG3QD9","","","","","17","","","","","","","","","","","","","","","","","","","","","",""
"null","","image-button-response","230","1897022","0.0-218.0","A2GSLJEIPG3QD9","img_art/23.jpg","null","","","","","","","","","","","","","","","","","","","","","","","","",""
"5778","","image-button-response","231","1902801","0.0-219.0","A2GSLJEIPG3QD9","img_art/23.jpg","4","","","","","","","","","","","","","","","","","","","","","","","","",""
"1207","","image-button-response","232","1904010","0.0-220.0-0.0","A2GSLJEIPG3QD9","img_art/23.jpg","5","","","","","","","","","","","","","","","","","","","","","","","","",""
"5792","","image-button-response","233","1909804","0.0-221.0-0.0","A2GSLJEIPG3QD9","img_art/23.jpg","0","","","","","","","","","","","","","","","","","","","","","","","","",""
"null","","html-keyboard-response","234","1910305","0.0-222.0","A2GSLJEIPG3QD9","<p style=""font-size: 48px;"">+</p>","","","","","null","allTrialResponses","500","1","25","img_art/23.jpg","17","they are celebrating something very triumphant","Aaron,Jorge,Gabriel,Dustin,John,Matthew","I love the colors and the contrast.,50,20,20","puzzled with curiosity,31,180,20","i think this ones okay,10,160,20","I don't get it! the white in the middle of the speckled rainbow is confusing.,-10,20,20","Very bright and eye catching.The White silhouettes remind me of people celebrating.,31,120,20","A line dance, it's really strinkingly beautiful.,50,120,20","John","Very bright and eye catching.The White silhouettes remind me of people celebrating.,31,120,20","Matthew","A line dance, it's really strinkingly beautiful.,50,120,20","Aaron","I love the colors and the contrast.,50,20,20","24"
"4328","","survey-text","235","1914643","0.0-223.0-0.0","A2GSLJEIPG3QD9","","","","{""Q0"":""table""}","","","","","","","","","","","","","","","","","","","","","","",""
"34957","","survey-text","236","1949602","0.0-224.0-0.0","A2GSLJEIPG3QD9","","","","{""Q0"":""either an animal or a person enjoying nature on top of a plateau""}","","","","","","","","","","","","","","","","","","","","","","",""
"6038","","image-slider-response","237","1955641","0.0-225.0","A2GSLJEIPG3QD9","","","","","3","","","","","","","","","","","","","","","","","","","","","",""
"null","","image-button-response","238","1960644","0.0-226.0","A2GSLJEIPG3QD9","img_art/21.jpg","null","","","","","","","","","","","","","","","","","","","","","","","","",""
"7803","","image-button-response","239","1968448","0.0-227.0","A2GSLJEIPG3QD9","img_art/21.jpg","5","","","","","","","","","","","","","","","","","","","","","","","","",""
"4345","","image-button-response","240","1972794","0.0-228.0-0.0","A2GSLJEIPG3QD9","img_art/21.jpg","1","","","","","","","","","","","","","","","","","","","","","","","","",""
"9556","","image-button-response","241","1982353","0.0-229.0-0.0","A2GSLJEIPG3QD9","img_art/21.jpg","2","","","","","","","","","","","","","","","","","","","","","","","","",""
"null","","html-keyboard-response","242","1983354","0.0-230.0","A2GSLJEIPG3QD9","<p style=""font-size: 48px;"">+</p>","","","","","null","allTrialResponses","1000","1","26","img_art/21.jpg","3","either an animal or a person enjoying nature on top of a plateau","Aaron,Ian,William,Sean,John,Matthew","I love the colors and the differences between the left and right sides.,22,20,20","This looks very interesting because something is happening but I can't tell what.,28,260,20","like the colors,30,380,20","my response to the picture is what is going on?,-13,40,20","I like the colors that were used and the stark contrast between the two sides,25,120,20","Disturbing, land meets ocean, lvoely really.,43,120,20","Matthew","Disturbing, land meets ocean, lvoely really.,43,120,20","Ian","This looks very interesting because something is happening but I can't tell what.,28,260,20","William","like the colors,30,380,20","24"
"31757","","survey-text","243","2015117","0.0-231.0-0.0","A2GSLJEIPG3QD9","","","","{""Q0"":""it's some sort of forest scene drawn by a child""}","","","","","","","","","","","","","","","","","","","","","","",""
"2780","","image-slider-response","244","2017899","0.0-232.0","A2GSLJEIPG3QD9","","","","","-20","","","","","","","","","","","","","","","","","","","","","",""
"null","","image-button-response","245","2022901","0.0-233.0","A2GSLJEIPG3QD9","img_art/9.jpg","null","","","","","","","","","","","","","","","","","","","","","","","","",""
"1518","","image-button-response","246","2024419","0.0-234.0","A2GSLJEIPG3QD9","img_art/9.jpg","1","","","","","","","","","","","","","","","","","","","","","","","","",""
"9542","","image-button-response","247","2033962","0.0-235.0-0.0","A2GSLJEIPG3QD9","img_art/9.jpg","5","","","","","","","","","","","","","","","","","","","","","","","","",""
"3704","","image-button-response","248","2037667","0.0-236.0-0.0","A2GSLJEIPG3QD9","img_art/9.jpg","2","","","","","","","","","","","","","","","","","","","","","","","","",""
"null","","html-keyboard-response","249","2038669","0.0-237.0","A2GSLJEIPG3QD9","<p style=""font-size: 48px;"">+</p>","","","","","null","allTrialResponses","1000","1","27","img_art/9.jpg","-20","it's some sort of forest scene drawn by a child","Nathaniel,Ian,William,Blake,Alex,Matthew","Not very enticing. No real substance other than a lady laying down,-35,220,20","It looks like someone gave a kid a coloring book page but the colors are soothing and look put together and elegant,27,260,20","reminds me of a story book,18,380,20","looks like a woman in bed and its ok,8,280,20","Alright, I can see a reclining lady, I'm just glad to be able to tell what's in the picture,5,100,20","Similar to the tohers, but not as clear.,11,120,20","Ian","It looks like someone gave a kid a coloring book page but the colors are soothing and look put together and elegant,27,260,20","Matthew","Similar to the tohers, but not as clear.,11,120,20","William","reminds me of a story book,18,380,20","24"
"29892","","survey-text","250","2068569","0.0-238.0-0.0","A2GSLJEIPG3QD9","","","","{""Q0"":""it looks like several differnt art styles all used together""}","","","","","","","","","","","","","","","","","","","","","","",""
"4426","","image-slider-response","251","2072996","0.0-239.0","A2GSLJEIPG3QD9","","","","","-38","","","","","","","","","","","","","","","","","","","","","",""
"null","","image-button-response","252","2077997","0.0-240.0","A2GSLJEIPG3QD9","img_art/10.jpg","null","","","","","","","","","","","","","","","","","","","","","","","","",""
"6223","","image-button-response","253","2084221","0.0-241.0","A2GSLJEIPG3QD9","img_art/10.jpg","1","","","","","","","","","","","","","","","","","","","","","","","","",""
"12454","","image-button-response","254","2096677","0.0-242.0-0.0","A2GSLJEIPG3QD9","img_art/10.jpg","3","","","","","","","","","","","","","","","","","","","","","","","","",""
"1972","","image-button-response","255","2098650","0.0-243.0-0.0","A2GSLJEIPG3QD9","img_art/10.jpg","4","","","","","","","","","","","","","","","","","","","","","","","","",""
"null","","html-keyboard-response","256","2100153","0.0-244.0","A2GSLJEIPG3QD9","<p style=""font-size: 48px;"">+</p>","","","","","null","allTrialResponses","1500","1","28","img_art/10.jpg","-38","it looks like several differnt art styles all used together","Antonio,Ian,William,Zachary,Kevin,Matthew","This painting made me think of a guitar which made me think of music which envoked happy feelings.,28,220,20","It reminds me of how my dog has to run all over the place just to poop in one specific location.,-20,260,20","absolutely beautiful piece of art,49,380,20","Reminds me of a terrarium with cacti inside. It reminds me of home.,27,400,20","Thats a horses head,10,320,20","AWESOME VIOLIN!`,26,120,20","Ian","It reminds me of how my dog has to run all over the place just to poop in one specific location.,-20,260,20","Zachary","Reminds me of a terrarium with cacti inside. It reminds me of home.,27,400,20","Kevin","Thats a horses head,10,320,20","24"
"26346","","survey-text","257","2126504","0.0-245.0-0.0","A2GSLJEIPG3QD9","","","","{""Q0"":""it reminds me of a tiny bug standing on an orange""}","","","","","","","","","","","","","","","","","","","","","","",""
"4371","","image-slider-response","258","2130875","0.0-246.0","A2GSLJEIPG3QD9","","","","","-46","","","","","","","","","","","","","","","","","","","","","",""
"null","","image-button-response","259","2135877","0.0-247.0","A2GSLJEIPG3QD9","img_art/6.jpg","null","","","","","","","","","","","","","","","","","","","","","","","","",""
"4706","","image-button-response","260","2140585","0.0-248.0","A2GSLJEIPG3QD9","img_art/6.jpg","3","","","","","","","","","","","","","","","","","","","","","","","","",""
"12019","","image-button-response","261","2152606","0.0-249.0-0.0","A2GSLJEIPG3QD9","img_art/6.jpg","0","","","","","","","","","","","","","","","","","","","","","","","","",""
"2316","","image-button-response","262","2154924","0.0-250.0-0.0","A2GSLJEIPG3QD9","img_art/6.jpg","5","","","","","","","","","","","","","","","","","","","","","","","","",""
"null","","html-keyboard-response","263","2155926","0.0-251.0","A2GSLJEIPG3QD9","<p style=""font-size: 48px;"">+</p>","","","","","null","allTrialResponses","1000","1","29","img_art/6.jpg","-46","it reminds me of a tiny bug standing on an orange","Jose,Ian,Hunter,Zachary,Kevin,Paul","This could be so many different things. I saw a bird first but then it looks like a needle going into skin,34,200,20","It's slightly unnerving to look at, it looks a little creepy/eerie,-16,260,20","composition is engaging,28,240,20","Reminds me of a plant poking through the soil. It reminds me of new life.,31,400,20","Its the headless bird. But why?,21,320,20","Maybe it's supposed to be a bird but it looks like a scary cloaked figure. it's just too simple and jarring,-23,300,20","Zachary","Reminds me of a plant poking through the soil. It reminds me of new life.,31,400,20","Jose","This could be so many different things. I saw a bird first but then it looks like a needle going into skin,34,200,20","Paul","Maybe it's supposed to be a bird but it looks like a scary cloaked figure. it's just too simple and jarring,-23,300,20","24"
"21996","","survey-text","264","2177927","0.0-252.0-0.0","A2GSLJEIPG3QD9","","","","{""Q0"":""it makes me think of a surfer riding a huge wave""}","","","","","","","","","","","","","","","","","","","","","","",""
"3954","","image-slider-response","265","2181882","0.0-253.0","A2GSLJEIPG3QD9","","","","","33","","","","","","","","","","","","","","","","","","","","","",""
"null","","image-button-response","266","2186885","0.0-254.0","A2GSLJEIPG3QD9","img_art/30.jpg","null","","","","","","","","","","","","","","","","","","","","","","","","",""
"9876","","image-button-response","267","2196763","0.0-255.0","A2GSLJEIPG3QD9","img_art/30.jpg","5","","","","","","","","","","","","","","","","","","","","","","","","",""
"3367","","image-button-response","268","2200130","0.0-256.0-0.0","A2GSLJEIPG3QD9","img_art/30.jpg","0","","","","","","","","","","","","","","","","","","","","","","","","",""
"7480","","image-button-response","269","2207612","0.0-257.0-0.0","A2GSLJEIPG3QD9","img_art/30.jpg","3","","","","","","","","","","","","","","","","","","","","","","","","",""
"null","","html-keyboard-response","270","2208615","0.0-258.0","A2GSLJEIPG3QD9","<p style=""font-size: 48px;"">+</p>","","","","","null","allTrialResponses","1000","1","30","img_art/30.jpg","33","it makes me think of a surfer riding a huge wave","Jose,Robert,Logan,Zachary,Ethan,Paul","For some reason I like the red in this one. Maybe it's the style of lines/blurs,46,200,20","My kindergarten class could do this,-50,360,20","literally stupid I made this with as seen on tv products when I was 7,-42,360,20","I like this one because I am a mom and it reminds me of a child finger-painting.,20,400,20","I hate this piece. It looks like a child created it. The colors are awful.,-46,120,20","It looked like a random scribble but I can see a person's face in it now and I think it's clever,13,300,20","Paul","It looked like a random scribble but I can see a person's face in it now and I think it's clever,13,300,20","Jose","For some reason I like the red in this one. Maybe it's the style of lines/blurs,46,200,20","Zachary","I like this one because I am a mom and it reminds me of a child finger-painting.,20,400,20","24"
"5150","","image-button-response_instructions","271","2213770","0.0-259.0","A2GSLJEIPG3QD9","","0","instructions","","","","","","","","","","","","","","","","","","","","","","","",""
