"rt","url","trial_type","trial_index","time_elapsed","internal_node_id","participant_id","stimulus","button_pressed","Name","responses","response","key_press","variableName","fixationTime","condition","trial","photo","subjectRating","subjectResponse","agentsNames","agent_1_Response","agent_2_Response","agent_3_Response","agent_4_Response","agent_5_Response","agent_6_Response","kept_1_name","kept_1_response","kept_2_name","kept_2_response","kept_3_name","kept_3_response","errorCounter"
"1104105","external_page_harvard.html","external-html","0","1104206","0.0-0.0","A2GZNOA5CIVKUB","","","","","","","","","","","","","","","","","","","","","","","","","","",""
"1879","","image-button-response","1","1106095","0.0-1.0","A2GZNOA5CIVKUB","","1","","","","","","","","","","","","","","","","","","","","","","","","",""
"1616","","image-button-response","2","1107724","0.0-2.0-0.0","A2GZNOA5CIVKUB","","1","phone","","","","","","","","","","","","","","","","","","","","","","","",""
"5781","","survey-text","3","1113509","0.0-3.0-0.0","A2GZNOA5CIVKUB","","","","{""Q0"":""A2GZNOA5CIVKUB""}","","","","","","","","","","","","","","","","","","","","","","",""
"4697","","image-button-response_instructions","4","1118212","0.0-4.0","A2GZNOA5CIVKUB","","0","instructions","","","","","","","","","","","","","","","","","","","","","","","",""
"11193","","image-button-response_instructions","5","1129409","0.0-5.0","A2GZNOA5CIVKUB","img_art/ins/popularity/ins1.png","0","instructions","","","","","","","","","","","","","","","","","","","","","","","",""
"3329","","image-button-response_instructions","6","1132745","0.0-6.0","A2GZNOA5CIVKUB","img_art/ins/popularity/ins2.png","0","instructions","","","","","","","","","","","","","","","","","","","","","","","",""
"2428","","image-button-response_instructions","7","1135179","0.0-7.0","A2GZNOA5CIVKUB","img_art/ins/popularity/ins2Extreme.png","0","instructions","","","","","","","","","","","","","","","","","","","","","","","",""
"2152","","image-button-response_instructions","8","1137336","0.0-8.0","A2GZNOA5CIVKUB","img_art/ins/popularity/ins3KEEPpop.PNG","0","instructions","","","","","","","","","","","","","","","","","","","","","","","",""
"2651","","image-button-response_instructions","9","1139991","0.0-9.0","A2GZNOA5CIVKUB","img_art/ins/popularity/ins3ANamepop.PNG","0","instructions","","","","","","","","","","","","","","","","","","","","","","","",""
"988","","image-button-response_instructions","10","1140987","0.0-10.0","A2GZNOA5CIVKUB","img_art/ins/popularity/ins3ARatingpop.png","0","instructions","","","","","","","","","","","","","","","","","","","","","","","",""
"1266","","image-button-response_instructions","11","1142256","0.0-11.0","A2GZNOA5CIVKUB","img_art/ins/popularity/ins3ATextpop.png","0","instructions","","","","","","","","","","","","","","","","","","","","","","","",""
"1129","","image-button-response_instructions","12","1143389","0.0-12.0","A2GZNOA5CIVKUB","img_art/ins/popularity/ins3ALikespop.png","0","instructions","","","","","","","","","","","","","","","","","","","","","","","",""
"1513","","image-button-response_instructions","13","1144905","0.0-13.0","A2GZNOA5CIVKUB","img_art/ins/popularity/ins3KEEPpop.PNG","0","instructions","","","","","","","","","","","","","","","","","","","","","","","",""
"1180","","image-button-response_instructions","14","1146089","0.0-14.0","A2GZNOA5CIVKUB","img_art/ins/popularity/ins3_5RED.png","0","instructions","","","","","","","","","","","","","","","","","","","","","","","",""
"623","","image-button-response_instructions","15","1146716","0.0-15.0","A2GZNOA5CIVKUB","img_art/ins/popularity/ins3KEEPpop.PNG","0","instructions","","","","","","","","","","","","","","","","","","","","","","","",""
"5084","","image-button-response_instructions","16","1151804","0.0-16.0","A2GZNOA5CIVKUB","img_art/ins/popularity/ins4KEEPpop.PNG","0","instructions","","","","","","","","","","","","","","","","","","","","","","","",""
"1141","","image-button-response_instructions","17","1152947","0.0-17.0","A2GZNOA5CIVKUB","img_art/ins/popularity/ins5KEEPpop.PNG","0","instructions","","","","","","","","","","","","","","","","","","","","","","","",""
"1305","","image-button-response_instructions","18","1154255","0.0-18.0","A2GZNOA5CIVKUB","","0","instructions","","","","","","","","","","","","","","","","","","","","","","","",""
"4124","","survey-text","19","1158456","0.0-19.0-0.0","A2GZNOA5CIVKUB","","","","{""Q0"":""but""}","","","","","","","","","","","","","","","","","","","","","","",""
"19257","","survey-text","20","1177720","0.0-20.0-0.0","A2GZNOA5CIVKUB","","","","{""Q0"":""Not extremely colorful.""}","","","","","","","","","","","","","","","","","","","","","","",""
"3661.100000000559","","image-slider-response","21","1181392","0.0-21.0","A2GZNOA5CIVKUB","","","","","-29","","","","","","","","","","","","","","","","","","","","","",""
"3758","","image-button-response","22","1186404","0.0-22.0","A2GZNOA5CIVKUB","img_art/ins/1.jpg","5","","","","","","","","","","","","","","","","","","","","","","","","",""
"1270","","image-button-response","23","1187683","0.0-23.0","A2GZNOA5CIVKUB","img_art/ins/1.jpg","3","","","","","","","","","","","","","","","","","","","","","","","","",""
"598","","image-button-response","24","1188287","0.0-24.0-0.0","A2GZNOA5CIVKUB","img_art/ins/1.jpg","4","","","","","","","","","","","","","","","","","","","","","","","","",""
"591","","image-button-response","25","1188889","0.0-25.0-0.0","A2GZNOA5CIVKUB","img_art/ins/1.jpg","5","","","","","","","","","","","","","","","","","","","","","","","","",""
"null","","html-keyboard-response","26","1190398","0.0-26.0","A2GZNOA5CIVKUB","<p style=""font-size: 48px;"">+</p>","","","","","null","allTrialResponses","1500","1","-2","img_art/ins/1.jpg","-29","Not extremely colorful.","Allison,Ashley,Beth,Dora,Erika,Jen","looks like a lot of things going on in the mist,20,20,20","I just don't get why these type of art would be popular,-32,40,20","This color reminds me of poo,-46,60,20","looks like what my niece in 3rd grade did this afternoon,-50,80,20","I like the sophisticated brushwork,40,100,20","It reminds me of a candy land dream I had,36,120,20","Dora","looks like what my niece in 3rd grade did this afternoon,-50,80,20","Erika","I like the sophisticated brushwork,40,100,20","Jen","It reminds me of a candy land dream I had,36,120,20","0"
"12142","","survey-text","27","1202560","0.0-27.0-0.0","A2GZNOA5CIVKUB","","","","{""Q0"":""Scary dark colors.""}","","","","","","","","","","","","","","","","","","","","","","",""
"3438.7000000001863","","image-slider-response","28","1206004","0.0-28.0","A2GZNOA5CIVKUB","","","","","-28","","","","","","","","","","","","","","","","","","","","","",""
"3104","","image-button-response","29","1211014","0.0-29.0","A2GZNOA5CIVKUB","img_art/ins/2.jpg","1","","","","","","","","","","","","","","","","","","","","","","","","",""
"1051","","image-button-response","30","1212069","0.0-30.0","A2GZNOA5CIVKUB","img_art/ins/2.jpg","2","","","","","","","","","","","","","","","","","","","","","","","","",""
"631","","image-button-response","31","1212705","0.0-31.0-0.0","A2GZNOA5CIVKUB","img_art/ins/2.jpg","1","","","","","","","","","","","","","","","","","","","","","","","","",""
"539","","image-button-response","32","1213251","0.0-32.0-0.0","A2GZNOA5CIVKUB","img_art/ins/2.jpg","0","","","","","","","","","","","","","","","","","","","","","","","","",""
"null","","html-keyboard-response","33","1214759","0.0-33.0","A2GZNOA5CIVKUB","<p style=""font-size: 48px;"">+</p>","","","","","null","allTrialResponses","1500","1","-1","img_art/ins/2.jpg","-28","Scary dark colors.","Jenna,Kara,Katie,Dora,Erika,Jen","One of my pet peevs,-48,140,20","I like the blocks of color arrangements,30,160,20","too much color!,-28,180,20","looks too angry,-50,80,20","I would never be able to compose a sophisticated pallete like this,48,100,20","It reminds me of a fireplace,36,120,20","Katie","too much color!,-28,180,20","Kara","I like the blocks of color arrangements,30,160,20","Jenna","One of my pet peevs,-48,140,20","0"
"13013","","survey-text","34","1227789","0.0-34.0-0.0","A2GZNOA5CIVKUB","","","","{""Q0"":""Way too messy and sad blue.""}","","","","","","","","","","","","","","","","","","","","","","",""
"2985.5","","image-slider-response","35","1230779","0.0-35.0","A2GZNOA5CIVKUB","","","","","-25","","","","","","","","","","","","","","","","","","","","","",""
"4465","","image-button-response","36","1235787","0.0-36.0","A2GZNOA5CIVKUB","img_art/ins/3.jpg","4","","","","","","","","","","","","","","","","","","","","","","","","",""
"775","","image-button-response","37","1236567","0.0-37.0","A2GZNOA5CIVKUB","img_art/ins/3.jpg","5","","","","","","","","","","","","","","","","","","","","","","","","",""
"563","","image-button-response","38","1237139","0.0-38.0-0.0","A2GZNOA5CIVKUB","img_art/ins/3.jpg","4","","","","","","","","","","","","","","","","","","","","","","","","",""
"506","","image-button-response","39","1237655","0.0-39.0-0.0","A2GZNOA5CIVKUB","img_art/ins/3.jpg","3","","","","","","","","","","","","","","","","","","","","","","","","",""
"null","","html-keyboard-response","40","1238659","0.0-40.0","A2GZNOA5CIVKUB","<p style=""font-size: 48px;"">+</p>","","","","","null","allTrialResponses","1000","1","0","img_art/ins/3.jpg","-25","Way too messy and sad blue.","Jenna,Kara,Katie,Leslie,Mary,Rose","looks like a murder room,-35,140,20","calming blue is very nice,36,160,20","It looks depressing,-26,180,20","It's an alright work,15,200,20","I like the overlapping of brushes,41,220,20","My daily routine, it's depressing,-20,240,20","Rose","My daily routine, it's depressing,-20,240,20","Mary","I like the overlapping of brushes,41,220,20","Leslie","It's an alright work,15,200,20","0"
"4666","","image-button-response_instructions","41","1243342","0.0-41.0","A2GZNOA5CIVKUB","","0","instructions","","","","","","","","","","","","","","","","","","","","","","","",""
"12054","","survey-likert","42","1255404","0.0-42.0-0.0","A2GZNOA5CIVKUB","","","","{""Q0"":"""",""Q1"":0,""Q2"":0}","","","","","","","","","","","","","","","","","","","","","","",""
"3081","","survey-likert","43","1259903","0.0-42.1-0.1","A2GZNOA5CIVKUB","","","","{""Q0"":"""",""Q1"":0,""Q2"":1}","","","","","","","","","","","","","","","","","","","","","","",""
"5109","","survey-text","44","1265033","0.0-43.0-0.0","A2GZNOA5CIVKUB","","","","{""Q0"":""rock""}","","","","","","","","","","","","","","","","","","","","","","",""
"20036","","survey-text","45","1285076","0.0-44.0-0.0","A2GZNOA5CIVKUB","","","","{""Q0"":""Very weird and makes no sense. ""}","","","","","","","","","","","","","","","","","","","","","","",""
"2963.300000000745","","image-slider-response","46","1288047","0.0-45.0","A2GZNOA5CIVKUB","","","","","-42","","","","","","","","","","","","","","","","","","","","","",""
"3919","","image-button-response","47","1293126","0.0-46.0","A2GZNOA5CIVKUB","img_art/16.jpg","0","","","","","","","","","","","","","","","","","","","","","","","","",""
"1094","","image-button-response","48","1294230","0.0-47.0","A2GZNOA5CIVKUB","img_art/16.jpg","2","","","","","","","","","","","","","","","","","","","","","","","","",""
"1001","","image-button-response","49","1295236","0.0-48.0-0.0","A2GZNOA5CIVKUB","img_art/16.jpg","3","","","","","","","","","","","","","","","","","","","","","","","","",""
"661","","image-button-response","50","1295904","0.0-49.0-0.0","A2GZNOA5CIVKUB","img_art/16.jpg","4","","","","","","","","","","","","","","","","","","","","","","","","",""
"null","","html-keyboard-response","51","1296408","0.0-50.0","A2GZNOA5CIVKUB","<p style=""font-size: 48px;"">+</p>","","","","","null","allTrialResponses","500","1","1","img_art/16.jpg","-42","Very weird and makes no sense. ","Cynthia,Kylie,Brittany,Kathryn,Claire,Kimberly","Dreamy and chaotic,-9,320,20","Mixed feelings. Warm and comfy yet somewhat violent. A stark contrast,0,300,20","Kind of dull, colors and drawings are not really interesting.,0,40,20","I see something that is supposed to be comforting but it's been discarded and lost.,-20,140,20","the materials used are interesting,30,260,20","Weird and creepy,-30,260,20","Brittany","Kind of dull, colors and drawings are not really interesting.,0,40,20","Kathryn","I see something that is supposed to be comforting but it's been discarded and lost.,-20,140,20","Claire","the materials used are interesting,30,260,20","1"
"5914","","survey-text","52","1302334","0.0-51.0-0.0","A2GZNOA5CIVKUB","","","","{""Q0"":""Way too chaotic. ""}","","","","","","","","","","","","","","","","","","","","","","",""
"3302","","image-slider-response","53","1305647","0.0-52.0","A2GZNOA5CIVKUB","","","","","-30","","","","","","","","","","","","","","","","","","","","","",""
"2039","","image-button-response","54","1310654","0.0-53.0","A2GZNOA5CIVKUB","img_art/19.jpg","2","","","","","","","","","","","","","","","","","","","","","","","","",""
"710","","image-button-response","55","1311375","0.0-54.0","A2GZNOA5CIVKUB","img_art/19.jpg","2","","","","","","","","","","","","","","","","","","","","","","","","",""
"983","","image-button-response","56","1312365","0.0-55.0-0.0","A2GZNOA5CIVKUB","img_art/19.jpg","1","","","","","","","","","","","","","","","","","","","","","","","","",""
"2237","","image-button-response","57","1314608","0.0-56.0-0.0","A2GZNOA5CIVKUB","img_art/19.jpg","0","","","","","","","","","","","","","","","","","","","","","","","","",""
"null","","html-keyboard-response","58","1315614","0.0-57.0","A2GZNOA5CIVKUB","<p style=""font-size: 48px;"">+</p>","","","","","null","allTrialResponses","1000","1","2","img_art/19.jpg","-30","Way too chaotic. ","Andrea,Mackenzie,Brittany,Kathryn,Claire,Mariah","Feels like a cafe in Paris.,35,240,20","Shapes give it a feeling of being crowded,-18,20,20","It looks too much of a rough sketch. Don't really enjoy looking at it.,-9,40,20","This one feels pretty neutral. Like a window into someone's life, one person in a bustling metropolis.,0,140,20","way too much going on,-33,260,20","I like the watercolor and colors, do not like the deconstructed city scene feel.,0,140,20","Brittany","It looks too much of a rough sketch. Don't really enjoy looking at it.,-9,40,20","Mackenzie","Shapes give it a feeling of being crowded,-18,20,20","Andrea","Feels like a cafe in Paris.,35,240,20","1"
"6887","","survey-text","59","1322518","0.0-58.0-0.0","A2GZNOA5CIVKUB","","","","{""Q0"":""This is scary and haunting. ""}","","","","","","","","","","","","","","","","","","","","","","",""
"3585.2000000001863","","image-slider-response","60","1326110","0.0-59.0","A2GZNOA5CIVKUB","","","","","-40","","","","","","","","","","","","","","","","","","","","","",""
"null","","image-button-response","61","1331120","0.0-60.0","A2GZNOA5CIVKUB","img_art/25.jpg","null","","","","","","","","","","","","","","","","","","","","","","","","",""
"1126","","image-button-response","62","1332251","0.0-61.0","A2GZNOA5CIVKUB","img_art/25.jpg","3","","","","","","","","","","","","","","","","","","","","","","","","",""
"611","","image-button-response","63","1332874","0.0-62.0-0.0","A2GZNOA5CIVKUB","img_art/25.jpg","4","","","","","","","","","","","","","","","","","","","","","","","","",""
"809","","image-button-response","64","1333693","0.0-63.0-0.0","A2GZNOA5CIVKUB","img_art/25.jpg","0","","","","","","","","","","","","","","","","","","","","","","","","",""
"null","","html-keyboard-response","65","1334698","0.0-64.0","A2GZNOA5CIVKUB","<p style=""font-size: 48px;"">+</p>","","","","","null","allTrialResponses","1000","1","3","img_art/25.jpg","-40","This is scary and haunting. ","Andrea,Mackenzie,Brittany,Caroline,Shelby,Margaret","Looks like Burning Man, dont care for the colors.,-5,240,20","Very nice color contrast and design.,40,20,20","It's a rather intriguing design,12,40,20","Makes me think of Baphomet, As above so below and is scary,-50,100,20","This makes me feel uneasy,-20,240,20","love the color and the contrast of the black on teal,50,100,20","Caroline","Makes me think of Baphomet, As above so below and is scary,-50,100,20","Shelby","This makes me feel uneasy,-20,240,20","Andrea","Looks like Burning Man, dont care for the colors.,-5,240,20","1"
"6117","","survey-text","66","1340832","0.0-65.0-0.0","A2GZNOA5CIVKUB","","","","{""Q0"":""Way to light. ""}","","","","","","","","","","","","","","","","","","","","","","",""
"3013.7000000001863","","image-slider-response","67","1343850","0.0-66.0","A2GZNOA5CIVKUB","","","","","-17","","","","","","","","","","","","","","","","","","","","","",""
"null","","image-button-response","68","1348857","0.0-67.0","A2GZNOA5CIVKUB","img_art/17.jpg","null","","","","","","","","","","","","","","","","","","","","","","","","",""
"1746","","image-button-response","69","1350614","0.0-68.0","A2GZNOA5CIVKUB","img_art/17.jpg","0","","","","","","","","","","","","","","","","","","","","","","","","",""
"827","","image-button-response","70","1351446","0.0-69.0-0.0","A2GZNOA5CIVKUB","img_art/17.jpg","1","","","","","","","","","","","","","","","","","","","","","","","","",""
"657","","image-button-response","71","1352112","0.0-70.0-0.0","A2GZNOA5CIVKUB","img_art/17.jpg","2","","","","","","","","","","","","","","","","","","","","","","","","",""
"null","","html-keyboard-response","72","1352616","0.0-71.0","A2GZNOA5CIVKUB","<p style=""font-size: 48px;"">+</p>","","","","","null","allTrialResponses","500","1","4","img_art/17.jpg","-17","Way to light. ","Andrea,Michaela,Christina,Caroline,Shelby,Kristen","A coming storm but I think I would appreciate it more with more contrast.,-12,240,20","I love how soft it is,35,260,20","I like how it looks like a tree. The colors are too muted though,12,240,20","Beautiful colors. Made me feel soft and feminine,50,100,20","This feels like creativity and limitlessness,30,240,20","calm, tranquil, happy,50,280,20","Andrea","A coming storm but I think I would appreciate it more with more contrast.,-12,240,20","Michaela","I love how soft it is,35,260,20","Christina","I like how it looks like a tree. The colors are too muted though,12,240,20","1"
"10613","","survey-text","73","1363247","0.0-72.0-0.0","A2GZNOA5CIVKUB","","","","{""Q0"":""Way too black white and messy. ""}","","","","","","","","","","","","","","","","","","","","","","",""
"3490.2000000001863","","image-slider-response","74","1366742","0.0-73.0","A2GZNOA5CIVKUB","","","","","-9","","","","","","","","","","","","","","","","","","","","","",""
"null","","image-button-response","75","1371748","0.0-74.0","A2GZNOA5CIVKUB","img_art/20.jpg","null","","","","","","","","","","","","","","","","","","","","","","","","",""
"124","","image-button-response","76","1371878","0.0-75.0","A2GZNOA5CIVKUB","img_art/20.jpg","1","","","","","","","","","","","","","","","","","","","","","","","","",""
"1305","","image-button-response","77","1373190","0.0-76.0-0.0","A2GZNOA5CIVKUB","img_art/20.jpg","2","","","","","","","","","","","","","","","","","","","","","","","","",""
"1141","","image-button-response","78","1374342","0.0-77.0-0.0","A2GZNOA5CIVKUB","img_art/20.jpg","3","","","","","","","","","","","","","","","","","","","","","","","","",""
"null","","html-keyboard-response","79","1375847","0.0-78.0","A2GZNOA5CIVKUB","<p style=""font-size: 48px;"">+</p>","","","","","null","allTrialResponses","1500","1","5","img_art/20.jpg","-9","Way too black white and messy. ","Andrea,Michaela,Christina,Alicia,Morgan,Erika","Reminds me of persistance of time (a favorite of mine).,30,240,20","I can't tell what's going on but I like the colors,12,260,20","it looks like a piccasso knock off,-23,240,20","Very cool, and calming (again) Love it.,47,120,20","The beach and industry.,12,380,20","The artist had very strong feelings, bold colors,28,100,20","Michaela","I can't tell what's going on but I like the colors,12,260,20","Christina","it looks like a piccasso knock off,-23,240,20","Alicia","Very cool, and calming (again) Love it.,47,120,20","1"
"2788","","survey-text","80","1378668","0.0-79.0-0.0","A2GZNOA5CIVKUB","","","","{""Q0"":""sky""}","","","","","","","","","","","","","","","","","","","","","","",""
"9735","","survey-text","81","1388408","0.0-80.0-0.0","A2GZNOA5CIVKUB","","","","{""Q0"":""Looks weird and musical in a way. ""}","","","","","","","","","","","","","","","","","","","","","","",""
"3606.199999999255","","image-slider-response","82","1392020","0.0-81.0","A2GZNOA5CIVKUB","","","","","-5","","","","","","","","","","","","","","","","","","","","","",""
"null","","image-button-response","83","1397031","0.0-82.0","A2GZNOA5CIVKUB","img_art/10.jpg","null","","","","","","","","","","","","","","","","","","","","","","","","",""
"2199","","image-button-response","84","1399237","0.0-83.0","A2GZNOA5CIVKUB","img_art/10.jpg","2","","","","","","","","","","","","","","","","","","","","","","","","",""
"1027","","image-button-response","85","1400269","0.0-84.0-0.0","A2GZNOA5CIVKUB","img_art/10.jpg","0","","","","","","","","","","","","","","","","","","","","","","","","",""
"631","","image-button-response","86","1400908","0.0-85.0-0.0","A2GZNOA5CIVKUB","img_art/10.jpg","1","","","","","","","","","","","","","","","","","","","","","","","","",""
"null","","html-keyboard-response","87","1401915","0.0-86.0","A2GZNOA5CIVKUB","<p style=""font-size: 48px;"">+</p>","","","","","null","allTrialResponses","1000","1","6","img_art/10.jpg","-5","Looks weird and musical in a way. ","Sierra,Michaela,Christina,Alicia,Miranda,Amy","it just doesnt appeal to me.,-10,260,20","It looks like it's sinking but it could also be a view from above,40,260,20","It's very dark and angry looking,-31,240,20","It's art. (for some),7,120,20","It reminds me of how my dog has to run all over the place just to poop in one specific location.,-20,320,20","Highly abstract and yet the shapes and colors provide an emotional accessibility for me.,20,220,20","Christina","It's very dark and angry looking,-31,240,20","Sierra","it just doesnt appeal to me.,-10,260,20","Michaela","It looks like it's sinking but it could also be a view from above,40,260,20","1"
"7963","","survey-text","88","1409900","0.0-87.0-0.0","A2GZNOA5CIVKUB","","","","{""Q0"":""Looks drawn by a child. ""}","","","","","","","","","","","","","","","","","","","","","","",""
"8388.400000000373","","image-slider-response","89","1418294","0.0-88.0","A2GZNOA5CIVKUB","","","","","-44","","","","","","","","","","","","","","","","","","","","","",""
"null","","image-button-response","90","1423301","0.0-89.0","A2GZNOA5CIVKUB","img_art/2.jpg","null","","","","","","","","","","","","","","","","","","","","","","","","",""
"3088","","image-button-response","91","1426395","0.0-90.0","A2GZNOA5CIVKUB","img_art/2.jpg","1","","","","","","","","","","","","","","","","","","","","","","","","",""
"766","","image-button-response","92","1427168","0.0-91.0-0.0","A2GZNOA5CIVKUB","img_art/2.jpg","4","","","","","","","","","","","","","","","","","","","","","","","","",""
"707","","image-button-response","93","1427887","0.0-92.0-0.0","A2GZNOA5CIVKUB","img_art/2.jpg","5","","","","","","","","","","","","","","","","","","","","","","","","",""
"null","","html-keyboard-response","94","1428390","0.0-93.0","A2GZNOA5CIVKUB","<p style=""font-size: 48px;"">+</p>","","","","","null","allTrialResponses","500","1","7","img_art/2.jpg","-44","Looks drawn by a child. ","Sierra,Michaela,Christina,Samantha,Maria,Kelly","looks like a happy child,15,260,20","My immediate reaction was it looked like a class but then I saw a smile in the middle,11,260,20","It looks like a little kids primary color picture,3,240,20","Cute and happy,22,140,20","again, I struggle to see the art and I dislike the green in particular.,-31,120,20","I cant tell whats happening here and that shade of green is just not my thing.,-17,220,20","Michaela","My immediate reaction was it looked like a class but then I saw a smile in the middle,11,260,20","Maria","again, I struggle to see the art and I dislike the green in particular.,-31,120,20","Kelly","I cant tell whats happening here and that shade of green is just not my thing.,-17,220,20","1"
"10248","","survey-text","95","1438650","0.0-94.0-0.0","A2GZNOA5CIVKUB","","","","{""Q0"":""This looks nice with the colors surrounding it. ""}","","","","","","","","","","","","","","","","","","","","","","",""
"3567.5","","image-slider-response","96","1442222","0.0-95.0","A2GZNOA5CIVKUB","","","","","40","","","","","","","","","","","","","","","","","","","","","",""
"4093","","image-button-response","97","1447228","0.0-96.0","A2GZNOA5CIVKUB","img_art/23.jpg","3","","","","","","","","","","","","","","","","","","","","","","","","",""
"1337","","image-button-response","98","1448573","0.0-97.0","A2GZNOA5CIVKUB","img_art/23.jpg","3","","","","","","","","","","","","","","","","","","","","","","","","",""
"1017","","image-button-response","99","1449595","0.0-98.0-0.0","A2GZNOA5CIVKUB","img_art/23.jpg","0","","","","","","","","","","","","","","","","","","","","","","","","",""
"770","","image-button-response","100","1450373","0.0-99.0-0.0","A2GZNOA5CIVKUB","img_art/23.jpg","1","","","","","","","","","","","","","","","","","","","","","","","","",""
"null","","html-keyboard-response","101","1451880","0.0-100.0","A2GZNOA5CIVKUB","<p style=""font-size: 48px;"">+</p>","","","","","null","allTrialResponses","1500","1","8","img_art/23.jpg","40","This looks nice with the colors surrounding it. ","Grace,Michaela,Mikayla,Michelle,Maria,Kelly","Looks like fireworks.,21,180,20","This would make a great mural,37,260,20","So beautiful with the white accents.,50,300,20","This is nice, the colorful background is fun and the white looks like dancing figures,5,280,20","the pattern of colours imbues in me a sense of infinity, which I find soothing,10,120,20","Love this. I love the white, really pops with the colors surrounding it.,44,220,20","Michelle","This is nice, the colorful background is fun and the white looks like dancing figures,5,280,20","Grace","Looks like fireworks.,21,180,20","Michaela","This would make a great mural,37,260,20","1"
"5172","","survey-text","102","1457069","0.0-101.0-0.0","A2GZNOA5CIVKUB","","","","{""Q0"":""Looks childish. ""}","","","","","","","","","","","","","","","","","","","","","","",""
"3377.5","","image-slider-response","103","1460450","0.0-102.0","A2GZNOA5CIVKUB","","","","","-50","","","","","","","","","","","","","","","","","","","","","",""
"4993","","image-button-response","104","1465456","0.0-103.0","A2GZNOA5CIVKUB","img_art/3.jpg","1","","","","","","","","","","","","","","","","","","","","","","","","",""
"968","","image-button-response","105","1466430","0.0-104.0","A2GZNOA5CIVKUB","img_art/3.jpg","1","","","","","","","","","","","","","","","","","","","","","","","","",""
"2328","","image-button-response","106","1468763","0.0-105.0-0.0","A2GZNOA5CIVKUB","img_art/3.jpg","5","","","","","","","","","","","","","","","","","","","","","","","","",""
"1135","","image-button-response","107","1469905","0.0-106.0-0.0","A2GZNOA5CIVKUB","img_art/3.jpg","3","","","","","","","","","","","","","","","","","","","","","","","","",""
"null","","html-keyboard-response","108","1470909","0.0-107.0","A2GZNOA5CIVKUB","<p style=""font-size: 48px;"">+</p>","","","","","null","allTrialResponses","1000","1","9","img_art/3.jpg","-50","Looks childish. ","Grace,Michaela,Angela,Michelle,Briana,Sara","Just no. I love red but this looks like blood splatter on a wall from a horrific killing.,-45,180,20","It looks like someone took a red sharpie and just scribbled angrily,-20,260,20","Like the colors and energy of this work.,10,260,20","Ok, just a bunch of red lines and a grey smudge. Would pass this right by in a gallery,-12,280,20","Sharp peaks look like sharp teeth,-37,400,20","Random use of red and looks scary,-50,160,20","Michaela","It looks like someone took a red sharpie and just scribbled angrily,-20,260,20","Sara","Random use of red and looks scary,-50,160,20","Michelle","Ok, just a bunch of red lines and a grey smudge. Would pass this right by in a gallery,-12,280,20","1"
"10530","","survey-text","109","1481461","0.0-108.0-0.0","A2GZNOA5CIVKUB","","","","{""Q0"":""It is way too gray and scary. ""}","","","","","","","","","","","","","","","","","","","","","","",""
"3471.5","","image-slider-response","110","1484938","0.0-109.0","A2GZNOA5CIVKUB","","","","","-14","","","","","","","","","","","","","","","","","","","","","",""
"null","","image-button-response","111","1490467","0.0-110.0","A2GZNOA5CIVKUB","img_art/29.jpg","null","","","","","","","","","","","","","","","","","","","","","","","","",""
"6325","","image-button-response","112","1496796","0.0-111.0","A2GZNOA5CIVKUB","img_art/29.jpg","1","","","","","","","","","","","","","","","","","","","","","","","","",""
"698","","image-button-response","113","1497499","0.0-112.0-0.0","A2GZNOA5CIVKUB","img_art/29.jpg","0","","","","","","","","","","","","","","","","","","","","","","","","",""
"811","","image-button-response","114","1498316","0.0-113.0-0.0","A2GZNOA5CIVKUB","img_art/29.jpg","2","","","","","","","","","","","","","","","","","","","","","","","","",""
"null","","html-keyboard-response","115","1499320","0.0-114.0","A2GZNOA5CIVKUB","<p style=""font-size: 48px;"">+</p>","","","","","null","allTrialResponses","1000","1","10","img_art/29.jpg","-14","It is way too gray and scary. ","Monica,Michaela,Sophia,Michelle,Chelsea,Sara","There's too much black and it looks sloppy,-35,360,20","Like a crime scene. It's neat and different,30,260,20","It's creative. It's just not my thing.,-32,280,20","The texture really stands out, this is an interesting composition,6,280,20","It is intriguing but I don't like the red X.,6,180,20","I don't like the black,-50,160,20","Michaela","Like a crime scene. It's neat and different,30,260,20","Monica","There's too much black and it looks sloppy,-35,360,20","Sophia","It's creative. It's just not my thing.,-32,280,20","1"
"3460","","survey-text","116","1502817","0.0-115.0-0.0","A2GZNOA5CIVKUB","","","","{""Q0"":""our ""}","","","","","","","","","","","","","","","","","","","","","","",""
"3519","","survey-text","117","1508123","0.0-115.1-0.1","A2GZNOA5CIVKUB","","","","{""Q0"":""our ""}","","","","","","","","","","","","","","","","","","","","","","",""
"3606","","survey-text","118","1512775","0.0-115.2-0.2","A2GZNOA5CIVKUB","","","","{""Q0"":""OUR""}","","","","","","","","","","","","","","","","","","","","","","",""
"8089","","survey-text","119","1523409","0.0-115.3-0.3","A2GZNOA5CIVKUB","","","","{""Q0"":""our""}","","","","","","","","","","","","","","","","","","","","","","",""
"10590","","survey-text","120","1534003","0.0-116.0-0.0","A2GZNOA5CIVKUB","","","","{""Q0"":""The colors don't make sense. ""}","","","","","","","","","","","","","","","","","","","","","","",""
"3364.9000000003725","","image-slider-response","121","1537372","0.0-117.0","A2GZNOA5CIVKUB","","","","","-41","","","","","","","","","","","","","","","","","","","","","",""
"null","","image-button-response","122","1542467","0.0-118.0","A2GZNOA5CIVKUB","img_art/5.jpg","null","","","","","","","","","","","","","","","","","","","","","","","","",""
"7504","","image-button-response","123","1549984","0.0-119.0","A2GZNOA5CIVKUB","img_art/5.jpg","3","","","","","","","","","","","","","","","","","","","","","","","","",""
"642","","image-button-response","124","1550637","0.0-120.0-0.0","A2GZNOA5CIVKUB","img_art/5.jpg","4","","","","","","","","","","","","","","","","","","","","","","","","",""
"590","","image-button-response","125","1551239","0.0-121.0-0.0","A2GZNOA5CIVKUB","img_art/5.jpg","5","","","","","","","","","","","","","","","","","","","","","","","","",""
"null","","html-keyboard-response","126","1551744","0.0-122.0","A2GZNOA5CIVKUB","<p style=""font-size: 48px;"">+</p>","","","","","null","allTrialResponses","500","1","11","img_art/5.jpg","-41","The colors don't make sense. ","Monica,Michaela,Sophia,Rachel,Autumn,Marissa","I like how simple it is and the pink brushstrokes are nice,27,360,20","Pretty simple, I'm not sure what it's supposed to mean,14,260,20","Looks like a tied up trash bag.,-10,280,20","Not sure what to make of this one.,-1,80,20","Appealing but shapeless,24,340,20","I am confused as to what I am seeing is it a handbag, duck foot, bell?,-18,160,20","Rachel","Not sure what to make of this one.,-1,80,20","Autumn","Appealing but shapeless,24,340,20","Marissa","I am confused as to what I am seeing is it a handbag, duck foot, bell?,-18,160,20","4"
"10968","","survey-text","127","1562724","0.0-123.0-0.0","A2GZNOA5CIVKUB","","","","{""Q0"":""Looks a like desert place and quite interesting. ""}","","","","","","","","","","","","","","","","","","","","","","",""
"4362.0999999996275","","image-slider-response","128","1567096","0.0-124.0","A2GZNOA5CIVKUB","","","","","25","","","","","","","","","","","","","","","","","","","","","",""
"null","","image-button-response","129","1572103","0.0-125.0","A2GZNOA5CIVKUB","img_art/6.jpg","null","","","","","","","","","","","","","","","","","","","","","","","","",""
"484","","image-button-response","130","1572595","0.0-126.0","A2GZNOA5CIVKUB","img_art/6.jpg","2","","","","","","","","","","","","","","","","","","","","","","","","",""
"1355","","image-button-response","131","1573958","0.0-127.0-0.0","A2GZNOA5CIVKUB","img_art/6.jpg","5","","","","","","","","","","","","","","","","","","","","","","","","",""
"736","","image-button-response","132","1574702","0.0-128.0-0.0","A2GZNOA5CIVKUB","img_art/6.jpg","4","","","","","","","","","","","","","","","","","","","","","","","","",""
"null","","html-keyboard-response","133","1575208","0.0-129.0","A2GZNOA5CIVKUB","<p style=""font-size: 48px;"">+</p>","","","","","null","allTrialResponses","500","1","12","img_art/6.jpg","25","Looks a like desert place and quite interesting. ","Danielle,Gabriela,Cassidy,Rachel,Autumn,Marissa","Not a fan of anything in this,-43,340,20","This looks like a crow, sort of bleak,-26,140,20","The background on the upper half is nice. I also like the contrast of the top and bottom halves,5,140,20","Reminds me of a plant poking through the soil. It reminds me of new life.,31,80,20","Bird? It's a bird.,23,340,20","I am intrigued but unsure whether I enjoy this or not,6,160,20","Cassidy","The background on the upper half is nice. I also like the contrast of the top and bottom halves,5,140,20","Marissa","I am intrigued but unsure whether I enjoy this or not,6,160,20","Autumn","Bird? It's a bird.,23,340,20","4"
"12465","","survey-text","134","1587694","0.0-130.0-0.0","A2GZNOA5CIVKUB","","","","{""Q0"":""Looks like a sci fi type of scene with the colors and outline. ""}","","","","","","","","","","","","","","","","","","","","","","",""
"2527.100000000559","","image-slider-response","135","1590226","0.0-131.0","A2GZNOA5CIVKUB","","","","","23","","","","","","","","","","","","","","","","","","","","","",""
"3358","","image-button-response","136","1595232","0.0-132.0","A2GZNOA5CIVKUB","img_art/21.jpg","4","","","","","","","","","","","","","","","","","","","","","","","","",""
"642","","image-button-response","137","1595885","0.0-133.0","A2GZNOA5CIVKUB","img_art/21.jpg","4","","","","","","","","","","","","","","","","","","","","","","","","",""
"937","","image-button-response","138","1596830","0.0-134.0-0.0","A2GZNOA5CIVKUB","img_art/21.jpg","1","","","","","","","","","","","","","","","","","","","","","","","","",""
"1064","","image-button-response","139","1597904","0.0-135.0-0.0","A2GZNOA5CIVKUB","img_art/21.jpg","2","","","","","","","","","","","","","","","","","","","","","","","","",""
"null","","html-keyboard-response","140","1598907","0.0-136.0","A2GZNOA5CIVKUB","<p style=""font-size: 48px;"">+</p>","","","","","null","allTrialResponses","1000","1","13","img_art/21.jpg","23","Looks like a sci fi type of scene with the colors and outline. ","Alexandria,Kaylee,Cassidy,Tiffany,Autumn,Marissa","the vast colors make me happy,15,80,20","looks like a sea during some war,27,200,20","I really like these colors together and their placement. The dabs of white are a nice contrast to the soft blending,10,140,20","I feel the same serene excitement that I feel watching a sunrise on a beach.,38,360,20","Amazing colors.,34,340,20","I feel confused,-18,160,20","Autumn","Amazing colors.,34,340,20","Kaylee","looks like a sea during some war,27,200,20","Cassidy","I really like these colors together and their placement. The dabs of white are a nice contrast to the soft blending,10,140,20","4"
"13125","","survey-text","141","1612048","0.0-137.0-0.0","A2GZNOA5CIVKUB","","","","{""Q0"":""The colors and shapes seem very interesting. ""}","","","","","","","","","","","","","","","","","","","","","","",""
"4037.2999999998137","","image-slider-response","142","1616090","0.0-138.0","A2GZNOA5CIVKUB","","","","","35","","","","","","","","","","","","","","","","","","","","","",""
"null","","image-button-response","143","1621100","0.0-139.0","A2GZNOA5CIVKUB","img_art/22.jpg","null","","","","","","","","","","","","","","","","","","","","","","","","",""
"850","","image-button-response","144","1621956","0.0-140.0","A2GZNOA5CIVKUB","img_art/22.jpg","2","","","","","","","","","","","","","","","","","","","","","","","","",""
"1098","","image-button-response","145","1623060","0.0-141.0-0.0","A2GZNOA5CIVKUB","img_art/22.jpg","5","","","","","","","","","","","","","","","","","","","","","","","","",""
"1102","","image-button-response","146","1624169","0.0-142.0-0.0","A2GZNOA5CIVKUB","img_art/22.jpg","4","","","","","","","","","","","","","","","","","","","","","","","","",""
"null","","html-keyboard-response","147","1625172","0.0-143.0","A2GZNOA5CIVKUB","<p style=""font-size: 48px;"">+</p>","","","","","null","allTrialResponses","1000","1","14","img_art/22.jpg","35","The colors and shapes seem very interesting. ","Katelyn,Kaylee,Cassidy,Caitlin,Autumn,Kayla","I usually dont like blurry pieces but the colors are amazing in this,14,100,20","its just ugly for me,-50,200,20","I don't really know why, I just like looking at it,10,140,20","Looks like the kind of art I would see at the doctor's office.,-5,80,20","Same az the last one?,-49,340,20","I don't like that it looks like a person is there upside down.,-16,180,20","Cassidy","I don't really know why, I just like looking at it,10,140,20","Kayla","I don't like that it looks like a person is there upside down.,-16,180,20","Autumn","Same az the last one?,-49,340,20","4"
"8201","","survey-text","148","1633395","0.0-144.0-0.0","A2GZNOA5CIVKUB","","","","{""Q0"":""Looks like outside and a tree. ""}","","","","","","","","","","","","","","","","","","","","","","",""
"3755.7999999998137","","image-slider-response","149","1637157","0.0-145.0","A2GZNOA5CIVKUB","","","","","36","","","","","","","","","","","","","","","","","","","","","",""
"null","","image-button-response","150","1642166","0.0-146.0","A2GZNOA5CIVKUB","img_art/14.jpg","null","","","","","","","","","","","","","","","","","","","","","","","","",""
"1440","","image-button-response","151","1643610","0.0-147.0","A2GZNOA5CIVKUB","img_art/14.jpg","2","","","","","","","","","","","","","","","","","","","","","","","","",""
"871","","image-button-response","152","1644487","0.0-148.0-0.0","A2GZNOA5CIVKUB","img_art/14.jpg","4","","","","","","","","","","","","","","","","","","","","","","","","",""
"592","","image-button-response","153","1645086","0.0-149.0-0.0","A2GZNOA5CIVKUB","img_art/14.jpg","3","","","","","","","","","","","","","","","","","","","","","","","","",""
"null","","html-keyboard-response","154","1646090","0.0-150.0","A2GZNOA5CIVKUB","<p style=""font-size: 48px;"">+</p>","","","","","null","allTrialResponses","1000","1","15","img_art/14.jpg","36","Looks like outside and a tree. ","Isabella,Makayla,Cassidy,Sydney,Autumn,Kayla","Feels like a camp fire among friends,22,280,20","I like that it's like a snippet of a field in the desert,21,80,20","Meh. Pleasant to look at. Colors are nice,6,140,20","I'm imagining a flower bouquet with pretty colors which I like.,35,320,20","It's too basic.,23,340,20","I like that it looks like plants on a table, which reminds me of life.,4,180,20","Cassidy","Meh. Pleasant to look at. Colors are nice,6,140,20","Autumn","It's too basic.,23,340,20","Sydney","I'm imagining a flower bouquet with pretty colors which I like.,35,320,20","4"
"3503","","survey-text","155","1649611","0.0-151.0-0.0","A2GZNOA5CIVKUB","","","","{""Q0"":""course""}","","","","","","","","","","","","","","","","","","","","","","",""
"8534","","survey-text","156","1658150","0.0-152.0-0.0","A2GZNOA5CIVKUB","","","","{""Q0"":""It looks like a pretzel. ""}","","","","","","","","","","","","","","","","","","","","","","",""
"3867.7000000001863","","image-slider-response","157","1662022","0.0-153.0","A2GZNOA5CIVKUB","","","","","-21","","","","","","","","","","","","","","","","","","","","","",""
"null","","image-button-response","158","1667028","0.0-154.0","A2GZNOA5CIVKUB","img_art/4.jpg","null","","","","","","","","","","","","","","","","","","","","","","","","",""
"1218","","image-button-response","159","1668259","0.0-155.0","A2GZNOA5CIVKUB","img_art/4.jpg","2","","","","","","","","","","","","","","","","","","","","","","","","",""
"563","","image-button-response","160","1668827","0.0-156.0-0.0","A2GZNOA5CIVKUB","img_art/4.jpg","1","","","","","","","","","","","","","","","","","","","","","","","","",""
"493","","image-button-response","161","1669327","0.0-157.0-0.0","A2GZNOA5CIVKUB","img_art/4.jpg","0","","","","","","","","","","","","","","","","","","","","","","","","",""
"null","","html-keyboard-response","162","1670837","0.0-158.0","A2GZNOA5CIVKUB","<p style=""font-size: 48px;"">+</p>","","","","","null","allTrialResponses","1500","1","16","img_art/4.jpg","-21","It looks like a pretzel. ","Emma,Molly,Cassidy,Sydney,Autumn,Brooke","Interesting but maybe a little creepy,0,60,20","Not bad at all.,20,340,20","Hate the color, and just do not get the point.,-13,140,20","This piece catches my eye, but it's strange to me.,10,320,20","I don't like murky colors.,-40,340,20","Looks like the roomba got into dog poop,-30,60,20","Cassidy","Hate the color, and just do not get the point.,-13,140,20","Molly","Not bad at all.,20,340,20","Emma","Interesting but maybe a little creepy,0,60,20","4"
"32821","","survey-text","163","1703686","0.0-159.0-0.0","A2GZNOA5CIVKUB","","","","{""Q0"":""Looks like a nice living room. ""}","","","","","","","","","","","","","","","","","","","","","","",""
"3431.2999999998137","","image-slider-response","164","1707125","0.0-160.0","A2GZNOA5CIVKUB","","","","","27","","","","","","","","","","","","","","","","","","","","","",""
"4803","","image-button-response","165","1712132","0.0-161.0","A2GZNOA5CIVKUB","img_art/26.jpg","3","","","","","","","","","","","","","","","","","","","","","","","","",""
"2609","","image-button-response","166","1714750","0.0-162.0","A2GZNOA5CIVKUB","img_art/26.jpg","3","","","","","","","","","","","","","","","","","","","","","","","","",""
"499","","image-button-response","167","1715255","0.0-163.0-0.0","A2GZNOA5CIVKUB","img_art/26.jpg","4","","","","","","","","","","","","","","","","","","","","","","","","",""
"523","","image-button-response","168","1715788","0.0-164.0-0.0","A2GZNOA5CIVKUB","img_art/26.jpg","5","","","","","","","","","","","","","","","","","","","","","","","","",""
"null","","html-keyboard-response","169","1717293","0.0-165.0","A2GZNOA5CIVKUB","<p style=""font-size: 48px;"">+</p>","","","","","null","allTrialResponses","1500","1","17","img_art/26.jpg","27","Looks like a nice living room. ","Emma,Molly,Cassidy,Hailey,Paige,Alyssa","Looks unfinished,-31,60,20","Nothing to say.,0,340,20","the trees are cool,1,140,20","bedroom in the outdoors. warm,9,200,20","somewhat happy, like being outside on a nice day,30,60,20","Its pretty.And a nice use of water colors.,25,160,20","Hailey","bedroom in the outdoors. warm,9,200,20","Paige","somewhat happy, like being outside on a nice day,30,60,20","Alyssa","Its pretty.And a nice use of water colors.,25,160,20","4"
"98531","","survey-text","170","1815835","0.0-166.0-0.0","A2GZNOA5CIVKUB","","","","{""Q0"":""Way too black and scary. ""}","","","","","","","","","","","","","","","","","","","","","","",""
"4384.399999999441","","image-slider-response","171","1820225","0.0-167.0","A2GZNOA5CIVKUB","","","","","-31","","","","","","","","","","","","","","","","","","","","","",""
"3169","","image-button-response","172","1825233","0.0-168.0","A2GZNOA5CIVKUB","img_art/15.jpg","1","","","","","","","","","","","","","","","","","","","","","","","","",""
"587","","image-button-response","173","1825828","0.0-169.0","A2GZNOA5CIVKUB","img_art/15.jpg","1","","","","","","","","","","","","","","","","","","","","","","","","",""
"988","","image-button-response","174","1826821","0.0-170.0-0.0","A2GZNOA5CIVKUB","img_art/15.jpg","0","","","","","","","","","","","","","","","","","","","","","","","","",""
"545","","image-button-response","175","1827372","0.0-171.0-0.0","A2GZNOA5CIVKUB","img_art/15.jpg","2","","","","","","","","","","","","","","","","","","","","","","","","",""
"null","","html-keyboard-response","176","1827876","0.0-172.0","A2GZNOA5CIVKUB","<p style=""font-size: 48px;"">+</p>","","","","","null","allTrialResponses","500","1","18","img_art/15.jpg","-31","Way too black and scary. ","Kaitlin,Julia,Megan,Hailey,Paige,Alyssa","This one seems a bit frightening,-19,60,20","This is simply too ""old-school"",-27,40,20","Dark, drab asymmetrical floral piece,-26,200,20","ugly picture and don't like it,-22,200,20","I feel nothing when looking at this,1,60,20","Uninteresting and too much black,-30,160,20","Julia","This is simply too ""old-school"",-27,40,20","Kaitlin","This one seems a bit frightening,-19,60,20","Megan","Dark, drab asymmetrical floral piece,-26,200,20","4"
"10321","","survey-text","177","1838222","0.0-173.0-0.0","A2GZNOA5CIVKUB","","","","{""Q0"":""Looks haunting and Halloween like. ""}","","","","","","","","","","","","","","","","","","","","","","",""
"2245.5999999996275","","image-slider-response","178","1840471","0.0-174.0","A2GZNOA5CIVKUB","","","","","-41","","","","","","","","","","","","","","","","","","","","","",""
"null","","image-button-response","179","1846467","0.0-175.0","A2GZNOA5CIVKUB","img_art/18.jpg","null","","","","","","","","","","","","","","","","","","","","","","","","",""
"30845","","image-button-response","180","1877318","0.0-176.0","A2GZNOA5CIVKUB","img_art/18.jpg","1","","","","","","","","","","","","","","","","","","","","","","","","",""
"593","","image-button-response","181","1877917","0.0-177.0-0.0","A2GZNOA5CIVKUB","img_art/18.jpg","0","","","","","","","","","","","","","","","","","","","","","","","","",""
"1142","","image-button-response","182","1879067","0.0-178.0-0.0","A2GZNOA5CIVKUB","img_art/18.jpg","2","","","","","","","","","","","","","","","","","","","","","","","","",""
"null","","html-keyboard-response","183","1880573","0.0-179.0","A2GZNOA5CIVKUB","<p style=""font-size: 48px;"">+</p>","","","","","null","allTrialResponses","1500","1","19","img_art/18.jpg","-41","Looks haunting and Halloween like. ","Kaitlin,Julia,Megan,Meghan,Haley,Allison","I really like this one - there seems to be a story behind it,32,60,20","Very classy, I feel like it's the apocalypse.,25,40,20","Nice palette with complexity becoming nice at the center,34,200,20","reminds me of sailors on a boat,17,220,20","I could stare at this for long stretches of time and still find new details. I love it.,40,220,20","Colors are okay. Reminds me of cavalry.,10,140,20","Julia","Very classy, I feel like it's the apocalypse.,25,40,20","Kaitlin","I really like this one - there seems to be a story behind it,32,60,20","Megan","Nice palette with complexity becoming nice at the center,34,200,20","4"
"9734","","survey-text","184","1890321","0.0-180.0-0.0","A2GZNOA5CIVKUB","","","","{""Q0"":""Looks like a person and buildings. ""}","","","","","","","","","","","","","","","","","","","","","","",""
"3191.300000000745","","image-slider-response","185","1893520","0.0-181.0","A2GZNOA5CIVKUB","","","","","37","","","","","","","","","","","","","","","","","","","","","",""
"4596","","image-button-response","186","1898526","0.0-182.0","A2GZNOA5CIVKUB","img_art/8.jpg","3","","","","","","","","","","","","","","","","","","","","","","","","",""
"2983","","image-button-response","187","1901517","0.0-183.0","A2GZNOA5CIVKUB","img_art/8.jpg","3","","","","","","","","","","","","","","","","","","","","","","","","",""
"763","","image-button-response","188","1902287","0.0-184.0-0.0","A2GZNOA5CIVKUB","img_art/8.jpg","0","","","","","","","","","","","","","","","","","","","","","","","","",""
"730","","image-button-response","189","1903027","0.0-185.0-0.0","A2GZNOA5CIVKUB","img_art/8.jpg","5","","","","","","","","","","","","","","","","","","","","","","","","",""
"null","","html-keyboard-response","190","1904535","0.0-186.0","A2GZNOA5CIVKUB","<p style=""font-size: 48px;"">+</p>","","","","","null","allTrialResponses","1500","1","20","img_art/8.jpg","37","Looks like a person and buildings. ","Kaitlin,Julia,Megan,Mary,Abigail,Alexis","wow - the colors were very well mixed,12,60,20","it's a little too classical for my tastes,-25,40,20","Cortez's influence with fair color choices,10,200,20","Very inspiring piece. I love how it's at angle. It gives it character.,23,180,20","I did not like the face,-10,20,20","Reminds me of old 80s fantasy book covers. Nostalgic,23,100,20","Mary","Very inspiring piece. I love how it's at angle. It gives it character.,23,180,20","Kaitlin","wow - the colors were very well mixed,12,60,20","Alexis","Reminds me of old 80s fantasy book covers. Nostalgic,23,100,20","4"
"2216","","survey-text","191","1906791","0.0-187.0-0.0","A2GZNOA5CIVKUB","","","","{""Q0"":""we""}","","","","","","","","","","","","","","","","","","","","","","",""
"54271","","survey-text","192","1961068","0.0-188.0-0.0","A2GZNOA5CIVKUB","","","","{""Q0"":""Looks like sand or desert. ""}","","","","","","","","","","","","","","","","","","","","","","",""
"4200.799999999814","","image-slider-response","193","1965274","0.0-189.0","A2GZNOA5CIVKUB","","","","","-24","","","","","","","","","","","","","","","","","","","","","",""
"null","","image-button-response","194","1970466","0.0-190.0","A2GZNOA5CIVKUB","img_art/7.jpg","null","","","","","","","","","","","","","","","","","","","","","","","","",""
"24758","","image-button-response","195","1995231","0.0-191.0","A2GZNOA5CIVKUB","img_art/7.jpg","4","","","","","","","","","","","","","","","","","","","","","","","","",""
"639","","image-button-response","196","1995881","0.0-192.0-0.0","A2GZNOA5CIVKUB","img_art/7.jpg","3","","","","","","","","","","","","","","","","","","","","","","","","",""
"756","","image-button-response","197","1996643","0.0-193.0-0.0","A2GZNOA5CIVKUB","img_art/7.jpg","5","","","","","","","","","","","","","","","","","","","","","","","","",""
"null","","html-keyboard-response","198","1998147","0.0-194.0","A2GZNOA5CIVKUB","<p style=""font-size: 48px;"">+</p>","","","","","null","allTrialResponses","1500","1","21","img_art/7.jpg","-24","Looks like sand or desert. ","Kaitlin,Bailey,Alexa,Mary,Destiny,Alexis","I'm not too sure about this one,-10,60,20","It gives off an alien-like vastness of space vibe which I like,9,360,20","Not a fan of the pattern or colors,-40,40,20","This reminds me of a close up photo of a stone wall.,-19,180,20","mars also crunchy leaves maybe a beehive,32,360,20","Looks like bad wallpaper,-29,100,20","Destiny","mars also crunchy leaves maybe a beehive,32,360,20","Mary","This reminds me of a close up photo of a stone wall.,-19,180,20","Alexis","Looks like bad wallpaper,-29,100,20","4"
"8615","","survey-text","199","2006787","0.0-195.0-0.0","A2GZNOA5CIVKUB","","","","{""Q0"":""Looks way too sad and weird. ""}","","","","","","","","","","","","","","","","","","","","","","",""
"3634.7999999998137","","image-slider-response","200","2010430","0.0-196.0","A2GZNOA5CIVKUB","","","","","-45","","","","","","","","","","","","","","","","","","","","","",""
"null","","image-button-response","201","2015467","0.0-197.0","A2GZNOA5CIVKUB","img_art/28.jpg","null","","","","","","","","","","","","","","","","","","","","","","","","",""
"26713","","image-button-response","202","2042185","0.0-198.0","A2GZNOA5CIVKUB","img_art/28.jpg","1","","","","","","","","","","","","","","","","","","","","","","","","",""
"726","","image-button-response","203","2042915","0.0-199.0-0.0","A2GZNOA5CIVKUB","img_art/28.jpg","2","","","","","","","","","","","","","","","","","","","","","","","","",""
"1058","","image-button-response","204","2043980","0.0-200.0-0.0","A2GZNOA5CIVKUB","img_art/28.jpg","0","","","","","","","","","","","","","","","","","","","","","","","","",""
"null","","html-keyboard-response","205","2044484","0.0-201.0","A2GZNOA5CIVKUB","<p style=""font-size: 48px;"">+</p>","","","","","null","allTrialResponses","500","1","22","img_art/28.jpg","-45","Looks way too sad and weird. ","Rebecca,Alexandra,Shannon,Mary,Destiny,Alexis","the color scheme is very well matched but i just didn't like it,-6,100,20","Boring, looks like it belongs in a coffee shop,-20,60,20","I don't like the way the colors look; I think very disgusting colors were used.,-20,220,20","The colors are really ugly. They do not compliment each other well.,-45,180,20","I wish I knew why I liked it, maybes its the pinky tones,36,360,20","Interesting. I like the ""old woman"" on the left. Lots of different entities to look at,21,100,20","Alexandra","Boring, looks like it belongs in a coffee shop,-20,60,20","Shannon","I don't like the way the colors look; I think very disgusting colors were used.,-20,220,20","Rebecca","the color scheme is very well matched but i just didn't like it,-6,100,20","4"
"8752","","survey-text","206","2053259","0.0-202.0-0.0","A2GZNOA5CIVKUB","","","","{""Q0"":""Looks like a stream of water and its interesting. ""}","","","","","","","","","","","","","","","","","","","","","","",""
"4620.100000000559","","image-slider-response","207","2057886","0.0-203.0","A2GZNOA5CIVKUB","","","","","44","","","","","","","","","","","","","","","","","","","","","",""
"null","","image-button-response","208","2062892","0.0-204.0","A2GZNOA5CIVKUB","img_art/24.jpg","null","","","","","","","","","","","","","","","","","","","","","","","","",""
"517","","image-button-response","209","2063434","0.0-205.0","A2GZNOA5CIVKUB","img_art/24.jpg","1","","","","","","","","","","","","","","","","","","","","","","","","",""
"862","","image-button-response","210","2064302","0.0-206.0-0.0","A2GZNOA5CIVKUB","img_art/24.jpg","2","","","","","","","","","","","","","","","","","","","","","","","","",""
"902","","image-button-response","211","2065214","0.0-207.0-0.0","A2GZNOA5CIVKUB","img_art/24.jpg","5","","","","","","","","","","","","","","","","","","","","","","","","",""
"null","","html-keyboard-response","212","2066718","0.0-208.0","A2GZNOA5CIVKUB","<p style=""font-size: 48px;"">+</p>","","","","","null","allTrialResponses","1500","1","23","img_art/24.jpg","44","Looks like a stream of water and its interesting. ","Rebecca,Alexandra,Shannon,Jacqueline,Olivia,Courtney","organized mess at first glance, would love to inspect this in closer proximity,39,100,20","This reminds me of a creek or a river. It puts me a peace,42,60,20","I like the way the colors are put together, and I can imagine this picture in real life.,40,220,20","This one isn't that abstract. It clearly looks like a waterfall.,31,300,20","tranquility in the stream,34,40,20","What a nice refreshing waterfall.,39,280,20","Alexandra","This reminds me of a creek or a river. It puts me a peace,42,60,20","Shannon","I like the way the colors are put together, and I can imagine this picture in real life.,40,220,20","Courtney","What a nice refreshing waterfall.,39,280,20","4"
"7188","","survey-text","213","2073918","0.0-209.0-0.0","A2GZNOA5CIVKUB","","","","{""Q0"":""Looks like a very sad town. ""}","","","","","","","","","","","","","","","","","","","","","","",""
"3552","","image-slider-response","214","2077475","0.0-210.0","A2GZNOA5CIVKUB","","","","","-33","","","","","","","","","","","","","","","","","","","","","",""
"null","","image-button-response","215","2083468","0.0-211.0","A2GZNOA5CIVKUB","img_art/11.jpg","null","","","","","","","","","","","","","","","","","","","","","","","","",""
"39332","","image-button-response","216","2122814","0.0-212.0","A2GZNOA5CIVKUB","img_art/11.jpg","1","","","","","","","","","","","","","","","","","","","","","","","","",""
"517","","image-button-response","217","2123341","0.0-213.0-0.0","A2GZNOA5CIVKUB","img_art/11.jpg","2","","","","","","","","","","","","","","","","","","","","","","","","",""
"814","","image-button-response","218","2124163","0.0-214.0-0.0","A2GZNOA5CIVKUB","img_art/11.jpg","0","","","","","","","","","","","","","","","","","","","","","","","","",""
"null","","html-keyboard-response","219","2125168","0.0-215.0","A2GZNOA5CIVKUB","<p style=""font-size: 48px;"">+</p>","","","","","null","allTrialResponses","1000","1","24","img_art/11.jpg","-33","Looks like a very sad town. ","Katie,Alexandra,Shannon,Heather,Anna,Courtney","Dark and dreary. Makes me think of rain/water. I see grey clouds and high waves. Looks unsettling.,-20,160,20","I normally would not like this photo, but the design is nice.,21,60,20","This looks like a bridge that has plenty of color.,10,220,20","looks like highways and homes and lives intertwining.,27,260,20","It makes me think of a coastal sea town.,50,300,20","Thats a creepy old rollercoasters abandoned,-2,280,20","Alexandra","I normally would not like this photo, but the design is nice.,21,60,20","Shannon","This looks like a bridge that has plenty of color.,10,220,20","Katie","Dark and dreary. Makes me think of rain/water. I see grey clouds and high waves. Looks unsettling.,-20,160,20","4"
"5713","","survey-text","220","2130904","0.0-216.0-0.0","A2GZNOA5CIVKUB","","","","{""Q0"":""Way too blue and sad. ""}","","","","","","","","","","","","","","","","","","","","","","",""
"3717","","image-slider-response","221","2134629","0.0-217.0","A2GZNOA5CIVKUB","","","","","-21","","","","","","","","","","","","","","","","","","","","","",""
"null","","image-button-response","222","2140467","0.0-218.0","A2GZNOA5CIVKUB","img_art/13.jpg","null","","","","","","","","","","","","","","","","","","","","","","","","",""
"78269","","image-button-response","223","2218742","0.0-219.0","A2GZNOA5CIVKUB","img_art/13.jpg","4","","","","","","","","","","","","","","","","","","","","","","","","",""
"546","","image-button-response","224","2219293","0.0-220.0-0.0","A2GZNOA5CIVKUB","img_art/13.jpg","3","","","","","","","","","","","","","","","","","","","","","","","","",""
"770","","image-button-response","225","2220069","0.0-221.0-0.0","A2GZNOA5CIVKUB","img_art/13.jpg","5","","","","","","","","","","","","","","","","","","","","","","","","",""
"null","","html-keyboard-response","226","2220572","0.0-222.0","A2GZNOA5CIVKUB","<p style=""font-size: 48px;"">+</p>","","","","","null","allTrialResponses","500","1","25","img_art/13.jpg","-21","Way too blue and sad. ","Katie,Alexandra,Shannon,Diana,Laura,Victoria","Cool and calming colors. I like splatter art.,10,160,20","I do like the blue colors in this.,12,60,20","It looks like someone splattered a bunch of different colors to make a picture; I think its ugly.,-40,220,20","I really loved the color contrast. Having the white stripe in the center makes the it appear 3D.,11,380,20","water on my shower curtain - I feel refreshed, renewed,9,320,20","reminds me of rain,36,400,20","Laura","water on my shower curtain - I feel refreshed, renewed,9,320,20","Diana","I really loved the color contrast. Having the white stripe in the center makes the it appear 3D.,11,380,20","Victoria","reminds me of rain,36,400,20","4"
"2474","","survey-text","227","2223087","0.0-223.0-0.0","A2GZNOA5CIVKUB","","","","{""Q0"":""table""}","","","","","","","","","","","","","","","","","","","","","","",""
"6722","","survey-text","228","2229815","0.0-224.0-0.0","A2GZNOA5CIVKUB","","","","{""Q0"":""Looks like vague flowers. ""}","","","","","","","","","","","","","","","","","","","","","","",""
"3114.5","","image-slider-response","229","2232934","0.0-225.0","A2GZNOA5CIVKUB","","","","","30","","","","","","","","","","","","","","","","","","","","","",""
"3546","","image-button-response","230","2237942","0.0-226.0","A2GZNOA5CIVKUB","img_art/27.jpg","3","","","","","","","","","","","","","","","","","","","","","","","","",""
"701","","image-button-response","231","2238653","0.0-227.0","A2GZNOA5CIVKUB","img_art/27.jpg","3","","","","","","","","","","","","","","","","","","","","","","","","",""
"804","","image-button-response","232","2239466","0.0-228.0-0.0","A2GZNOA5CIVKUB","img_art/27.jpg","5","","","","","","","","","","","","","","","","","","","","","","","","",""
"639","","image-button-response","233","2240111","0.0-229.0-0.0","A2GZNOA5CIVKUB","img_art/27.jpg","0","","","","","","","","","","","","","","","","","","","","","","","","",""
"null","","html-keyboard-response","234","2240614","0.0-230.0","A2GZNOA5CIVKUB","<p style=""font-size: 48px;"">+</p>","","","","","null","allTrialResponses","500","1","26","img_art/27.jpg","30","Looks like vague flowers. ","Nicole,Lindsey,Gabrielle,Diana,Laura,Victoria","Very cool colors and I like the contrast of lights and darks,30,20,20","Looks like my niece's doodles.,-50,400,20","like the patterns and colors all but the orange blob on the right,32,160,20","I don't care for the green scribbles; not sure what they are. But I adore the colors in the background.,24,380,20","feels like a bar scene, tucked away in the corner of a small town,-40,320,20","reminds me of fall,33,400,20","Diana","I don't care for the green scribbles; not sure what they are. But I adore the colors in the background.,24,380,20","Victoria","reminds me of fall,33,400,20","Nicole","Very cool colors and I like the contrast of lights and darks,30,20,20","4"
"12917","","survey-text","235","2253544","0.0-231.0-0.0","A2GZNOA5CIVKUB","","","","{""Q0"":""Looks like a scary face in the middle. ""}","","","","","","","","","","","","","","","","","","","","","","",""
"3120.5","","image-slider-response","236","2256669","0.0-232.0","A2GZNOA5CIVKUB","","","","","-37","","","","","","","","","","","","","","","","","","","","","",""
"null","","image-button-response","237","2262467","0.0-233.0","A2GZNOA5CIVKUB","img_art/9.jpg","null","","","","","","","","","","","","","","","","","","","","","","","","",""
"9747","","image-button-response","238","2272224","0.0-234.0","A2GZNOA5CIVKUB","img_art/9.jpg","4","","","","","","","","","","","","","","","","","","","","","","","","",""
"1804","","image-button-response","239","2274034","0.0-235.0-0.0","A2GZNOA5CIVKUB","img_art/9.jpg","1","","","","","","","","","","","","","","","","","","","","","","","","",""
"505","","image-button-response","240","2274546","0.0-236.0-0.0","A2GZNOA5CIVKUB","img_art/9.jpg","2","","","","","","","","","","","","","","","","","","","","","","","","",""
"null","","html-keyboard-response","241","2275550","0.0-237.0","A2GZNOA5CIVKUB","<p style=""font-size: 48px;"">+</p>","","","","","null","allTrialResponses","1000","1","27","img_art/9.jpg","-37","Looks like a scary face in the middle. ","Nicole,Amanda,Angelica,Diana,Vanessa,Victoria","It's peaceful and relaxing,24,20,20","Makes me feel angry, its not very clear,-50,180,20","The colors and image is ugly.,-7,280,20","I think it's sleeping beauty but I'm not sure. I didn't care for this piece.,-30,380,20","It's too abstract for my taste. I wish there were more definition.,-9,380,20","reminds me of a story book,18,400,20","Vanessa","It's too abstract for my taste. I wish there were more definition.,-9,380,20","Amanda","Makes me feel angry, its not very clear,-50,180,20","Angelica","The colors and image is ugly.,-7,280,20","4"
"5884","","survey-text","242","2281461","0.0-238.0-0.0","A2GZNOA5CIVKUB","","","","{""Q0"":""Its way too plain and boring, ""}","","","","","","","","","","","","","","","","","","","","","","",""
"3696.5999999996275","","image-slider-response","243","2285165","0.0-239.0","A2GZNOA5CIVKUB","","","","","-47","","","","","","","","","","","","","","","","","","","","","",""
"null","","image-button-response","244","2290174","0.0-240.0","A2GZNOA5CIVKUB","img_art/1.jpg","null","","","","","","","","","","","","","","","","","","","","","","","","",""
"23994","","image-button-response","245","2314174","0.0-241.0","A2GZNOA5CIVKUB","img_art/1.jpg","1","","","","","","","","","","","","","","","","","","","","","","","","",""
"658","","image-button-response","246","2314838","0.0-242.0-0.0","A2GZNOA5CIVKUB","img_art/1.jpg","0","","","","","","","","","","","","","","","","","","","","","","","","",""
"699","","image-button-response","247","2315547","0.0-243.0-0.0","A2GZNOA5CIVKUB","img_art/1.jpg","2","","","","","","","","","","","","","","","","","","","","","","","","",""
"null","","html-keyboard-response","248","2316051","0.0-244.0","A2GZNOA5CIVKUB","<p style=""font-size: 48px;"">+</p>","","","","","null","allTrialResponses","500","1","28","img_art/1.jpg","-47","Its way too plain and boring, ","Emily,Amanda,Angelica,Cassandra,Vanessa,Elizabeth","Just a mess though a better mess than some others.,-11,40,20","Seems like one i previously saw in this survey,27,180,20","This is ugly with bad colors.,-6,280,20","I didn't like this too much...I didn't like the red and the jaggedness to it.,-29,120,20","I don't like how this one makes me feel.,-32,380,20","Absolutely love this painting,50,20,20","Amanda","Seems like one i previously saw in this survey,27,180,20","Emily","Just a mess though a better mess than some others.,-11,40,20","Angelica","This is ugly with bad colors.,-6,280,20","4"
"57320","","survey-text","249","2373397","0.0-245.0-0.0","A2GZNOA5CIVKUB","","","","{""Q0"":""Looks like lines and nothing else. ""}","","","","","","","","","","","","","","","","","","","","","","",""
"3344.5","","image-slider-response","250","2376750","0.0-246.0","A2GZNOA5CIVKUB","","","","","-22","","","","","","","","","","","","","","","","","","","","","",""
"null","","image-button-response","251","2382467","0.0-247.0","A2GZNOA5CIVKUB","img_art/30.jpg","null","","","","","","","","","","","","","","","","","","","","","","","","",""
"12206","","image-button-response","252","2394679","0.0-248.0","A2GZNOA5CIVKUB","img_art/30.jpg","4","","","","","","","","","","","","","","","","","","","","","","","","",""
"499","","image-button-response","253","2395184","0.0-249.0-0.0","A2GZNOA5CIVKUB","img_art/30.jpg","3","","","","","","","","","","","","","","","","","","","","","","","","",""
"645","","image-button-response","254","2395838","0.0-250.0-0.0","A2GZNOA5CIVKUB","img_art/30.jpg","5","","","","","","","","","","","","","","","","","","","","","","","","",""
"null","","html-keyboard-response","255","2396842","0.0-251.0","A2GZNOA5CIVKUB","<p style=""font-size: 48px;"">+</p>","","","","","null","allTrialResponses","1000","1","29","img_art/30.jpg","-22","Looks like lines and nothing else. ","Emily,Amanda,Angelica,Melissa,Amber,Savannah","It looks like a child did it. There is nothing talented or special about it.,-16,40,20","Love how the red stands out,20,180,20","This is just simple and ugly.,-2,280,20","muddy, feels unintentional,-50,240,20","fresh and bold. outgoing.,15,200,20","Colors are nice but it just seems too simple.,-26,200,20","Amber","fresh and bold. outgoing.,15,200,20","Melissa","muddy, feels unintentional,-50,240,20","Savannah","Colors are nice but it just seems too simple.,-26,200,20","4"
"8352","","survey-text","256","2405227","0.0-252.0-0.0","A2GZNOA5CIVKUB","","","","{""Q0"":""Looks highly good and detailed""}","","","","","","","","","","","","","","","","","","","","","","",""
"3144.7000000001863","","image-slider-response","257","2408378","0.0-253.0","A2GZNOA5CIVKUB","","","","","41","","","","","","","","","","","","","","","","","","","","","",""
"null","","image-button-response","258","2413476","0.0-254.0","A2GZNOA5CIVKUB","img_art/12.jpg","null","","","","","","","","","","","","","","","","","","","","","","","","",""
"13744","","image-button-response","259","2427226","0.0-255.0","A2GZNOA5CIVKUB","img_art/12.jpg","3","","","","","","","","","","","","","","","","","","","","","","","","",""
"872","","image-button-response","260","2428108","0.0-256.0-0.0","A2GZNOA5CIVKUB","img_art/12.jpg","1","","","","","","","","","","","","","","","","","","","","","","","","",""
"496","","image-button-response","261","2428613","0.0-257.0-0.0","A2GZNOA5CIVKUB","img_art/12.jpg","0","","","","","","","","","","","","","","","","","","","","","","","","",""
"null","","html-keyboard-response","262","2430120","0.0-258.0","A2GZNOA5CIVKUB","<p style=""font-size: 48px;"">+</p>","","","","","null","allTrialResponses","1500","1","30","img_art/12.jpg","41","Looks highly good and detailed","Jennifer,Leah,Jordan,Melissa,Amber,Savannah","This piece doesn't provoke any kind of reaction,0,380,20","Looks like a puzzle I want to put together, but not hang in my den,2,360,20","not my kind of thing,1,20,20","reminds me of a dixie cup,3,240,20","Like how all the colors seem to blend together.,15,200,20","Almost natural flowing between abstract sections.,27,200,20","Melissa","reminds me of a dixie cup,3,240,20","Leah","Looks like a puzzle I want to put together, but not hang in my den,2,360,20","Jennifer","This piece doesn't provoke any kind of reaction,0,380,20","4"
"2254","","image-button-response_instructions","263","2432404","0.0-259.0","A2GZNOA5CIVKUB","","0","instructions","","","","","","","","","","","","","","","","","","","","","","","",""
"1099","","image-button-response","264","2433530","0.0-260.0","A2GZNOA5CIVKUB","","0","","","","","","","","","","","","","","","","","","","","","","","","",""
