"rt","url","trial_type","trial_index","time_elapsed","internal_node_id","participant_id","stimulus","button_pressed","Name","responses","response","key_press","variableName","fixationTime","condition","trial","photo","subjectRating","subjectResponse","agentsNames","agent_1_Response","agent_2_Response","agent_3_Response","agent_4_Response","agent_5_Response","agent_6_Response","kept_1_name","kept_1_response","kept_2_name","kept_2_response","kept_3_name","kept_3_response","errorCounter"
"21959","external_page_harvard.html","external-html","0","22028","0.0-0.0","A2HC9549CZAKNN","","","","","","","","","","","","","","","","","","","","","","","","","","",""
"1783","","image-button-response","1","23812","0.0-1.0","A2HC9549CZAKNN","","1","","","","","","","","","","","","","","","","","","","","","","","","",""
"1922","","image-button-response","2","25737","0.0-2.0-0.0","A2HC9549CZAKNN","","1","phone","","","","","","","","","","","","","","","","","","","","","","","",""
"2614","","survey-text","3","28352","0.0-3.0-0.0","A2HC9549CZAKNN","","","","{""Q0"":""A2HC9549CZAKNN""}","","","","","","","","","","","","","","","","","","","","","","",""
"57081","","image-button-response_instructions","4","85435","0.0-4.0","A2HC9549CZAKNN","","0","instructions","","","","","","","","","","","","","","","","","","","","","","","",""
"6977","","image-button-response_instructions","5","92412","0.0-5.0","A2HC9549CZAKNN","img_art/ins/popularity/ins1.png","0","instructions","","","","","","","","","","","","","","","","","","","","","","","",""
"2822","","image-button-response_instructions","6","95236","0.0-6.0","A2HC9549CZAKNN","img_art/ins/popularity/ins2.png","0","instructions","","","","","","","","","","","","","","","","","","","","","","","",""
"4541","","image-button-response_instructions","7","99777","0.0-7.0","A2HC9549CZAKNN","img_art/ins/popularity/ins2Extreme.png","0","instructions","","","","","","","","","","","","","","","","","","","","","","","",""
"7263","","image-button-response_instructions","8","107041","0.0-8.0","A2HC9549CZAKNN","img_art/ins/popularity/ins3KEEPpop.PNG","0","instructions","","","","","","","","","","","","","","","","","","","","","","","",""
"1780","","image-button-response_instructions","9","108821","0.0-9.0","A2HC9549CZAKNN","img_art/ins/popularity/ins3ANamepop.PNG","0","instructions","","","","","","","","","","","","","","","","","","","","","","","",""
"2273","","image-button-response_instructions","10","111096","0.0-10.0","A2HC9549CZAKNN","img_art/ins/popularity/ins3ARatingpop.png","0","instructions","","","","","","","","","","","","","","","","","","","","","","","",""
"15780","","image-button-response_instructions","11","126876","0.0-11.0","A2HC9549CZAKNN","img_art/ins/popularity/ins3ATextpop.png","0","instructions","","","","","","","","","","","","","","","","","","","","","","","",""
"4605","","image-button-response_instructions","12","131481","0.0-12.0","A2HC9549CZAKNN","img_art/ins/popularity/ins3ALikespop.png","0","instructions","","","","","","","","","","","","","","","","","","","","","","","",""
"5612","","image-button-response_instructions","13","137094","0.0-13.0","A2HC9549CZAKNN","img_art/ins/popularity/ins3KEEPpop.PNG","0","instructions","","","","","","","","","","","","","","","","","","","","","","","",""
"4979","","image-button-response_instructions","14","142073","0.0-14.0","A2HC9549CZAKNN","img_art/ins/popularity/ins3_5RED.png","0","instructions","","","","","","","","","","","","","","","","","","","","","","","",""
"1830","","image-button-response_instructions","15","143904","0.0-15.0","A2HC9549CZAKNN","img_art/ins/popularity/ins3KEEPpop.PNG","0","instructions","","","","","","","","","","","","","","","","","","","","","","","",""
"5868","","image-button-response_instructions","16","149772","0.0-16.0","A2HC9549CZAKNN","img_art/ins/popularity/ins4KEEPpop.PNG","0","instructions","","","","","","","","","","","","","","","","","","","","","","","",""
"3358","","image-button-response_instructions","17","153131","0.0-17.0","A2HC9549CZAKNN","img_art/ins/popularity/ins5KEEPpop.PNG","0","instructions","","","","","","","","","","","","","","","","","","","","","","","",""
"1097","","image-button-response_instructions","18","154229","0.0-18.0","A2HC9549CZAKNN","","0","instructions","","","","","","","","","","","","","","","","","","","","","","","",""
"5467","","survey-text","19","159711","0.0-19.0-0.0","A2HC9549CZAKNN","","","","{""Q0"":""but""}","","","","","","","","","","","","","","","","","","","","","","",""
"7384","","survey-text","20","167097","0.0-20.0-0.0","A2HC9549CZAKNN","","","","{""Q0"":""childish boring silly""}","","","","","","","","","","","","","","","","","","","","","","",""
"4313.200000047684","","image-slider-response","21","171411","0.0-21.0","A2HC9549CZAKNN","","","","","-42","","","","","","","","","","","","","","","","","","","","","",""
"null","","image-button-response","22","176415","0.0-22.0","A2HC9549CZAKNN","img_art/ins/1.jpg","null","","","","","","","","","","","","","","","","","","","","","","","","",""
"135","","image-button-response","23","176552","0.0-23.0","A2HC9549CZAKNN","img_art/ins/1.jpg","3","","","","","","","","","","","","","","","","","","","","","","","","",""
"25903","","image-button-response","24","202456","0.0-24.0-0.0","A2HC9549CZAKNN","img_art/ins/1.jpg","1","","","","","","","","","","","","","","","","","","","","","","","","",""
"5433","","image-button-response","25","207892","0.0-25.0-0.0","A2HC9549CZAKNN","img_art/ins/1.jpg","2","","","","","","","","","","","","","","","","","","","","","","","","",""
"null","","html-keyboard-response","26","209394","0.0-26.0","A2HC9549CZAKNN","<p style=""font-size: 48px;"">+</p>","","","","","null","allTrialResponses","1500","1","-2","img_art/ins/1.jpg","-42","childish boring silly","Allison,Ashley,Beth,Dora,Erika,Jen","looks like a lot of things going on in the mist,20,20,20","I just don't get why these type of art would be popular,-32,40,20","This color reminds me of poo,-46,60,20","looks like what my niece in 3rd grade did this afternoon,-50,80,20","I like the sophisticated brushwork,40,100,20","It reminds me of a candy land dream I had,36,120,20","Dora","looks like what my niece in 3rd grade did this afternoon,-50,80,20","Ashley","I just don't get why these type of art would be popular,-32,40,20","Beth","This color reminds me of poo,-46,60,20","0"
"9870","","survey-text","27","219266","0.0-27.0-0.0","A2HC9549CZAKNN","","","","{""Q0"":""okay corporate plain""}","","","","","","","","","","","","","","","","","","","","","","",""
"42633","","image-slider-response","28","261899","0.0-28.0","A2HC9549CZAKNN","","","","","1","","","","","","","","","","","","","","","","","","","","","",""
"null","","image-button-response","29","266900","0.0-29.0","A2HC9549CZAKNN","img_art/ins/2.jpg","null","","","","","","","","","","","","","","","","","","","","","","","","",""
"13092","","image-button-response","30","279994","0.0-30.0","A2HC9549CZAKNN","img_art/ins/2.jpg","4","","","","","","","","","","","","","","","","","","","","","","","","",""
"43091","","image-button-response","31","323086","0.0-31.0-0.0","A2HC9549CZAKNN","img_art/ins/2.jpg","5","","","","","","","","","","","","","","","","","","","","","","","","",""
"2848","","image-button-response","32","325936","0.0-32.0-0.0","A2HC9549CZAKNN","img_art/ins/2.jpg","3","","","","","","","","","","","","","","","","","","","","","","","","",""
"null","","html-keyboard-response","33","326937","0.0-33.0","A2HC9549CZAKNN","<p style=""font-size: 48px;"">+</p>","","","","","null","allTrialResponses","1000","1","-1","img_art/ins/2.jpg","1","okay corporate plain","Jenna,Ashley,Beth,Dora,Kara,Katie","One of my pet peevs,-48,140,20","Idk, it is just annoying,-32,40,20","meaningless painting,-45,60,20","looks too angry,-50,80,20","I like the blocks of color arrangements,30,160,20","too much color!,-28,180,20","Kara","I like the blocks of color arrangements,30,160,20","Katie","too much color!,-28,180,20","Dora","looks too angry,-50,80,20","0"
"23572","","survey-text","34","350518","0.0-34.0-0.0","A2HC9549CZAKNN","","","","{""Q0"":""blue Kind of childlike""}","","","","","","","","","","","","","","","","","","","","","","",""
"13730.400000095367","","image-slider-response","35","364249","0.0-35.0","A2HC9549CZAKNN","","","","","-24","","","","","","","","","","","","","","","","","","","","","",""
"null","","image-button-response","36","369251","0.0-36.0","A2HC9549CZAKNN","img_art/ins/3.jpg","null","","","","","","","","","","","","","","","","","","","","","","","","",""
"7653","","image-button-response","37","376906","0.0-37.0","A2HC9549CZAKNN","img_art/ins/3.jpg","4","","","","","","","","","","","","","","","","","","","","","","","","",""
"633","","image-button-response","38","377540","0.0-38.0-0.0","A2HC9549CZAKNN","img_art/ins/3.jpg","0","","","","","","","","","","","","","","","","","","","","","","","","",""
"349","","image-button-response","39","377889","0.0-39.0-0.0","A2HC9549CZAKNN","img_art/ins/3.jpg","1","","","","","","","","","","","","","","","","","","","","","","","","",""
"null","","html-keyboard-response","40","378391","0.0-40.0","A2HC9549CZAKNN","<p style=""font-size: 48px;"">+</p>","","","","","null","allTrialResponses","500","1","0","img_art/ins/3.jpg","-24","blue Kind of childlike","Leslie,Mary,Rose,Dora,Kara,Katie","It's an alright work,15,200,20","I like the overlapping of brushes,41,220,20","My daily routine, it's depressing,-20,240,20","My worst nightmare,-42,80,20","calming blue is very nice,36,160,20","It looks depressing,-26,180,20","Kara","calming blue is very nice,36,160,20","Leslie","It's an alright work,15,200,20","Mary","I like the overlapping of brushes,41,220,20","0"
"5492","","image-button-response_instructions","41","383888","0.0-41.0","A2HC9549CZAKNN","","0","instructions","","","","","","","","","","","","","","","","","","","","","","","",""
"13569","","survey-likert","42","397459","0.0-42.0-0.0","A2HC9549CZAKNN","","","","{""Q0"":"""",""Q1"":0,""Q2"":1}","","","","","","","","","","","","","","","","","","","","","","",""
"5082","","survey-text","43","402545","0.0-43.0-0.0","A2HC9549CZAKNN","","","","{""Q0"":""rock""}","","","","","","","","","","","","","","","","","","","","","","",""
"17229","","survey-text","44","419775","0.0-44.0-0.0","A2HC9549CZAKNN","","","","{""Q0"":""looks like a trash bag""}","","","","","","","","","","","","","","","","","","","","","","",""
"3847.800000190735","","image-slider-response","45","423624","0.0-45.0","A2HC9549CZAKNN","","","","","-18","","","","","","","","","","","","","","","","","","","","","",""
"null","","image-button-response","46","428637","0.0-46.0","A2HC9549CZAKNN","img_art/5.jpg","null","","","","","","","","","","","","","","","","","","","","","","","","",""
"5682","","image-button-response","47","434321","0.0-47.0","A2HC9549CZAKNN","img_art/5.jpg","0","","","","","","","","","","","","","","","","","","","","","","","","",""
"1474","","image-button-response","48","435796","0.0-48.0-0.0","A2HC9549CZAKNN","img_art/5.jpg","0","","","","","","","","","","","","","","","","","","","","","","","","",""
"929","","image-button-response","49","441049","0.0-48.1-0.1","A2HC9549CZAKNN","img_art/5.jpg","4","","","","","","","","","","","","","","","","","","","","","","","","",""
"1756","","image-button-response","50","442806","0.0-49.0-0.0","A2HC9549CZAKNN","img_art/5.jpg","0","","","","","","","","","","","","","","","","","","","","","","","","",""
"2704","","image-button-response","51","448236","0.0-49.1-0.1","A2HC9549CZAKNN","img_art/5.jpg","3","","","","","","","","","","","","","","","","","","","","","","","","",""
"null","","html-keyboard-response","52","449237","0.0-50.0","A2HC9549CZAKNN","<p style=""font-size: 48px;"">+</p>","","","","","null","allTrialResponses","1000","1","1","img_art/5.jpg","-18","looks like a trash bag","Kaitlin,Crystal,Elizabeth,Mariah,Madison,Grace","a bit confused about this picture,-9,60,20","Confused as to what the artist is attempting to do.,-50,300,20","Perfect for art exhibition,39,20,20","It feels very strong and open.,31,140,20","Bright and luminous,31,60,20","Looks like a yellow plastic trash bag.,-42,180,20","Kaitlin","a bit confused about this picture,-9,60,20","Madison","Bright and luminous,31,60,20","Mariah","It feels very strong and open.,31,140,20","4"
"28322","","survey-text","53","477566","0.0-51.0-0.0","A2HC9549CZAKNN","","","","{""Q0"":""kinda unique and interesting""}","","","","","","","","","","","","","","","","","","","","","","",""
"63960.700000047684","","image-slider-response","54","541528","0.0-52.0","A2HC9549CZAKNN","","","","","23","","","","","","","","","","","","","","","","","","","","","",""
"null","","image-button-response","55","546529","0.0-53.0","A2HC9549CZAKNN","img_art/14.jpg","null","","","","","","","","","","","","","","","","","","","","","","","","",""
"17118","","image-button-response","56","563649","0.0-54.0","A2HC9549CZAKNN","img_art/14.jpg","0","","","","","","","","","","","","","","","","","","","","","","","","",""
"726","","image-button-response","57","564376","0.0-55.0-0.0","A2HC9549CZAKNN","img_art/14.jpg","2","","","","","","","","","","","","","","","","","","","","","","","","",""
"287","","image-button-response","58","564665","0.0-56.0-0.0","A2HC9549CZAKNN","img_art/14.jpg","1","","","","","","","","","","","","","","","","","","","","","","","","",""
"null","","html-keyboard-response","59","565680","0.0-57.0","A2HC9549CZAKNN","<p style=""font-size: 48px;"">+</p>","","","","","null","allTrialResponses","1000","1","2","img_art/14.jpg","23","kinda unique and interesting","Kaitlin,Brooke,Mary,Mariah,Madison,Catherine","this would make a very beautiful art project,22,60,20","cotton candy skies. pretty.,35,60,20","I like the layers of color in this piece. The circles and lines are interesting.,29,180,20","The lighting feels like spring.,20,140,20","No strong feelings either direction.,-4,60,20","Tornado, nature. trees falling and displaced creatures. Love the colors though.,1,160,20","Kaitlin","this would make a very beautiful art project,22,60,20","Mary","I like the layers of color in this piece. The circles and lines are interesting.,29,180,20","Brooke","cotton candy skies. pretty.,35,60,20","4"
"56689","","survey-text","60","622375","0.0-58.0-0.0","A2HC9549CZAKNN","","","","{""Q0"":""looks drab""}","","","","","","","","","","","","","","","","","","","","","","",""
"2431","","image-slider-response","61","624807","0.0-59.0","A2HC9549CZAKNN","","","","","-40","","","","","","","","","","","","","","","","","","","","","",""
"null","","image-button-response","62","629809","0.0-60.0","A2HC9549CZAKNN","img_art/28.jpg","null","","","","","","","","","","","","","","","","","","","","","","","","",""
"7990","","image-button-response","63","637799","0.0-61.0","A2HC9549CZAKNN","img_art/28.jpg","4","","","","","","","","","","","","","","","","","","","","","","","","",""
"1572","","image-button-response","64","639372","0.0-62.0-0.0","A2HC9549CZAKNN","img_art/28.jpg","5","","","","","","","","","","","","","","","","","","","","","","","","",""
"1523","","image-button-response","65","640897","0.0-63.0-0.0","A2HC9549CZAKNN","img_art/28.jpg","0","","","","","","","","","","","","","","","","","","","","","","","","",""
"null","","html-keyboard-response","66","641398","0.0-64.0","A2HC9549CZAKNN","<p style=""font-size: 48px;"">+</p>","","","","","null","allTrialResponses","500","1","3","img_art/28.jpg","-40","looks drab","Kaitlin,Brooke,Mary,Kaylee,Lindsey,Stephanie","i'm not too impressed with this one.,-10,60,20","dislike the colors. it looks like a bike, but misshapen wheels like it was wrecked.,-10,60,20","The colors are really ugly. They do not compliment each other well.,-45,180,20","i dont understand it,-34,200,20","Not a fan of the drab colors but it looks a little bit interesting.,-7,400,20","The colors are neutral but I see a mother helping her child,31,300,20","Lindsey","Not a fan of the drab colors but it looks a little bit interesting.,-7,400,20","Stephanie","The colors are neutral but I see a mother helping her child,31,300,20","Kaitlin","i'm not too impressed with this one.,-10,60,20","4"
"22581","","survey-text","67","663981","0.0-65.0-0.0","A2HC9549CZAKNN","","","","{""Q0"":""unique but not really interesting""}","","","","","","","","","","","","","","","","","","","","","","",""
"11315.5","","image-slider-response","68","675298","0.0-66.0","A2HC9549CZAKNN","","","","","-12","","","","","","","","","","","","","","","","","","","","","",""
"null","","image-button-response","69","680301","0.0-67.0","A2HC9549CZAKNN","img_art/12.jpg","null","","","","","","","","","","","","","","","","","","","","","","","","",""
"534","","image-button-response","70","680837","0.0-68.0","A2HC9549CZAKNN","img_art/12.jpg","3","","","","","","","","","","","","","","","","","","","","","","","","",""
"876","","image-button-response","71","681715","0.0-69.0-0.0","A2HC9549CZAKNN","img_art/12.jpg","5","","","","","","","","","","","","","","","","","","","","","","","","",""
"3449","","image-button-response","72","685165","0.0-70.0-0.0","A2HC9549CZAKNN","img_art/12.jpg","1","","","","","","","","","","","","","","","","","","","","","","","","",""
"null","","html-keyboard-response","73","686666","0.0-71.0","A2HC9549CZAKNN","<p style=""font-size: 48px;"">+</p>","","","","","null","allTrialResponses","1500","1","4","img_art/12.jpg","-12","unique but not really interesting","Kaitlin,Cheyenne,Katie,Ashley,Lindsey,Stephanie","too much - just overcrowded,-20,60,20","Comes off as a bit boring.,-11,200,20","Squares are rigid. I'm ambivalent.,1,160,20","It's boxy, cubist immpressionism? Very ncie.,32,320,20","Ugly colors and I'm just not too much a fan of cubist abstract art.,-50,400,20","I like the pattern to it.,31,300,20","Ashley","It's boxy, cubist immpressionism? Very ncie.,32,320,20","Stephanie","I like the pattern to it.,31,300,20","Cheyenne","Comes off as a bit boring.,-11,200,20","4"
"19037","","survey-text","74","705708","0.0-72.0-0.0","A2HC9549CZAKNN","","","","{""Q0"":""looks like a pretty sky""}","","","","","","","","","","","","","","","","","","","","","","",""
"3041.5999999046326","","image-slider-response","75","708751","0.0-73.0","A2HC9549CZAKNN","","","","","30","","","","","","","","","","","","","","","","","","","","","",""
"null","","image-button-response","76","713754","0.0-74.0","A2HC9549CZAKNN","img_art/21.jpg","null","","","","","","","","","","","","","","","","","","","","","","","","",""
"2481","","image-button-response","77","716236","0.0-75.0","A2HC9549CZAKNN","img_art/21.jpg","2","","","","","","","","","","","","","","","","","","","","","","","","",""
"10604","","image-button-response","78","726842","0.0-76.0-0.0","A2HC9549CZAKNN","img_art/21.jpg","3","","","","","","","","","","","","","","","","","","","","","","","","",""
"4525","","image-button-response","79","731368","0.0-77.0-0.0","A2HC9549CZAKNN","img_art/21.jpg","4","","","","","","","","","","","","","","","","","","","","","","","","",""
"null","","html-keyboard-response","80","731870","0.0-78.0","A2HC9549CZAKNN","<p style=""font-size: 48px;"">+</p>","","","","","null","allTrialResponses","500","1","5","img_art/21.jpg","30","looks like a pretty sky","Emily,Cheyenne,Lauren,Ashley,Briana,Stephanie","What's the point?,-30,40,20","Don't see anything special about it,-21,200,20","I like how the piece has the possibility of depicting some type of story.,30,340,20","Disturbing, land meets ocean, lvoely really.,43,320,20","Unfinished. Confusing to look at,-12,400,20","A battle at sea, the red is a bomb exploding.,-31,300,20","Lauren","I like how the piece has the possibility of depicting some type of story.,30,340,20","Ashley","Disturbing, land meets ocean, lvoely really.,43,320,20","Briana","Unfinished. Confusing to look at,-12,400,20","4"
"12520","","survey-text","81","744393","0.0-79.0-0.0","A2HC9549CZAKNN","","","","{""Q0"":""sky""}","","","","","","","","","","","","","","","","","","","","","","",""
"8723","","survey-text","82","753117","0.0-80.0-0.0","A2HC9549CZAKNN","","","","{""Q0"":""drab and plain""}","","","","","","","","","","","","","","","","","","","","","","",""
"2173.600000143051","","image-slider-response","83","755292","0.0-81.0","A2HC9549CZAKNN","","","","","-32","","","","","","","","","","","","","","","","","","","","","",""
"null","","image-button-response","84","760294","0.0-82.0","A2HC9549CZAKNN","img_art/6.jpg","null","","","","","","","","","","","","","","","","","","","","","","","","",""
"7726","","image-button-response","85","768022","0.0-83.0","A2HC9549CZAKNN","img_art/6.jpg","0","","","","","","","","","","","","","","","","","","","","","","","","",""
"19484","","image-button-response","86","787508","0.0-84.0-0.0","A2HC9549CZAKNN","img_art/6.jpg","1","","","","","","","","","","","","","","","","","","","","","","","","",""
"2128","","image-button-response","87","789637","0.0-85.0-0.0","A2HC9549CZAKNN","img_art/6.jpg","2","","","","","","","","","","","","","","","","","","","","","","","","",""
"null","","html-keyboard-response","88","791139","0.0-86.0","A2HC9549CZAKNN","<p style=""font-size: 48px;"">+</p>","","","","","null","allTrialResponses","1500","1","6","img_art/6.jpg","-32","drab and plain","Margaret,Sara,Lauren,Ashley,Briana,Breanna","reminds me of a happy edgar allen poe poem,8,100,20","It looks sad and scary at the same time,11,160,20","I like the simplicity of the piece.,10,340,20","A lot of people will lvoe this, I do not.,1,320,20","Close up peach? Hate it,-16,400,20","Not impressed, just very plain,-10,380,20","Margaret","reminds me of a happy edgar allen poe poem,8,100,20","Sara","It looks sad and scary at the same time,11,160,20","Lauren","I like the simplicity of the piece.,10,340,20","4"
"9758","","survey-text","89","800903","0.0-87.0-0.0","A2HC9549CZAKNN","","","","{""Q0"":""like a band""}","","","","","","","","","","","","","","","","","","","","","","",""
"10752.600000143051","","image-slider-response","90","811657","0.0-88.0","A2HC9549CZAKNN","","","","","-10","","","","","","","","","","","","","","","","","","","","","",""
"null","","image-button-response","91","816660","0.0-89.0","A2HC9549CZAKNN","img_art/23.jpg","null","","","","","","","","","","","","","","","","","","","","","","","","",""
"1227","","image-button-response","92","817889","0.0-90.0","A2HC9549CZAKNN","img_art/23.jpg","2","","","","","","","","","","","","","","","","","","","","","","","","",""
"2837","","image-button-response","93","820727","0.0-91.0-0.0","A2HC9549CZAKNN","img_art/23.jpg","4","","","","","","","","","","","","","","","","","","","","","","","","",""
"2516","","image-button-response","94","823244","0.0-92.0-0.0","A2HC9549CZAKNN","img_art/23.jpg","3","","","","","","","","","","","","","","","","","","","","","","","","",""
"null","","html-keyboard-response","95","824746","0.0-93.0","A2HC9549CZAKNN","<p style=""font-size: 48px;"">+</p>","","","","","null","allTrialResponses","1500","1","7","img_art/23.jpg","-10","like a band","Margaret,Sara,Lauren,Christina,Erica,Andrea","white reminds me of screamo music band tshirts when they have their name in the unreadable lettering,-9,100,20","Beautiful color scheme,21,160,20","I like the symmetrical design and how it portrays the liveliness of a musical environment.,30,340,20","nice bright colors but looks like it's from the 90's,6,240,20","Very energetic, seems like it is pulling me in,24,80,20","I see souls in torment and that makes me feel uneasy.,-21,240,20","Lauren","I like the symmetrical design and how it portrays the liveliness of a musical environment.,30,340,20","Erica","Very energetic, seems like it is pulling me in,24,80,20","Christina","nice bright colors but looks like it's from the 90's,6,240,20","4"
"18805","","survey-text","96","843555","0.0-94.0-0.0","A2HC9549CZAKNN","","","","{""Q0"":""creepy and weird""}","","","","","","","","","","","","","","","","","","","","","","",""
"2737.4000000953674","","image-slider-response","97","846294","0.0-95.0","A2HC9549CZAKNN","","","","","-50","","","","","","","","","","","","","","","","","","","","","",""
"3999","","image-button-response","98","851309","0.0-96.0","A2HC9549CZAKNN","img_art/16.jpg","1","","","","","","","","","","","","","","","","","","","","","","","","",""
"4488","","image-button-response","99","855800","0.0-97.0","A2HC9549CZAKNN","img_art/16.jpg","1","","","","","","","","","","","","","","","","","","","","","","","","",""
"6190","","image-button-response","100","861990","0.0-98.0-0.0","A2HC9549CZAKNN","img_art/16.jpg","5","","","","","","","","","","","","","","","","","","","","","","","","",""
"708","","image-button-response","101","862701","0.0-99.0-0.0","A2HC9549CZAKNN","img_art/16.jpg","0","","","","","","","","","","","","","","","","","","","","","","","","",""
"null","","html-keyboard-response","102","864202","0.0-100.0","A2HC9549CZAKNN","<p style=""font-size: 48px;"">+</p>","","","","","null","allTrialResponses","1500","1","8","img_art/16.jpg","-50","creepy and weird","Sydney,Jessica,Lauren,Christina,Erica,Julia","This piece is unusual but unique.,5,320,20","Cool but the bear creeps me out?,8,400,20","The colored teddy bear clashes with the color scheme.,-20,340,20","very creepy with a bear and a gun,-50,240,20","Teddy bear calls positive emotional response but then I get worried about what is about to happen,18,80,20","I love the teddy bear,50,40,20","Jessica","Cool but the bear creeps me out?,8,400,20","Julia","I love the teddy bear,50,40,20","Sydney","This piece is unusual but unique.,5,320,20","4"
"21626","","survey-text","103","885830","0.0-101.0-0.0","A2HC9549CZAKNN","","","","{""Q0"":""some parts are cool some weird""}","","","","","","","","","","","","","","","","","","","","","","",""
"2804","","image-slider-response","104","888635","0.0-102.0","A2HC9549CZAKNN","","","","","-2","","","","","","","","","","","","","","","","","","","","","",""
"4964","","image-button-response","105","893637","0.0-103.0","A2HC9549CZAKNN","img_art/8.jpg","3","","","","","","","","","","","","","","","","","","","","","","","","",""
"1007","","image-button-response","106","894646","0.0-104.0","A2HC9549CZAKNN","img_art/8.jpg","3","","","","","","","","","","","","","","","","","","","","","","","","",""
"620","","image-button-response","107","895268","0.0-105.0-0.0","A2HC9549CZAKNN","img_art/8.jpg","2","","","","","","","","","","","","","","","","","","","","","","","","",""
"1032","","image-button-response","108","896301","0.0-106.0-0.0","A2HC9549CZAKNN","img_art/8.jpg","0","","","","","","","","","","","","","","","","","","","","","","","","",""
"null","","html-keyboard-response","109","896802","0.0-107.0","A2HC9549CZAKNN","<p style=""font-size: 48px;"">+</p>","","","","","null","allTrialResponses","500","1","9","img_art/8.jpg","-2","some parts are cool some weird","Sydney,Jessica,Taylor,Cassandra,Brianna,Julia","I love the colors in this piece.,25,320,20","Very cool! I like this piece,9,400,20","Looks like it would be an interesting place to live,35,340,20","I like the colors and the scene.,24,120,20","It's very odd and I don't really like it,-30,20,20","it's a little too classical for my tastes,-25,40,20","Cassandra","I like the colors and the scene.,24,120,20","Taylor","Looks like it would be an interesting place to live,35,340,20","Sydney","I love the colors in this piece.,25,320,20","4"
"11148","","survey-text","110","907952","0.0-108.0-0.0","A2HC9549CZAKNN","","","","{""Q0"":""like a little kid""}","","","","","","","","","","","","","","","","","","","","","","",""
"2407.5","","image-slider-response","111","910361","0.0-109.0","A2HC9549CZAKNN","","","","","-39","","","","","","","","","","","","","","","","","","","","","",""
"2949","","image-button-response","112","915363","0.0-110.0","A2HC9549CZAKNN","img_art/2.jpg","1","","","","","","","","","","","","","","","","","","","","","","","","",""
"459","","image-button-response","113","915824","0.0-111.0","A2HC9549CZAKNN","img_art/2.jpg","2","","","","","","","","","","","","","","","","","","","","","","","","",""
"1424","","image-button-response","114","917249","0.0-112.0-0.0","A2HC9549CZAKNN","img_art/2.jpg","4","","","","","","","","","","","","","","","","","","","","","","","","",""
"1607","","image-button-response","115","918858","0.0-113.0-0.0","A2HC9549CZAKNN","img_art/2.jpg","1","","","","","","","","","","","","","","","","","","","","","","","","",""
"null","","html-keyboard-response","116","920359","0.0-114.0","A2HC9549CZAKNN","<p style=""font-size: 48px;"">+</p>","","","","","null","allTrialResponses","1500","1","10","img_art/2.jpg","-39","like a little kid","Sydney,Courtney,Taylor,Cassandra,Chelsea,Kelly","I like the color, but I feel like I see a creepy face which I dislike.,-5,320,20","That looks look a cartoon character of some kind.,11,280,20","Doesn't give me a reaction,10,340,20","I didn't like this it looked like a kindergardner painted it and the green was out of place.,-46,120,20","Not sure what is happening. I'm not a big fan of the colors but they don't bother me either.,1,180,20","I cant tell whats happening here and that shade of green is just not my thing.,-17,220,20","Taylor","Doesn't give me a reaction,10,340,20","Chelsea","Not sure what is happening. I'm not a big fan of the colors but they don't bother me either.,1,180,20","Courtney","That looks look a cartoon character of some kind.,11,280,20","4"
"3952","","survey-text","117","924317","0.0-115.0-0.0","A2HC9549CZAKNN","","","","{""Q0"":""our""}","","","","","","","","","","","","","","","","","","","","","","",""
"11707","","survey-text","118","936025","0.0-116.0-0.0","A2HC9549CZAKNN","","","","{""Q0"":""yucky and weird""}","","","","","","","","","","","","","","","","","","","","","","",""
"2697.7000000476837","","image-slider-response","119","938724","0.0-117.0","A2HC9549CZAKNN","","","","","-38","","","","","","","","","","","","","","","","","","","","","",""
"2037","","image-button-response","120","943726","0.0-118.0","A2HC9549CZAKNN","img_art/27.jpg","1","","","","","","","","","","","","","","","","","","","","","","","","",""
"4967","","image-button-response","121","948695","0.0-119.0","A2HC9549CZAKNN","img_art/27.jpg","1","","","","","","","","","","","","","","","","","","","","","","","","",""
"3083","","image-button-response","122","951780","0.0-120.0-0.0","A2HC9549CZAKNN","img_art/27.jpg","0","","","","","","","","","","","","","","","","","","","","","","","","",""
"6266","","image-button-response","123","958046","0.0-121.0-0.0","A2HC9549CZAKNN","img_art/27.jpg","4","","","","","","","","","","","","","","","","","","","","","","","","",""
"null","","html-keyboard-response","124","959047","0.0-122.0","A2HC9549CZAKNN","<p style=""font-size: 48px;"">+</p>","","","","","null","allTrialResponses","1000","1","11","img_art/27.jpg","-38","yucky and weird","Miranda,Courtney,Taylor,Kimberly,Chelsea,Hailey","I'm not a fan. It looks like something my nephews (1 and 2) would make,-8,320,20","A fall mess going on here,2,280,20","Reminds me of a town on fire,-15,340,20","Nothing stands out,-23,260,20","The green lines look like a child drew over a painting.,-36,180,20","fruity and sweet. warm and juicy,10,200,20","Courtney","A fall mess going on here,2,280,20","Miranda","I'm not a fan. It looks like something my nephews (1 and 2) would make,-8,320,20","Chelsea","The green lines look like a child drew over a painting.,-36,180,20","4"
"25111","","survey-text","125","984160","0.0-123.0-0.0","A2HC9549CZAKNN","","","","{""Q0"":""kind of strange""}","","","","","","","","","","","","","","","","","","","","","","",""
"2161.899999856949","","image-slider-response","126","986323","0.0-124.0","A2HC9549CZAKNN","","","","","-42","","","","","","","","","","","","","","","","","","","","","",""
"2338","","image-button-response","127","991325","0.0-125.0","A2HC9549CZAKNN","img_art/29.jpg","1","","","","","","","","","","","","","","","","","","","","","","","","",""
"1861","","image-button-response","128","993187","0.0-126.0","A2HC9549CZAKNN","img_art/29.jpg","4","","","","","","","","","","","","","","","","","","","","","","","","",""
"815","","image-button-response","129","994003","0.0-127.0-0.0","A2HC9549CZAKNN","img_art/29.jpg","1","","","","","","","","","","","","","","","","","","","","","","","","",""
"515","","image-button-response","130","994519","0.0-128.0-0.0","A2HC9549CZAKNN","img_art/29.jpg","5","","","","","","","","","","","","","","","","","","","","","","","","",""
"null","","html-keyboard-response","131","995521","0.0-129.0","A2HC9549CZAKNN","<p style=""font-size: 48px;"">+</p>","","","","","null","allTrialResponses","1000","1","12","img_art/29.jpg","-42","kind of strange","Miranda,Courtney,Chloe,Kristen,Chelsea,Erin","This feels chaotic and I like the energy that it gives off.,21,320,20","Thats a pretty wierd picture.,6,280,20","Looks muddy and sticky,-31,220,20","danger, crime scene,,10,280,20","It is intriguing but I don't like the red X.,6,180,20","Red X is scary, like the bricks,7,120,20","Chelsea","It is intriguing but I don't like the red X.,6,180,20","Courtney","Thats a pretty wierd picture.,6,280,20","Erin","Red X is scary, like the bricks,7,120,20","4"
"8575","","survey-text","132","1004098","0.0-130.0-0.0","A2HC9549CZAKNN","","","","{""Q0"":""took two seconds ""}","","","","","","","","","","","","","","","","","","","","","","",""
"2823.0999999046326","","image-slider-response","133","1006922","0.0-131.0","A2HC9549CZAKNN","","","","","-34","","","","","","","","","","","","","","","","","","","","","",""
"null","","image-button-response","134","1011925","0.0-132.0","A2HC9549CZAKNN","img_art/4.jpg","null","","","","","","","","","","","","","","","","","","","","","","","","",""
"7521","","image-button-response","135","1019448","0.0-133.0","A2HC9549CZAKNN","img_art/4.jpg","3","","","","","","","","","","","","","","","","","","","","","","","","",""
"1498","","image-button-response","136","1020947","0.0-134.0-0.0","A2HC9549CZAKNN","img_art/4.jpg","1","","","","","","","","","","","","","","","","","","","","","","","","",""
"910","","image-button-response","137","1021859","0.0-135.0-0.0","A2HC9549CZAKNN","img_art/4.jpg","0","","","","","","","","","","","","","","","","","","","","","","","","",""
"null","","html-keyboard-response","138","1023360","0.0-136.0","A2HC9549CZAKNN","<p style=""font-size: 48px;"">+</p>","","","","","null","allTrialResponses","1500","1","13","img_art/4.jpg","-34","took two seconds ","Gabriela,Courtney,Makayla,Allison,Chelsea,Erin","The bold colors are exciting. It looks like a statue on someone's mantle.,18,140,20","A leaning trophy,-9,280,20","Looks like poop on walks,-27,80,20","McDonald's French Fries.,-10,140,20","The colors remind me of McDonalds.,-41,180,20","Seems simplistic,-8,120,20","Allison","McDonald's French Fries.,-10,140,20","Courtney","A leaning trophy,-9,280,20","Gabriela","The bold colors are exciting. It looks like a statue on someone's mantle.,18,140,20","4"
"10703","","survey-text","139","1034067","0.0-137.0-0.0","A2HC9549CZAKNN","","","","{""Q0"":""creepy and strange""}","","","","","","","","","","","","","","","","","","","","","","",""
"2466.2999999523163","","image-slider-response","140","1036535","0.0-138.0","A2HC9549CZAKNN","","","","","-43","","","","","","","","","","","","","","","","","","","","","",""
"3689","","image-button-response","141","1041537","0.0-139.0","A2HC9549CZAKNN","img_art/25.jpg","1","","","","","","","","","","","","","","","","","","","","","","","","",""
"2952","","image-button-response","142","1044491","0.0-140.0","A2HC9549CZAKNN","img_art/25.jpg","3","","","","","","","","","","","","","","","","","","","","","","","","",""
"3016","","image-button-response","143","1047509","0.0-141.0-0.0","A2HC9549CZAKNN","img_art/25.jpg","4","","","","","","","","","","","","","","","","","","","","","","","","",""
"3439","","image-button-response","144","1050949","0.0-142.0-0.0","A2HC9549CZAKNN","img_art/25.jpg","1","","","","","","","","","","","","","","","","","","","","","","","","",""
"null","","html-keyboard-response","145","1051450","0.0-143.0","A2HC9549CZAKNN","<p style=""font-size: 48px;"">+</p>","","","","","null","allTrialResponses","500","1","14","img_art/25.jpg","-43","creepy and strange","Gabriela,Courtney,Anna,Allison,Alyssa,Isabella","It looks like a person at a graveyard,18,140,20","That on i find a bit creapy.,-19,280,20","I love the green and the texture,50,300,20","high contrast draws attention to the image, but I'm not sure what I'm seeing,-5,140,20","Dark silhouette against the murky background Illicites an ominous feeling. Don't really like it.,-20,160,20","I love the green and the figure is black but the green makes it pop,29,280,20","Allison","high contrast draws attention to the image, but I'm not sure what I'm seeing,-5,140,20","Alyssa","Dark silhouette against the murky background Illicites an ominous feeling. Don't really like it.,-20,160,20","Courtney","That on i find a bit creapy.,-19,280,20","4"
"107277","","survey-text","146","1158730","0.0-144.0-0.0","A2HC9549CZAKNN","","","","{""Q0"":""looks like googles""}","","","","","","","","","","","","","","","","","","","","","","",""
"3634.2000000476837","","image-slider-response","147","1162366","0.0-145.0","A2HC9549CZAKNN","","","","","-13","","","","","","","","","","","","","","","","","","","","","",""
"null","","image-button-response","148","1167369","0.0-146.0","A2HC9549CZAKNN","img_art/10.jpg","null","","","","","","","","","","","","","","","","","","","","","","","","",""
"80562","","image-button-response","149","1247931","0.0-147.0","A2HC9549CZAKNN","img_art/10.jpg","1","","","","","","","","","","","","","","","","","","","","","","","","",""
"3170","","image-button-response","150","1251102","0.0-148.0-0.0","A2HC9549CZAKNN","img_art/10.jpg","0","","","","","","","","","","","","","","","","","","","","","","","","",""
"677","","image-button-response","151","1251781","0.0-149.0-0.0","A2HC9549CZAKNN","img_art/10.jpg","3","","","","","","","","","","","","","","","","","","","","","","","","",""
"null","","html-keyboard-response","152","1253283","0.0-150.0","A2HC9549CZAKNN","<p style=""font-size: 48px;"">+</p>","","","","","null","allTrialResponses","1500","1","15","img_art/10.jpg","-13","looks like googles","Alicia,Courtney,Sierra,Allison,Alyssa,Sophia","It's art. (for some),7,120,20","Thats a horses head,10,280,20","it just doesnt appeal to me.,-10,260,20","I like the contrast,10,140,20","Bleak and uninteresting,-10,160,20","This piece is very intriguing to me.,3,280,20","Courtney","Thats a horses head,10,280,20","Alicia","It's art. (for some),7,120,20","Allison","I like the contrast,10,140,20","4"
"4659","","survey-text","153","1257953","0.0-151.0-0.0","A2HC9549CZAKNN","","","","{""Q0"":""course""}","","","","","","","","","","","","","","","","","","","","","","",""
"9221","","survey-text","154","1267176","0.0-152.0-0.0","A2HC9549CZAKNN","","","","{""Q0"":""kind of pretty like a landscape""}","","","","","","","","","","","","","","","","","","","","","","",""
"2885.4000000953674","","image-slider-response","155","1270062","0.0-153.0","A2HC9549CZAKNN","","","","","34","","","","","","","","","","","","","","","","","","","","","",""
"4302","","image-button-response","156","1275064","0.0-154.0","A2HC9549CZAKNN","img_art/24.jpg","1","","","","","","","","","","","","","","","","","","","","","","","","",""
"3867","","image-button-response","157","1278932","0.0-155.0","A2HC9549CZAKNN","img_art/24.jpg","5","","","","","","","","","","","","","","","","","","","","","","","","",""
"388","","image-button-response","158","1279321","0.0-156.0-0.0","A2HC9549CZAKNN","img_art/24.jpg","3","","","","","","","","","","","","","","","","","","","","","","","","",""
"1459","","image-button-response","159","1280782","0.0-157.0-0.0","A2HC9549CZAKNN","img_art/24.jpg","1","","","","","","","","","","","","","","","","","","","","","","","","",""
"null","","html-keyboard-response","160","1282284","0.0-158.0","A2HC9549CZAKNN","<p style=""font-size: 48px;"">+</p>","","","","","null","allTrialResponses","1500","1","16","img_art/24.jpg","34","kind of pretty like a landscape","Alicia,Courtney,Maria,Allison,Amber,Shannon","Nature, abstract, I'd hang this in my house.,37,120,20","What a nice refreshing waterfall.,39,280,20","this evokes a gutural reaction - it displeases me how similar it is to art I saw growing up,-30,120,20","I appreciate the earth tones. Soothing.,5,140,20","peaceful and calm yet joyous.,50,200,20","I like the way the colors are put together, and I can imagine this picture in real life.,40,220,20","Shannon","I like the way the colors are put together, and I can imagine this picture in real life.,40,220,20","Allison","I appreciate the earth tones. Soothing.,5,140,20","Courtney","What a nice refreshing waterfall.,39,280,20","4"
"8494","","survey-text","161","1290785","0.0-159.0-0.0","A2HC9549CZAKNN","","","","{""Q0"":""kind of like a pipe with water""}","","","","","","","","","","","","","","","","","","","","","","",""
"2734.7999999523163","","image-slider-response","162","1293520","0.0-160.0","A2HC9549CZAKNN","","","","","-20","","","","","","","","","","","","","","","","","","","","","",""
"4825","","image-button-response","163","1298523","0.0-161.0","A2HC9549CZAKNN","img_art/13.jpg","1","","","","","","","","","","","","","","","","","","","","","","","","",""
"1495","","image-button-response","164","1300020","0.0-162.0","A2HC9549CZAKNN","img_art/13.jpg","2","","","","","","","","","","","","","","","","","","","","","","","","",""
"2189","","image-button-response","165","1302210","0.0-163.0-0.0","A2HC9549CZAKNN","img_art/13.jpg","4","","","","","","","","","","","","","","","","","","","","","","","","",""
"1094","","image-button-response","166","1303306","0.0-164.0-0.0","A2HC9549CZAKNN","img_art/13.jpg","1","","","","","","","","","","","","","","","","","","","","","","","","",""
"null","","html-keyboard-response","167","1304808","0.0-165.0","A2HC9549CZAKNN","<p style=""font-size: 48px;"">+</p>","","","","","null","allTrialResponses","1500","1","17","img_art/13.jpg","-20","kind of like a pipe with water","Brittany,Courtney,Cynthia,Allison,Kylie,Shannon","Not really a fan of ""splash"" art.,-20,40,20","Debree on top of a calm pond.,18,280,20","It reminds me of rain,11,320,20","Generic mix of colors. Cool and messy.,10,140,20","Very abstract and soothing,40,300,20","It looks like someone splattered a bunch of different colors to make a picture; I think its ugly.,-40,220,20","Cynthia","It reminds me of rain,11,320,20","Kylie","Very abstract and soothing,40,300,20","Courtney","Debree on top of a calm pond.,18,280,20","4"
"8555","","survey-text","168","1313368","0.0-166.0-0.0","A2HC9549CZAKNN","","","","{""Q0"":""like tracks in sand""}","","","","","","","","","","","","","","","","","","","","","","",""
"4824.300000190735","","image-slider-response","169","1318194","0.0-167.0","A2HC9549CZAKNN","","","","","-10","","","","","","","","","","","","","","","","","","","","","",""
"null","","image-button-response","170","1323196","0.0-168.0","A2HC9549CZAKNN","img_art/7.jpg","null","","","","","","","","","","","","","","","","","","","","","","","","",""
"28196","","image-button-response","171","1351395","0.0-169.0","A2HC9549CZAKNN","img_art/7.jpg","3","","","","","","","","","","","","","","","","","","","","","","","","",""
"295","","image-button-response","172","1351692","0.0-170.0-0.0","A2HC9549CZAKNN","img_art/7.jpg","4","","","","","","","","","","","","","","","","","","","","","","","","",""
"418","","image-button-response","173","1352111","0.0-171.0-0.0","A2HC9549CZAKNN","img_art/7.jpg","1","","","","","","","","","","","","","","","","","","","","","","","","",""
"null","","html-keyboard-response","174","1353113","0.0-172.0","A2HC9549CZAKNN","<p style=""font-size: 48px;"">+</p>","","","","","null","allTrialResponses","1000","1","18","img_art/7.jpg","-10","like tracks in sand","Natalie,Courtney,Cynthia,Nicole,Kylie,Jasmine","does not look good,-42,400,20","That a desert floor,16,280,20","time and change,1,320,20","Looks like the surface of mars,29,20,20","No particular reaction to this,10,300,20","It just reminds me of dirt,-10,340,20","Nicole","Looks like the surface of mars,29,20,20","Kylie","No particular reaction to this,10,300,20","Courtney","That a desert floor,16,280,20","4"
"4342","","survey-text","175","1357464","0.0-173.0-0.0","A2HC9549CZAKNN","","","","{""Q0"":""like a slum""}","","","","","","","","","","","","","","","","","","","","","","",""
"2420.2999999523163","","image-slider-response","176","1359886","0.0-174.0","A2HC9549CZAKNN","","","","","-30","","","","","","","","","","","","","","","","","","","","","",""
"null","","image-button-response","177","1364886","0.0-175.0","A2HC9549CZAKNN","img_art/11.jpg","null","","","","","","","","","","","","","","","","","","","","","","","","",""
"1497","","image-button-response","178","1366385","0.0-176.0","A2HC9549CZAKNN","img_art/11.jpg","1","","","","","","","","","","","","","","","","","","","","","","","","",""
"4475","","image-button-response","179","1370862","0.0-177.0-0.0","A2HC9549CZAKNN","img_art/11.jpg","4","","","","","","","","","","","","","","","","","","","","","","","","",""
"432","","image-button-response","180","1371296","0.0-178.0-0.0","A2HC9549CZAKNN","img_art/11.jpg","5","","","","","","","","","","","","","","","","","","","","","","","","",""
"null","","html-keyboard-response","181","1372298","0.0-179.0","A2HC9549CZAKNN","<p style=""font-size: 48px;"">+</p>","","","","","null","allTrialResponses","1000","1","19","img_art/11.jpg","-30","like a slum","Katherine,Courtney,Olivia,Nicole,Kylie,Emma","Makes me feel like my vision is breaking,19,120,20","Thats a creepy old rollercoasters abandoned,-2,280,20","business of traffic,10,40,20","Those vertical strokes are to die for and I love these colors !!!,50,20,20","This looks like a busy highway system along a suburban background,40,300,20","Pretty, interesting, feels like a city, feels like home,50,60,20","Courtney","Thats a creepy old rollercoasters abandoned,-2,280,20","Kylie","This looks like a busy highway system along a suburban background,40,300,20","Emma","Pretty, interesting, feels like a city, feels like home,50,60,20","4"
"9844","","survey-text","182","1382149","0.0-180.0-0.0","A2HC9549CZAKNN","","","","{""Q0"":""like a bunch of blueberries""}","","","","","","","","","","","","","","","","","","","","","","",""
"4907.400000095367","","image-slider-response","183","1387058","0.0-181.0","A2HC9549CZAKNN","","","","","-11","","","","","","","","","","","","","","","","","","","","","",""
"null","","image-button-response","184","1392059","0.0-182.0","A2HC9549CZAKNN","img_art/15.jpg","null","","","","","","","","","","","","","","","","","","","","","","","","",""
"2554","","image-button-response","185","1394614","0.0-183.0","A2HC9549CZAKNN","img_art/15.jpg","1","","","","","","","","","","","","","","","","","","","","","","","","",""
"4725","","image-button-response","186","1399340","0.0-184.0-0.0","A2HC9549CZAKNN","img_art/15.jpg","5","","","","","","","","","","","","","","","","","","","","","","","","",""
"257","","image-button-response","187","1399600","0.0-185.0-0.0","A2HC9549CZAKNN","img_art/15.jpg","4","","","","","","","","","","","","","","","","","","","","","","","","",""
"null","","html-keyboard-response","188","1400101","0.0-186.0","A2HC9549CZAKNN","<p style=""font-size: 48px;"">+</p>","","","","","null","allTrialResponses","500","1","20","img_art/15.jpg","-11","like a bunch of blueberries","Angelica,Courtney,Claire,Rebecca,Kylie,Emma","This looks odd and was not well executed.,-3,280,20","Weird fuzzball bush.,22,280,20","it's alright but a little cluttered,14,260,20","very unsettling! like reverse porcelain esp because of the colors,28,100,20","I don't know how I feel about this,31,300,20","Don't love it but it's cute,16,60,20","Courtney","Weird fuzzball bush.,22,280,20","Emma","Don't love it but it's cute,16,60,20","Kylie","I don't know how I feel about this,31,300,20","4"
"2649","","survey-text","189","1402759","0.0-187.0-0.0","A2HC9549CZAKNN","","","","{""Q0"":""we""}","","","","","","","","","","","","","","","","","","","","","","",""
"9639","","survey-text","190","1412398","0.0-188.0-0.0","A2HC9549CZAKNN","","","","{""Q0"":""like a kid's drawing""}","","","","","","","","","","","","","","","","","","","","","","",""
"16055.599999904633","","image-slider-response","191","1428456","0.0-189.0","A2HC9549CZAKNN","","","","","-11","","","","","","","","","","","","","","","","","","","","","",""
"3437","","image-button-response","192","1433458","0.0-190.0","A2HC9549CZAKNN","img_art/9.jpg","0","","","","","","","","","","","","","","","","","","","","","","","","",""
"1972","","image-button-response","193","1435432","0.0-191.0","A2HC9549CZAKNN","img_art/9.jpg","4","","","","","","","","","","","","","","","","","","","","","","","","",""
"574","","image-button-response","194","1436007","0.0-192.0-0.0","A2HC9549CZAKNN","img_art/9.jpg","2","","","","","","","","","","","","","","","","","","","","","","","","",""
"585","","image-button-response","195","1436594","0.0-193.0-0.0","A2HC9549CZAKNN","img_art/9.jpg","0","","","","","","","","","","","","","","","","","","","","","","","","",""
"null","","html-keyboard-response","196","1437096","0.0-194.0","A2HC9549CZAKNN","<p style=""font-size: 48px;"">+</p>","","","","","null","allTrialResponses","500","1","21","img_art/9.jpg","-11","like a kid's drawing","Caitlin,Courtney,Kelsey,Kaitlyn,Kylie,Emma","Caveman. Not for my walls.,-5,80,20","This is a picture of a scary mans head sideways.,-24,280,20","i like the colors but not the composition,-17,240,20","Focal point is interesting,2,80,20","Peaceful dreaming,40,300,20","Feels angry .....,-40,60,20","Kylie","Peaceful dreaming,40,300,20","Kelsey","i like the colors but not the composition,-17,240,20","Caitlin","Caveman. Not for my walls.,-5,80,20","4"
"15672","","survey-text","197","1452776","0.0-195.0-0.0","A2HC9549CZAKNN","","","","{""Q0"":""kind of like a desert""}","","","","","","","","","","","","","","","","","","","","","","",""
"2103.100000143051","","image-slider-response","198","1454880","0.0-196.0","A2HC9549CZAKNN","","","","","-16","","","","","","","","","","","","","","","","","","","","","",""
"3589","","image-button-response","199","1459882","0.0-197.0","A2HC9549CZAKNN","img_art/20.jpg","0","","","","","","","","","","","","","","","","","","","","","","","","",""
"1324","","image-button-response","200","1461206","0.0-198.0","A2HC9549CZAKNN","img_art/20.jpg","4","","","","","","","","","","","","","","","","","","","","","","","","",""
"311","","image-button-response","201","1461519","0.0-199.0-0.0","A2HC9549CZAKNN","img_art/20.jpg","5","","","","","","","","","","","","","","","","","","","","","","","","",""
"626","","image-button-response","202","1462146","0.0-200.0-0.0","A2HC9549CZAKNN","img_art/20.jpg","0","","","","","","","","","","","","","","","","","","","","","","","","",""
"null","","html-keyboard-response","203","1462647","0.0-201.0","A2HC9549CZAKNN","<p style=""font-size: 48px;"">+</p>","","","","","null","allTrialResponses","500","1","22","img_art/20.jpg","-16","kind of like a desert","Caitlin,Kayla,Kelsey,Samantha,Kylie,Haley","Not bad for all the southwestern people.,15,80,20","Something fell over and is burning, but it's kinda dope, you know?,14,180,20","i almost feel like i can recognize what this is,-6,240,20","Use of white on foreground is too big and steals eyes away from rest of painting,2,140,20","City life vs shore life,40,300,20","I really enjoy the contrast of colors (blue/red/orange),30,220,20","Kylie","City life vs shore life,40,300,20","Haley","I really enjoy the contrast of colors (blue/red/orange),30,220,20","Caitlin","Not bad for all the southwestern people.,15,80,20","4"
"8513","","survey-text","204","1471166","0.0-202.0-0.0","A2HC9549CZAKNN","","","","{""Q0"":""looks like kids did it""}","","","","","","","","","","","","","","","","","","","","","","",""
"1872.5999999046326","","image-slider-response","205","1473039","0.0-203.0","A2HC9549CZAKNN","","","","","-6","","","","","","","","","","","","","","","","","","","","","",""
"null","","image-button-response","206","1478041","0.0-204.0","A2HC9549CZAKNN","img_art/19.jpg","null","","","","","","","","","","","","","","","","","","","","","","","","",""
"1125","","image-button-response","207","1479166","0.0-205.0","A2HC9549CZAKNN","img_art/19.jpg","4","","","","","","","","","","","","","","","","","","","","","","","","",""
"977","","image-button-response","208","1480144","0.0-206.0-0.0","A2HC9549CZAKNN","img_art/19.jpg","5","","","","","","","","","","","","","","","","","","","","","","","","",""
"2442","","image-button-response","209","1482588","0.0-207.0-0.0","A2HC9549CZAKNN","img_art/19.jpg","3","","","","","","","","","","","","","","","","","","","","","","","","",""
"null","","html-keyboard-response","210","1484089","0.0-208.0","A2HC9549CZAKNN","<p style=""font-size: 48px;"">+</p>","","","","","null","allTrialResponses","1500","1","23","img_art/19.jpg","-6","looks like kids did it","Caitlin,Monica,Vanessa,Danielle,Kylie,Haley","Looks like a homeless man and this painting should be too.,-5,80,20","The shapes make me recall a city scene but it looks dirty,-22,360,20","Again, this is too abstract.,-10,380,20","It looks like as if it were portraying a village that was polluted? I don't like the theme anyway,-21,340,20","Reminds me of a quaint little town I once visited in Italy,50,300,20","I like this as a whole, but the longer I look at it, the less it pleases me,-10,220,20","Kylie","Reminds me of a quaint little town I once visited in Italy,50,300,20","Haley","I like this as a whole, but the longer I look at it, the less it pleases me,-10,220,20","Danielle","It looks like as if it were portraying a village that was polluted? I don't like the theme anyway,-21,340,20","4"
"7108","","survey-text","211","1491200","0.0-209.0-0.0","A2HC9549CZAKNN","","","","{""Q0"":""kind of simple, like trees""}","","","","","","","","","","","","","","","","","","","","","","",""
"3238.2999999523163","","image-slider-response","212","1494439","0.0-210.0","A2HC9549CZAKNN","","","","","7","","","","","","","","","","","","","","","","","","","","","",""
"2012","","image-button-response","213","1499442","0.0-211.0","A2HC9549CZAKNN","img_art/26.jpg","1","","","","","","","","","","","","","","","","","","","","","","","","",""
"1767","","image-button-response","214","1501211","0.0-212.0","A2HC9549CZAKNN","img_art/26.jpg","4","","","","","","","","","","","","","","","","","","","","","","","","",""
"449","","image-button-response","215","1501662","0.0-213.0-0.0","A2HC9549CZAKNN","img_art/26.jpg","5","","","","","","","","","","","","","","","","","","","","","","","","",""
"544","","image-button-response","216","1502207","0.0-214.0-0.0","A2HC9549CZAKNN","img_art/26.jpg","1","","","","","","","","","","","","","","","","","","","","","","","","",""
"null","","html-keyboard-response","217","1503709","0.0-215.0","A2HC9549CZAKNN","<p style=""font-size: 48px;"">+</p>","","","","","null","allTrialResponses","1500","1","24","img_art/26.jpg","7","kind of simple, like trees","Michelle,Alexandria,Bailey,Danielle,Kylie,Haley","I can make out a street view and I am a fan of watercolors but still too boring,15,280,20","makes me happy and reminds me of a paris courtyard,29,80,20","Too blocky and unfocused. It's like the inside of a house, and the outside.,-24,360,20","It's a little too yellow-y for me, I'm not a huge fan of the color schemes or setting it portrays.,-20,340,20","Picturesque little town,45,300,20","It feels almost unfinished, but I like the color palette,9,220,20","Kylie","Picturesque little town,45,300,20","Haley","It feels almost unfinished, but I like the color palette,9,220,20","Alexandria","makes me happy and reminds me of a paris courtyard,29,80,20","4"
"9437","","survey-text","218","1513151","0.0-216.0-0.0","A2HC9549CZAKNN","","","","{""Q0"":""gray and somber""}","","","","","","","","","","","","","","","","","","","","","","",""
"2602.300000190735","","image-slider-response","219","1515755","0.0-217.0","A2HC9549CZAKNN","","","","","-35","","","","","","","","","","","","","","","","","","","","","",""
"3476","","image-button-response","220","1520758","0.0-218.0","A2HC9549CZAKNN","img_art/18.jpg","1","","","","","","","","","","","","","","","","","","","","","","","","",""
"2676","","image-button-response","221","1523435","0.0-219.0","A2HC9549CZAKNN","img_art/18.jpg","5","","","","","","","","","","","","","","","","","","","","","","","","",""
"426","","image-button-response","222","1523862","0.0-220.0-0.0","A2HC9549CZAKNN","img_art/18.jpg","4","","","","","","","","","","","","","","","","","","","","","","","","",""
"674","","image-button-response","223","1524537","0.0-221.0-0.0","A2HC9549CZAKNN","img_art/18.jpg","1","","","","","","","","","","","","","","","","","","","","","","","","",""
"null","","html-keyboard-response","224","1525039","0.0-222.0","A2HC9549CZAKNN","<p style=""font-size: 48px;"">+</p>","","","","","null","allTrialResponses","500","1","25","img_art/18.jpg","-35","gray and somber","Rachel,Alexandria,Shelby,Marissa,Kylie,Haley","This one seems rather ghoulish to me.,-41,80,20","the harsh lines with the smooth lines makes me think of wild animals,20,80,20","This gives a very ominous feeling,-30,240,20","This brings to mind the four horsemen of the apocalypse,8,160,20","Kind of weird in a confusing way,10,300,20","I could stare at this for long stretches of time and still find new details. I love it.,40,220,20","Haley","I could stare at this for long stretches of time and still find new details. I love it.,40,220,20","Kylie","Kind of weird in a confusing way,10,300,20","Alexandria","the harsh lines with the smooth lines makes me think of wild animals,20,80,20","4"
"2652","","survey-text","225","1527703","0.0-223.0-0.0","A2HC9549CZAKNN","","","","{""Q0"":""table""}","","","","","","","","","","","","","","","","","","","","","","",""
"8840","","survey-text","226","1536544","0.0-224.0-0.0","A2HC9549CZAKNN","","","","{""Q0"":""very bright and colorful but ok""}","","","","","","","","","","","","","","","","","","","","","","",""
"6559.799999952316","","image-slider-response","227","1543105","0.0-225.0","A2HC9549CZAKNN","","","","","0","","","","","","","","","","","","","","","","","","","","","",""
"null","","image-button-response","228","1548108","0.0-226.0","A2HC9549CZAKNN","img_art/22.jpg","null","","","","","","","","","","","","","","","","","","","","","","","","",""
"2415","","image-button-response","229","1550525","0.0-227.0","A2HC9549CZAKNN","img_art/22.jpg","1","","","","","","","","","","","","","","","","","","","","","","","","",""
"795","","image-button-response","230","1551321","0.0-228.0-0.0","A2HC9549CZAKNN","img_art/22.jpg","0","","","","","","","","","","","","","","","","","","","","","","","","",""
"4494","","image-button-response","231","1555816","0.0-229.0-0.0","A2HC9549CZAKNN","img_art/22.jpg","5","","","","","","","","","","","","","","","","","","","","","","","","",""
"null","","html-keyboard-response","232","1557318","0.0-230.0","A2HC9549CZAKNN","<p style=""font-size: 48px;"">+</p>","","","","","null","allTrialResponses","1500","1","26","img_art/22.jpg","0","very bright and colorful but ok","Meghan,Alexandria,Laura,Kathryn,Kylie,Haley","really beautiful colors and contrast,30,220,20","the colors and shapes makes me want to keep looking at it,22,80,20","muddy and rough,14,320,20","This piece gives off a cool vibe. Reminds me of being out in the city at night.,20,140,20","Climate change in a big city,35,300,20","Beautiful. I love the color contrast and gradients.,50,220,20","Alexandria","the colors and shapes makes me want to keep looking at it,22,80,20","Meghan","really beautiful colors and contrast,30,220,20","Haley","Beautiful. I love the color contrast and gradients.,50,220,20","4"
"4878","","survey-text","233","1562199","0.0-231.0-0.0","A2HC9549CZAKNN","","","","{""Q0"":""boring and silly""}","","","","","","","","","","","","","","","","","","","","","","",""
"2404.2000000476837","","image-slider-response","234","1564604","0.0-232.0","A2HC9549CZAKNN","","","","","-16","","","","","","","","","","","","","","","","","","","","","",""
"null","","image-button-response","235","1569606","0.0-233.0","A2HC9549CZAKNN","img_art/30.jpg","null","","","","","","","","","","","","","","","","","","","","","","","","",""
"40912","","image-button-response","236","1610520","0.0-234.0","A2HC9549CZAKNN","img_art/30.jpg","3","","","","","","","","","","","","","","","","","","","","","","","","",""
"1532","","image-button-response","237","1612054","0.0-235.0-0.0","A2HC9549CZAKNN","img_art/30.jpg","1","","","","","","","","","","","","","","","","","","","","","","","","",""
"383","","image-button-response","238","1612438","0.0-236.0-0.0","A2HC9549CZAKNN","img_art/30.jpg","4","","","","","","","","","","","","","","","","","","","","","","","","",""
"null","","html-keyboard-response","239","1613939","0.0-237.0","A2HC9549CZAKNN","<p style=""font-size: 48px;"">+</p>","","","","","null","allTrialResponses","1500","1","27","img_art/30.jpg","-16","boring and silly","Meghan,Alexandria,Melissa,Diana,Hannah,Haley","nothing special about it,1,220,20","the lines and colors look purposeful,18,80,20","muddy, feels unintentional,-50,240,20","I love the color contrast of the red against the blue.,9,380,20","It's just all right.,5,240,20","I like the colors,18,220,20","Diana","I love the color contrast of the red against the blue.,9,380,20","Alexandria","the lines and colors look purposeful,18,80,20","Hannah","It's just all right.,5,240,20","4"
"7821","","survey-text","240","1621767","0.0-238.0-0.0","A2HC9549CZAKNN","","","","{""Q0"":""like a 2 yo did it""}","","","","","","","","","","","","","","","","","","","","","","",""
"2642.7999999523163","","image-slider-response","241","1624410","0.0-239.0","A2HC9549CZAKNN","","","","","-45","","","","","","","","","","","","","","","","","","","","","",""
"null","","image-button-response","242","1629413","0.0-240.0","A2HC9549CZAKNN","img_art/3.jpg","null","","","","","","","","","","","","","","","","","","","","","","","","",""
"39102","","image-button-response","243","1668516","0.0-241.0","A2HC9549CZAKNN","img_art/3.jpg","2","","","","","","","","","","","","","","","","","","","","","","","","",""
"2459","","image-button-response","244","1670976","0.0-242.0-0.0","A2HC9549CZAKNN","img_art/3.jpg","4","","","","","","","","","","","","","","","","","","","","","","","","",""
"1686","","image-button-response","245","1672664","0.0-243.0-0.0","A2HC9549CZAKNN","img_art/3.jpg","5","","","","","","","","","","","","","","","","","","","","","","","","",""
"null","","html-keyboard-response","246","1673666","0.0-244.0","A2HC9549CZAKNN","<p style=""font-size: 48px;"">+</p>","","","","","null","allTrialResponses","1000","1","28","img_art/3.jpg","-45","like a 2 yo did it","Autumn,Alexandria,Jennifer,Diana,Hannah,Madeline","Unfocused and rushed.,-28,340,20","it makes me feel really angry,-20,80,20","This looks like something a child created in 5 minutes.,-50,380,20","I didn't feel the color choice when I first looked. I did however like the placement of the gray.,-28,380,20","Looks like a Basquiat but just not my cup of tea.,-29,240,20","Scribbly a bit too much,-30,40,20","Jennifer","This looks like something a child created in 5 minutes.,-50,380,20","Hannah","Looks like a Basquiat but just not my cup of tea.,-29,240,20","Madeline","Scribbly a bit too much,-30,40,20","4"
"7802","","survey-text","247","1681472","0.0-245.0-0.0","A2HC9549CZAKNN","","","","{""Q0"":""kind of pretty and unique tree""}","","","","","","","","","","","","","","","","","","","","","","",""
"2207.7000000476837","","image-slider-response","248","1683681","0.0-246.0","A2HC9549CZAKNN","","","","","17","","","","","","","","","","","","","","","","","","","","","",""
"null","","image-button-response","249","1688682","0.0-247.0","A2HC9549CZAKNN","img_art/17.jpg","null","","","","","","","","","","","","","","","","","","","","","","","","",""
"17219","","image-button-response","250","1705904","0.0-248.0","A2HC9549CZAKNN","img_art/17.jpg","5","","","","","","","","","","","","","","","","","","","","","","","","",""
"1853","","image-button-response","251","1707758","0.0-249.0-0.0","A2HC9549CZAKNN","img_art/17.jpg","1","","","","","","","","","","","","","","","","","","","","","","","","",""
"973","","image-button-response","252","1708732","0.0-250.0-0.0","A2HC9549CZAKNN","img_art/17.jpg","2","","","","","","","","","","","","","","","","","","","","","","","","",""
"null","","html-keyboard-response","253","1710234","0.0-251.0","A2HC9549CZAKNN","<p style=""font-size: 48px;"">+</p>","","","","","null","allTrialResponses","1500","1","29","img_art/17.jpg","17","kind of pretty and unique tree","Mikayla,Jamie,Jennifer,Sabrina,Hannah,Madeline","Doesnt really do anythingb for me.,4,300,20","Looks like some fantasy tree. Nice,30,320,20","Very elegant, this design reminds me of trees,31,380,20","Messy shadow of loss and love,50,120,20","Looks like an abandoned building that is being overtaken by nature.,-10,240,20","So expressive and wonderful wow!,17,40,20","Madeline","So expressive and wonderful wow!,17,40,20","Jamie","Looks like some fantasy tree. Nice,30,320,20","Jennifer","Very elegant, this design reminds me of trees,31,380,20","4"
"6467","","survey-text","254","1716704","0.0-252.0-0.0","A2HC9549CZAKNN","","","","{""Q0"":""coloful, torn on it""}","","","","","","","","","","","","","","","","","","","","","","",""
"2704.7000000476837","","image-slider-response","255","1719409","0.0-253.0","A2HC9549CZAKNN","","","","","6","","","","","","","","","","","","","","","","","","","","","",""
"null","","image-button-response","256","1724411","0.0-254.0","A2HC9549CZAKNN","img_art/1.jpg","null","","","","","","","","","","","","","","","","","","","","","","","","",""
"18415","","image-button-response","257","1742828","0.0-255.0","A2HC9549CZAKNN","img_art/1.jpg","2","","","","","","","","","","","","","","","","","","","","","","","","",""
"2038","","image-button-response","258","1744868","0.0-256.0-0.0","A2HC9549CZAKNN","img_art/1.jpg","3","","","","","","","","","","","","","","","","","","","","","","","","",""
"1992","","image-button-response","259","1746861","0.0-257.0-0.0","A2HC9549CZAKNN","img_art/1.jpg","0","","","","","","","","","","","","","","","","","","","","","","","","",""
"null","","html-keyboard-response","260","1747362","0.0-258.0","A2HC9549CZAKNN","<p style=""font-size: 48px;"">+</p>","","","","","null","allTrialResponses","500","1","30","img_art/1.jpg","6","coloful, torn on it","Savannah,Jamie,Jennifer,Mackenzie,Sarah,Madeline","Its simply okay.,3,200,20","Looks like just a bunch of colors with no real point,-5,320,20","Bright and colorful without being overpowering,32,380,20","I like the simple aspect to the design,21,20,20","it's boring despite all the colors,-2,180,20","Quite messy looking,-22,40,20","Jennifer","Bright and colorful without being overpowering,32,380,20","Mackenzie","I like the simple aspect to the design,21,20,20","Savannah","Its simply okay.,3,200,20","4"
"6552","","image-button-response_instructions","261","1753917","0.0-259.0","A2HC9549CZAKNN","","0","instructions","","","","","","","","","","","","","","","","","","","","","","","",""
"1364","","image-button-response","262","1755285","0.0-260.0","A2HC9549CZAKNN","","0","","","","","","","","","","","","","","","","","","","","","","","","",""
