"rt","url","trial_type","trial_index","time_elapsed","internal_node_id","participant_id","stimulus","button_pressed","Name","responses","response","key_press","variableName","fixationTime","condition","trial","photo","subjectRating","subjectResponse","agentsNames","agent_1_Response","agent_2_Response","agent_3_Response","agent_4_Response","agent_5_Response","agent_6_Response","kept_1_name","kept_1_response","kept_2_name","kept_2_response","kept_3_name","kept_3_response","errorCounter"
"207443","external_page_harvard.html","external-html","0","207572","0.0-0.0","A2I3IM3RJO2OL0","","","","","","","","","","","","","","","","","","","","","","","","","","",""
"2813","","image-button-response","1","210387","0.0-1.0","A2I3IM3RJO2OL0","","1","","","","","","","","","","","","","","","","","","","","","","","","",""
"5495","","image-button-response","2","215890","0.0-2.0-0.0","A2I3IM3RJO2OL0","","1","phone","","","","","","","","","","","","","","","","","","","","","","","",""
"11329","","survey-text","3","227222","0.0-3.0-0.0","A2I3IM3RJO2OL0","","","","{""Q0"":""A2I3IM3RJO2OL0""}","","","","","","","","","","","","","","","","","","","","","","",""
"31913","","image-button-response_instructions","4","259139","0.0-4.0","A2I3IM3RJO2OL0","","0","instructions","","","","","","","","","","","","","","","","","","","","","","","",""
"29496","","image-button-response_instructions","5","288638","0.0-5.0","A2I3IM3RJO2OL0","img_art/ins/popularity/ins1.png","0","instructions","","","","","","","","","","","","","","","","","","","","","","","",""
"16970","","image-button-response_instructions","6","305611","0.0-6.0","A2I3IM3RJO2OL0","img_art/ins/popularity/ins2.png","0","instructions","","","","","","","","","","","","","","","","","","","","","","","",""
"14098","","image-button-response_instructions","7","319712","0.0-7.0","A2I3IM3RJO2OL0","img_art/ins/popularity/ins2Extreme.png","0","instructions","","","","","","","","","","","","","","","","","","","","","","","",""
"10091","","image-button-response_instructions","8","329805","0.0-8.0","A2I3IM3RJO2OL0","img_art/ins/popularity/ins3KEEPpop.PNG","0","instructions","","","","","","","","","","","","","","","","","","","","","","","",""
"6388","","image-button-response_instructions","9","336195","0.0-9.0","A2I3IM3RJO2OL0","img_art/ins/popularity/ins3ANamepop.PNG","0","instructions","","","","","","","","","","","","","","","","","","","","","","","",""
"17254","","image-button-response_instructions","10","353451","0.0-10.0","A2I3IM3RJO2OL0","img_art/ins/popularity/ins3ARatingpop.png","0","instructions","","","","","","","","","","","","","","","","","","","","","","","",""
"8767","","image-button-response_instructions","11","362220","0.0-11.0","A2I3IM3RJO2OL0","img_art/ins/popularity/ins3ATextpop.png","0","instructions","","","","","","","","","","","","","","","","","","","","","","","",""
"17728","","image-button-response_instructions","12","379950","0.0-12.0","A2I3IM3RJO2OL0","img_art/ins/popularity/ins3ALikespop.png","0","instructions","","","","","","","","","","","","","","","","","","","","","","","",""
"20892","","image-button-response_instructions","13","400844","0.0-13.0","A2I3IM3RJO2OL0","img_art/ins/popularity/ins3KEEPpop.PNG","0","instructions","","","","","","","","","","","","","","","","","","","","","","","",""
"24430","","image-button-response_instructions","14","425276","0.0-14.0","A2I3IM3RJO2OL0","img_art/ins/popularity/ins3_5RED.png","0","instructions","","","","","","","","","","","","","","","","","","","","","","","",""
"7808","","image-button-response_instructions","15","433086","0.0-15.0","A2I3IM3RJO2OL0","img_art/ins/popularity/ins3KEEPpop.PNG","0","instructions","","","","","","","","","","","","","","","","","","","","","","","",""
"16008","","image-button-response_instructions","16","449096","0.0-16.0","A2I3IM3RJO2OL0","img_art/ins/popularity/ins4KEEPpop.PNG","0","instructions","","","","","","","","","","","","","","","","","","","","","","","",""
"9314","","image-button-response_instructions","17","458412","0.0-17.0","A2I3IM3RJO2OL0","img_art/ins/popularity/ins5KEEPpop.PNG","0","instructions","","","","","","","","","","","","","","","","","","","","","","","",""
"4626","","image-button-response_instructions","18","463040","0.0-18.0","A2I3IM3RJO2OL0","","0","instructions","","","","","","","","","","","","","","","","","","","","","","","",""
"9696","","survey-text","19","472778","0.0-19.0-0.0","A2I3IM3RJO2OL0","","","","{""Q0"":""but""}","","","","","","","","","","","","","","","","","","","","","","",""
"18935","","survey-text","20","491716","0.0-20.0-0.0","A2I3IM3RJO2OL0","","","","{""Q0"":""This art looks somewhat messy.""}","","","","","","","","","","","","","","","","","","","","","","",""
"8697.600000023842","","image-slider-response","21","500421","0.0-21.0","A2I3IM3RJO2OL0","","","","","-18","","","","","","","","","","","","","","","","","","","","","",""
"null","","image-button-response","22","505427","0.0-22.0","A2I3IM3RJO2OL0","img_art/ins/1.jpg","null","","","","","","","","","","","","","","","","","","","","","","","","",""
"9953","","image-button-response","23","515383","0.0-23.0","A2I3IM3RJO2OL0","img_art/ins/1.jpg","3","","","","","","","","","","","","","","","","","","","","","","","","",""
"7332","","image-button-response","24","522719","0.0-24.0-0.0","A2I3IM3RJO2OL0","img_art/ins/1.jpg","1","","","","","","","","","","","","","","","","","","","","","","","","",""
"13328","","image-button-response","25","536051","0.0-25.0-0.0","A2I3IM3RJO2OL0","img_art/ins/1.jpg","5","","","","","","","","","","","","","","","","","","","","","","","","",""
"null","","html-keyboard-response","26","536562","0.0-26.0","A2I3IM3RJO2OL0","<p style=""font-size: 48px;"">+</p>","","","","","null","allTrialResponses","500","1","-2","img_art/ins/1.jpg","-18","This art looks somewhat messy.","Allison,Ashley,Beth,Dora,Erika,Jen","looks like a lot of things going on in the mist,20,20,20","I just don't get why these type of art would be popular,-32,40,20","This color reminds me of poo,-46,60,20","looks like what my niece in 3rd grade did this afternoon,-50,80,20","I like the sophisticated brushwork,40,100,20","It reminds me of a candy land dream I had,36,120,20","Dora","looks like what my niece in 3rd grade did this afternoon,-50,80,20","Ashley","I just don't get why these type of art would be popular,-32,40,20","Jen","It reminds me of a candy land dream I had,36,120,20","0"
"32139","","survey-text","27","568714","0.0-27.0-0.0","A2I3IM3RJO2OL0","","","","{""Q0"":""It looks like old rusted pieces in a factory""}","","","","","","","","","","","","","","","","","","","","","","",""
"8259.899999976158","","image-slider-response","28","576979","0.0-28.0","A2I3IM3RJO2OL0","","","","","11","","","","","","","","","","","","","","","","","","","","","",""
"null","","image-button-response","29","581984","0.0-29.0","A2I3IM3RJO2OL0","img_art/ins/2.jpg","null","","","","","","","","","","","","","","","","","","","","","","","","",""
"10188","","image-button-response","30","592177","0.0-30.0","A2I3IM3RJO2OL0","img_art/ins/2.jpg","4","","","","","","","","","","","","","","","","","","","","","","","","",""
"16736","","image-button-response","31","608917","0.0-31.0-0.0","A2I3IM3RJO2OL0","img_art/ins/2.jpg","4","","","","","","","","","","","","","","","","","","","","","","","","",""
"3174","","image-button-response","32","641287","0.0-31.1-0.1","A2I3IM3RJO2OL0","img_art/ins/2.jpg","5","","","","","","","","","","","","","","","","","","","","","","","","",""
"2209","","image-button-response","33","643499","0.0-32.0-0.0","A2I3IM3RJO2OL0","img_art/ins/2.jpg","1","","","","","","","","","","","","","","","","","","","","","","","","",""
"null","","html-keyboard-response","34","644502","0.0-33.0","A2I3IM3RJO2OL0","<p style=""font-size: 48px;"">+</p>","","","","","null","allTrialResponses","1000","1","-1","img_art/ins/2.jpg","11","It looks like old rusted pieces in a factory","Jenna,Ashley,Katie,Dora,Kara,Jen","One of my pet peevs,-48,140,20","Idk, it is just annoying,-32,40,20","too much color!,-28,180,20","looks too angry,-50,80,20","I like the blocks of color arrangements,30,160,20","It reminds me of a fireplace,36,120,20","Kara","I like the blocks of color arrangements,30,160,20","Jen","It reminds me of a fireplace,36,120,20","Ashley","Idk, it is just annoying,-32,40,20","2"
"28315","","survey-text","35","672830","0.0-34.0-0.0","A2I3IM3RJO2OL0","","","","{""Q0"":""It reminds me of walking on lake ice.""}","","","","","","","","","","","","","","","","","","","","","","",""
"8681.5","","image-slider-response","36","681515","0.0-35.0","A2I3IM3RJO2OL0","","","","","34","","","","","","","","","","","","","","","","","","","","","",""
"null","","image-button-response","37","686519","0.0-36.0","A2I3IM3RJO2OL0","img_art/ins/3.jpg","null","","","","","","","","","","","","","","","","","","","","","","","","",""
"872","","image-button-response","38","687395","0.0-37.0","A2I3IM3RJO2OL0","img_art/ins/3.jpg","4","","","","","","","","","","","","","","","","","","","","","","","","",""
"8491","","image-button-response","39","695889","0.0-38.0-0.0","A2I3IM3RJO2OL0","img_art/ins/3.jpg","2","","","","","","","","","","","","","","","","","","","","","","","","",""
"9111","","image-button-response","40","705004","0.0-39.0-0.0","A2I3IM3RJO2OL0","img_art/ins/3.jpg","5","","","","","","","","","","","","","","","","","","","","","","","","",""
"null","","html-keyboard-response","41","706008","0.0-40.0","A2I3IM3RJO2OL0","<p style=""font-size: 48px;"">+</p>","","","","","null","allTrialResponses","1000","1","0","img_art/ins/3.jpg","34","It reminds me of walking on lake ice.","Rose,Ashley,Mary,Leslie,Kara,Jen","My daily routine, it's depressing,-20,240,20","It looks like a playground for bats,-36,40,20","I like the overlapping of brushes,41,220,20","It's an alright work,15,200,20","calming blue is very nice,36,160,20","I can feel a rainy day from this painting,18,120,20","Kara","calming blue is very nice,36,160,20","Mary","I like the overlapping of brushes,41,220,20","Jen","I can feel a rainy day from this painting,18,120,20","2"
"80263","","image-button-response_instructions","42","786284","0.0-41.0","A2I3IM3RJO2OL0","","0","instructions","","","","","","","","","","","","","","","","","","","","","","","",""
"31060","","survey-likert","43","817347","0.0-42.0-0.0","A2I3IM3RJO2OL0","","","","{""Q0"":"""",""Q1"":0,""Q2"":1}","","","","","","","","","","","","","","","","","","","","","","",""
"7569","","survey-text","44","824926","0.0-43.0-0.0","A2I3IM3RJO2OL0","","","","{""Q0"":""rock""}","","","","","","","","","","","","","","","","","","","","","","",""
"50970","","survey-text","45","875900","0.0-44.0-0.0","A2I3IM3RJO2OL0","","","","{""Q0"":""Looks like many windows on the side of an old building""}","","","","","","","","","","","","","","","","","","","","","","",""
"9979.200000047684","","image-slider-response","46","885882","0.0-45.0","A2I3IM3RJO2OL0","","","","","20","","","","","","","","","","","","","","","","","","","","","",""
"null","","image-button-response","47","890928","0.0-46.0","A2I3IM3RJO2OL0","img_art/12.jpg","null","","","","","","","","","","","","","","","","","","","","","","","","",""
"6474","","image-button-response","48","897407","0.0-47.0","A2I3IM3RJO2OL0","img_art/12.jpg","5","","","","","","","","","","","","","","","","","","","","","","","","",""
"12756","","image-button-response","49","910166","0.0-48.0-0.0","A2I3IM3RJO2OL0","img_art/12.jpg","2","","","","","","","","","","","","","","","","","","","","","","","","",""
"3304","","image-button-response","50","913474","0.0-49.0-0.0","A2I3IM3RJO2OL0","img_art/12.jpg","1","","","","","","","","","","","","","","","","","","","","","","","","",""
"null","","html-keyboard-response","51","914978","0.0-50.0","A2I3IM3RJO2OL0","<p style=""font-size: 48px;"">+</p>","","","","","null","allTrialResponses","1500","1","1","img_art/12.jpg","20","Looks like many windows on the side of an old building","Brittany,Sophia,Alicia,Christina,Isabella,Autumn","Too blocky and not interesting enough.,-15,40,20","Good technique. It's just not my thing.,2,280,20","it's ok, but blocky, looks old.,3,120,20","way too 90s/80s for me,-9,240,20","Something you would see in a government building hallway,3,280,20","Good too basic.,18,340,20","Autumn","Good too basic.,18,340,20","Alicia","it's ok, but blocky, looks old.,3,120,20","Sophia","Good technique. It's just not my thing.,2,280,20","2"
"98989","","survey-text","52","1013980","0.0-51.0-0.0","A2I3IM3RJO2OL0","","","","{""Q0"":""An old Egyptian walking in the field.""}","","","","","","","","","","","","","","","","","","","","","","",""
"7754.799999952316","","image-slider-response","53","1021738","0.0-52.0","A2I3IM3RJO2OL0","","","","","29","","","","","","","","","","","","","","","","","","","","","",""
"null","","image-button-response","54","1026750","0.0-53.0","A2I3IM3RJO2OL0","img_art/25.jpg","null","","","","","","","","","","","","","","","","","","","","","","","","",""
"44951","","image-button-response","55","1071705","0.0-54.0","A2I3IM3RJO2OL0","img_art/25.jpg","3","","","","","","","","","","","","","","","","","","","","","","","","",""
"3424","","image-button-response","56","1075133","0.0-55.0-0.0","A2I3IM3RJO2OL0","img_art/25.jpg","4","","","","","","","","","","","","","","","","","","","","","","","","",""
"8458","","image-button-response","57","1083594","0.0-56.0-0.0","A2I3IM3RJO2OL0","img_art/25.jpg","0","","","","","","","","","","","","","","","","","","","","","","","","",""
"null","","html-keyboard-response","58","1085098","0.0-57.0","A2I3IM3RJO2OL0","<p style=""font-size: 48px;"">+</p>","","","","","null","allTrialResponses","1500","1","2","img_art/25.jpg","29","An old Egyptian walking in the field.","Allison,Sophia,Alicia,Jordan,Michelle,Autumn","high contrast draws attention to the image, but I'm not sure what I'm seeing,-5,140,20","This one just has a dark feeling to me.,-50,280,20","death. childish nightmare.,-29,120,20","It's fine, belongs in a church, or somewhere else mystical,15,20,20","I can get behind this but only because I like the green. it reminds me of a graveyard,11,280,20","This is too simple,-22,340,20","Jordan","It's fine, belongs in a church, or somewhere else mystical,15,20,20","Michelle","I can get behind this but only because I like the green. it reminds me of a graveyard,11,280,20","Allison","high contrast draws attention to the image, but I'm not sure what I'm seeing,-5,140,20","2"
"20134","","survey-text","59","1105244","0.0-58.0-0.0","A2I3IM3RJO2OL0","","","","{""Q0"":""Ripe Grapevines definitely""}","","","","","","","","","","","","","","","","","","","","","","",""
"6470.700000047684","","image-slider-response","60","1111717","0.0-59.0","A2I3IM3RJO2OL0","","","","","27","","","","","","","","","","","","","","","","","","","","","",""
"null","","image-button-response","61","1116732","0.0-60.0","A2I3IM3RJO2OL0","img_art/15.jpg","null","","","","","","","","","","","","","","","","","","","","","","","","",""
"15929","","image-button-response","62","1132668","0.0-61.0","A2I3IM3RJO2OL0","img_art/15.jpg","0","","","","","","","","","","","","","","","","","","","","","","","","",""
"7967","","image-button-response","63","1140638","0.0-62.0-0.0","A2I3IM3RJO2OL0","img_art/15.jpg","4","","","","","","","","","","","","","","","","","","","","","","","","",""
"3082","","image-button-response","64","1143724","0.0-63.0-0.0","A2I3IM3RJO2OL0","img_art/15.jpg","2","","","","","","","","","","","","","","","","","","","","","","","","",""
"null","","html-keyboard-response","65","1144228","0.0-64.0","A2I3IM3RJO2OL0","<p style=""font-size: 48px;"">+</p>","","","","","null","allTrialResponses","500","1","3","img_art/15.jpg","27","Ripe Grapevines definitely","Allison,Angelica,Monica,Jordan,Michelle,Molly","Eyes hunt for the blue in the black.,5,140,20","This looks odd and was not well executed.,-3,280,20","I don't feel much of anything when looking at this, it's just a random pattern,1,360,20","I'm just not into it,-5,20,20","Interesting to look at but I don't appreciate the abstraction,2,280,20","I can't see the meaning of the painting.,-30,340,20","Allison","Eyes hunt for the blue in the black.,5,140,20","Michelle","Interesting to look at but I don't appreciate the abstraction,2,280,20","Monica","I don't feel much of anything when looking at this, it's just a random pattern,1,360,20","2"
"16370","","survey-text","66","1160609","0.0-65.0-0.0","A2I3IM3RJO2OL0","","","","{""Q0"":""Looks like a snake winding through""}","","","","","","","","","","","","","","","","","","","","","","",""
"6931.299999952316","","image-slider-response","67","1167543","0.0-66.0","A2I3IM3RJO2OL0","","","","","-24","","","","","","","","","","","","","","","","","","","","","",""
"null","","image-button-response","68","1172547","0.0-67.0","A2I3IM3RJO2OL0","img_art/30.jpg","null","","","","","","","","","","","","","","","","","","","","","","","","",""
"18580","","image-button-response","69","1191134","0.0-68.0","A2I3IM3RJO2OL0","img_art/30.jpg","4","","","","","","","","","","","","","","","","","","","","","","","","",""
"13589","","image-button-response","70","1204729","0.0-69.0-0.0","A2I3IM3RJO2OL0","img_art/30.jpg","1","","","","","","","","","","","","","","","","","","","","","","","","",""
"2508","","image-button-response","71","1207242","0.0-70.0-0.0","A2I3IM3RJO2OL0","img_art/30.jpg","0","","","","","","","","","","","","","","","","","","","","","","","","",""
"null","","html-keyboard-response","72","1208244","0.0-71.0","A2I3IM3RJO2OL0","<p style=""font-size: 48px;"">+</p>","","","","","null","allTrialResponses","1000","1","4","img_art/30.jpg","-24","Looks like a snake winding through","Allison,Cassandra,Monica,Nicole,Michelle,Caitlin","Dislike the contrast here.,-5,140,20","I didn't like this...it looks like someone just finger painted it.,-10,120,20","It looked like a random scribble but I can see a person's face in it now and I think it's clever,13,360,20","I like the softness of this but it doesn't make me feel that nice,5,20,20","Don't like it at all, looks like a someone smeared paint with their fingers,-25,280,20","My kid drew this same picture at daycare!!!,5,80,20","Michelle","Don't like it at all, looks like a someone smeared paint with their fingers,-25,280,20","Cassandra","I didn't like this...it looks like someone just finger painted it.,-10,120,20","Allison","Dislike the contrast here.,-5,140,20","2"
"22745","","survey-text","73","1231004","0.0-72.0-0.0","A2I3IM3RJO2OL0","","","","{""Q0"":""Looks like space waste high above the earth""}","","","","","","","","","","","","","","","","","","","","","","",""
"4339.200000047684","","image-slider-response","74","1235346","0.0-73.0","A2I3IM3RJO2OL0","","","","","-7","","","","","","","","","","","","","","","","","","","","","",""
"null","","image-button-response","75","1240350","0.0-74.0","A2I3IM3RJO2OL0","img_art/18.jpg","null","","","","","","","","","","","","","","","","","","","","","","","","",""
"3261","","image-button-response","76","1243614","0.0-75.0","A2I3IM3RJO2OL0","img_art/18.jpg","1","","","","","","","","","","","","","","","","","","","","","","","","",""
"22552","","image-button-response","77","1266170","0.0-76.0-0.0","A2I3IM3RJO2OL0","img_art/18.jpg","5","","","","","","","","","","","","","","","","","","","","","","","","",""
"2243","","image-button-response","78","1268418","0.0-77.0-0.0","A2I3IM3RJO2OL0","img_art/18.jpg","4","","","","","","","","","","","","","","","","","","","","","","","","",""
"null","","html-keyboard-response","79","1269420","0.0-78.0","A2I3IM3RJO2OL0","<p style=""font-size: 48px;"">+</p>","","","","","null","allTrialResponses","1000","1","5","img_art/18.jpg","-7","Looks like space waste high above the earth","Allison,Cassandra,Jacqueline,Alyssa,Michelle,Stephanie","Colors are okay. Reminds me of cavalry.,10,140,20","I don't know...kind of a dissatified feeling inside.,-6,120,20","Kinda neat, looks like cavalry, or a knight.,15,300,20","There are alot of elements to this painting and a good mix of colors,32,160,20","The small lines elicit a very nauseating response for some reason, too Dali like for me,-19,280,20","It made me think of a car crash,-39,300,20","Cassandra","I don't know...kind of a dissatified feeling inside.,-6,120,20","Stephanie","It made me think of a car crash,-39,300,20","Michelle","The small lines elicit a very nauseating response for some reason, too Dali like for me,-19,280,20","2"
"7473","","survey-text","80","1276926","0.0-79.0-0.0","A2I3IM3RJO2OL0","","","","{""Q0"":""sky""}","","","","","","","","","","","","","","","","","","","","","","",""
"33008","","survey-text","81","1309937","0.0-80.0-0.0","A2I3IM3RJO2OL0","","","","{""Q0"":""Toys going rogue""}","","","","","","","","","","","","","","","","","","","","","","",""
"5534.100000023842","","image-slider-response","82","1315475","0.0-81.0","A2I3IM3RJO2OL0","","","","","-23","","","","","","","","","","","","","","","","","","","","","",""
"3462","","image-button-response","83","1320479","0.0-82.0","A2I3IM3RJO2OL0","img_art/16.jpg","0","","","","","","","","","","","","","","","","","","","","","","","","",""
"10764","","image-button-response","84","1331248","0.0-83.0","A2I3IM3RJO2OL0","img_art/16.jpg","3","","","","","","","","","","","","","","","","","","","","","","","","",""
"8225","","image-button-response","85","1339476","0.0-84.0-0.0","A2I3IM3RJO2OL0","img_art/16.jpg","5","","","","","","","","","","","","","","","","","","","","","","","","",""
"5829","","image-button-response","86","1345309","0.0-85.0-0.0","A2I3IM3RJO2OL0","img_art/16.jpg","0","","","","","","","","","","","","","","","","","","","","","","","","",""
"null","","html-keyboard-response","87","1346812","0.0-86.0","A2I3IM3RJO2OL0","<p style=""font-size: 48px;"">+</p>","","","","","null","allTrialResponses","1500","1","6","img_art/16.jpg","-23","Toys going rogue","Jennifer,Cassandra,Mariah,Diana,Michelle,Stephanie","Very creepy, it makes me feel uneasy,-31,380,20","I like the teddy bear,but a neutral feeling,5,120,20","Why is that bear there? It looks like it would be gross to touch. The texture bothers me.,-20,140,20","This one isn't for me. It came off as strange but not in a good way.,-44,380,20","I'm a fan of collage and of reminiscing about childhood so this was nice,10,280,20","It looks violent.,-30,300,20","Diana","This one isn't for me. It came off as strange but not in a good way.,-44,380,20","Stephanie","It looks violent.,-30,300,20","Jennifer","Very creepy, it makes me feel uneasy,-31,380,20","2"
"60206","","survey-text","88","1407031","0.0-87.0-0.0","A2I3IM3RJO2OL0","","","","{""Q0"":""A crowd of white angels hovering in atmosphere.""}","","","","","","","","","","","","","","","","","","","","","","",""
"4556.600000023842","","image-slider-response","89","1411591","0.0-88.0","A2I3IM3RJO2OL0","","","","","14","","","","","","","","","","","","","","","","","","","","","",""
"null","","image-button-response","90","1416610","0.0-89.0","A2I3IM3RJO2OL0","img_art/23.jpg","null","","","","","","","","","","","","","","","","","","","","","","","","",""
"8188","","image-button-response","91","1424802","0.0-90.0","A2I3IM3RJO2OL0","img_art/23.jpg","2","","","","","","","","","","","","","","","","","","","","","","","","",""
"5560","","image-button-response","92","1430366","0.0-91.0-0.0","A2I3IM3RJO2OL0","img_art/23.jpg","3","","","","","","","","","","","","","","","","","","","","","","","","",""
"4739","","image-button-response","93","1435109","0.0-92.0-0.0","A2I3IM3RJO2OL0","img_art/23.jpg","5","","","","","","","","","","","","","","","","","","","","","","","","",""
"null","","html-keyboard-response","94","1436112","0.0-93.0","A2I3IM3RJO2OL0","<p style=""font-size: 48px;"">+</p>","","","","","null","allTrialResponses","1000","1","7","img_art/23.jpg","14","A crowd of white angels hovering in atmosphere.","Jennifer,Brianna,Claire,Diana,Sydney,Stephanie","The cluster of white silhouettes against the colorful background makes me feel uneasy for some reason,-36,380,20","I love the rainbow!,12,20,20","the pattern is pleasing to the eye,28,260,20","I thought this art was exciting and it reminded me of dancing people.,12,380,20","The piece seems chaotic, and I dislike the random pop of white within so many colors.,-10,320,20","This makes me think of an orchestra playing a forth of july song,12,300,20","Claire","the pattern is pleasing to the eye,28,260,20","Diana","I thought this art was exciting and it reminded me of dancing people.,12,380,20","Stephanie","This makes me think of an orchestra playing a forth of july song,12,300,20","2"
"26927","","survey-text","95","1463054","0.0-94.0-0.0","A2I3IM3RJO2OL0","","","","{""Q0"":""Old abandoned exercise equipment in storage""}","","","","","","","","","","","","","","","","","","","","","","",""
"5569.100000023842","","image-slider-response","96","1468626","0.0-95.0","A2I3IM3RJO2OL0","","","","","-21","","","","","","","","","","","","","","","","","","","","","",""
"null","","image-button-response","97","1473634","0.0-96.0","A2I3IM3RJO2OL0","img_art/28.jpg","null","","","","","","","","","","","","","","","","","","","","","","","","",""
"23650","","image-button-response","98","1497288","0.0-97.0","A2I3IM3RJO2OL0","img_art/28.jpg","2","","","","","","","","","","","","","","","","","","","","","","","","",""
"6925","","image-button-response","99","1504216","0.0-98.0-0.0","A2I3IM3RJO2OL0","img_art/28.jpg","0","","","","","","","","","","","","","","","","","","","","","","","","",""
"2884","","image-button-response","100","1507104","0.0-99.0-0.0","A2I3IM3RJO2OL0","img_art/28.jpg","4","","","","","","","","","","","","","","","","","","","","","","","","",""
"null","","html-keyboard-response","101","1508108","0.0-100.0","A2I3IM3RJO2OL0","<p style=""font-size: 48px;"">+</p>","","","","","null","allTrialResponses","1000","1","8","img_art/28.jpg","-21","Old abandoned exercise equipment in storage","Natalie,Ashley,Claire,Diana,Kayla,Stephanie","it looks alright,-1,400,20","Normally don't react well to abstract art, but it looks almost like something's there.,28,320,20","not a fan of the colors or strokes used,-27,260,20","I think this piece is interesting. I love the faces drawn into it.,29,380,20","Don't love it, don't hate it. It's just there.,1,180,20","The colors are neutral but I see a mother helping her child,31,300,20","Claire","not a fan of the colors or strokes used,-27,260,20","Natalie","it looks alright,-1,400,20","Kayla","Don't love it, don't hate it. It's just there.,1,180,20","2"
"47219","","survey-text","102","1555339","0.0-101.0-0.0","A2I3IM3RJO2OL0","","","","{""Q0"":""Serene country path nestled under tree canopy""}","","","","","","","","","","","","","","","","","","","","","","",""
"7421.399999976158","","image-slider-response","103","1562763","0.0-102.0","A2I3IM3RJO2OL0","","","","","40","","","","","","","","","","","","","","","","","","","","","",""
"4207","","image-button-response","104","1567773","0.0-103.0","A2I3IM3RJO2OL0","img_art/17.jpg","0","","","","","","","","","","","","","","","","","","","","","","","","",""
"913","","image-button-response","105","1568690","0.0-104.0","A2I3IM3RJO2OL0","img_art/17.jpg","0","","","","","","","","","","","","","","","","","","","","","","","","",""
"5913","","image-button-response","106","1574605","0.0-105.0-0.0","A2I3IM3RJO2OL0","img_art/17.jpg","0","","","","","","","","","","","","","","","","","","","","","","","","",""
"11196","","image-button-response","107","1609192","0.0-105.1-0.1","A2I3IM3RJO2OL0","img_art/17.jpg","2","","","","","","","","","","","","","","","","","","","","","","","","",""
"3939","","image-button-response","108","1613134","0.0-106.0-0.0","A2I3IM3RJO2OL0","img_art/17.jpg","0","","","","","","","","","","","","","","","","","","","","","","","","",""
"6474","","image-button-response","109","1627056","0.0-106.1-0.1","A2I3IM3RJO2OL0","img_art/17.jpg","3","","","","","","","","","","","","","","","","","","","","","","","","",""
"null","","html-keyboard-response","110","1628059","0.0-107.0","A2I3IM3RJO2OL0","<p style=""font-size: 48px;"">+</p>","","","","","null","allTrialResponses","1000","1","9","img_art/17.jpg","40","Serene country path nestled under tree canopy","Natalie,Maria,Claire,Leah,Kayla,Kimberly","my response to the picture is that it looks beautiful,27,400,20","feel close to nature,30,120,20","its whimsical and light,50,260,20","Love the colors, the flow, like a strange storm or tree off the balcony,50,360,20","I like the way the forest is taking over the buildings.,21,180,20","I like the trees, but the doors less so,19,260,20","Natalie","my response to the picture is that it looks beautiful,27,400,20","Claire","its whimsical and light,50,260,20","Leah","Love the colors, the flow, like a strange storm or tree off the balcony,50,360,20","6"
"26184","","survey-text","111","1654257","0.0-108.0-0.0","A2I3IM3RJO2OL0","","","","{""Q0"":""Ghost town rollercoaster -- eerie but fascinating""}","","","","","","","","","","","","","","","","","","","","","","",""
"4213.399999976158","","image-slider-response","112","1658473","0.0-109.0","A2I3IM3RJO2OL0","","","","","28","","","","","","","","","","","","","","","","","","","","","",""
"null","","image-button-response","113","1663478","0.0-110.0","A2I3IM3RJO2OL0","img_art/11.jpg","null","","","","","","","","","","","","","","","","","","","","","","","","",""
"10749","","image-button-response","114","1674230","0.0-111.0","A2I3IM3RJO2OL0","img_art/11.jpg","2","","","","","","","","","","","","","","","","","","","","","","","","",""
"1197","","image-button-response","115","1675430","0.0-112.0-0.0","A2I3IM3RJO2OL0","img_art/11.jpg","5","","","","","","","","","","","","","","","","","","","","","","","","",""
"997","","image-button-response","116","1676430","0.0-113.0-0.0","A2I3IM3RJO2OL0","img_art/11.jpg","4","","","","","","","","","","","","","","","","","","","","","","","","",""
"null","","html-keyboard-response","117","1677933","0.0-114.0","A2I3IM3RJO2OL0","<p style=""font-size: 48px;"">+</p>","","","","","null","allTrialResponses","1500","1","10","img_art/11.jpg","28","Ghost town rollercoaster -- eerie but fascinating","Natalie,Briana,Claire,Leah,Kelly,Erin","pic looks alright,8,400,20","Grays arent my thing,-25,400,20","the wavy lines are nice and pleasing,13,260,20","Even with the colors, it is dreary to me,-32,360,20","Its a little psychedelic.,10,220,20","Frank Lloyd Wright, music,24,120,20","Claire","the wavy lines are nice and pleasing,13,260,20","Erin","Frank Lloyd Wright, music,24,120,20","Kelly","Its a little psychedelic.,10,220,20","6"
"4857","","survey-text","118","1682822","0.0-115.0-0.0","A2I3IM3RJO2OL0","","","","{""Q0"":""our""}","","","","","","","","","","","","","","","","","","","","","","",""
"35180","","survey-text","119","1718005","0.0-116.0-0.0","A2I3IM3RJO2OL0","","","","{""Q0"":""A Martian confused by big wall of flowers""}","","","","","","","","","","","","","","","","","","","","","","",""
"8073.299999952316","","image-slider-response","120","1726081","0.0-117.0","A2I3IM3RJO2OL0","","","","","30","","","","","","","","","","","","","","","","","","","","","",""
"null","","image-button-response","121","1731092","0.0-118.0","A2I3IM3RJO2OL0","img_art/24.jpg","null","","","","","","","","","","","","","","","","","","","","","","","","",""
"14669","","image-button-response","122","1745765","0.0-119.0","A2I3IM3RJO2OL0","img_art/24.jpg","3","","","","","","","","","","","","","","","","","","","","","","","","",""
"1720","","image-button-response","123","1747490","0.0-120.0-0.0","A2I3IM3RJO2OL0","img_art/24.jpg","4","","","","","","","","","","","","","","","","","","","","","","","","",""
"11454","","image-button-response","124","1758948","0.0-121.0-0.0","A2I3IM3RJO2OL0","img_art/24.jpg","1","","","","","","","","","","","","","","","","","","","","","","","","",""
"null","","html-keyboard-response","125","1759953","0.0-122.0","A2I3IM3RJO2OL0","<p style=""font-size: 48px;"">+</p>","","","","","null","allTrialResponses","1000","1","11","img_art/24.jpg","30","A Martian confused by big wall of flowers","Erica,Tiffany,Claire,Miranda,Kelly,Erin","Very refreshing and vigorous,19,80,20","I feel relaxed and happy, looking at the stream, but it feels hollow, like something is fake.,5,360,20","reminds me of a beautiful waterfall,50,260,20","I find the colors work really well. It's very pretty but I have no idea as what it is.,34,320,20","Cute; I like what the image itself & the colors.,25,220,20","Too literal, not abstract,-29,120,20","Miranda","I find the colors work really well. It's very pretty but I have no idea as what it is.,34,320,20","Kelly","Cute; I like what the image itself & the colors.,25,220,20","Tiffany","I feel relaxed and happy, looking at the stream, but it feels hollow, like something is fake.,5,360,20","6"
"27702","","survey-text","126","1787670","0.0-123.0-0.0","A2I3IM3RJO2OL0","","","","{""Q0"":""Some sort of old science experiment decanters""}","","","","","","","","","","","","","","","","","","","","","","",""
"6242.100000023842","","image-slider-response","127","1793915","0.0-124.0","A2I3IM3RJO2OL0","","","","","11","","","","","","","","","","","","","","","","","","","","","",""
"null","","image-button-response","128","1798920","0.0-125.0","A2I3IM3RJO2OL0","img_art/22.jpg","null","","","","","","","","","","","","","","","","","","","","","","","","",""
"1776","","image-button-response","129","1800700","0.0-126.0","A2I3IM3RJO2OL0","img_art/22.jpg","2","","","","","","","","","","","","","","","","","","","","","","","","",""
"10004","","image-button-response","130","1810708","0.0-127.0-0.0","A2I3IM3RJO2OL0","img_art/22.jpg","4","","","","","","","","","","","","","","","","","","","","","","","","",""
"1266","","image-button-response","131","1811980","0.0-128.0-0.0","A2I3IM3RJO2OL0","img_art/22.jpg","5","","","","","","","","","","","","","","","","","","","","","","","","",""
"null","","html-keyboard-response","132","1813482","0.0-129.0","A2I3IM3RJO2OL0","<p style=""font-size: 48px;"">+</p>","","","","","null","allTrialResponses","1500","1","12","img_art/22.jpg","11","Some sort of old science experiment decanters","Julia,Tiffany,Meghan,Miranda,Kelly,Alexandra","this is too generic,-27,40,20","The painting makes me feel a little sad.,12,360,20","really beautiful colors and contrast,30,220,20","Its very warm, it reminds of someone not liking their painting so they destoryed it,26,320,20","I really enjoy the blended colors.,20,220,20","The colors in this picture are nice.,32,60,20","Meghan","really beautiful colors and contrast,30,220,20","Kelly","I really enjoy the blended colors.,20,220,20","Alexandra","The colors in this picture are nice.,32,60,20","6"
"56961","","survey-text","133","1870457","0.0-130.0-0.0","A2I3IM3RJO2OL0","","","","{""Q0"":""An old berry bush which has been ravished by animals.""}","","","","","","","","","","","","","","","","","","","","","","",""
"4972.100000023842","","image-slider-response","134","1875432","0.0-131.0","A2I3IM3RJO2OL0","","","","","-13","","","","","","","","","","","","","","","","","","","","","",""
"null","","image-button-response","135","1880446","0.0-132.0","A2I3IM3RJO2OL0","img_art/14.jpg","null","","","","","","","","","","","","","","","","","","","","","","","","",""
"16141","","image-button-response","136","1896591","0.0-133.0","A2I3IM3RJO2OL0","img_art/14.jpg","2","","","","","","","","","","","","","","","","","","","","","","","","",""
"3831","","image-button-response","137","1900426","0.0-134.0-0.0","A2I3IM3RJO2OL0","img_art/14.jpg","5","","","","","","","","","","","","","","","","","","","","","","","","",""
"6638","","image-button-response","138","1907068","0.0-135.0-0.0","A2I3IM3RJO2OL0","img_art/14.jpg","3","","","","","","","","","","","","","","","","","","","","","","","","",""
"null","","html-keyboard-response","139","1908071","0.0-136.0","A2I3IM3RJO2OL0","<p style=""font-size: 48px;"">+</p>","","","","","null","allTrialResponses","1000","1","13","img_art/14.jpg","-13","An old berry bush which has been ravished by animals.","Sarah,Amy,Meghan,Kristen,Kelly,Alexandra","this looks pretty childish,-15,180,20","In others I might say the colors are garish. Here it works perfectly. The balance is wondrous and unlimiting.,25,220,20","its okay nothing special,11,220,20","somewhat stressful, crazy,-3,280,20","Its cute, but not my favorite.,8,220,20","Pretty, dainty, unique,22,60,20","Meghan","its okay nothing special,11,220,20","Alexandra","Pretty, dainty, unique,22,60,20","Kristen","somewhat stressful, crazy,-3,280,20","6"
"77644","","survey-text","140","1985729","0.0-137.0-0.0","A2I3IM3RJO2OL0","","","","{""Q0"":""Reminds me of an old cattle creek with skeletons around as it used to be dry.""}","","","","","","","","","","","","","","","","","","","","","","",""
"6385.699999928474","","image-slider-response","141","1992119","0.0-138.0","A2I3IM3RJO2OL0","","","","","-16","","","","","","","","","","","","","","","","","","","","","",""
"null","","image-button-response","142","1997138","0.0-139.0","A2I3IM3RJO2OL0","img_art/20.jpg","null","","","","","","","","","","","","","","","","","","","","","","","","",""
"2125","","image-button-response","143","1999268","0.0-140.0","A2I3IM3RJO2OL0","img_art/20.jpg","0","","","","","","","","","","","","","","","","","","","","","","","","",""
"11009","","image-button-response","144","2010280","0.0-141.0-0.0","A2I3IM3RJO2OL0","img_art/20.jpg","1","","","","","","","","","","","","","","","","","","","","","","","","",""
"9449","","image-button-response","145","2019735","0.0-142.0-0.0","A2I3IM3RJO2OL0","img_art/20.jpg","5","","","","","","","","","","","","","","","","","","","","","","","","",""
"null","","html-keyboard-response","146","2021238","0.0-143.0","A2I3IM3RJO2OL0","<p style=""font-size: 48px;"">+</p>","","","","","null","allTrialResponses","1500","1","14","img_art/20.jpg","-16","Reminds me of an old cattle creek with skeletons around as it used to be dry.","Sara,Elizabeth,Meghan,Kristen,Abigail,Alexandra","Looks calm but a bit dark,21,160,20","This painting would make a great display art,50,20,20","feels distorted and uncomfortable,-41,220,20","danger, car crash, stressful,-12,280,20","A mountain vacation,46,20,20","The white blob looks like a face and it's creepy,-30,60,20","Sara","Looks calm but a bit dark,21,160,20","Elizabeth","This painting would make a great display art,50,20,20","Alexandra","The white blob looks like a face and it's creepy,-30,60,20","6"
"23274","","survey-text","147","2044527","0.0-144.0-0.0","A2I3IM3RJO2OL0","","","","{""Q0"":""Bottom half of a crow standing on a bale of hay.""}","","","","","","","","","","","","","","","","","","","","","","",""
"6786.900000095367","","image-slider-response","148","2051317","0.0-145.0","A2I3IM3RJO2OL0","","","","","15","","","","","","","","","","","","","","","","","","","","","",""
"null","","image-button-response","149","2056321","0.0-146.0","A2I3IM3RJO2OL0","img_art/6.jpg","null","","","","","","","","","","","","","","","","","","","","","","","","",""
"844","","image-button-response","150","2057169","0.0-147.0","A2I3IM3RJO2OL0","img_art/6.jpg","1","","","","","","","","","","","","","","","","","","","","","","","","",""
"7777","","image-button-response","151","2064950","0.0-148.0-0.0","A2I3IM3RJO2OL0","img_art/6.jpg","3","","","","","","","","","","","","","","","","","","","","","","","","",""
"3759","","image-button-response","152","2068715","0.0-149.0-0.0","A2I3IM3RJO2OL0","img_art/6.jpg","5","","","","","","","","","","","","","","","","","","","","","","","","",""
"null","","html-keyboard-response","153","2070219","0.0-150.0","A2I3IM3RJO2OL0","<p style=""font-size: 48px;"">+</p>","","","","","null","allTrialResponses","1500","1","15","img_art/6.jpg","15","Bottom half of a crow standing on a bale of hay.","Sara,Elizabeth,Melissa,Angela,Haley,Alexandra","It looks sad and scary at the same time,11,160,20","Love the simplicity of it,41,20,20","composition is engaging,28,240,20","I like the orange color, and I don't know why but I like this piece.,22,260,20","I like the color and the gradient,10,220,20","this is interesting and unique,11,60,20","Elizabeth","Love the simplicity of it,41,20,20","Angela","I like the orange color, and I don't know why but I like this piece.,22,260,20","Alexandra","this is interesting and unique,11,60,20","6"
"4981","","survey-text","154","2075231","0.0-151.0-0.0","A2I3IM3RJO2OL0","","","","{""Q0"":""course""}","","","","","","","","","","","","","","","","","","","","","","",""
"36846","","survey-text","155","2112079","0.0-152.0-0.0","A2I3IM3RJO2OL0","","","","{""Q0"":""Looking at American plains from an airplane.""}","","","","","","","","","","","","","","","","","","","","","","",""
"5453.600000023842","","image-slider-response","156","2117536","0.0-153.0","A2I3IM3RJO2OL0","","","","","27","","","","","","","","","","","","","","","","","","","","","",""
"null","","image-button-response","157","2122540","0.0-154.0","A2I3IM3RJO2OL0","img_art/7.jpg","null","","","","","","","","","","","","","","","","","","","","","","","","",""
"9430","","image-button-response","158","2131973","0.0-155.0","A2I3IM3RJO2OL0","img_art/7.jpg","0","","","","","","","","","","","","","","","","","","","","","","","","",""
"7929","","image-button-response","159","2139906","0.0-156.0-0.0","A2I3IM3RJO2OL0","img_art/7.jpg","2","","","","","","","","","","","","","","","","","","","","","","","","",""
"6030","","image-button-response","160","2145942","0.0-157.0-0.0","A2I3IM3RJO2OL0","img_art/7.jpg","1","","","","","","","","","","","","","","","","","","","","","","","","",""
"null","","html-keyboard-response","161","2146947","0.0-158.0","A2I3IM3RJO2OL0","<p style=""font-size: 48px;"">+</p>","","","","","null","allTrialResponses","1000","1","16","img_art/7.jpg","27","Looking at American plains from an airplane.","Katelyn,Elizabeth,Jamie,Angela,Amanda,Alexandra","Makes me think of the beach which makes me happy,14,100,20","The picture is just random,-8,20,20","Looks like a battle raging on,20,320,20","Looks like vomit, or chunky feces,-42,260,20","I hate everything about this painting from the cors to it looking like a war,-50,180,20","I do not like the boring colors in this.,-20,60,20","Katelyn","Makes me think of the beach which makes me happy,14,100,20","Jamie","Looks like a battle raging on,20,320,20","Elizabeth","The picture is just random,-8,20,20","6"
"53959","","survey-text","162","2200916","0.0-159.0-0.0","A2I3IM3RJO2OL0","","","","{""Q0"":""I can't make any sense of this, very random""}","","","","","","","","","","","","","","","","","","","","","","",""
"6193.600000023842","","image-slider-response","163","2207113","0.0-160.0","A2I3IM3RJO2OL0","","","","","-27","","","","","","","","","","","","","","","","","","","","","",""
"3617","","image-button-response","164","2212125","0.0-161.0","A2I3IM3RJO2OL0","img_art/5.jpg","0","","","","","","","","","","","","","","","","","","","","","","","","",""
"7712","","image-button-response","165","2219842","0.0-162.0","A2I3IM3RJO2OL0","img_art/5.jpg","2","","","","","","","","","","","","","","","","","","","","","","","","",""
"3352","","image-button-response","166","2223198","0.0-163.0-0.0","A2I3IM3RJO2OL0","img_art/5.jpg","3","","","","","","","","","","","","","","","","","","","","","","","","",""
"6120","","image-button-response","167","2229322","0.0-164.0-0.0","A2I3IM3RJO2OL0","img_art/5.jpg","5","","","","","","","","","","","","","","","","","","","","","","","","",""
"null","","html-keyboard-response","168","2229825","0.0-165.0","A2I3IM3RJO2OL0","<p style=""font-size: 48px;"">+</p>","","","","","null","allTrialResponses","500","1","17","img_art/5.jpg","-27","I can't make any sense of this, very random","Katelyn,Elizabeth,Jamie,Emma,Alexandria,Crystal","I just dont get it. Means very little to me,-22,100,20","Perfect for art exhibition,39,20,20","Don't really see it and yellow/pink don't go well together,-35,320,20","Kind of ugly ....,-21,60,20","no clear emotion,-16,80,20","Confused as to what the artist is attempting to do.,-50,300,20","Jamie","Don't really see it and yellow/pink don't go well together,-35,320,20","Emma","Kind of ugly ....,-21,60,20","Crystal","Confused as to what the artist is attempting to do.,-50,300,20","6"
"31582","","survey-text","169","2261423","0.0-166.0-0.0","A2I3IM3RJO2OL0","","","","{""Q0"":""Ok, now this reminds of my 3 yo granddaughters art.""}","","","","","","","","","","","","","","","","","","","","","","",""
"4447.100000023842","","image-slider-response","170","2265873","0.0-167.0","A2I3IM3RJO2OL0","","","","","-22","","","","","","","","","","","","","","","","","","","","","",""
"null","","image-button-response","171","2270886","0.0-168.0","A2I3IM3RJO2OL0","img_art/3.jpg","null","","","","","","","","","","","","","","","","","","","","","","","","",""
"3213","","image-button-response","172","2274104","0.0-169.0","A2I3IM3RJO2OL0","img_art/3.jpg","1","","","","","","","","","","","","","","","","","","","","","","","","",""
"944","","image-button-response","173","2275051","0.0-170.0-0.0","A2I3IM3RJO2OL0","img_art/3.jpg","2","","","","","","","","","","","","","","","","","","","","","","","","",""
"6252","","image-button-response","174","2281308","0.0-171.0-0.0","A2I3IM3RJO2OL0","img_art/3.jpg","4","","","","","","","","","","","","","","","","","","","","","","","","",""
"null","","html-keyboard-response","175","2281811","0.0-172.0","A2I3IM3RJO2OL0","<p style=""font-size: 48px;"">+</p>","","","","","null","allTrialResponses","500","1","18","img_art/3.jpg","-22","Ok, now this reminds of my 3 yo granddaughters art.","Rebecca,Kylie,Jamie,Emma,Alexis,Crystal","sorry do not understand,-26,100,20","Confusion and mayhem,-10,300,20","Looks like somebody squirted ketchup everywhere,-40,320,20","Feels upset .......,-10,60,20","Just scribbles. Not a fan.,-40,100,20","I like the abstract flowing lines. It lacks hard rigid marks and flow nicely into a piece of calamity.,32,300,20","Kylie","Confusion and mayhem,-10,300,20","Jamie","Looks like somebody squirted ketchup everywhere,-40,320,20","Alexis","Just scribbles. Not a fan.,-40,100,20","6"
"25010","","survey-text","176","2306835","0.0-173.0-0.0","A2I3IM3RJO2OL0","","","","{""Q0"":""I like the attempt at capturing city living.""}","","","","","","","","","","","","","","","","","","","","","","",""
"5153.700000047684","","image-slider-response","177","2311991","0.0-174.0","A2I3IM3RJO2OL0","","","","","27","","","","","","","","","","","","","","","","","","","","","",""
"3714","","image-button-response","178","2317010","0.0-175.0","A2I3IM3RJO2OL0","img_art/26.jpg","0","","","","","","","","","","","","","","","","","","","","","","","","",""
"924","","image-button-response","179","2317939","0.0-176.0","A2I3IM3RJO2OL0","img_art/26.jpg","0","","","","","","","","","","","","","","","","","","","","","","","","",""
"5479","","image-button-response","180","2323422","0.0-177.0-0.0","A2I3IM3RJO2OL0","img_art/26.jpg","2","","","","","","","","","","","","","","","","","","","","","","","","",""
"5680","","image-button-response","181","2329105","0.0-178.0-0.0","A2I3IM3RJO2OL0","img_art/26.jpg","3","","","","","","","","","","","","","","","","","","","","","","","","",""
"null","","html-keyboard-response","182","2329609","0.0-179.0","A2I3IM3RJO2OL0","<p style=""font-size: 48px;"">+</p>","","","","","null","allTrialResponses","500","1","19","img_art/26.jpg","27","I like the attempt at capturing city living.","Dominique,Kylie,Jamie,Gabrielle,Alexis,Victoria","Small town and home feel on A nice day.,28,400,20","Picturesque little town,45,300,20","Street corner on a sunny day,5,320,20","subtle use of colors, city street view?,8,160,20","Much too simple and without color for my taste,-33,100,20","feels a tad old,30,400,20","Dominique","Small town and home feel on A nice day.,28,400,20","Jamie","Street corner on a sunny day,5,320,20","Gabrielle","subtle use of colors, city street view?,8,160,20","6"
"67477","","survey-text","183","2397107","0.0-180.0-0.0","A2I3IM3RJO2OL0","","","","{""Q0"":""Reminds of the river destruction of Hurricane Irene.""}","","","","","","","","","","","","","","","","","","","","","","",""
"4783.700000047684","","image-slider-response","184","2401895","0.0-181.0","A2I3IM3RJO2OL0","","","","","20","","","","","","","","","","","","","","","","","","","","","",""
"4644","","image-button-response","185","2406899","0.0-182.0","A2I3IM3RJO2OL0","img_art/10.jpg","0","","","","","","","","","","","","","","","","","","","","","","","","",""
"822","","image-button-response","186","2407725","0.0-183.0","A2I3IM3RJO2OL0","img_art/10.jpg","0","","","","","","","","","","","","","","","","","","","","","","","","",""
"15785","","image-button-response","187","2423514","0.0-184.0-0.0","A2I3IM3RJO2OL0","img_art/10.jpg","5","","","","","","","","","","","","","","","","","","","","","","","","",""
"1022","","image-button-response","188","2424540","0.0-185.0-0.0","A2I3IM3RJO2OL0","img_art/10.jpg","4","","","","","","","","","","","","","","","","","","","","","","","","",""
"null","","html-keyboard-response","189","2425050","0.0-186.0","A2I3IM3RJO2OL0","<p style=""font-size: 48px;"">+</p>","","","","","null","allTrialResponses","500","1","20","img_art/10.jpg","20","Reminds of the river destruction of Hurricane Irene.","Dominique,Cassidy,Jamie,Gabrielle,Jenna,Morgan","A very conversational piece could be of many different ideas,38,400,20","Looks like someone just smeared some paint and called it good. Do not like.,-6,140,20","Well done designs for being considered abstract,45,320,20","interesting portrayal of a violin?,10,160,20","this piece is okay. I wish it was more colorful, but it is certainly intriguing.,23,360,20","Roller coaster on an island.,9,380,20","Dominique","A very conversational piece could be of many different ideas,38,400,20","Morgan","Roller coaster on an island.,9,380,20","Jenna","this piece is okay. I wish it was more colorful, but it is certainly intriguing.,23,360,20","6"
"4683","","survey-text","190","2429763","0.0-187.0-0.0","A2I3IM3RJO2OL0","","","","{""Q0"":""we""}","","","","","","","","","","","","","","","","","","","","","","",""
"40559","","survey-text","191","2470325","0.0-188.0-0.0","A2I3IM3RJO2OL0","","","","{""Q0"":""Somebody taking a nap in a hammock out in their garden""}","","","","","","","","","","","","","","","","","","","","","","",""
"3394.899999976158","","image-slider-response","192","2473723","0.0-189.0","A2I3IM3RJO2OL0","","","","","25","","","","","","","","","","","","","","","","","","","","","",""
"null","","image-button-response","193","2478729","0.0-190.0","A2I3IM3RJO2OL0","img_art/9.jpg","null","","","","","","","","","","","","","","","","","","","","","","","","",""
"9907","","image-button-response","194","2488642","0.0-191.0","A2I3IM3RJO2OL0","img_art/9.jpg","2","","","","","","","","","","","","","","","","","","","","","","","","",""
"3702","","image-button-response","195","2492347","0.0-192.0-0.0","A2I3IM3RJO2OL0","img_art/9.jpg","3","","","","","","","","","","","","","","","","","","","","","","","","",""
"5304","","image-button-response","196","2497656","0.0-193.0-0.0","A2I3IM3RJO2OL0","img_art/9.jpg","4","","","","","","","","","","","","","","","","","","","","","","","","",""
"null","","html-keyboard-response","197","2498159","0.0-194.0","A2I3IM3RJO2OL0","<p style=""font-size: 48px;"">+</p>","","","","","null","allTrialResponses","500","1","21","img_art/9.jpg","25","Somebody taking a nap in a hammock out in their garden","Dominique,Mackenzie,Mary,Heather,Jenna,Morgan","This speaks to me like a personalities and sides and not all are nice,19,400,20","I enjoy the design, but the colors look waxy,-7,20,20","How neat is this piece?  I love the angry expressive lines. Emotion is captured in it.,26,180,20","a mother in bed surrounded by emotions,1,260,20","gorgeous colors, love the little details,42,360,20","The mouth of an ugly beast.,-25,380,20","Mary","How neat is this piece?  I love the angry expressive lines. Emotion is captured in it.,26,180,20","Heather","a mother in bed surrounded by emotions,1,260,20","Jenna","gorgeous colors, love the little details,42,360,20","6"
"117968","","survey-text","198","2616143","0.0-195.0-0.0","A2I3IM3RJO2OL0","","","","{""Q0"":""Evil bacteria in water swirling by pipes headed to the top.""}","","","","","","","","","","","","","","","","","","","","","","",""
"5624.5","","image-slider-response","199","2621771","0.0-196.0","A2I3IM3RJO2OL0","","","","","9","","","","","","","","","","","","","","","","","","","","","",""
"null","","image-button-response","200","2626775","0.0-197.0","A2I3IM3RJO2OL0","img_art/13.jpg","null","","","","","","","","","","","","","","","","","","","","","","","","",""
"17047","","image-button-response","201","2643826","0.0-198.0","A2I3IM3RJO2OL0","img_art/13.jpg","5","","","","","","","","","","","","","","","","","","","","","","","","",""
"4746","","image-button-response","202","2648576","0.0-199.0-0.0","A2I3IM3RJO2OL0","img_art/13.jpg","0","","","","","","","","","","","","","","","","","","","","","","","","",""
"8728","","image-button-response","203","2657308","0.0-200.0-0.0","A2I3IM3RJO2OL0","img_art/13.jpg","4","","","","","","","","","","","","","","","","","","","","","","","","",""
"null","","html-keyboard-response","204","2658811","0.0-201.0","A2I3IM3RJO2OL0","<p style=""font-size: 48px;"">+</p>","","","","","null","allTrialResponses","1500","1","22","img_art/13.jpg","9","Evil bacteria in water swirling by pipes headed to the top.","Kelsey,Makayla,Mary,Heather,Jenna,Emily","its like the ocean,24,240,20","Reminds me of the aquarium,4,80,20","I do not care for the colors in this art. it doesnt go well at all.,-15,180,20","rain in blue black and white,1,260,20","exciting & chaotic. love the colors.,50,360,20","I don't car for it but it does seem organized and like it took considereably more skill that others.,9,40,20","Emily","I don't car for it but it does seem organized and like it took considereably more skill that others.,9,40,20","Kelsey","its like the ocean,24,240,20","Jenna","exciting & chaotic. love the colors.,50,360,20","6"
"59396","","survey-text","205","2718226","0.0-202.0-0.0","A2I3IM3RJO2OL0","","","","{""Q0"":""A view of the penthouse pool and surrounding building top floors from the helicopter""}","","","","","","","","","","","","","","","","","","","","","","",""
"5172","","image-slider-response","206","2723401","0.0-203.0","A2I3IM3RJO2OL0","","","","","19","","","","","","","","","","","","","","","","","","","","","",""
"null","","image-button-response","207","2728405","0.0-204.0","A2I3IM3RJO2OL0","img_art/8.jpg","null","","","","","","","","","","","","","","","","","","","","","","","","",""
"8134","","image-button-response","208","2736542","0.0-205.0","A2I3IM3RJO2OL0","img_art/8.jpg","2","","","","","","","","","","","","","","","","","","","","","","","","",""
"9226","","image-button-response","209","2745772","0.0-206.0-0.0","A2I3IM3RJO2OL0","img_art/8.jpg","4","","","","","","","","","","","","","","","","","","","","","","","","",""
"3582","","image-button-response","210","2749358","0.0-207.0-0.0","A2I3IM3RJO2OL0","img_art/8.jpg","5","","","","","","","","","","","","","","","","","","","","","","","","",""
"null","","html-keyboard-response","211","2750861","0.0-208.0","A2I3IM3RJO2OL0","<p style=""font-size: 48px;"">+</p>","","","","","null","allTrialResponses","1500","1","23","img_art/8.jpg","19","A view of the penthouse pool and surrounding building top floors from the helicopter","Kelsey,Erika,Jessica,Bailey,Jenna,Emily","i like all the different faces,19,240,20","Striking, but not my taste,20,100,20","Very cool! I like this piece,9,400,20","Not a fan of abstract looking pieces with too many focal points. The tunnel and face, for example,-31,360,20","beautiful colors & details. love the surrealism & strange angle. the faces are interesting.,50,360,20","It is interesting to look at. Abstract but ordered.,9,40,20","Jessica","Very cool! I like this piece,9,400,20","Jenna","beautiful colors & details. love the surrealism & strange angle. the faces are interesting.,50,360,20","Emily","It is interesting to look at. Abstract but ordered.,9,40,20","6"
"25300","","survey-text","212","2776177","0.0-209.0-0.0","A2I3IM3RJO2OL0","","","","{""Q0"":""Autumn has come and gone, ugly muted colors are left.""}","","","","","","","","","","","","","","","","","","","","","","",""
"3635.2999999523163","","image-slider-response","213","2779815","0.0-210.0","A2I3IM3RJO2OL0","","","","","-15","","","","","","","","","","","","","","","","","","","","","",""
"null","","image-button-response","214","2784819","0.0-211.0","A2I3IM3RJO2OL0","img_art/27.jpg","null","","","","","","","","","","","","","","","","","","","","","","","","",""
"18871","","image-button-response","215","2803694","0.0-212.0","A2I3IM3RJO2OL0","img_art/27.jpg","5","","","","","","","","","","","","","","","","","","","","","","","","",""
"2987","","image-button-response","216","2806684","0.0-213.0-0.0","A2I3IM3RJO2OL0","img_art/27.jpg","0","","","","","","","","","","","","","","","","","","","","","","","","",""
"9200","","image-button-response","217","2815888","0.0-214.0-0.0","A2I3IM3RJO2OL0","img_art/27.jpg","2","","","","","","","","","","","","","","","","","","","","","","","","",""
"null","","html-keyboard-response","218","2816898","0.0-215.0","A2I3IM3RJO2OL0","<p style=""font-size: 48px;"">+</p>","","","","","null","allTrialResponses","1000","1","24","img_art/27.jpg","-15","Autumn has come and gone, ugly muted colors are left.","Gabriela,Shannon,Jessica,Leslie,Jenna,Emily","I like hoe it looks like a fall day in a city,45,140,20","This image could do a better job of showing what is going on and it could use more colors.,-42,220,20","Don't get the point of this piece that much, but it doesn't bug me,1,400,20","This feels like I'm looking at a child's scribbles.,-27,380,20","the green & white scribbles feel childlike. perhaps the quality of the photo, but the colors are gloomy.,-13,360,20","Anyone could do that.,-31,40,20","Emily","Anyone could do that.,-31,40,20","Gabriela","I like hoe it looks like a fall day in a city,45,140,20","Jessica","Don't get the point of this piece that much, but it doesn't bug me,1,400,20","6"
"71088","","survey-text","219","2888004","0.0-216.0-0.0","A2I3IM3RJO2OL0","","","","{""Q0"":""Looks like vines, soaked with water, so they could be bent into art. Unappealing""}","","","","","","","","","","","","","","","","","","","","","","",""
"4963.200000047684","","image-slider-response","220","2892971","0.0-217.0","A2I3IM3RJO2OL0","","","","","-26","","","","","","","","","","","","","","","","","","","","","",""
"null","","image-button-response","221","2897975","0.0-218.0","A2I3IM3RJO2OL0","img_art/4.jpg","null","","","","","","","","","","","","","","","","","","","","","","","","",""
"7543","","image-button-response","222","2905521","0.0-219.0","A2I3IM3RJO2OL0","img_art/4.jpg","2","","","","","","","","","","","","","","","","","","","","","","","","",""
"2042","","image-button-response","223","2907567","0.0-220.0-0.0","A2I3IM3RJO2OL0","img_art/4.jpg","4","","","","","","","","","","","","","","","","","","","","","","","","",""
"4608","","image-button-response","224","2912180","0.0-221.0-0.0","A2I3IM3RJO2OL0","img_art/4.jpg","3","","","","","","","","","","","","","","","","","","","","","","","","",""
"null","","html-keyboard-response","225","2913682","0.0-222.0","A2I3IM3RJO2OL0","<p style=""font-size: 48px;"">+</p>","","","","","null","allTrialResponses","1500","1","25","img_art/4.jpg","-26","Looks like vines, soaked with water, so they could be bent into art. Unappealing","Gabriela,Laura,Jessica,Margaret,Katie,Emily","The bold colors are exciting. It looks like a statue on someone's mantle.,18,140,20","spontaneous, without hesitation,22,320,20","Looks like they just smothered on some paint and called it a day.,-17,400,20","doesn't do anything for me,-4,100,20","Warm colors, but too random. I feel like I'm seeing something mangled. It is unpleasant.,-30,160,20","Looks like a child did it.,-42,40,20","Jessica","Looks like they just smothered on some paint and called it a day.,-17,400,20","Katie","Warm colors, but too random. I feel like I'm seeing something mangled. It is unpleasant.,-30,160,20","Margaret","doesn't do anything for me,-4,100,20","6"
"5537","","survey-text","226","2919272","0.0-223.0-0.0","A2I3IM3RJO2OL0","","","","{""Q0"":""table""}","","","","","","","","","","","","","","","","","","","","","","",""
"41802","","survey-text","227","2961077","0.0-224.0-0.0","A2I3IM3RJO2OL0","","","","{""Q0"":""I do like gray. Looks like an abandoned military base.""}","","","","","","","","","","","","","","","","","","","","","","",""
"4458","","image-slider-response","228","2965539","0.0-225.0","A2I3IM3RJO2OL0","","","","","10","","","","","","","","","","","","","","","","","","","","","",""
"null","","image-button-response","229","2970550","0.0-226.0","A2I3IM3RJO2OL0","img_art/29.jpg","null","","","","","","","","","","","","","","","","","","","","","","","","",""
"11807","","image-button-response","230","2982362","0.0-227.0","A2I3IM3RJO2OL0","img_art/29.jpg","5","","","","","","","","","","","","","","","","","","","","","","","","",""
"4752","","image-button-response","231","2987117","0.0-228.0-0.0","A2I3IM3RJO2OL0","img_art/29.jpg","1","","","","","","","","","","","","","","","","","","","","","","","","",""
"1084","","image-button-response","232","2988205","0.0-229.0-0.0","A2I3IM3RJO2OL0","img_art/29.jpg","2","","","","","","","","","","","","","","","","","","","","","","","","",""
"null","","html-keyboard-response","233","2988709","0.0-230.0","A2I3IM3RJO2OL0","<p style=""font-size: 48px;"">+</p>","","","","","null","allTrialResponses","500","1","26","img_art/29.jpg","10","I do like gray. Looks like an abandoned military base.","Shelby,Madeline,Jessica,Margaret,Katie,Marissa","Doesnt say much for me,0,240,20","Looks a bit messy,-13,40,20","It looks cool but I don't really get what's going on, it looks too busy,0,400,20","this does nothing for me. hate the colors. hate the design,-50,100,20","Don't get it! Too dark and random. Perhaps it was the start of something but the artist stopped and cancelled out the work.,-50,160,20","It makes me feel as though the artist put in a lot of time and effort and then gave up,10,160,20","Marissa","It makes me feel as though the artist put in a lot of time and effort and then gave up,10,160,20","Madeline","Looks a bit messy,-13,40,20","Jessica","It looks cool but I don't really get what's going on, it looks too busy,0,400,20","6"
"54686","","survey-text","234","3043417","0.0-231.0-0.0","A2I3IM3RJO2OL0","","","","{""Q0"":""Perhaps the calm (left side) before the storm (right side)?""}","","","","","","","","","","","","","","","","","","","","","","",""
"4868.799999952316","","image-slider-response","235","3048289","0.0-232.0","A2I3IM3RJO2OL0","","","","","18","","","","","","","","","","","","","","","","","","","","","",""
"3651","","image-button-response","236","3053294","0.0-233.0","A2I3IM3RJO2OL0","img_art/21.jpg","0","","","","","","","","","","","","","","","","","","","","","","","","",""
"2016","","image-button-response","237","3055316","0.0-234.0","A2I3IM3RJO2OL0","img_art/21.jpg","1","","","","","","","","","","","","","","","","","","","","","","","","",""
"8064","","image-button-response","238","3063384","0.0-235.0-0.0","A2I3IM3RJO2OL0","img_art/21.jpg","3","","","","","","","","","","","","","","","","","","","","","","","","",""
"3999","","image-button-response","239","3067387","0.0-236.0-0.0","A2I3IM3RJO2OL0","img_art/21.jpg","0","","","","","","","","","","","","","","","","","","","","","","","","",""
"null","","html-keyboard-response","240","3067889","0.0-237.0","A2I3IM3RJO2OL0","<p style=""font-size: 48px;"">+</p>","","","","","null","allTrialResponses","500","1","27","img_art/21.jpg","18","Perhaps the calm (left side) before the storm (right side)?","Sierra,Madeline,Jessica,Grace,Katherine,Marissa","i like the way the colors divide the canvas.,16,260,20","Evokes a strong colorful sense,8,40,20","I like how the colors blend together like a beautiful sunset.,25,400,20","Like the colors, the cloudy, airy effects. Nice.,46,180,20","I can't explain why this struck me as absolutely gorgeous. Like the clashing between 2 different worlds,43,120,20","I feel confused,-18,160,20","Madeline","Evokes a strong colorful sense,8,40,20","Grace","Like the colors, the cloudy, airy effects. Nice.,46,180,20","Sierra","i like the way the colors divide the canvas.,16,260,20","6"
"42753","","survey-text","241","3110659","0.0-238.0-0.0","A2I3IM3RJO2OL0","","","","{""Q0"":""I don't like the green color or the man bent over.""}","","","","","","","","","","","","","","","","","","","","","","",""
"4794.199999928474","","image-slider-response","242","3115457","0.0-239.0","A2I3IM3RJO2OL0","","","","","-21","","","","","","","","","","","","","","","","","","","","","",""
"3897","","image-button-response","243","3120467","0.0-240.0","A2I3IM3RJO2OL0","img_art/2.jpg","1","","","","","","","","","","","","","","","","","","","","","","","","",""
"17303","","image-button-response","244","3137775","0.0-241.0","A2I3IM3RJO2OL0","img_art/2.jpg","4","","","","","","","","","","","","","","","","","","","","","","","","",""
"3296","","image-button-response","245","3141075","0.0-242.0-0.0","A2I3IM3RJO2OL0","img_art/2.jpg","5","","","","","","","","","","","","","","","","","","","","","","","","",""
"3842","","image-button-response","246","3144921","0.0-243.0-0.0","A2I3IM3RJO2OL0","img_art/2.jpg","1","","","","","","","","","","","","","","","","","","","","","","","","",""
"null","","html-keyboard-response","247","3146426","0.0-244.0","A2I3IM3RJO2OL0","<p style=""font-size: 48px;"">+</p>","","","","","null","allTrialResponses","1500","1","28","img_art/2.jpg","-21","I don't like the green color or the man bent over.","Sierra,Madeline,Alexa,Grace,Kathryn,Kaitlin","looks like a happy child,15,260,20","I don't really like this style,-5,40,20","Not my favorite but I can see this being hung in a art museum,25,40,20","Like the colors but reminds me of a kids show done in cubism.,0,180,20","I think I'm put off by the clashing colors here. It feels discombobulated and sick.,-10,140,20","another confusing piece of art,-12,60,20","Kathryn","I think I'm put off by the clashing colors here. It feels discombobulated and sick.,-10,140,20","Kaitlin","another confusing piece of art,-12,60,20","Madeline","I don't really like this style,-5,40,20","6"
"28195","","survey-text","248","3174640","0.0-245.0-0.0","A2I3IM3RJO2OL0","","","","{""Q0"":""So many well done parts to this and so little time to look at it.""}","","","","","","","","","","","","","","","","","","","","","","",""
"4709.100000023842","","image-slider-response","249","3179352","0.0-246.0","A2I3IM3RJO2OL0","","","","","23","","","","","","","","","","","","","","","","","","","","","",""
"null","","image-button-response","250","3184357","0.0-247.0","A2I3IM3RJO2OL0","img_art/19.jpg","null","","","","","","","","","","","","","","","","","","","","","","","","",""
"831","","image-button-response","251","3185191","0.0-248.0","A2I3IM3RJO2OL0","img_art/19.jpg","0","","","","","","","","","","","","","","","","","","","","","","","","",""
"12072","","image-button-response","252","3197267","0.0-249.0-0.0","A2I3IM3RJO2OL0","img_art/19.jpg","5","","","","","","","","","","","","","","","","","","","","","","","","",""
"3547","","image-button-response","253","3200817","0.0-250.0-0.0","A2I3IM3RJO2OL0","img_art/19.jpg","2","","","","","","","","","","","","","","","","","","","","","","","","",""
"null","","html-keyboard-response","254","3201819","0.0-251.0","A2I3IM3RJO2OL0","<p style=""font-size: 48px;"">+</p>","","","","","null","allTrialResponses","1000","1","29","img_art/19.jpg","23","So many well done parts to this and so little time to look at it.","Lindsey,Madeline,Amber,Rachel,Kathryn,Kaitlin","Pleasant colors with just enough detail to be recognizable. I can see a scene in it that tells a story.,7,400,20","Looks a bit too loose,-2,40,20","Reminds me of a busy village.,16,200,20","Reminds me of a busy town. Chaotic in nature.,-11,80,20","This one feels pretty neutral. Like a window into someone's life, one person in a bustling metropolis.,0,140,20","this looks like a busy city lifestyle,24,60,20","Lindsey","Pleasant colors with just enough detail to be recognizable. I can see a scene in it that tells a story.,7,400,20","Kaitlin","this looks like a busy city lifestyle,24,60,20","Amber","Reminds me of a busy village.,16,200,20","6"
"50375","","survey-text","255","3252212","0.0-252.0-0.0","A2I3IM3RJO2OL0","","","","{""Q0"":""Blue and brown? Not a bad combination but can't really see anything else.""}","","","","","","","","","","","","","","","","","","","","","","",""
"7751.200000047684","","image-slider-response","256","3259967","0.0-253.0","A2I3IM3RJO2OL0","","","","","-19","","","","","","","","","","","","","","","","","","","","","",""
"null","","image-button-response","257","3264971","0.0-254.0","A2I3IM3RJO2OL0","img_art/1.jpg","null","","","","","","","","","","","","","","","","","","","","","","","","",""
"10386","","image-button-response","258","3275361","0.0-255.0","A2I3IM3RJO2OL0","img_art/1.jpg","4","","","","","","","","","","","","","","","","","","","","","","","","",""
"12839","","image-button-response","259","3288203","0.0-256.0-0.0","A2I3IM3RJO2OL0","img_art/1.jpg","3","","","","","","","","","","","","","","","","","","","","","","","","",""
"6154","","image-button-response","260","3294361","0.0-257.0-0.0","A2I3IM3RJO2OL0","img_art/1.jpg","0","","","","","","","","","","","","","","","","","","","","","","","","",""
"null","","html-keyboard-response","261","3295865","0.0-258.0","A2I3IM3RJO2OL0","<p style=""font-size: 48px;"">+</p>","","","","","null","allTrialResponses","1500","1","30","img_art/1.jpg","-19","Blue and brown? Not a bad combination but can't really see anything else.","Lindsey,Madison,Amber,Vanessa,Hailey,Kaitlin","Not a fan of the colors. Makes me think of the Australian bush fires.,-5,400,20","This looks like the same artist as the first picture, but cropped? Looks incomplete.,28,60,20","Really like all of the colors and how they mesh well.,27,200,20","I don't like how this one makes me feel.,-32,380,20","colors that are fairly warm. its ok,8,200,20","I see happiness from different aspects of life,31,60,20","Hailey","colors that are fairly warm. its ok,8,200,20","Vanessa","I don't like how this one makes me feel.,-32,380,20","Lindsey","Not a fan of the colors. Makes me think of the Australian bush fires.,-5,400,20","6"
"5415","","image-button-response_instructions","262","3301299","0.0-259.0","A2I3IM3RJO2OL0","","0","instructions","","","","","","","","","","","","","","","","","","","","","","","",""
"2332","","image-button-response","263","3303641","0.0-260.0","A2I3IM3RJO2OL0","","0","","","","","","","","","","","","","","","","","","","","","","","","",""
