"rt","url","trial_type","trial_index","time_elapsed","internal_node_id","participant_id","stimulus","button_pressed","Name","responses","response","key_press","variableName","fixationTime","condition","trial","photo","subjectRating","subjectResponse","agentsNames","agent_1_Response","agent_2_Response","agent_3_Response","agent_4_Response","agent_5_Response","agent_6_Response","kept_1_name","kept_1_response","kept_2_name","kept_2_response","kept_3_name","kept_3_response","errorCounter"
"65109","external_page_harvard.html","external-html","0","65211","0.0-0.0","A2IJGSO19TDI2T","","","","","","","","","","","","","","","","","","","","","","","","","","",""
"1358","","image-button-response","1","66570","0.0-1.0","A2IJGSO19TDI2T","","0","","","","","","","","","","","","","","","","","","","","","","","","",""
"1566","","image-button-response","2","68141","0.0-2.0-0.0","A2IJGSO19TDI2T","","1","phone","","","","","","","","","","","","","","","","","","","","","","","",""
"5037","","survey-text","3","73179","0.0-3.0-0.0","A2IJGSO19TDI2T","","","","{""Q0"":""A2IJGSO19TDI2T""}","","","","","","","","","","","","","","","","","","","","","","",""
"3319","","image-button-response_instructions","4","76500","0.0-4.0","A2IJGSO19TDI2T","","0","instructions","","","","","","","","","","","","","","","","","","","","","","","",""
"5418","","image-button-response_instructions","5","81918","0.0-5.0","A2IJGSO19TDI2T","img_art/ins/popularity/ins1.png","0","instructions","","","","","","","","","","","","","","","","","","","","","","","",""
"3326","","image-button-response_instructions","6","85246","0.0-6.0","A2IJGSO19TDI2T","img_art/ins/popularity/ins2.png","0","instructions","","","","","","","","","","","","","","","","","","","","","","","",""
"5222","","image-button-response_instructions","7","90470","0.0-7.0","A2IJGSO19TDI2T","img_art/ins/popularity/ins2Extreme.png","0","instructions","","","","","","","","","","","","","","","","","","","","","","","",""
"4488","","image-button-response_instructions","8","94960","0.0-8.0","A2IJGSO19TDI2T","img_art/ins/popularity/ins3KEEPpop.PNG","0","instructions","","","","","","","","","","","","","","","","","","","","","","","",""
"4610","","image-button-response_instructions","9","99572","0.0-9.0","A2IJGSO19TDI2T","img_art/ins/popularity/ins3ANamepop.PNG","0","instructions","","","","","","","","","","","","","","","","","","","","","","","",""
"3094","","image-button-response_instructions","10","102668","0.0-10.0","A2IJGSO19TDI2T","img_art/ins/popularity/ins3ARatingpop.png","0","instructions","","","","","","","","","","","","","","","","","","","","","","","",""
"4628","","image-button-response_instructions","11","107297","0.0-11.0","A2IJGSO19TDI2T","img_art/ins/popularity/ins3ATextpop.png","0","instructions","","","","","","","","","","","","","","","","","","","","","","","",""
"4525","","image-button-response_instructions","12","111824","0.0-12.0","A2IJGSO19TDI2T","img_art/ins/popularity/ins3ALikespop.png","0","instructions","","","","","","","","","","","","","","","","","","","","","","","",""
"8722","","image-button-response_instructions","13","120548","0.0-13.0","A2IJGSO19TDI2T","img_art/ins/popularity/ins3KEEPpop.PNG","0","instructions","","","","","","","","","","","","","","","","","","","","","","","",""
"3164","","image-button-response_instructions","14","123713","0.0-14.0","A2IJGSO19TDI2T","img_art/ins/popularity/ins3_5RED.png","0","instructions","","","","","","","","","","","","","","","","","","","","","","","",""
"3219","","image-button-response_instructions","15","126934","0.0-15.0","A2IJGSO19TDI2T","img_art/ins/popularity/ins3KEEPpop.PNG","0","instructions","","","","","","","","","","","","","","","","","","","","","","","",""
"5765","","image-button-response_instructions","16","132700","0.0-16.0","A2IJGSO19TDI2T","img_art/ins/popularity/ins4KEEPpop.PNG","0","instructions","","","","","","","","","","","","","","","","","","","","","","","",""
"3836","","image-button-response_instructions","17","136537","0.0-17.0","A2IJGSO19TDI2T","img_art/ins/popularity/ins5KEEPpop.PNG","0","instructions","","","","","","","","","","","","","","","","","","","","","","","",""
"1199","","image-button-response_instructions","18","137737","0.0-18.0","A2IJGSO19TDI2T","","0","instructions","","","","","","","","","","","","","","","","","","","","","","","",""
"5469","","survey-text","19","143226","0.0-19.0-0.0","A2IJGSO19TDI2T","","","","{""Q0"":""but""}","","","","","","","","","","","","","","","","","","","","","","",""
"18162","","survey-text","20","161390","0.0-20.0-0.0","A2IJGSO19TDI2T","","","","{""Q0"":""feels like a kindergartener piece""}","","","","","","","","","","","","","","","","","","","","","","",""
"4522.399999976158","","image-slider-response","21","165915","0.0-21.0","A2IJGSO19TDI2T","","","","","13","","","","","","","","","","","","","","","","","","","","","",""
"null","","image-button-response","22","170926","0.0-22.0","A2IJGSO19TDI2T","img_art/ins/1.jpg","null","","","","","","","","","","","","","","","","","","","","","","","","",""
"16614","","image-button-response","23","187541","0.0-23.0","A2IJGSO19TDI2T","img_art/ins/1.jpg","0","","","","","","","","","","","","","","","","","","","","","","","","",""
"4977","","image-button-response","24","192520","0.0-24.0-0.0","A2IJGSO19TDI2T","img_art/ins/1.jpg","2","","","","","","","","","","","","","","","","","","","","","","","","",""
"3404","","image-button-response","25","195926","0.0-25.0-0.0","A2IJGSO19TDI2T","img_art/ins/1.jpg","0","","","","","","","","","","","","","","","","","","","","","","","","",""
"3289","","image-button-response","26","203000","0.0-25.1-0.1","A2IJGSO19TDI2T","img_art/ins/1.jpg","4","","","","","","","","","","","","","","","","","","","","","","","","",""
"null","","html-keyboard-response","27","204010","0.0-26.0","A2IJGSO19TDI2T","<p style=""font-size: 48px;"">+</p>","","","","","null","allTrialResponses","1000","1","-2","img_art/ins/1.jpg","13","feels like a kindergartener piece","Adam,Alex,Ben,Carl,Daniel,Jack","Seems like doodles,-20,20,20","very creative work.,36,40,20","This color reminds me of poo,-46,60,20","very calming artwork,42,80,20","It looks like a murder scene.,-48,100,20","I like the sophisticated brushwork,40,120,20","Adam","Seems like doodles,-20,20,20","Ben","This color reminds me of poo,-46,60,20","Daniel","It looks like a murder scene.,-48,100,20","2"
"34177","","survey-text","28","238193","0.0-27.0-0.0","A2IJGSO19TDI2T","","","","{""Q0"":""Mustard, ketchup, mayonnaise - a condiment explosion!""}","","","","","","","","","","","","","","","","","","","","","","",""
"2961.900000035763","","image-slider-response","29","241157","0.0-28.0","A2IJGSO19TDI2T","","","","","31","","","","","","","","","","","","","","","","","","","","","",""
"null","","image-button-response","30","246162","0.0-29.0","A2IJGSO19TDI2T","img_art/ins/2.jpg","null","","","","","","","","","","","","","","","","","","","","","","","","",""
"1718","","image-button-response","31","247883","0.0-30.0","A2IJGSO19TDI2T","img_art/ins/2.jpg","1","","","","","","","","","","","","","","","","","","","","","","","","",""
"2591","","image-button-response","32","250476","0.0-31.0-0.0","A2IJGSO19TDI2T","img_art/ins/2.jpg","4","","","","","","","","","","","","","","","","","","","","","","","","",""
"935","","image-button-response","33","251414","0.0-32.0-0.0","A2IJGSO19TDI2T","img_art/ins/2.jpg","3","","","","","","","","","","","","","","","","","","","","","","","","",""
"null","","html-keyboard-response","34","252419","0.0-33.0","A2IJGSO19TDI2T","<p style=""font-size: 48px;"">+</p>","","","","","null","allTrialResponses","1000","1","-1","img_art/ins/2.jpg","31","Mustard, ketchup, mayonnaise - a condiment explosion!","Adam,John,Ben,James,Daniel,Kyle","too much color,-18,20,20","love the texture of paint,48,160,20","meaningless painting,-45,60,20","looks too angry,-50,140,20","One of my pet peevs,-48,100,20","Idk, it is just annoying,-32,180,20","John","love the texture of paint,48,160,20","Daniel","One of my pet peevs,-48,100,20","James","looks too angry,-50,140,20","2"
"21220","","survey-text","35","273645","0.0-34.0-0.0","A2IJGSO19TDI2T","","","","{""Q0"":""Very simplistic - swipes with more swipes. Meh""}","","","","","","","","","","","","","","","","","","","","","","",""
"3967.7000000476837","","image-slider-response","36","277615","0.0-35.0","A2IJGSO19TDI2T","","","","","-27","","","","","","","","","","","","","","","","","","","","","",""
"null","","image-button-response","37","282632","0.0-36.0","A2IJGSO19TDI2T","img_art/ins/3.jpg","null","","","","","","","","","","","","","","","","","","","","","","","","",""
"1884","","image-button-response","38","284520","0.0-37.0","A2IJGSO19TDI2T","img_art/ins/3.jpg","0","","","","","","","","","","","","","","","","","","","","","","","","",""
"732","","image-button-response","39","285255","0.0-38.0-0.0","A2IJGSO19TDI2T","img_art/ins/3.jpg","3","","","","","","","","","","","","","","","","","","","","","","","","",""
"802","","image-button-response","40","286060","0.0-39.0-0.0","A2IJGSO19TDI2T","img_art/ins/3.jpg","4","","","","","","","","","","","","","","","","","","","","","","","","",""
"null","","html-keyboard-response","41","287562","0.0-40.0","A2IJGSO19TDI2T","<p style=""font-size: 48px;"">+</p>","","","","","null","allTrialResponses","1500","1","0","img_art/ins/3.jpg","-27","Very simplistic - swipes with more swipes. Meh","Ron,John,Mike,James,Daniel,Sam","It looks depressing,-26,220,20","I like the overlapping of brushes,41,160,20","enjoy the different shades of blue,22,200,20","My worst nightmare,-42,140,20","looks like a murder room,-35,100,20","I can feel a rainy day from this painting,18,240,20","Ron","It looks depressing,-26,220,20","James","My worst nightmare,-42,140,20","Daniel","looks like a murder room,-35,100,20","2"
"3680","","image-button-response_instructions","42","291254","0.0-41.0","A2IJGSO19TDI2T","","0","instructions","","","","","","","","","","","","","","","","","","","","","","","",""
"10973","","survey-likert","43","302229","0.0-42.0-0.0","A2IJGSO19TDI2T","","","","{""Q0"":"""",""Q1"":0,""Q2"":1}","","","","","","","","","","","","","","","","","","","","","","",""
"4087","","survey-text","44","306323","0.0-43.0-0.0","A2IJGSO19TDI2T","","","","{""Q0"":""rock""}","","","","","","","","","","","","","","","","","","","","","","",""
"25552","","survey-text","45","331877","0.0-44.0-0.0","A2IJGSO19TDI2T","","","","{""Q0"":""This would get an A+ from a kindergarten teacher""}","","","","","","","","","","","","","","","","","","","","","","",""
"6723.5","","image-slider-response","46","338602","0.0-45.0","A2IJGSO19TDI2T","","","","","2","","","","","","","","","","","","","","","","","","","","","",""
"null","","image-button-response","47","343628","0.0-46.0","A2IJGSO19TDI2T","img_art/9.jpg","null","","","","","","","","","","","","","","","","","","","","","","","","",""
"343","","image-button-response","48","343974","0.0-47.0","A2IJGSO19TDI2T","img_art/9.jpg","4","","","","","","","","","","","","","","","","","","","","","","","","",""
"1895","","image-button-response","49","345871","0.0-48.0-0.0","A2IJGSO19TDI2T","img_art/9.jpg","2","","","","","","","","","","","","","","","","","","","","","","","","",""
"2352","","image-button-response","50","348226","0.0-49.0-0.0","A2IJGSO19TDI2T","img_art/9.jpg","1","","","","","","","","","","","","","","","","","","","","","","","","",""
"null","","html-keyboard-response","51","348742","0.0-50.0","A2IJGSO19TDI2T","<p style=""font-size: 48px;"">+</p>","","","","","null","allTrialResponses","500","1","1","img_art/9.jpg","2","This would get an A+ from a kindergarten teacher","Justin,Jeremy,Aaron,Nicholas,Andrew,Benjamin","It reminds me of an illustration for a fairy tale.,19,280,20","I feel this incites anger,-16,60,20","It looks like a child's crayon drawing.,-10,20,20","Some nice colors but i do not like it,-18,240,20","The peacock theme gives me negative connotations of my ex-sister-in-law,-10,160,20","looks like sleeping beauty in a garden,10,260,20","Andrew","The peacock theme gives me negative connotations of my ex-sister-in-law,-10,160,20","Aaron","It looks like a child's crayon drawing.,-10,20,20","Jeremy","I feel this incites anger,-16,60,20","2"
"27728","","survey-text","52","376475","0.0-51.0-0.0","A2IJGSO19TDI2T","","","","{""Q0"":""Lego vomit created by my 4 year old""}","","","","","","","","","","","","","","","","","","","","","","",""
"3240.099999964237","","image-slider-response","53","379717","0.0-52.0","A2IJGSO19TDI2T","","","","","-46","","","","","","","","","","","","","","","","","","","","","",""
"null","","image-button-response","54","384721","0.0-53.0","A2IJGSO19TDI2T","img_art/2.jpg","null","","","","","","","","","","","","","","","","","","","","","","","","",""
"520","","image-button-response","55","385243","0.0-54.0","A2IJGSO19TDI2T","img_art/2.jpg","1","","","","","","","","","","","","","","","","","","","","","","","","",""
"2708","","image-button-response","56","387953","0.0-55.0-0.0","A2IJGSO19TDI2T","img_art/2.jpg","3","","","","","","","","","","","","","","","","","","","","","","","","",""
"863","","image-button-response","57","388819","0.0-56.0-0.0","A2IJGSO19TDI2T","img_art/2.jpg","4","","","","","","","","","","","","","","","","","","","","","","","","",""
"null","","html-keyboard-response","58","389832","0.0-57.0","A2IJGSO19TDI2T","<p style=""font-size: 48px;"">+</p>","","","","","null","allTrialResponses","1000","1","2","img_art/2.jpg","-46","Lego vomit created by my 4 year old","Jared,Jeremy,Aaron,Ryan,Andrew,Isaiah","looks like a happy child,15,400,20","Unhappy. I do not like it,-5,60,20","The colors are pretty but I don't really like the shapes in it.,-20,20,20","Very simple and childish,40,380,20","Doesn't give me a reaction,10,160,20","I feel claustrophobic. I'm looking at a busy shop, but the simple shapes and continuous colors make it hectic.,-8,300,20","Jeremy","Unhappy. I do not like it,-5,60,20","Ryan","Very simple and childish,40,380,20","Andrew","Doesn't give me a reaction,10,160,20","2"
"26540","","survey-text","59","416379","0.0-58.0-0.0","A2IJGSO19TDI2T","","","","{""Q0"":""Weird things are happening in the sky - what's with the dots?""}","","","","","","","","","","","","","","","","","","","","","","",""
"3784.199999988079","","image-slider-response","60","420165","0.0-59.0","A2IJGSO19TDI2T","","","","","26","","","","","","","","","","","","","","","","","","","","","",""
"3333","","image-button-response","61","425168","0.0-60.0","A2IJGSO19TDI2T","img_art/21.jpg","0","","","","","","","","","","","","","","","","","","","","","","","","",""
"324","","image-button-response","62","425497","0.0-61.0","A2IJGSO19TDI2T","img_art/21.jpg","5","","","","","","","","","","","","","","","","","","","","","","","","",""
"1840","","image-button-response","63","427339","0.0-62.0-0.0","A2IJGSO19TDI2T","img_art/21.jpg","4","","","","","","","","","","","","","","","","","","","","","","","","",""
"3679","","image-button-response","64","431023","0.0-63.0-0.0","A2IJGSO19TDI2T","img_art/21.jpg","0","","","","","","","","","","","","","","","","","","","","","","","","",""
"null","","html-keyboard-response","65","432034","0.0-64.0","A2IJGSO19TDI2T","<p style=""font-size: 48px;"">+</p>","","","","","null","allTrialResponses","1000","1","3","img_art/21.jpg","26","Weird things are happening in the sky - what's with the dots?","Brendan,Jeremy,James,Ryan,Andrew,Gregory","looks like a sea during some war,27,340,20","the picture is boring,1,60,20","Don't really lean either way.,1,380,20","Very calming and nice to look at,30,380,20","I love the contrasting tones between the two sides,36,160,20","Contrast of fire and water looks cool,20,220,20","Gregory","Contrast of fire and water looks cool,20,220,20","Andrew","I love the contrasting tones between the two sides,36,160,20","Brendan","looks like a sea during some war,27,340,20","2"
"19304","","survey-text","66","451340","0.0-65.0-0.0","A2IJGSO19TDI2T","","","","{""Q0"":""I feel like I got sprayed in the face with perfume at Macys""}","","","","","","","","","","","","","","","","","","","","","","",""
"4577.699999988079","","image-slider-response","67","455920","0.0-66.0","A2IJGSO19TDI2T","","","","","-33","","","","","","","","","","","","","","","","","","","","","",""
"4496","","image-button-response","68","460931","0.0-67.0","A2IJGSO19TDI2T","img_art/5.jpg","5","","","","","","","","","","","","","","","","","","","","","","","","",""
"845","","image-button-response","69","461781","0.0-68.0","A2IJGSO19TDI2T","img_art/5.jpg","5","","","","","","","","","","","","","","","","","","","","","","","","",""
"4658","","image-button-response","70","466441","0.0-69.0-0.0","A2IJGSO19TDI2T","img_art/5.jpg","0","","","","","","","","","","","","","","","","","","","","","","","","",""
"1670","","image-button-response","71","468113","0.0-70.0-0.0","A2IJGSO19TDI2T","img_art/5.jpg","3","","","","","","","","","","","","","","","","","","","","","","","","",""
"null","","html-keyboard-response","72","469622","0.0-71.0","A2IJGSO19TDI2T","<p style=""font-size: 48px;"">+</p>","","","","","null","allTrialResponses","1500","1","4","img_art/5.jpg","-33","I feel like I got sprayed in the face with perfume at Macys","Brendan,Mason,Tanner,Robert,Andrew,Gregory","a volcano erruption,21,340,20","pointless, ugly, not creative.,-50,100,20","sharp, painful yet playful,-5,180,20","This did not do a thing for me.,-50,360,20","Doesn't make me think anything,-1,160,20","Don't really see it and yellow/pink don't go well together,-35,220,20","Gregory","Don't really see it and yellow/pink don't go well together,-35,220,20","Brendan","a volcano erruption,21,340,20","Robert","This did not do a thing for me.,-50,360,20","2"
"20155","","survey-text","73","489785","0.0-72.0-0.0","A2IJGSO19TDI2T","","","","{""Q0"":""A European city from above - I'm uncomfortable.""}","","","","","","","","","","","","","","","","","","","","","","",""
"3048.300000011921","","image-slider-response","74","492835","0.0-73.0","A2IJGSO19TDI2T","","","","","-30","","","","","","","","","","","","","","","","","","","","","",""
"4774","","image-button-response","75","497840","0.0-74.0","A2IJGSO19TDI2T","img_art/8.jpg","3","","","","","","","","","","","","","","","","","","","","","","","","",""
"635","","image-button-response","76","498479","0.0-75.0","A2IJGSO19TDI2T","img_art/8.jpg","3","","","","","","","","","","","","","","","","","","","","","","","","",""
"909","","image-button-response","77","499392","0.0-76.0-0.0","A2IJGSO19TDI2T","img_art/8.jpg","4","","","","","","","","","","","","","","","","","","","","","","","","",""
"1862","","image-button-response","78","501257","0.0-77.0-0.0","A2IJGSO19TDI2T","img_art/8.jpg","2","","","","","","","","","","","","","","","","","","","","","","","","",""
"null","","html-keyboard-response","79","501761","0.0-78.0","A2IJGSO19TDI2T","<p style=""font-size: 48px;"">+</p>","","","","","null","allTrialResponses","500","1","5","img_art/8.jpg","-30","A European city from above - I'm uncomfortable.","Brendan,Daniel,William,Robert,Colton,Gregory","beautiful buildings,32,340,20","Cortez's influence with fair color choices,10,320,20","makes me think of a busy city,-18,380,20","I like the colors and geometrical shapes but the face in the sky makes it look scary,-10,360,20","looks like an aerial view, very pretty,32,220,20","Cool designs and color schemes,44,220,20","Robert","I like the colors and geometrical shapes but the face in the sky makes it look scary,-10,360,20","Colton","looks like an aerial view, very pretty,32,220,20","William","makes me think of a busy city,-18,380,20","2"
"3273","","survey-text","80","505043","0.0-79.0-0.0","A2IJGSO19TDI2T","","","","{""Q0"":""sky""}","","","","","","","","","","","","","","","","","","","","","","",""
"32004","","survey-text","81","537049","0.0-80.0-0.0","A2IJGSO19TDI2T","","","","{""Q0"":""This makes me sleepy and also I'm thinking of traffic for some reason.""}","","","","","","","","","","","","","","","","","","","","","","",""
"3293.100000023842","","image-slider-response","82","540344","0.0-81.0","A2IJGSO19TDI2T","","","","","7","","","","","","","","","","","","","","","","","","","","","",""
"null","","image-button-response","83","545359","0.0-82.0","A2IJGSO19TDI2T","img_art/11.jpg","null","","","","","","","","","","","","","","","","","","","","","","","","",""
"6205","","image-button-response","84","551569","0.0-83.0","A2IJGSO19TDI2T","img_art/11.jpg","2","","","","","","","","","","","","","","","","","","","","","","","","",""
"1599","","image-button-response","85","553171","0.0-84.0-0.0","A2IJGSO19TDI2T","img_art/11.jpg","1","","","","","","","","","","","","","","","","","","","","","","","","",""
"1624","","image-button-response","86","554797","0.0-85.0-0.0","A2IJGSO19TDI2T","img_art/11.jpg","4","","","","","","","","","","","","","","","","","","","","","","","","",""
"null","","html-keyboard-response","87","555801","0.0-86.0","A2IJGSO19TDI2T","<p style=""font-size: 48px;"">+</p>","","","","","null","allTrialResponses","1000","1","6","img_art/11.jpg","7","This makes me sleepy and also I'm thinking of traffic for some reason.","Noah,Timothy,William,Robert,Colton,Brian","I enjoy the kandinsky-like general vibe, but the grey brings me down a bit,27,260,20","The movement in this one is extremely pleasent,40,240,20","reminds me of a rainy day in the city,32,380,20","Rainy dreary day in a town.,7,360,20","the wavy lines are nice and pleasing,13,220,20","this looks like a beautiful rainy day in a hellish urban mountain city,14,380,20","William","reminds me of a rainy day in the city,32,380,20","Timothy","The movement in this one is extremely pleasent,40,240,20","Colton","the wavy lines are nice and pleasing,13,220,20","2"
"24460","","survey-text","88","580265","0.0-87.0-0.0","A2IJGSO19TDI2T","","","","{""Q0"":""Sorry I dropped my inkwell on your new horse carpet! This is a confusing one!""}","","","","","","","","","","","","","","","","","","","","","","",""
"2832","","image-slider-response","89","583099","0.0-88.0","A2IJGSO19TDI2T","","","","","-29","","","","","","","","","","","","","","","","","","","","","",""
"4811","","image-button-response","90","588113","0.0-89.0","A2IJGSO19TDI2T","img_art/18.jpg","4","","","","","","","","","","","","","","","","","","","","","","","","",""
"925","","image-button-response","91","589043","0.0-90.0","A2IJGSO19TDI2T","img_art/18.jpg","4","","","","","","","","","","","","","","","","","","","","","","","","",""
"3517","","image-button-response","92","592563","0.0-91.0-0.0","A2IJGSO19TDI2T","img_art/18.jpg","2","","","","","","","","","","","","","","","","","","","","","","","","",""
"1523","","image-button-response","93","594088","0.0-92.0-0.0","A2IJGSO19TDI2T","img_art/18.jpg","1","","","","","","","","","","","","","","","","","","","","","","","","",""
"null","","html-keyboard-response","94","595603","0.0-93.0","A2IJGSO19TDI2T","<p style=""font-size: 48px;"">+</p>","","","","","null","allTrialResponses","1500","1","7","img_art/18.jpg","-29","Sorry I dropped my inkwell on your new horse carpet! This is a confusing one!","Malik,Timothy,William,Cole,Colton,Garrett","Gently chaotic and beautiful,40,40,20","This gives a very ominous feeling,-30,240,20","Makes me think of stormy oceans,20,380,20","Two people fighting with one watching,17,200,20","reminds me of greek mythology,22,220,20","I think its supposed to be a boat and the boat looks kind of interesting to me.,10,180,20","Colton","reminds me of greek mythology,22,220,20","William","Makes me think of stormy oceans,20,380,20","Timothy","This gives a very ominous feeling,-30,240,20","2"
"12751","","survey-text","95","608358","0.0-94.0-0.0","A2IJGSO19TDI2T","","","","{""Q0"":""Straight up wickerman. Scary!""}","","","","","","","","","","","","","","","","","","","","","","",""
"3226.699999988079","","image-slider-response","96","611586","0.0-95.0","A2IJGSO19TDI2T","","","","","-33","","","","","","","","","","","","","","","","","","","","","",""
"null","","image-button-response","97","616590","0.0-96.0","A2IJGSO19TDI2T","img_art/25.jpg","null","","","","","","","","","","","","","","","","","","","","","","","","",""
"3001","","image-button-response","98","619593","0.0-97.0","A2IJGSO19TDI2T","img_art/25.jpg","5","","","","","","","","","","","","","","","","","","","","","","","","",""
"1761","","image-button-response","99","621357","0.0-98.0-0.0","A2IJGSO19TDI2T","img_art/25.jpg","2","","","","","","","","","","","","","","","","","","","","","","","","",""
"901","","image-button-response","100","622261","0.0-99.0-0.0","A2IJGSO19TDI2T","img_art/25.jpg","1","","","","","","","","","","","","","","","","","","","","","","","","",""
"null","","html-keyboard-response","101","623770","0.0-100.0","A2IJGSO19TDI2T","<p style=""font-size: 48px;"">+</p>","","","","","null","allTrialResponses","1500","1","8","img_art/25.jpg","-33","Straight up wickerman. Scary!","Antonio,Timothy,William,Lucas,Colton,Matthew","Makes me think of Baphomet, As above so below and is scary,-50,220,20","This makes me feel uneasy,-20,240,20","makes me think of a scary movie,-20,380,20","Well-designed, interesting.,30,380,20","the colors are pretty,11,220,20","haunting, a lovely impression.,50,120,20","Matthew","haunting, a lovely impression.,50,120,20","William","makes me think of a scary movie,-20,380,20","Timothy","This makes me feel uneasy,-20,240,20","2"
"19857","","survey-text","102","643635","0.0-101.0-0.0","A2IJGSO19TDI2T","","","","{""Q0"":""I feel depressed and I'm thinking of funeral flowers.""}","","","","","","","","","","","","","","","","","","","","","","",""
"3875.099999964237","","image-slider-response","103","647512","0.0-102.0","A2IJGSO19TDI2T","","","","","-3","","","","","","","","","","","","","","","","","","","","","",""
"null","","image-button-response","104","652514","0.0-103.0","A2IJGSO19TDI2T","img_art/15.jpg","null","","","","","","","","","","","","","","","","","","","","","","","","",""
"662","","image-button-response","105","653179","0.0-104.0","A2IJGSO19TDI2T","img_art/15.jpg","5","","","","","","","","","","","","","","","","","","","","","","","","",""
"2862","","image-button-response","106","656043","0.0-105.0-0.0","A2IJGSO19TDI2T","img_art/15.jpg","1","","","","","","","","","","","","","","","","","","","","","","","","",""
"2729","","image-button-response","107","658775","0.0-106.0-0.0","A2IJGSO19TDI2T","img_art/15.jpg","3","","","","","","","","","","","","","","","","","","","","","","","","",""
"null","","html-keyboard-response","108","660286","0.0-107.0","A2IJGSO19TDI2T","<p style=""font-size: 48px;"">+</p>","","","","","null","allTrialResponses","1500","1","9","img_art/15.jpg","-3","I feel depressed and I'm thinking of funeral flowers.","Trevor,Timothy,William,Christopher,Jose,Matthew","I really like the colors,14,280,20","This painting gives a calm vibe but no stronger emotions than that,10,240,20","makes me feel calm,40,380,20","this is really pretty! i like the pops of blue in all the black,26,160,20","black dots too ant-like,-25,200,20","I think of birds, nature, levels of space.,18,120,20","Matthew","I think of birds, nature, levels of space.,18,120,20","Timothy","This painting gives a calm vibe but no stronger emotions than that,10,240,20","Christopher","this is really pretty! i like the pops of blue in all the black,26,160,20","2"
"26274","","survey-text","109","686564","0.0-108.0-0.0","A2IJGSO19TDI2T","","","","{""Q0"":""Mommy killed daddy. This has a childlike sad vibe to it.""}","","","","","","","","","","","","","","","","","","","","","","",""
"4889.399999976158","","image-slider-response","110","691455","0.0-109.0","A2IJGSO19TDI2T","","","","","4","","","","","","","","","","","","","","","","","","","","","",""
"3978","","image-button-response","111","696470","0.0-110.0","A2IJGSO19TDI2T","img_art/3.jpg","4","","","","","","","","","","","","","","","","","","","","","","","","",""
"719","","image-button-response","112","697192","0.0-111.0","A2IJGSO19TDI2T","img_art/3.jpg","4","","","","","","","","","","","","","","","","","","","","","","","","",""
"2187","","image-button-response","113","699382","0.0-112.0-0.0","A2IJGSO19TDI2T","img_art/3.jpg","2","","","","","","","","","","","","","","","","","","","","","","","","",""
"1437","","image-button-response","114","700822","0.0-113.0-0.0","A2IJGSO19TDI2T","img_art/3.jpg","1","","","","","","","","","","","","","","","","","","","","","","","","",""
"null","","html-keyboard-response","115","701328","0.0-114.0","A2IJGSO19TDI2T","<p style=""font-size: 48px;"">+</p>","","","","","null","allTrialResponses","500","1","10","img_art/3.jpg","4","Mommy killed daddy. This has a childlike sad vibe to it.","Steven,Timothy,Jacob,Christopher,Dustin,Matthew","i don't like this, just looks like scribbles,-50,160,20","This makes me feel a bit disturbed,-35,240,20","Don't get the scribbles.,-13,340,20","the red is impactful but the work overall doesn't say anything to me,-8,160,20","Messy. Looks like a children's drawing being passed off as expensive art. Too much red.,-50,20,20","Reminds of John Lenonn's art a bit.,27,120,20","Dustin","Messy. Looks like a children's drawing being passed off as expensive art. Too much red.,-50,20,20","Jacob","Don't get the scribbles.,-13,340,20","Timothy","This makes me feel a bit disturbed,-35,240,20","2"
"2960","","survey-text","116","704298","0.0-115.0-0.0","A2IJGSO19TDI2T","","","","{""Q0"":""our""}","","","","","","","","","","","","","","","","","","","","","","",""
"19589","","survey-text","117","723888","0.0-116.0-0.0","A2IJGSO19TDI2T","","","","{""Q0"":""Watercolor living room. I feel peaceful - but it still looks childlike to me.""}","","","","","","","","","","","","","","","","","","","","","","",""
"3140.099999964237","","image-slider-response","118","727030","0.0-117.0","A2IJGSO19TDI2T","","","","","-36","","","","","","","","","","","","","","","","","","","","","",""
"4968","","image-button-response","119","732044","0.0-118.0","A2IJGSO19TDI2T","img_art/26.jpg","4","","","","","","","","","","","","","","","","","","","","","","","","",""
"1534","","image-button-response","120","733580","0.0-119.0","A2IJGSO19TDI2T","img_art/26.jpg","5","","","","","","","","","","","","","","","","","","","","","","","","",""
"1445","","image-button-response","121","735028","0.0-120.0-0.0","A2IJGSO19TDI2T","img_art/26.jpg","2","","","","","","","","","","","","","","","","","","","","","","","","",""
"2482","","image-button-response","122","737513","0.0-121.0-0.0","A2IJGSO19TDI2T","img_art/26.jpg","0","","","","","","","","","","","","","","","","","","","","","","","","",""
"null","","html-keyboard-response","123","738015","0.0-122.0","A2IJGSO19TDI2T","<p style=""font-size: 48px;"">+</p>","","","","","null","allTrialResponses","500","1","11","img_art/26.jpg","-36","Watercolor living room. I feel peaceful - but it still looks childlike to me.","Jason,Timothy,Jacob,Richard,Dustin,Jesse","The colors look faded and blurry,2,20,20","Very pleasent little scene,40,240,20","It doesn't look so vibrant, I'm not sure what feelings they were trying to capture,-41,340,20","subtle use of colors, city street view?,8,340,20","Reminds me of watercolor. Muted tones and blurry soft brush strokes. Calm to me.,1,20,20","Looks bland and boring,-5,80,20","Jesse","Looks bland and boring,-5,80,20","Jacob","It doesn't look so vibrant, I'm not sure what feelings they were trying to capture,-41,340,20","Jason","The colors look faded and blurry,2,20,20","2"
"23394","","survey-text","124","761420","0.0-123.0-0.0","A2IJGSO19TDI2T","","","","{""Q0"":""Mishmash of color. I really like this blending.""}","","","","","","","","","","","","","","","","","","","","","","",""
"2460.600000023842","","image-slider-response","125","763882","0.0-124.0","A2IJGSO19TDI2T","","","","","32","","","","","","","","","","","","","","","","","","","","","",""
"1429","","image-button-response","126","768896","0.0-125.0","A2IJGSO19TDI2T","img_art/1.jpg","0","","","","","","","","","","","","","","","","","","","","","","","","",""
"3519","","image-button-response","127","772420","0.0-126.0","A2IJGSO19TDI2T","img_art/1.jpg","4","","","","","","","","","","","","","","","","","","","","","","","","",""
"1531","","image-button-response","128","773953","0.0-127.0-0.0","A2IJGSO19TDI2T","img_art/1.jpg","3","","","","","","","","","","","","","","","","","","","","","","","","",""
"1266","","image-button-response","129","775222","0.0-128.0-0.0","A2IJGSO19TDI2T","img_art/1.jpg","0","","","","","","","","","","","","","","","","","","","","","","","","",""
"null","","html-keyboard-response","130","776224","0.0-129.0","A2IJGSO19TDI2T","<p style=""font-size: 48px;"">+</p>","","","","","null","allTrialResponses","1000","1","12","img_art/1.jpg","32","Mishmash of color. I really like this blending.","Jason,Devon,Jacob,Corey,David,Jesse","Interesting blend of colors,9,20,20","I see happiness from different aspects of life,31,400,20","Looks like the same thing as the last piece shown to me,10,340,20","basic reminds me of something a school would have on the wall,-7,260,20","This image doesn't invoke much in me.,0,340,20","Im not a fan of the bluriness,-18,80,20","David","This image doesn't invoke much in me.,0,340,20","Corey","basic reminds me of something a school would have on the wall,-7,260,20","Jason","Interesting blend of colors,9,20,20","2"
"20957","","survey-text","131","797188","0.0-130.0-0.0","A2IJGSO19TDI2T","","","","{""Q0"":""Rave monster teeth. I feel afraid and titillated by it. Let's dance.""}","","","","","","","","","","","","","","","","","","","","","","",""
"5060.299999952316","","image-slider-response","132","802250","0.0-131.0","A2IJGSO19TDI2T","","","","","-35","","","","","","","","","","","","","","","","","","","","","",""
"3635","","image-button-response","133","807266","0.0-132.0","A2IJGSO19TDI2T","img_art/23.jpg","3","","","","","","","","","","","","","","","","","","","","","","","","",""
"664","","image-button-response","134","807932","0.0-133.0","A2IJGSO19TDI2T","img_art/23.jpg","3","","","","","","","","","","","","","","","","","","","","","","","","",""
"3635","","image-button-response","135","811570","0.0-134.0-0.0","A2IJGSO19TDI2T","img_art/23.jpg","4","","","","","","","","","","","","","","","","","","","","","","","","",""
"3845","","image-button-response","136","815418","0.0-135.0-0.0","A2IJGSO19TDI2T","img_art/23.jpg","5","","","","","","","","","","","","","","","","","","","","","","","","",""
"null","","html-keyboard-response","137","816420","0.0-136.0","A2IJGSO19TDI2T","<p style=""font-size: 48px;"">+</p>","","","","","null","allTrialResponses","1000","1","13","img_art/23.jpg","-35","Rave monster teeth. I feel afraid and titillated by it. Let's dance.","Jason,Jordan,Dalton,Corey,David,Jeffrey","Interesting contrast,9,20,20","I like the contrast,29,160,20","illegible wording with a graffiti background,1,300,20","white reminds me of screamo music band tshirts when they have their name in the unreadable lettering,-9,260,20","I like the symmetrical design and how it portrays the liveliness of a musical environment.,30,340,20","Very energetic, seems like it is pulling me in,24,40,20","Corey","white reminds me of screamo music band tshirts when they have their name in the unreadable lettering,-9,260,20","David","I like the symmetrical design and how it portrays the liveliness of a musical environment.,30,340,20","Jeffrey","Very energetic, seems like it is pulling me in,24,40,20","2"
"14905","","survey-text","138","831330","0.0-137.0-0.0","A2IJGSO19TDI2T","","","","{""Q0"":""Open your art book to page 47. This one is unoriginal and boring.""}","","","","","","","","","","","","","","","","","","","","","","",""
"3489.300000011921","","image-slider-response","139","834822","0.0-138.0","A2IJGSO19TDI2T","","","","","-42","","","","","","","","","","","","","","","","","","","","","",""
"4548","","image-button-response","140","839830","0.0-139.0","A2IJGSO19TDI2T","img_art/12.jpg","4","","","","","","","","","","","","","","","","","","","","","","","","",""
"741","","image-button-response","141","840573","0.0-140.0","A2IJGSO19TDI2T","img_art/12.jpg","4","","","","","","","","","","","","","","","","","","","","","","","","",""
"1779","","image-button-response","142","842354","0.0-141.0-0.0","A2IJGSO19TDI2T","img_art/12.jpg","1","","","","","","","","","","","","","","","","","","","","","","","","",""
"1396","","image-button-response","143","843753","0.0-142.0-0.0","A2IJGSO19TDI2T","img_art/12.jpg","0","","","","","","","","","","","","","","","","","","","","","","","","",""
"null","","html-keyboard-response","144","844254","0.0-143.0","A2IJGSO19TDI2T","<p style=""font-size: 48px;"">+</p>","","","","","null","allTrialResponses","500","1","14","img_art/12.jpg","-42","Open your art book to page 47. This one is unoriginal and boring.","Cody,Elijah,Jesus,Corey,David,Jeffrey","Pretty but not a huge fan of the colors,20,180,20","It makes me feel confused,-15,80,20","I like the color scheme.,10,100,20","I like the bottom half and hate the top half,7,260,20","This doesn't invoke anything. Just a mosaic of random images.,0,340,20","good colours scheme; organised,17,40,20","David","This doesn't invoke anything. Just a mosaic of random images.,0,340,20","Elijah","It makes me feel confused,-15,80,20","Cody","Pretty but not a huge fan of the colors,20,180,20","2"
"17355","","survey-text","145","861614","0.0-144.0-0.0","A2IJGSO19TDI2T","","","","{""Q0"":""Johnny took the crayon to mommy's new art purchase. Meh.""}","","","","","","","","","","","","","","","","","","","","","","",""
"3034.699999988079","","image-slider-response","146","864650","0.0-145.0","A2IJGSO19TDI2T","","","","","-21","","","","","","","","","","","","","","","","","","","","","",""
"3247","","image-button-response","147","869658","0.0-146.0","A2IJGSO19TDI2T","img_art/27.jpg","4","","","","","","","","","","","","","","","","","","","","","","","","",""
"1102","","image-button-response","148","870765","0.0-147.0","A2IJGSO19TDI2T","img_art/27.jpg","4","","","","","","","","","","","","","","","","","","","","","","","","",""
"4129","","image-button-response","149","874897","0.0-148.0-0.0","A2IJGSO19TDI2T","img_art/27.jpg","1","","","","","","","","","","","","","","","","","","","","","","","","",""
"3901","","image-button-response","150","878799","0.0-149.0-0.0","A2IJGSO19TDI2T","img_art/27.jpg","3","","","","","","","","","","","","","","","","","","","","","","","","",""
"null","","html-keyboard-response","151","880302","0.0-150.0","A2IJGSO19TDI2T","<p style=""font-size: 48px;"">+</p>","","","","","null","allTrialResponses","1500","1","15","img_art/27.jpg","-21","Johnny took the crayon to mommy's new art purchase. Meh.","Cody,Elijah,Spencer,Alexander,David,Shawn","Not sure how I feel about this. Messy, even for art. But good colors.,0,180,20","Not too impressed with the work,6,80,20","An attractive assortment of squiggles and colors,22,120,20","Messy field of various plants.,-5,120,20","Not a fan of the green; gives off the impression that someone else drew on it.,-20,340,20","Like the movement of the lines and dripping paint.,30,100,20","David","Not a fan of the green; gives off the impression that someone else drew on it.,-20,340,20","Elijah","Not too impressed with the work,6,80,20","Alexander","Messy field of various plants.,-5,120,20","2"
"4066","","survey-text","152","884389","0.0-151.0-0.0","A2IJGSO19TDI2T","","","","{""Q0"":""course""}","","","","","","","","","","","","","","","","","","","","","","",""
"15478","","survey-text","153","899869","0.0-152.0-0.0","A2IJGSO19TDI2T","","","","{""Q0"":""Let me know when it's finished. I feel incomplete and unsatisfied.""}","","","","","","","","","","","","","","","","","","","","","","",""
"2929.699999988079","","image-slider-response","154","902801","0.0-153.0","A2IJGSO19TDI2T","","","","","-26","","","","","","","","","","","","","","","","","","","","","",""
"4473","","image-button-response","155","907805","0.0-154.0","A2IJGSO19TDI2T","img_art/17.jpg","4","","","","","","","","","","","","","","","","","","","","","","","","",""
"1581","","image-button-response","156","909389","0.0-155.0","A2IJGSO19TDI2T","img_art/17.jpg","4","","","","","","","","","","","","","","","","","","","","","","","","",""
"1587","","image-button-response","157","910978","0.0-156.0-0.0","A2IJGSO19TDI2T","img_art/17.jpg","5","","","","","","","","","","","","","","","","","","","","","","","","",""
"1335","","image-button-response","158","912316","0.0-157.0-0.0","A2IJGSO19TDI2T","img_art/17.jpg","2","","","","","","","","","","","","","","","","","","","","","","","","",""
"null","","html-keyboard-response","159","913319","0.0-158.0","A2IJGSO19TDI2T","<p style=""font-size: 48px;"">+</p>","","","","","null","allTrialResponses","1000","1","16","img_art/17.jpg","-26","Let me know when it's finished. I feel incomplete and unsatisfied.","Nathaniel,Elijah,Jake,Alexander,David,Nathan","I like the artistic sketching pattern.,24,220,20","Very cool, makes me feel calm,43,80,20","This could have been good but was poorly done.,-5,360,20","Tree of knowledge in a quiet school.,17,120,20","I like how the image gives an impression of gaseous tree.,15,340,20","It's alright, nothing I particularly like but it's just fine,-10,200,20","David","I like how the image gives an impression of gaseous tree.,15,340,20","Nathan","It's alright, nothing I particularly like but it's just fine,-10,200,20","Jake","This could have been good but was poorly done.,-5,360,20","2"
"17923","","survey-text","160","931255","0.0-159.0-0.0","A2IJGSO19TDI2T","","","","{""Q0"":""Ode to Jackson Pollock. Seen it. Bored with it.""}","","","","","","","","","","","","","","","","","","","","","","",""
"2592.399999976158","","image-slider-response","161","933849","0.0-160.0","A2IJGSO19TDI2T","","","","","-41","","","","","","","","","","","","","","","","","","","","","",""
"2956","","image-button-response","162","938853","0.0-161.0","A2IJGSO19TDI2T","img_art/13.jpg","3","","","","","","","","","","","","","","","","","","","","","","","","",""
"837","","image-button-response","163","939694","0.0-162.0","A2IJGSO19TDI2T","img_art/13.jpg","5","","","","","","","","","","","","","","","","","","","","","","","","",""
"1949","","image-button-response","164","941646","0.0-163.0-0.0","A2IJGSO19TDI2T","img_art/13.jpg","2","","","","","","","","","","","","","","","","","","","","","","","","",""
"2481","","image-button-response","165","944130","0.0-164.0-0.0","A2IJGSO19TDI2T","img_art/13.jpg","3","","","","","","","","","","","","","","","","","","","","","","","","",""
"null","","html-keyboard-response","166","944633","0.0-165.0","A2IJGSO19TDI2T","<p style=""font-size: 48px;"">+</p>","","","","","null","allTrialResponses","500","1","17","img_art/13.jpg","-41","Ode to Jackson Pollock. Seen it. Bored with it.","Sean,Vincent,Jake,Alejandro,David,Nathan","I like the colors,7,40,20","I love the colors reminds me of a rainy day..it's calm and relaxing,32,360,20","It's too violent looking and there's too much contrast between the white/black.,-21,360,20","Reminiscent of Jackson Pollock and gives me a feeling of chaotic satisfaction,50,80,20","I like the color coordination between the foreground and background.,10,340,20","While it is a bit basic and doesn't speak to me much, I like the feeling it gives,40,200,20","Nathan","While it is a bit basic and doesn't speak to me much, I like the feeling it gives,40,200,20","Jake","It's too violent looking and there's too much contrast between the white/black.,-21,360,20","Alejandro","Reminiscent of Jackson Pollock and gives me a feeling of chaotic satisfaction,50,80,20","2"
"37621","","survey-text","167","982268","0.0-166.0-0.0","A2IJGSO19TDI2T","","","","{""Q0"":""This one is an action shot of a guitar being played. The crappy way its painted makes me angry.""}","","","","","","","","","","","","","","","","","","","","","","",""
"2630.5","","image-slider-response","168","984901","0.0-167.0","A2IJGSO19TDI2T","","","","","-43","","","","","","","","","","","","","","","","","","","","","",""
"null","","image-button-response","169","989914","0.0-168.0","A2IJGSO19TDI2T","img_art/10.jpg","null","","","","","","","","","","","","","","","","","","","","","","","","",""
"2747","","image-button-response","170","992665","0.0-169.0","A2IJGSO19TDI2T","img_art/10.jpg","2","","","","","","","","","","","","","","","","","","","","","","","","",""
"1583","","image-button-response","171","994251","0.0-170.0-0.0","A2IJGSO19TDI2T","img_art/10.jpg","1","","","","","","","","","","","","","","","","","","","","","","","","",""
"2853","","image-button-response","172","997107","0.0-171.0-0.0","A2IJGSO19TDI2T","img_art/10.jpg","0","","","","","","","","","","","","","","","","","","","","","","","","",""
"null","","html-keyboard-response","173","998110","0.0-172.0","A2IJGSO19TDI2T","<p style=""font-size: 48px;"">+</p>","","","","","null","allTrialResponses","1000","1","18","img_art/10.jpg","-43","This one is an action shot of a guitar being played. The crappy way its painted makes me angry.","Edward,Kenneth,Jake,Alejandro,Chase,Nathan","It looks like it's sinking but it could also be a view from above,40,60,20","I cant tell what this is supposed to be, but I enjoy the simplicity of it.,28,300,20","This is odd and ugly.,-9,360,20","The contrast between the messy dots/dabs vs the straight affluent lines is unappealing,-20,80,20","Seems more harmonic with the strokes and colors.,31,120,20","Seems very lovecraftian, which I love that style,25,200,20","Jake","This is odd and ugly.,-9,360,20","Kenneth","I cant tell what this is supposed to be, but I enjoy the simplicity of it.,28,300,20","Edward","It looks like it's sinking but it could also be a view from above,40,60,20","2"
"14023","","survey-text","174","1012137","0.0-173.0-0.0","A2IJGSO19TDI2T","","","","{""Q0"":""Cave paintings. I feel no emotion.""}","","","","","","","","","","","","","","","","","","","","","","",""
"8301.199999988079","","image-slider-response","175","1020441","0.0-174.0","A2IJGSO19TDI2T","","","","","0","","","","","","","","","","","","","","","","","","","","","",""
"3994","","image-button-response","176","1025457","0.0-175.0","A2IJGSO19TDI2T","img_art/7.jpg","4","","","","","","","","","","","","","","","","","","","","","","","","",""
"980","","image-button-response","177","1026442","0.0-176.0","A2IJGSO19TDI2T","img_art/7.jpg","4","","","","","","","","","","","","","","","","","","","","","","","","",""
"1864","","image-button-response","178","1028308","0.0-177.0-0.0","A2IJGSO19TDI2T","img_art/7.jpg","2","","","","","","","","","","","","","","","","","","","","","","","","",""
"1662","","image-button-response","179","1029972","0.0-178.0-0.0","A2IJGSO19TDI2T","img_art/7.jpg","5","","","","","","","","","","","","","","","","","","","","","","","","",""
"null","","html-keyboard-response","180","1031478","0.0-179.0","A2IJGSO19TDI2T","<p style=""font-size: 48px;"">+</p>","","","","","null","allTrialResponses","1500","1","19","img_art/7.jpg","0","Cave paintings. I feel no emotion.","Edward,Kenneth,Jake,Jorge,Luis,Alexis","It looks like maybe some seeds?,14,60,20","My firs thought was ""gross""...not sure what this is and I dont think i want to know.,-19,300,20","This is vague and ugly.,-3,360,20","time and change,1,180,20","Not getting the vibe i would like from this,-30,400,20","it looks like an ant farm,12,140,20","Luis","Not getting the vibe i would like from this,-30,400,20","Jake","This is vague and ugly.,-3,360,20","Alexis","it looks like an ant farm,12,140,20","2"
"22278","","survey-text","181","1053763","0.0-180.0-0.0","A2IJGSO19TDI2T","","","","{""Q0"":""I like the blurred colors. I feel interested in this piece and want to know more.""}","","","","","","","","","","","","","","","","","","","","","","",""
"2637.800000011921","","image-slider-response","182","1056403","0.0-181.0","A2IJGSO19TDI2T","","","","","34","","","","","","","","","","","","","","","","","","","","","",""
"3659","","image-button-response","183","1061422","0.0-182.0","A2IJGSO19TDI2T","img_art/22.jpg","1","","","","","","","","","","","","","","","","","","","","","","","","",""
"1023","","image-button-response","184","1062449","0.0-183.0","A2IJGSO19TDI2T","img_art/22.jpg","1","","","","","","","","","","","","","","","","","","","","","","","","",""
"4612","","image-button-response","185","1067064","0.0-184.0-0.0","A2IJGSO19TDI2T","img_art/22.jpg","3","","","","","","","","","","","","","","","","","","","","","","","","",""
"2009","","image-button-response","186","1069076","0.0-185.0-0.0","A2IJGSO19TDI2T","img_art/22.jpg","0","","","","","","","","","","","","","","","","","","","","","","","","",""
"null","","html-keyboard-response","187","1069578","0.0-186.0","A2IJGSO19TDI2T","<p style=""font-size: 48px;"">+</p>","","","","","null","allTrialResponses","500","1","20","img_art/22.jpg","34","I like the blurred colors. I feel interested in this piece and want to know more.","Charles,Jack,Jake,Ian,Luis,Alexis","I like the key near the sphere in the center,19,100,20","beautiful. love the bright colors & soft brush strokes, and the imprint of the key is genius.,50,320,20","It's bland and ugly.,-21,360,20","Its very warm, it reminds of someone not liking their painting so they destoryed it,26,260,20","Just not feeling it,-19,400,20","Neither like nor dislike it. The red, yellow and blue colors are bright but I don't know what it's meant to be.,1,140,20","Jack","beautiful. love the bright colors & soft brush strokes, and the imprint of the key is genius.,50,320,20","Ian","Its very warm, it reminds of someone not liking their painting so they destoryed it,26,260,20","Charles","I like the key near the sphere in the center,19,100,20","2"
"2211","","survey-text","188","1071807","0.0-187.0-0.0","A2IJGSO19TDI2T","","","","{""Q0"":""we""}","","","","","","","","","","","","","","","","","","","","","","",""
"22917","","survey-text","189","1094727","0.0-188.0-0.0","A2IJGSO19TDI2T","","","","{""Q0"":""An old man holding a newborn baby. I don't get this style of art. Meh.""}","","","","","","","","","","","","","","","","","","","","","","",""
"3102.100000023842","","image-slider-response","190","1097831","0.0-189.0","A2IJGSO19TDI2T","","","","","-3","","","","","","","","","","","","","","","","","","","","","",""
"2646","","image-button-response","191","1102835","0.0-190.0","A2IJGSO19TDI2T","img_art/28.jpg","0","","","","","","","","","","","","","","","","","","","","","","","","",""
"605","","image-button-response","192","1103444","0.0-191.0","A2IJGSO19TDI2T","img_art/28.jpg","0","","","","","","","","","","","","","","","","","","","","","","","","",""
"1820","","image-button-response","193","1105266","0.0-192.0-0.0","A2IJGSO19TDI2T","img_art/28.jpg","0","","","","","","","","","","","","","","","","","","","","","","","","",""
"3273","","image-button-response","194","1110566","0.0-192.1-0.1","A2IJGSO19TDI2T","img_art/28.jpg","4","","","","","","","","","","","","","","","","","","","","","","","","",""
"2467","","image-button-response","195","1113036","0.0-193.0-0.0","A2IJGSO19TDI2T","img_art/28.jpg","2","","","","","","","","","","","","","","","","","","","","","","","","",""
"null","","html-keyboard-response","196","1114538","0.0-194.0","A2IJGSO19TDI2T","<p style=""font-size: 48px;"">+</p>","","","","","null","allTrialResponses","1500","1","21","img_art/28.jpg","-3","An old man holding a newborn baby. I don't get this style of art. Meh.","Charles,Jack,Miguel,Ian,Alex,Shane","The thing on the right is kind of weird/fetus-y,-12,100,20","looks like humanoid figures in distress. I like it, but makes me slightly uncomfortable,35,320,20","Looks yucky and poor.,-33,160,20","This one looks very dark and seems like it has a lot of depth to it.,31,260,20","This piece is depressing to me, reminds me of German paintings,-6,100,20","This is also something I would see in a serious but safe environment,14,80,20","Charles","The thing on the right is kind of weird/fetus-y,-12,100,20","Alex","This piece is depressing to me, reminds me of German paintings,-6,100,20","Miguel","Looks yucky and poor.,-33,160,20","4"
"23802","","survey-text","197","1138357","0.0-195.0-0.0","A2IJGSO19TDI2T","","","","{""Q0"":""Put on your smock, it's time to finger paint! I get a very childlike vibe from this one.""}","","","","","","","","","","","","","","","","","","","","","","",""
"4525.100000023842","","image-slider-response","198","1142885","0.0-196.0","A2IJGSO19TDI2T","","","","","-22","","","","","","","","","","","","","","","","","","","","","",""
"3383","","image-button-response","199","1147893","0.0-197.0","A2IJGSO19TDI2T","img_art/30.jpg","4","","","","","","","","","","","","","","","","","","","","","","","","",""
"616","","image-button-response","200","1148513","0.0-198.0","A2IJGSO19TDI2T","img_art/30.jpg","4","","","","","","","","","","","","","","","","","","","","","","","","",""
"1693","","image-button-response","201","1150209","0.0-199.0-0.0","A2IJGSO19TDI2T","img_art/30.jpg","5","","","","","","","","","","","","","","","","","","","","","","","","",""
"1297","","image-button-response","202","1151509","0.0-200.0-0.0","A2IJGSO19TDI2T","img_art/30.jpg","2","","","","","","","","","","","","","","","","","","","","","","","","",""
"null","","html-keyboard-response","203","1152511","0.0-201.0","A2IJGSO19TDI2T","<p style=""font-size: 48px;"">+</p>","","","","","null","allTrialResponses","1000","1","22","img_art/30.jpg","-22","Put on your smock, it's time to finger paint! I get a very childlike vibe from this one.","Charles,Kevin,Miguel,Mitchell,Alex,Isaac","looks like eels,-20,100,20","Some people dancing.,-7,320,20","Absolutely messy,-31,160,20","connection, Everything is connected even in contrast.,42,180,20","Don't like it at all, looks like a someone smeared paint with their fingers,-25,100,20","It looks like it was painted in 5 minutes.,-32,280,20","Alex","Don't like it at all, looks like a someone smeared paint with their fingers,-25,100,20","Isaac","It looks like it was painted in 5 minutes.,-32,280,20","Miguel","Absolutely messy,-31,160,20","4"
"23712","","survey-text","204","1176237","0.0-202.0-0.0","A2IJGSO19TDI2T","","","","{""Q0"":""The bird stands alone. I kind of like this one - it makes me feel a little sad for the bird.""}","","","","","","","","","","","","","","","","","","","","","","",""
"2909.400000035763","","image-slider-response","205","1179148","0.0-203.0","A2IJGSO19TDI2T","","","","","15","","","","","","","","","","","","","","","","","","","","","",""
"null","","image-button-response","206","1184150","0.0-204.0","A2IJGSO19TDI2T","img_art/6.jpg","null","","","","","","","","","","","","","","","","","","","","","","","","",""
"920","","image-button-response","207","1185072","0.0-205.0","A2IJGSO19TDI2T","img_art/6.jpg","5","","","","","","","","","","","","","","","","","","","","","","","","",""
"1731","","image-button-response","208","1186805","0.0-206.0-0.0","A2IJGSO19TDI2T","img_art/6.jpg","2","","","","","","","","","","","","","","","","","","","","","","","","",""
"1630","","image-button-response","209","1188437","0.0-207.0-0.0","A2IJGSO19TDI2T","img_art/6.jpg","1","","","","","","","","","","","","","","","","","","","","","","","","",""
"null","","html-keyboard-response","210","1188961","0.0-208.0","A2IJGSO19TDI2T","<p style=""font-size: 48px;"">+</p>","","","","","null","allTrialResponses","500","1","23","img_art/6.jpg","15","The bird stands alone. I kind of like this one - it makes me feel a little sad for the bird.","Brandon,Stephen,Miguel,Luke,Alex,Isaac","The feeling of isolation with so little objects. Great,20,320,20","Good painting but too simple to care about it for very long.,-15,140,20","Bird? It's a bird.,23,160,20","i like it but it is very neutral,9,20,20","Definitely belongs at a doctor's office, I think it's a crow or a tree?,-3,100,20","It looks like one tall ugly bird.,-43,280,20","Isaac","It looks like one tall ugly bird.,-43,280,20","Miguel","Bird? It's a bird.,23,160,20","Stephen","Good painting but too simple to care about it for very long.,-15,140,20","4"
"7257","","survey-text","211","1196233","0.0-209.0-0.0","A2IJGSO19TDI2T","","","","{""Q0"":""Just no.""}","","","","","","","","","","","","","","","","","","","","","","",""
"3511.800000011921","","image-slider-response","212","1199747","0.0-210.0","A2IJGSO19TDI2T","","","","","-50","","","","","","","","","","","","","","","","","","","","","",""
"4705","","image-button-response","213","1204759","0.0-211.0","A2IJGSO19TDI2T","img_art/29.jpg","4","","","","","","","","","","","","","","","","","","","","","","","","",""
"589","","image-button-response","214","1205353","0.0-212.0","A2IJGSO19TDI2T","img_art/29.jpg","4","","","","","","","","","","","","","","","","","","","","","","","","",""
"3713","","image-button-response","215","1209068","0.0-213.0-0.0","A2IJGSO19TDI2T","img_art/29.jpg","2","","","","","","","","","","","","","","","","","","","","","","","","",""
"2272","","image-button-response","216","1211343","0.0-214.0-0.0","A2IJGSO19TDI2T","img_art/29.jpg","3","","","","","","","","","","","","","","","","","","","","","","","","",""
"null","","html-keyboard-response","217","1211845","0.0-215.0","A2IJGSO19TDI2T","<p style=""font-size: 48px;"">+</p>","","","","","null","allTrialResponses","500","1","24","img_art/29.jpg","-50","Just no.","John,Stephen,Miguel,Peter,Adrian,Isaac","Its interesting although doesnt illicit any strong emotions from me,10,120,20","Really enjoy everything about this one.,50,140,20","It's too messy.,-25,160,20","Looks like a jail cell,-15,320,20","Again, ugly colors and I'm not a fan of abstract. This looks like the view into a garbage dump.,-50,60,20","It is intriguing but I don't like the red X.,6,280,20","Adrian","Again, ugly colors and I'm not a fan of abstract. This looks like the view into a garbage dump.,-50,60,20","Miguel","It's too messy.,-25,160,20","Peter","Looks like a jail cell,-15,320,20","4"
"20389","","survey-text","218","1232251","0.0-216.0-0.0","A2IJGSO19TDI2T","","","","{""Q0"":""Waterfall at a yard sale. Zero interest in this one.""}","","","","","","","","","","","","","","","","","","","","","","",""
"2529.5","","image-slider-response","219","1234783","0.0-217.0","A2IJGSO19TDI2T","","","","","-41","","","","","","","","","","","","","","","","","","","","","",""
"4132","","image-button-response","220","1239793","0.0-218.0","A2IJGSO19TDI2T","img_art/24.jpg","5","","","","","","","","","","","","","","","","","","","","","","","","",""
"662","","image-button-response","221","1240457","0.0-219.0","A2IJGSO19TDI2T","img_art/24.jpg","5","","","","","","","","","","","","","","","","","","","","","","","","",""
"1523","","image-button-response","222","1241983","0.0-220.0-0.0","A2IJGSO19TDI2T","img_art/24.jpg","2","","","","","","","","","","","","","","","","","","","","","","","","",""
"3929","","image-button-response","223","1245915","0.0-221.0-0.0","A2IJGSO19TDI2T","img_art/24.jpg","3","","","","","","","","","","","","","","","","","","","","","","","","",""
"null","","html-keyboard-response","224","1246427","0.0-222.0","A2IJGSO19TDI2T","<p style=""font-size: 48px;"">+</p>","","","","","null","allTrialResponses","500","1","25","img_art/24.jpg","-41","Waterfall at a yard sale. Zero interest in this one.","Patrick,Scott,Miguel,Peter,Adrian,Cameron","Beautiful scenic drawing with perfect color coordination,43,280,20","pretty like a waterfall,22,20,20","Very cute amateur piece.,18,160,20","Looks like a serene waterfall and woods,29,320,20","I like the colors and see a stream in a wooded setting. Makes me feel calm and cheerful.,27,60,20","Mountain stream pineapple texture?,30,60,20","Cameron","Mountain stream pineapple texture?,30,60,20","Miguel","Very cute amateur piece.,18,160,20","Peter","Looks like a serene waterfall and woods,29,320,20","4"
"4970","","survey-text","225","1251419","0.0-223.0-0.0","A2IJGSO19TDI2T","","","","{""Q0"":""table""}","","","","","","","","","","","","","","","","","","","","","","",""
"18617","","survey-text","226","1270038","0.0-224.0-0.0","A2IJGSO19TDI2T","","","","{""Q0"":""Mad max! I feel the apocalypse approaching!""}","","","","","","","","","","","","","","","","","","","","","","",""
"2692.699999988079","","image-slider-response","227","1272732","0.0-225.0","A2IJGSO19TDI2T","","","","","16","","","","","","","","","","","","","","","","","","","","","",""
"null","","image-button-response","228","1277735","0.0-226.0","A2IJGSO19TDI2T","img_art/20.jpg","null","","","","","","","","","","","","","","","","","","","","","","","","",""
"2885","","image-button-response","229","1280622","0.0-227.0","A2IJGSO19TDI2T","img_art/20.jpg","2","","","","","","","","","","","","","","","","","","","","","","","","",""
"1695","","image-button-response","230","1282319","0.0-228.0-0.0","A2IJGSO19TDI2T","img_art/20.jpg","1","","","","","","","","","","","","","","","","","","","","","","","","",""
"963","","image-button-response","231","1283285","0.0-229.0-0.0","A2IJGSO19TDI2T","img_art/20.jpg","0","","","","","","","","","","","","","","","","","","","","","","","","",""
"null","","html-keyboard-response","232","1283788","0.0-230.0","A2IJGSO19TDI2T","<p style=""font-size: 48px;"">+</p>","","","","","null","allTrialResponses","500","1","26","img_art/20.jpg","16","Mad max! I feel the apocalypse approaching!","Samuel,Seth,Miguel,Peter,Bryan,Cameron","crash after traffic causing grief,-11,400,20","I'm not sure why this reminds me of surrealism. It might be the colors used.,16,60,20","It's ok. Very abstract.,18,160,20","Little picturesque town that I would like to visit,19,320,20","Reminds me of Georgia O'Keefe.,11,400,20","Dinosaur skill and some dark shadow above,-30,60,20","Miguel","It's ok. Very abstract.,18,160,20","Seth","I'm not sure why this reminds me of surrealism. It might be the colors used.,16,60,20","Samuel","crash after traffic causing grief,-11,400,20","4"
"21191","","survey-text","233","1304986","0.0-231.0-0.0","A2IJGSO19TDI2T","","","","{""Q0"":""First thought - a cashier scanning groceries by herself with no bagger.""}","","","","","","","","","","","","","","","","","","","","","","",""
"4241.5","","image-slider-response","234","1309230","0.0-232.0","A2IJGSO19TDI2T","","","","","19","","","","","","","","","","","","","","","","","","","","","",""
"4203","","image-button-response","235","1314233","0.0-233.0","A2IJGSO19TDI2T","img_art/19.jpg","4","","","","","","","","","","","","","","","","","","","","","","","","",""
"1281","","image-button-response","236","1315517","0.0-234.0","A2IJGSO19TDI2T","img_art/19.jpg","5","","","","","","","","","","","","","","","","","","","","","","","","",""
"1384","","image-button-response","237","1316903","0.0-235.0-0.0","A2IJGSO19TDI2T","img_art/19.jpg","2","","","","","","","","","","","","","","","","","","","","","","","","",""
"1932","","image-button-response","238","1318837","0.0-236.0-0.0","A2IJGSO19TDI2T","img_art/19.jpg","1","","","","","","","","","","","","","","","","","","","","","","","","",""
"null","","html-keyboard-response","239","1319340","0.0-237.0","A2IJGSO19TDI2T","<p style=""font-size: 48px;"">+</p>","","","","","null","allTrialResponses","500","1","27","img_art/19.jpg","19","First thought - a cashier scanning groceries by herself with no bagger.","Samuel,Seth,Miguel,Paul,Jonathan,Christian","city life energy,8,400,20","I wasn't sure if I liked it or hated it. It oddly reminds me of a clothing store.,11,60,20","Messy and kid like.,-36,160,20","The shapes make me recall a city scene but it looks dirty,-22,300,20","Feels like something I would hang in my dining room,42,140,20","interesting take on depth (reminds me of those 1000 piece puzzles),2,140,20","Christian","interesting take on depth (reminds me of those 1000 piece puzzles),2,140,20","Miguel","Messy and kid like.,-36,160,20","Seth","I wasn't sure if I liked it or hated it. It oddly reminds me of a clothing store.,11,60,20","4"
"20700","","survey-text","240","1340058","0.0-238.0-0.0","A2IJGSO19TDI2T","","","","{""Q0"":""My house - by little Timmy, age 5""}","","","","","","","","","","","","","","","","","","","","","","",""
"3296.099999964237","","image-slider-response","241","1343356","0.0-239.0","A2IJGSO19TDI2T","","","","","-45","","","","","","","","","","","","","","","","","","","","","",""
"2033","","image-button-response","242","1348369","0.0-240.0","A2IJGSO19TDI2T","img_art/14.jpg","0","","","","","","","","","","","","","","","","","","","","","","","","",""
"759","","image-button-response","243","1349133","0.0-241.0","A2IJGSO19TDI2T","img_art/14.jpg","0","","","","","","","","","","","","","","","","","","","","","","","","",""
"4285","","image-button-response","244","1353420","0.0-242.0-0.0","A2IJGSO19TDI2T","img_art/14.jpg","4","","","","","","","","","","","","","","","","","","","","","","","","",""
"2175","","image-button-response","245","1355597","0.0-243.0-0.0","A2IJGSO19TDI2T","img_art/14.jpg","2","","","","","","","","","","","","","","","","","","","","","","","","",""
"null","","html-keyboard-response","246","1356605","0.0-244.0","A2IJGSO19TDI2T","<p style=""font-size: 48px;"">+</p>","","","","","null","allTrialResponses","1000","1","28","img_art/14.jpg","-45","My house - by little Timmy, age 5","Blake,Seth,Miguel,Juan,Michael,Christian","fuzzy and confused. ok then well,16,280,20","This piece feels inviting. It's like opening up the pages of your favorite book for the first time.,26,60,20","It's too basic.,23,160,20","I don't like the colors, but I espeically don't like all the negative space.,-20,260,20","Looks like there is some skill but also at the same time parts look unskilled.,-16,140,20","medium recalls back to an oriental style,16,140,20","Blake","fuzzy and confused. ok then well,16,280,20","Michael","Looks like there is some skill but also at the same time parts look unskilled.,-16,140,20","Miguel","It's too basic.,23,160,20","4"
"11223","","survey-text","247","1367835","0.0-245.0-0.0","A2IJGSO19TDI2T","","","","{""Q0"":""Sad rabbit makes me sad""}","","","","","","","","","","","","","","","","","","","","","","",""
"3008.2999999523163","","image-slider-response","248","1370845","0.0-246.0","A2IJGSO19TDI2T","","","","","-45","","","","","","","","","","","","","","","","","","","","","",""
"null","","image-button-response","249","1375847","0.0-247.0","A2IJGSO19TDI2T","img_art/4.jpg","null","","","","","","","","","","","","","","","","","","","","","","","","",""
"763","","image-button-response","250","1376614","0.0-248.0","A2IJGSO19TDI2T","img_art/4.jpg","3","","","","","","","","","","","","","","","","","","","","","","","","",""
"3681","","image-button-response","251","1380298","0.0-249.0-0.0","A2IJGSO19TDI2T","img_art/4.jpg","1","","","","","","","","","","","","","","","","","","","","","","","","",""
"1359","","image-button-response","252","1381660","0.0-250.0-0.0","A2IJGSO19TDI2T","img_art/4.jpg","0","","","","","","","","","","","","","","","","","","","","","","","","",""
"null","","html-keyboard-response","253","1382163","0.0-251.0","A2IJGSO19TDI2T","<p style=""font-size: 48px;"">+</p>","","","","","null","allTrialResponses","500","1","29","img_art/4.jpg","-45","Sad rabbit makes me sad","Blake,Logan,Miguel,Caleb,Michael,Anthony","ugly puke yellow is cold and dark,-29,280,20","it looks like a preschooler just dragged his fingers around,-36,360,20","I don't like murky colors.,-40,160,20","Colors are horrendous, look like bodily fluids have been smeared.,-50,40,20","Looks like a child did it.,-42,140,20","Ugly and bland compared to the other pieces.,-33,200,20","Caleb","Colors are horrendous, look like bodily fluids have been smeared.,-50,40,20","Logan","it looks like a preschooler just dragged his fingers around,-36,360,20","Blake","ugly puke yellow is cold and dark,-29,280,20","4"
"26409","","survey-text","254","1408579","0.0-252.0-0.0","A2IJGSO19TDI2T","","","","{""Q0"":""Collage time, boys and girls! Get your favorite magazines out.""}","","","","","","","","","","","","","","","","","","","","","","",""
"3227.2000000476837","","image-slider-response","255","1411808","0.0-253.0","A2IJGSO19TDI2T","","","","","-49","","","","","","","","","","","","","","","","","","","","","",""
"4659","","image-button-response","256","1416817","0.0-254.0","A2IJGSO19TDI2T","img_art/16.jpg","3","","","","","","","","","","","","","","","","","","","","","","","","",""
"657","","image-button-response","257","1417477","0.0-255.0","A2IJGSO19TDI2T","img_art/16.jpg","3","","","","","","","","","","","","","","","","","","","","","","","","",""
"1041","","image-button-response","258","1418520","0.0-256.0-0.0","A2IJGSO19TDI2T","img_art/16.jpg","4","","","","","","","","","","","","","","","","","","","","","","","","",""
"4310","","image-button-response","259","1422832","0.0-257.0-0.0","A2IJGSO19TDI2T","img_art/16.jpg","1","","","","","","","","","","","","","","","","","","","","","","","","",""
"null","","html-keyboard-response","260","1423336","0.0-258.0","A2IJGSO19TDI2T","<p style=""font-size: 48px;"">+</p>","","","","","null","allTrialResponses","500","1","30","img_art/16.jpg","-49","Collage time, boys and girls! Get your favorite magazines out.","Blake,Logan,Brett,Caleb,Gabriel,Victor","cute and warm. i like the bear,15,280,20","what is this doing for anyone. If you connect with this you're literally lying to yourself. pretentious,-50,360,20","Mixed feelings. Warm and comfy yet somewhat violent. A stark contrast,0,360,20","A strange collage made by a child. Do not like the colored face of the bear.,-29,40,20","its disturbing! what the heck,-27,160,20","I don't know why, I just don't like it,-28,340,20","Caleb","A strange collage made by a child. Do not like the colored face of the bear.,-29,40,20","Gabriel","its disturbing! what the heck,-27,160,20","Logan","what is this doing for anyone. If you connect with this you're literally lying to yourself. pretentious,-50,360,20","4"
"2525","","image-button-response_instructions","261","1425868","0.0-259.0","A2IJGSO19TDI2T","","0","instructions","","","","","","","","","","","","","","","","","","","","","","","",""
"1221","","image-button-response","262","1427098","0.0-260.0","A2IJGSO19TDI2T","","0","","","","","","","","","","","","","","","","","","","","","","","","",""
