"rt","url","trial_type","trial_index","time_elapsed","internal_node_id","participant_id","stimulus","button_pressed","Name","responses","response","key_press","variableName","fixationTime","condition","trial","photo","subjectRating","subjectResponse","agentsNames","agent_1_Response","agent_2_Response","agent_3_Response","agent_4_Response","agent_5_Response","agent_6_Response","kept_1_name","kept_1_response","kept_2_name","kept_2_response","kept_3_name","kept_3_response","errorCounter"
"688212","external_page_harvard.html","external-html","0","688883","0.0-0.0","A2JM1IVEZCXX3U","","","","","","","","","","","","","","","","","","","","","","","","","","",""
"1270","","image-button-response","1","690155","0.0-1.0","A2JM1IVEZCXX3U","","0","","","","","","","","","","","","","","","","","","","","","","","","",""
"2384","","image-button-response","2","692545","0.0-2.0-0.0","A2JM1IVEZCXX3U","","1","phone","","","","","","","","","","","","","","","","","","","","","","","",""
"5936","","survey-text","3","698483","0.0-3.0-0.0","A2JM1IVEZCXX3U","","","","{""Q0"":""A2JM1IVEZCXX3U""}","","","","","","","","","","","","","","","","","","","","","","",""
"2437","","image-button-response_instructions","4","700921","0.0-4.0","A2JM1IVEZCXX3U","","0","instructions","","","","","","","","","","","","","","","","","","","","","","","",""
"53031","","image-button-response_instructions","5","753952","0.0-5.0","A2JM1IVEZCXX3U","img_art/ins/popularity/ins1.png","0","instructions","","","","","","","","","","","","","","","","","","","","","","","",""
"3309","","image-button-response_instructions","6","757262","0.0-6.0","A2JM1IVEZCXX3U","img_art/ins/popularity/ins2.png","0","instructions","","","","","","","","","","","","","","","","","","","","","","","",""
"5125","","image-button-response_instructions","7","762388","0.0-7.0","A2JM1IVEZCXX3U","img_art/ins/popularity/ins2Extreme.png","0","instructions","","","","","","","","","","","","","","","","","","","","","","","",""
"2254","","image-button-response_instructions","8","764644","0.0-8.0","A2JM1IVEZCXX3U","img_art/ins/popularity/ins3KEEPpop.PNG","0","instructions","","","","","","","","","","","","","","","","","","","","","","","",""
"3301","","image-button-response_instructions","9","767946","0.0-9.0","A2JM1IVEZCXX3U","img_art/ins/popularity/ins3ANamepop.PNG","0","instructions","","","","","","","","","","","","","","","","","","","","","","","",""
"1661","","image-button-response_instructions","10","769608","0.0-10.0","A2JM1IVEZCXX3U","img_art/ins/popularity/ins3ARatingpop.png","0","instructions","","","","","","","","","","","","","","","","","","","","","","","",""
"1371","","image-button-response_instructions","11","770980","0.0-11.0","A2JM1IVEZCXX3U","img_art/ins/popularity/ins3ATextpop.png","0","instructions","","","","","","","","","","","","","","","","","","","","","","","",""
"2965","","image-button-response_instructions","12","773946","0.0-12.0","A2JM1IVEZCXX3U","img_art/ins/popularity/ins3ALikespop.png","0","instructions","","","","","","","","","","","","","","","","","","","","","","","",""
"9333","","image-button-response_instructions","13","783280","0.0-13.0","A2JM1IVEZCXX3U","img_art/ins/popularity/ins3KEEPpop.PNG","0","instructions","","","","","","","","","","","","","","","","","","","","","","","",""
"4775","","image-button-response_instructions","14","788056","0.0-14.0","A2JM1IVEZCXX3U","img_art/ins/popularity/ins3_5RED.png","0","instructions","","","","","","","","","","","","","","","","","","","","","","","",""
"3987","","image-button-response_instructions","15","792045","0.0-15.0","A2JM1IVEZCXX3U","img_art/ins/popularity/ins3KEEPpop.PNG","0","instructions","","","","","","","","","","","","","","","","","","","","","","","",""
"250319","","image-button-response_instructions","16","1042366","0.0-16.0","A2JM1IVEZCXX3U","img_art/ins/popularity/ins4KEEPpop.PNG","0","instructions","","","","","","","","","","","","","","","","","","","","","","","",""
"1749","","image-button-response_instructions","17","1044116","0.0-17.0","A2JM1IVEZCXX3U","img_art/ins/popularity/ins5KEEPpop.PNG","0","instructions","","","","","","","","","","","","","","","","","","","","","","","",""
"1012","","image-button-response_instructions","18","1045128","0.0-18.0","A2JM1IVEZCXX3U","","0","instructions","","","","","","","","","","","","","","","","","","","","","","","",""
"3661","","survey-text","19","1048813","0.0-19.0-0.0","A2JM1IVEZCXX3U","","","","{""Q0"":""but""}","","","","","","","","","","","","","","","","","","","","","","",""
"6250","","survey-text","20","1055065","0.0-20.0-0.0","A2JM1IVEZCXX3U","","","","{""Q0"":""looks like diarrhea""}","","","","","","","","","","","","","","","","","","","","","","",""
"3696","","image-slider-response","21","1058766","0.0-21.0","A2JM1IVEZCXX3U","","","","","-49","","","","","","","","","","","","","","","","","","","","","",""
"2387","","image-button-response","22","1063770","0.0-22.0","A2JM1IVEZCXX3U","img_art/ins/1.jpg","0","","","","","","","","","","","","","","","","","","","","","","","","",""
"2689","","image-button-response","23","1066461","0.0-23.0","A2JM1IVEZCXX3U","img_art/ins/1.jpg","4","","","","","","","","","","","","","","","","","","","","","","","","",""
"1334","","image-button-response","24","1067796","0.0-24.0-0.0","A2JM1IVEZCXX3U","img_art/ins/1.jpg","0","","","","","","","","","","","","","","","","","","","","","","","","",""
"1956","","image-button-response","25","1069755","0.0-25.0-0.0","A2JM1IVEZCXX3U","img_art/ins/1.jpg","2","","","","","","","","","","","","","","","","","","","","","","","","",""
"null","","html-keyboard-response","26","1070758","0.0-26.0","A2JM1IVEZCXX3U","<p style=""font-size: 48px;"">+</p>","","","","","null","allTrialResponses","1000","1","-2","img_art/ins/1.jpg","-49","looks like diarrhea","Adam,Alex,Ben,Carl,Daniel,Jack","Seems like doodles,-20,20,20","very creative work.,36,40,20","This color reminds me of poo,-46,60,20","very calming artwork,42,80,20","It looks like a murder scene.,-48,100,20","I like the sophisticated brushwork,40,120,20","Daniel","It looks like a murder scene.,-48,100,20","Adam","Seems like doodles,-20,20,20","Ben","This color reminds me of poo,-46,60,20","0"
"4195","","survey-text","27","1074960","0.0-27.0-0.0","A2JM1IVEZCXX3U","","","","{""Q0"":""murder scene""}","","","","","","","","","","","","","","","","","","","","","","",""
"3308.7000000476837","","image-slider-response","28","1078270","0.0-28.0","A2JM1IVEZCXX3U","","","","","-38","","","","","","","","","","","","","","","","","","","","","",""
"4048","","image-button-response","29","1083273","0.0-29.0","A2JM1IVEZCXX3U","img_art/ins/2.jpg","2","","","","","","","","","","","","","","","","","","","","","","","","",""
"731","","image-button-response","30","1084007","0.0-30.0","A2JM1IVEZCXX3U","img_art/ins/2.jpg","4","","","","","","","","","","","","","","","","","","","","","","","","",""
"1847","","image-button-response","31","1085854","0.0-31.0-0.0","A2JM1IVEZCXX3U","img_art/ins/2.jpg","2","","","","","","","","","","","","","","","","","","","","","","","","",""
"1122","","image-button-response","32","1086978","0.0-32.0-0.0","A2JM1IVEZCXX3U","img_art/ins/2.jpg","0","","","","","","","","","","","","","","","","","","","","","","","","",""
"null","","html-keyboard-response","33","1087482","0.0-33.0","A2JM1IVEZCXX3U","<p style=""font-size: 48px;"">+</p>","","","","","null","allTrialResponses","500","1","-1","img_art/ins/2.jpg","-38","murder scene","Adam,John,Ben,James,Daniel,Kyle","too much color,-18,20,20","love the texture of paint,48,160,20","meaningless painting,-45,60,20","looks too angry,-50,140,20","One of my pet peevs,-48,100,20","Idk, it is just annoying,-32,180,20","Daniel","One of my pet peevs,-48,100,20","Ben","meaningless painting,-45,60,20","Adam","too much color,-18,20,20","0"
"5994","","survey-text","34","1093486","0.0-34.0-0.0","A2JM1IVEZCXX3U","","","","{""Q0"":""looks like a mess""}","","","","","","","","","","","","","","","","","","","","","","",""
"3536.9000000953674","","image-slider-response","35","1097026","0.0-35.0","A2JM1IVEZCXX3U","","","","","-9","","","","","","","","","","","","","","","","","","","","","",""
"3269","","image-button-response","36","1102029","0.0-36.0","A2JM1IVEZCXX3U","img_art/ins/3.jpg","2","","","","","","","","","","","","","","","","","","","","","","","","",""
"1230","","image-button-response","37","1103262","0.0-37.0","A2JM1IVEZCXX3U","img_art/ins/3.jpg","3","","","","","","","","","","","","","","","","","","","","","","","","",""
"1598","","image-button-response","38","1104862","0.0-38.0-0.0","A2JM1IVEZCXX3U","img_art/ins/3.jpg","4","","","","","","","","","","","","","","","","","","","","","","","","",""
"1523","","image-button-response","39","1106386","0.0-39.0-0.0","A2JM1IVEZCXX3U","img_art/ins/3.jpg","2","","","","","","","","","","","","","","","","","","","","","","","","",""
"null","","html-keyboard-response","40","1106889","0.0-40.0","A2JM1IVEZCXX3U","<p style=""font-size: 48px;"">+</p>","","","","","null","allTrialResponses","500","1","0","img_art/ins/3.jpg","-9","looks like a mess","Adam,Ron,Ben,Mike,Daniel,Sam","My daily routine, it's depressing,-20,20,20","It looks depressing,-26,220,20","This thing gives me anxiety,-41,60,20","enjoy the different shades of blue,22,200,20","looks like a murder room,-35,100,20","I can feel a rainy day from this painting,18,240,20","Mike","enjoy the different shades of blue,22,200,20","Daniel","looks like a murder room,-35,100,20","Ben","This thing gives me anxiety,-41,60,20","0"
"120582","","image-button-response_instructions","41","1227474","0.0-41.0","A2JM1IVEZCXX3U","","0","instructions","","","","","","","","","","","","","","","","","","","","","","","",""
"6979","","survey-likert","42","1234454","0.0-42.0-0.0","A2JM1IVEZCXX3U","","","","{""Q0"":"""",""Q1"":0,""Q2"":1}","","","","","","","","","","","","","","","","","","","","","","",""
"2449","","survey-text","43","1236910","0.0-43.0-0.0","A2JM1IVEZCXX3U","","","","{""Q0"":""rock""}","","","","","","","","","","","","","","","","","","","","","","",""
"5679","","survey-text","44","1242590","0.0-44.0-0.0","A2JM1IVEZCXX3U","","","","{""Q0"":""positively vomitous""}","","","","","","","","","","","","","","","","","","","","","","",""
"2725.399999976158","","image-slider-response","45","1245318","0.0-45.0","A2JM1IVEZCXX3U","","","","","-50","","","","","","","","","","","","","","","","","","","","","",""
"3626","","image-button-response","46","1250343","0.0-46.0","A2JM1IVEZCXX3U","img_art/2.jpg","1","","","","","","","","","","","","","","","","","","","","","","","","",""
"2043","","image-button-response","47","1252390","0.0-47.0","A2JM1IVEZCXX3U","img_art/2.jpg","1","","","","","","","","","","","","","","","","","","","","","","","","",""
"2461","","image-button-response","48","1254852","0.0-48.0-0.0","A2JM1IVEZCXX3U","img_art/2.jpg","4","","","","","","","","","","","","","","","","","","","","","","","","",""
"2550","","image-button-response","49","1257404","0.0-49.0-0.0","A2JM1IVEZCXX3U","img_art/2.jpg","2","","","","","","","","","","","","","","","","","","","","","","","","",""
"null","","html-keyboard-response","50","1258906","0.0-50.0","A2JM1IVEZCXX3U","<p style=""font-size: 48px;"">+</p>","","","","","null","allTrialResponses","1500","1","1","img_art/2.jpg","-50","positively vomitous","Mitchell,Grant,Jordan,Garrett,Bradley,Seth","Dependence. Things relying on each other. Caring,-4,180,20","The colors are entirely unappealing and very unpleasant to look at.,-20,200,20","Reminds me of my baby brother,11,160,20","I like this picture a little because the colors make it look a little vibrant.,10,180,20","I'm not fond of the colors in this one.,-33,300,20","I think I see people sitting in lawn chairs in a circle watching an event. Not really sure so I rated it lower.,-35,60,20","Grant","The colors are entirely unappealing and very unpleasant to look at.,-20,200,20","Bradley","I'm not fond of the colors in this one.,-33,300,20","Jordan","Reminds me of my baby brother,11,160,20","0"
"8635","","survey-text","51","1267548","0.0-51.0-0.0","A2JM1IVEZCXX3U","","","","{""Q0"":""its a bit chunky looking""}","","","","","","","","","","","","","","","","","","","","","","",""
"2828.600000023842","","image-slider-response","52","1270380","0.0-52.0","A2JM1IVEZCXX3U","","","","","-5","","","","","","","","","","","","","","","","","","","","","",""
"4251","","image-button-response","53","1275383","0.0-53.0","A2JM1IVEZCXX3U","img_art/24.jpg","0","","","","","","","","","","","","","","","","","","","","","","","","",""
"835","","image-button-response","54","1276220","0.0-54.0","A2JM1IVEZCXX3U","img_art/24.jpg","0","","","","","","","","","","","","","","","","","","","","","","","","",""
"2879","","image-button-response","55","1279100","0.0-55.0-0.0","A2JM1IVEZCXX3U","img_art/24.jpg","1","","","","","","","","","","","","","","","","","","","","","","","","",""
"1059","","image-button-response","56","1280160","0.0-56.0-0.0","A2JM1IVEZCXX3U","img_art/24.jpg","4","","","","","","","","","","","","","","","","","","","","","","","","",""
"null","","html-keyboard-response","57","1281662","0.0-57.0","A2JM1IVEZCXX3U","<p style=""font-size: 48px;"">+</p>","","","","","null","allTrialResponses","1500","1","2","img_art/24.jpg","-5","its a bit chunky looking","Cameron,Grant,Jordan,Jorge,Bradley,Jeremy","Mountain stream pineapple texture?,30,60,20","The colors look nice, but the painting bores me.,-20,200,20","Beautiful waterfall I like waterfalls,39,160,20","Interested in visiting this place,18,180,20","Hmm. Don't know what to make of this one.,1,300,20","somewhat happy. I like the colors,38,60,20","Cameron","Mountain stream pineapple texture?,30,60,20","Grant","The colors look nice, but the painting bores me.,-20,200,20","Bradley","Hmm. Don't know what to make of this one.,1,300,20","0"
"55824","","survey-text","58","1337494","0.0-58.0-0.0","A2JM1IVEZCXX3U","","","","{""Q0"":""actually interesting""}","","","","","","","","","","","","","","","","","","","","","","",""
"2499.100000023842","","image-slider-response","59","1339996","0.0-59.0","A2JM1IVEZCXX3U","","","","","14","","","","","","","","","","","","","","","","","","","","","",""
"1859","","image-button-response","60","1344998","0.0-60.0","A2JM1IVEZCXX3U","img_art/27.jpg","1","","","","","","","","","","","","","","","","","","","","","","","","",""
"1376","","image-button-response","61","1346376","0.0-61.0","A2JM1IVEZCXX3U","img_art/27.jpg","4","","","","","","","","","","","","","","","","","","","","","","","","",""
"2685","","image-button-response","62","1349063","0.0-62.0-0.0","A2JM1IVEZCXX3U","img_art/27.jpg","5","","","","","","","","","","","","","","","","","","","","","","","","",""
"1460","","image-button-response","63","1350524","0.0-63.0-0.0","A2JM1IVEZCXX3U","img_art/27.jpg","1","","","","","","","","","","","","","","","","","","","","","","","","",""
"null","","html-keyboard-response","64","1351526","0.0-64.0","A2JM1IVEZCXX3U","<p style=""font-size: 48px;"">+</p>","","","","","null","allTrialResponses","1000","1","3","img_art/27.jpg","14","actually interesting","Cameron,Grant,Gregory,Ethan,Bradley,Cody","Like it, autumn colors, trees and foliage scene.,25,60,20","This feels like I'm looking at a child's scribbles.,-27,200,20","Don't like the mix of green with the warmer colors,-15,220,20","I like the layer upon layer of different mediums used here.,21,120,20","Yikes. I think I made this in kindergarten.,-20,300,20","Not sure how I feel about this. Messy, even for art. But good colors.,0,180,20","Bradley","Yikes. I think I made this in kindergarten.,-20,300,20","Cody","Not sure how I feel about this. Messy, even for art. But good colors.,0,180,20","Grant","This feels like I'm looking at a child's scribbles.,-27,200,20","0"
"5636","","survey-text","65","1357168","0.0-65.0-0.0","A2JM1IVEZCXX3U","","","","{""Q0"":""serial killer says what?""}","","","","","","","","","","","","","","","","","","","","","","",""
"3969.3000000715256","","image-slider-response","66","1361140","0.0-66.0","A2JM1IVEZCXX3U","","","","","-50","","","","","","","","","","","","","","","","","","","","","",""
"3732","","image-button-response","67","1366144","0.0-67.0","A2JM1IVEZCXX3U","img_art/16.jpg","2","","","","","","","","","","","","","","","","","","","","","","","","",""
"2141","","image-button-response","68","1368289","0.0-68.0","A2JM1IVEZCXX3U","img_art/16.jpg","4","","","","","","","","","","","","","","","","","","","","","","","","",""
"931","","image-button-response","69","1369222","0.0-69.0-0.0","A2JM1IVEZCXX3U","img_art/16.jpg","2","","","","","","","","","","","","","","","","","","","","","","","","",""
"1552","","image-button-response","70","1370777","0.0-70.0-0.0","A2JM1IVEZCXX3U","img_art/16.jpg","5","","","","","","","","","","","","","","","","","","","","","","","","",""
"null","","html-keyboard-response","71","1371778","0.0-71.0","A2JM1IVEZCXX3U","<p style=""font-size: 48px;"">+</p>","","","","","null","allTrialResponses","1000","1","4","img_art/16.jpg","-50","serial killer says what?","Colton,Grant,Justin,Dakota,Bradley,Cody","the materials used are interesting,30,220,20","This is making me feel nervous in an enjoyable way.,20,200,20","Kind of dull, colors and drawings are not really interesting.,0,280,20","depressing and confrontational,-9,280,20","This feels like there's some kind of pedofile thing going on here.,-50,300,20","Kind of creepyyyyyy,-41,180,20","Bradley","This feels like there's some kind of pedofile thing going on here.,-50,300,20","Justin","Kind of dull, colors and drawings are not really interesting.,0,280,20","Cody","Kind of creepyyyyyy,-41,180,20","0"
"19402","","survey-text","72","1391190","0.0-72.0-0.0","A2JM1IVEZCXX3U","","","","{""Q0"":""looks like jizz stains""}","","","","","","","","","","","","","","","","","","","","","","",""
"5406.900000095367","","image-slider-response","73","1396600","0.0-73.0","A2JM1IVEZCXX3U","","","","","-50","","","","","","","","","","","","","","","","","","","","","",""
"null","","image-button-response","74","1401602","0.0-74.0","A2JM1IVEZCXX3U","img_art/23.jpg","null","","","","","","","","","","","","","","","","","","","","","","","","",""
"2216","","image-button-response","75","1403820","0.0-75.0","A2JM1IVEZCXX3U","img_art/23.jpg","2","","","","","","","","","","","","","","","","","","","","","","","","",""
"1538","","image-button-response","76","1405362","0.0-76.0-0.0","A2JM1IVEZCXX3U","img_art/23.jpg","1","","","","","","","","","","","","","","","","","","","","","","","","",""
"1922","","image-button-response","77","1407286","0.0-77.0-0.0","A2JM1IVEZCXX3U","img_art/23.jpg","4","","","","","","","","","","","","","","","","","","","","","","","","",""
"null","","html-keyboard-response","78","1408788","0.0-78.0","A2JM1IVEZCXX3U","<p style=""font-size: 48px;"">+</p>","","","","","null","allTrialResponses","1500","1","5","img_art/23.jpg","-50","looks like jizz stains","Bryce,Stephen,Justin,Luke,Bradley,Cody","So beautiful with the white accents.,50,20,20","Solid colors but the white throws it off for me.,4,140,20","The white paint through the middle really draws the eye.,30,280,20","makes me happy and want to dance,43,20,20","I like the contrast and the bright colors in this one.,6,300,20","Love the use of colors and light,50,180,20","Justin","The white paint through the middle really draws the eye.,30,280,20","Stephen","Solid colors but the white throws it off for me.,4,140,20","Bradley","I like the contrast and the bright colors in this one.,6,300,20","0"
"2797","","survey-text","79","1411611","0.0-79.0-0.0","A2JM1IVEZCXX3U","","","","{""Q0"":""sky""}","","","","","","","","","","","","","","","","","","","","","","",""
"7035","","survey-text","80","1418648","0.0-80.0-0.0","A2JM1IVEZCXX3U","","","","{""Q0"":""very interesting shapes""}","","","","","","","","","","","","","","","","","","","","","","",""
"3113.899999976158","","image-slider-response","81","1421766","0.0-81.0","A2JM1IVEZCXX3U","","","","","10","","","","","","","","","","","","","","","","","","","","","",""
"1990","","image-button-response","82","1426769","0.0-82.0","A2JM1IVEZCXX3U","img_art/11.jpg","0","","","","","","","","","","","","","","","","","","","","","","","","",""
"3795","","image-button-response","83","1430568","0.0-83.0","A2JM1IVEZCXX3U","img_art/11.jpg","0","","","","","","","","","","","","","","","","","","","","","","","","",""
"920","","image-button-response","84","1431490","0.0-84.0-0.0","A2JM1IVEZCXX3U","img_art/11.jpg","5","","","","","","","","","","","","","","","","","","","","","","","","",""
"1242","","image-button-response","85","1432734","0.0-85.0-0.0","A2JM1IVEZCXX3U","img_art/11.jpg","2","","","","","","","","","","","","","","","","","","","","","","","","",""
"null","","html-keyboard-response","86","1433735","0.0-86.0","A2JM1IVEZCXX3U","<p style=""font-size: 48px;"">+</p>","","","","","null","allTrialResponses","1000","1","6","img_art/11.jpg","10","very interesting shapes","Adam,Stephen,Justin,Peter,Bradley,Dustin","Kind of reminds me of DNA.,9,40,20","Very good use of colors,44,140,20","It reminds me of telephone wires.,1,280,20","Smoggy, oily, industrial. Don't like,1,320,20","WOW!  I love how the ships and the seas become one in this piece.,50,300,20","Dark and dreary. Makes me think of rain/water. I see grey clouds and high waves. Looks unsettling.,-20,20,20","Adam","Kind of reminds me of DNA.,9,40,20","Dustin","Dark and dreary. Makes me think of rain/water. I see grey clouds and high waves. Looks unsettling.,-20,20,20","Justin","It reminds me of telephone wires.,1,280,20","0"
"10815","","survey-text","87","1444559","0.0-87.0-0.0","A2JM1IVEZCXX3U","","","","{""Q0"":""it looks unfinished""}","","","","","","","","","","","","","","","","","","","","","","",""
"27735.600000023842","","image-slider-response","88","1472297","0.0-88.0","A2JM1IVEZCXX3U","","","","","-21","","","","","","","","","","","","","","","","","","","","","",""
"4056","","image-button-response","89","1477300","0.0-89.0","A2JM1IVEZCXX3U","img_art/15.jpg","2","","","","","","","","","","","","","","","","","","","","","","","","",""
"810","","image-button-response","90","1478114","0.0-90.0","A2JM1IVEZCXX3U","img_art/15.jpg","3","","","","","","","","","","","","","","","","","","","","","","","","",""
"1960","","image-button-response","91","1480076","0.0-91.0-0.0","A2JM1IVEZCXX3U","img_art/15.jpg","5","","","","","","","","","","","","","","","","","","","","","","","","",""
"2287","","image-button-response","92","1482366","0.0-92.0-0.0","A2JM1IVEZCXX3U","img_art/15.jpg","2","","","","","","","","","","","","","","","","","","","","","","","","",""
"null","","html-keyboard-response","93","1483368","0.0-93.0","A2JM1IVEZCXX3U","<p style=""font-size: 48px;"">+</p>","","","","","null","allTrialResponses","1000","1","7","img_art/15.jpg","-21","it looks unfinished","Adam,Timothy,Justin,Kevin,Charles,Dustin","Eyes hunt for the blue in the black.,5,40,20","This painting gives a calm vibe but no stronger emotions than that,10,240,20","Color scheme and design are rather boring.,-10,280,20","Weird fuzzball bush.,22,320,20","it looks like lavender,10,100,20","Too much black. I see weeds or dead/dying flowers.,-40,20,20","Kevin","Weird fuzzball bush.,22,320,20","Dustin","Too much black. I see weeds or dead/dying flowers.,-40,20,20","Justin","Color scheme and design are rather boring.,-10,280,20","0"
"5110","","survey-text","94","1488482","0.0-94.0-0.0","A2JM1IVEZCXX3U","","","","{""Q0"":""dali-esque almost""}","","","","","","","","","","","","","","","","","","","","","","",""
"3584.100000023842","","image-slider-response","95","1492067","0.0-95.0","A2JM1IVEZCXX3U","","","","","24","","","","","","","","","","","","","","","","","","","","","",""
"4678","","image-button-response","96","1497070","0.0-96.0","A2JM1IVEZCXX3U","img_art/19.jpg","4","","","","","","","","","","","","","","","","","","","","","","","","",""
"1869","","image-button-response","97","1498942","0.0-97.0","A2JM1IVEZCXX3U","img_art/19.jpg","4","","","","","","","","","","","","","","","","","","","","","","","","",""
"2837","","image-button-response","98","1501780","0.0-98.0-0.0","A2JM1IVEZCXX3U","img_art/19.jpg","3","","","","","","","","","","","","","","","","","","","","","","","","",""
"1206","","image-button-response","99","1502988","0.0-99.0-0.0","A2JM1IVEZCXX3U","img_art/19.jpg","0","","","","","","","","","","","","","","","","","","","","","","","","",""
"null","","html-keyboard-response","100","1503990","0.0-100.0","A2JM1IVEZCXX3U","<p style=""font-size: 48px;"">+</p>","","","","","null","allTrialResponses","1000","1","8","img_art/19.jpg","24","dali-esque almost","Devon,Jacob,Justin,Kevin,Malik,Dustin","this looks like a busy city lifestyle,24,400,20","Vibrant and colorful,13,340,20","It looks too much of a rough sketch. Don't really enjoy looking at it.,-9,280,20","Thats a lazy town,-8,320,20","Very dreamlike,26,40,20","Too busy, makes me anxious and frustrated. Lots of movement in the brush strokes.,-9,20,20","Malik","Very dreamlike,26,40,20","Kevin","Thats a lazy town,-8,320,20","Devon","this looks like a busy city lifestyle,24,400,20","0"
"6104","","survey-text","101","1510103","0.0-101.0-0.0","A2JM1IVEZCXX3U","","","","{""Q0"":""looks like leftovers ""}","","","","","","","","","","","","","","","","","","","","","","",""
"2401.5","","image-slider-response","102","1512507","0.0-102.0","A2JM1IVEZCXX3U","","","","","-18","","","","","","","","","","","","","","","","","","","","","",""
"3762","","image-button-response","103","1517511","0.0-103.0","A2JM1IVEZCXX3U","img_art/1.jpg","2","","","","","","","","","","","","","","","","","","","","","","","","",""
"626","","image-button-response","104","1518139","0.0-104.0","A2JM1IVEZCXX3U","img_art/1.jpg","2","","","","","","","","","","","","","","","","","","","","","","","","",""
"1713","","image-button-response","105","1519854","0.0-105.0-0.0","A2JM1IVEZCXX3U","img_art/1.jpg","4","","","","","","","","","","","","","","","","","","","","","","","","",""
"1380","","image-button-response","106","1521236","0.0-106.0-0.0","A2JM1IVEZCXX3U","img_art/1.jpg","3","","","","","","","","","","","","","","","","","","","","","","","","",""
"null","","html-keyboard-response","107","1521737","0.0-107.0","A2JM1IVEZCXX3U","<p style=""font-size: 48px;"">+</p>","","","","","null","allTrialResponses","500","1","9","img_art/1.jpg","-18","looks like leftovers ","Devon,Joseph,Tristan,Kevin,Malik,Hunter","I see happiness from different aspects of life,31,400,20","Happy! Reminds me of hiking in tennesee.,18,220,20","Unpleasing palette. I see a figure but it seems incongrous to the highly abstract background.,-20,300,20","I cant make anything of this one.,-7,320,20","Vague and directionless,-14,40,20","muddy and uninteresting,-16,240,20","Tristan","Unpleasing palette. I see a figure but it seems incongrous to the highly abstract background.,-20,300,20","Malik","Vague and directionless,-14,40,20","Kevin","I cant make anything of this one.,-7,320,20","0"
"6267","","survey-text","108","1528012","0.0-108.0-0.0","A2JM1IVEZCXX3U","","","","{""Q0"":""looks like a photo of the surface of mars""}","","","","","","","","","","","","","","","","","","","","","","",""
"2843.399999976158","","image-slider-response","109","1530858","0.0-109.0","A2JM1IVEZCXX3U","","","","","-27","","","","","","","","","","","","","","","","","","","","","",""
"3326","","image-button-response","110","1535860","0.0-110.0","A2JM1IVEZCXX3U","img_art/7.jpg","1","","","","","","","","","","","","","","","","","","","","","","","","",""
"6538","","image-button-response","111","1542400","0.0-111.0","A2JM1IVEZCXX3U","img_art/7.jpg","1","","","","","","","","","","","","","","","","","","","","","","","","",""
"726","","image-button-response","112","1543128","0.0-112.0-0.0","A2JM1IVEZCXX3U","img_art/7.jpg","2","","","","","","","","","","","","","","","","","","","","","","","","",""
"1866","","image-button-response","113","1544996","0.0-113.0-0.0","A2JM1IVEZCXX3U","img_art/7.jpg","3","","","","","","","","","","","","","","","","","","","","","","","","",""
"null","","html-keyboard-response","114","1546498","0.0-114.0","A2JM1IVEZCXX3U","<p style=""font-size: 48px;"">+</p>","","","","","null","allTrialResponses","1500","1","10","img_art/7.jpg","-27","looks like a photo of the surface of mars","Vincent,Paul,Tristan,Kevin,Malik,Nathan","One I would love to own . Calm relaxing spiritual and full of love,41,360,20","It looks like bloody scabs on skin, I don't like it,-42,300,20","Limited emotional reaction for me. No focus and highly abstract,-20,300,20","That a desert floor,16,320,20","Detail oriented, like cracked paint wall,15,40,20","I don't like this kind of color scheme or look they went for,-50,200,20","Paul","It looks like bloody scabs on skin, I don't like it,-42,300,20","Tristan","Limited emotional reaction for me. No focus and highly abstract,-20,300,20","Kevin","That a desert floor,16,320,20","0"
"7112","","survey-text","115","1553624","0.0-115.0-0.0","A2JM1IVEZCXX3U","","","","{""Q0"":""our""}","","","","","","","","","","","","","","","","","","","","","","",""
"6331","","survey-text","116","1559958","0.0-116.0-0.0","A2JM1IVEZCXX3U","","","","{""Q0"":""well thats absolutely hideous""}","","","","","","","","","","","","","","","","","","","","","","",""
"3302.7000000476837","","image-slider-response","117","1563264","0.0-117.0","A2JM1IVEZCXX3U","","","","","-49","","","","","","","","","","","","","","","","","","","","","",""
"1626","","image-button-response","118","1568266","0.0-118.0","A2JM1IVEZCXX3U","img_art/29.jpg","1","","","","","","","","","","","","","","","","","","","","","","","","",""
"1266","","image-button-response","119","1569536","0.0-119.0","A2JM1IVEZCXX3U","img_art/29.jpg","1","","","","","","","","","","","","","","","","","","","","","","","","",""
"2114","","image-button-response","120","1571652","0.0-120.0-0.0","A2JM1IVEZCXX3U","img_art/29.jpg","5","","","","","","","","","","","","","","","","","","","","","","","","",""
"4342","","image-button-response","121","1575996","0.0-121.0-0.0","A2JM1IVEZCXX3U","img_art/29.jpg","4","","","","","","","","","","","","","","","","","","","","","","","","",""
"null","","html-keyboard-response","122","1576498","0.0-122.0","A2JM1IVEZCXX3U","<p style=""font-size: 48px;"">+</p>","","","","","null","allTrialResponses","500","1","11","img_art/29.jpg","-49","well thats absolutely hideous","Alex,Paul,Tristan,Kevin,Travis,Jared","The texture really stands out, this is an interesting composition,6,100,20","There's too much black and it looks sloppy,-35,300,20","The textures bring this painting alive. A window to another existence with infinite possibility.,25,300,20","Thats a pretty wierd picture.,6,320,20","Neural...just a blackboard jungle.,3,260,20","not digging the paintbrush,1,400,20","Paul","There's too much black and it looks sloppy,-35,300,20","Jared","not digging the paintbrush,1,400,20","Travis","Neural...just a blackboard jungle.,3,260,20","0"
"5071","","survey-text","123","1581574","0.0-123.0-0.0","A2JM1IVEZCXX3U","","","","{""Q0"":""very cool dali vibes""}","","","","","","","","","","","","","","","","","","","","","","",""
"3045.2000000476837","","image-slider-response","124","1584622","0.0-124.0","A2JM1IVEZCXX3U","","","","","22","","","","","","","","","","","","","","","","","","","","","",""
"null","","image-button-response","125","1589625","0.0-125.0","A2JM1IVEZCXX3U","img_art/20.jpg","null","","","","","","","","","","","","","","","","","","","","","","","","",""
"4987","","image-button-response","126","1594613","0.0-126.0","A2JM1IVEZCXX3U","img_art/20.jpg","2","","","","","","","","","","","","","","","","","","","","","","","","",""
"2388","","image-button-response","127","1597003","0.0-127.0-0.0","A2JM1IVEZCXX3U","img_art/20.jpg","3","","","","","","","","","","","","","","","","","","","","","","","","",""
"576","","image-button-response","128","1597581","0.0-128.0-0.0","A2JM1IVEZCXX3U","img_art/20.jpg","4","","","","","","","","","","","","","","","","","","","","","","","","",""
"null","","html-keyboard-response","129","1598083","0.0-129.0","A2JM1IVEZCXX3U","<p style=""font-size: 48px;"">+</p>","","","","","null","allTrialResponses","500","1","12","img_art/20.jpg","22","very cool dali vibes","Brian,Paul,Jesse,Zachary,Travis,Jared","The colors are nice, and the shapes conjure the decay of the city in the face of natural entropy,19,380,20","It looks like a junkyard and isn't appealing,-22,300,20","I do at least like the dark colors blending,6,80,20","While interesting in technique.. It looks like a blurry car wreck. Does not evoke great emotions.,-20,400,20","I liked this...I liked the blue and the black and I liked the smoothness to it.,31,260,20","i like the rounded edges,18,400,20","Jesse","I do at least like the dark colors blending,6,80,20","Zachary","While interesting in technique.. It looks like a blurry car wreck. Does not evoke great emotions.,-20,400,20","Travis","I liked this...I liked the blue and the black and I liked the smoothness to it.,31,260,20","0"
"23071","","survey-text","130","1621163","0.0-130.0-0.0","A2JM1IVEZCXX3U","","","","{""Q0"":""spray paint leftovers""}","","","","","","","","","","","","","","","","","","","","","","",""
"2972.8000000715256","","image-slider-response","131","1624139","0.0-131.0","A2JM1IVEZCXX3U","","","","","-33","","","","","","","","","","","","","","","","","","","","","",""
"1351","","image-button-response","132","1629141","0.0-132.0","A2JM1IVEZCXX3U","img_art/22.jpg","0","","","","","","","","","","","","","","","","","","","","","","","","",""
"2523","","image-button-response","133","1631668","0.0-133.0","A2JM1IVEZCXX3U","img_art/22.jpg","0","","","","","","","","","","","","","","","","","","","","","","","","",""
"660","","image-button-response","134","1632329","0.0-134.0-0.0","A2JM1IVEZCXX3U","img_art/22.jpg","1","","","","","","","","","","","","","","","","","","","","","","","","",""
"1912","","image-button-response","135","1634244","0.0-135.0-0.0","A2JM1IVEZCXX3U","img_art/22.jpg","4","","","","","","","","","","","","","","","","","","","","","","","","",""
"null","","html-keyboard-response","136","1634746","0.0-136.0","A2JM1IVEZCXX3U","<p style=""font-size: 48px;"">+</p>","","","","","null","allTrialResponses","500","1","13","img_art/22.jpg","-33","spray paint leftovers","Robert,Christopher,Jesse,Zachary,Travis,Mason","I don't get much of a reaction.,11,360,20","boring, too many red and yellow tones for my taste,-15,160,20","I usually dont like blurry pieces but the colors are amazing in this,14,80,20","I like the vivid colors.,11,400,20","Don't like it...too much red,-17,260,20","Could be interpreted so many ways, bold. I like it.,29,100,20","Robert","I don't get much of a reaction.,11,360,20","Christopher","boring, too many red and yellow tones for my taste,-15,160,20","Travis","Don't like it...too much red,-17,260,20","0"
"7766","","survey-text","137","1642522","0.0-137.0-0.0","A2JM1IVEZCXX3U","","","","{""Q0"":""juvenile and ugly""}","","","","","","","","","","","","","","","","","","","","","","",""
"6444.400000095367","","image-slider-response","138","1648969","0.0-138.0","A2JM1IVEZCXX3U","","","","","-50","","","","","","","","","","","","","","","","","","","","","",""
"2127","","image-button-response","139","1653972","0.0-139.0","A2JM1IVEZCXX3U","img_art/30.jpg","0","","","","","","","","","","","","","","","","","","","","","","","","",""
"2017","","image-button-response","140","1655992","0.0-140.0","A2JM1IVEZCXX3U","img_art/30.jpg","4","","","","","","","","","","","","","","","","","","","","","","","","",""
"2478","","image-button-response","141","1658472","0.0-141.0-0.0","A2JM1IVEZCXX3U","img_art/30.jpg","5","","","","","","","","","","","","","","","","","","","","","","","","",""
"5034","","image-button-response","142","1663508","0.0-142.0-0.0","A2JM1IVEZCXX3U","img_art/30.jpg","0","","","","","","","","","","","","","","","","","","","","","","","","",""
"null","","html-keyboard-response","143","1664010","0.0-143.0","A2JM1IVEZCXX3U","<p style=""font-size: 48px;"">+</p>","","","","","null","allTrialResponses","500","1","14","img_art/30.jpg","-50","juvenile and ugly","Robert,Christopher,Trevor,Dalton,Travis,Logan","My kindergarten class could do this,-50,360,20","looks simple, I can't see a lot of care going into this,-33,160,20","it looks like some thing I could make it my garage,-18,280,20","beautiful paint brush strokes,1,300,20","I didn't like this...it looks like someone just finger painted it.,-10,260,20","literally stupid I made this with as seen on tv products when I was 7,-42,360,20","Travis","I didn't like this...it looks like someone just finger painted it.,-10,260,20","Logan","literally stupid I made this with as seen on tv products when I was 7,-42,360,20","Robert","My kindergarten class could do this,-50,360,20","0"
"7432","","survey-text","144","1671455","0.0-144.0-0.0","A2JM1IVEZCXX3U","","","","{""Q0"":""looks like an aneurysm""}","","","","","","","","","","","","","","","","","","","","","","",""
"2767.600000023842","","image-slider-response","145","1674226","0.0-145.0","A2JM1IVEZCXX3U","","","","","-47","","","","","","","","","","","","","","","","","","","","","",""
"4908","","image-button-response","146","1679229","0.0-146.0","A2JM1IVEZCXX3U","img_art/28.jpg","2","","","","","","","","","","","","","","","","","","","","","","","","",""
"866","","image-button-response","147","1680098","0.0-147.0","A2JM1IVEZCXX3U","img_art/28.jpg","3","","","","","","","","","","","","","","","","","","","","","","","","",""
"1176","","image-button-response","148","1681276","0.0-148.0-0.0","A2JM1IVEZCXX3U","img_art/28.jpg","4","","","","","","","","","","","","","","","","","","","","","","","","",""
"2784","","image-button-response","149","1684062","0.0-149.0-0.0","A2JM1IVEZCXX3U","img_art/28.jpg","2","","","","","","","","","","","","","","","","","","","","","","","","",""
"null","","html-keyboard-response","150","1685564","0.0-150.0","A2JM1IVEZCXX3U","<p style=""font-size: 48px;"">+</p>","","","","","null","allTrialResponses","1500","1","15","img_art/28.jpg","-47","looks like an aneurysm","Robert,Taylor,Caleb,Victor,Travis,Logan","The colors are neutral but I see a mother helping her child,31,360,20","Bug meets bug in a dark alley.,-20,200,20","White and dark balance is way off- Seems dull.,-33,40,20","Almost looks like child's artwork, sloppy and chaotic,6,340,20","Hate it...brown and drab,-37,260,20","I wish I knew why I liked it, maybes its the pinky tones,36,360,20","Victor","Almost looks like child's artwork, sloppy and chaotic,6,340,20","Travis","Hate it...brown and drab,-37,260,20","Caleb","White and dark balance is way off- Seems dull.,-33,40,20","0"
"4106","","survey-text","151","1689688","0.0-151.0-0.0","A2JM1IVEZCXX3U","","","","{""Q0"":""course""}","","","","","","","","","","","","","","","","","","","","","","",""
"7311","","survey-text","152","1697002","0.0-152.0-0.0","A2JM1IVEZCXX3U","","","","{""Q0"":""literally looks like shit""}","","","","","","","","","","","","","","","","","","","","","","",""
"2984.100000023842","","image-slider-response","153","1699987","0.0-153.0","A2JM1IVEZCXX3U","","","","","-50","","","","","","","","","","","","","","","","","","","","","",""
"2239","","image-button-response","154","1704989","0.0-154.0","A2JM1IVEZCXX3U","img_art/4.jpg","1","","","","","","","","","","","","","","","","","","","","","","","","",""
"842","","image-button-response","155","1705833","0.0-155.0","A2JM1IVEZCXX3U","img_art/4.jpg","2","","","","","","","","","","","","","","","","","","","","","","","","",""
"713","","image-button-response","156","1706548","0.0-156.0-0.0","A2JM1IVEZCXX3U","img_art/4.jpg","4","","","","","","","","","","","","","","","","","","","","","","","","",""
"920","","image-button-response","157","1707470","0.0-157.0-0.0","A2JM1IVEZCXX3U","img_art/4.jpg","3","","","","","","","","","","","","","","","","","","","","","","","","",""
"null","","html-keyboard-response","158","1707972","0.0-158.0","A2JM1IVEZCXX3U","<p style=""font-size: 48px;"">+</p>","","","","","null","allTrialResponses","500","1","16","img_art/4.jpg","-50","literally looks like shit","Corey,Daniel,Caleb,Victor,Travis,Spencer","doesn't do anything for me,-4,260,20","Better version of a 7 year old who got lucky,-23,320,20","Colors are horrendous, look like bodily fluids have been smeared.,-50,40,20","Hate the color, and just do not get the point.,-13,340,20","I don't like this...a mustardy scibble.,-47,260,20","To me just looking at paint scrawls,-41,120,20","Caleb","Colors are horrendous, look like bodily fluids have been smeared.,-50,40,20","Travis","I don't like this...a mustardy scibble.,-47,260,20","Victor","Hate the color, and just do not get the point.,-13,340,20","0"
"3774","","survey-text","159","1711758","0.0-159.0-0.0","A2JM1IVEZCXX3U","","","","{""Q0"":""dreamlike""}","","","","","","","","","","","","","","","","","","","","","","",""
"16086.799999952316","","image-slider-response","160","1727848","0.0-160.0","A2JM1IVEZCXX3U","","","","","29","","","","","","","","","","","","","","","","","","","","","",""
"null","","image-button-response","161","1732851","0.0-161.0","A2JM1IVEZCXX3U","img_art/17.jpg","null","","","","","","","","","","","","","","","","","","","","","","","","",""
"1935","","image-button-response","162","1734790","0.0-162.0","A2JM1IVEZCXX3U","img_art/17.jpg","5","","","","","","","","","","","","","","","","","","","","","","","","",""
"971","","image-button-response","163","1735763","0.0-163.0-0.0","A2JM1IVEZCXX3U","img_art/17.jpg","4","","","","","","","","","","","","","","","","","","","","","","","","",""
"830","","image-button-response","164","1736595","0.0-164.0-0.0","A2JM1IVEZCXX3U","img_art/17.jpg","3","","","","","","","","","","","","","","","","","","","","","","","","",""
"null","","html-keyboard-response","165","1737098","0.0-165.0","A2JM1IVEZCXX3U","<p style=""font-size: 48px;"">+</p>","","","","","null","allTrialResponses","500","1","17","img_art/17.jpg","29","dreamlike","Connor,Matthew,Caleb,Victor,Travis,Tanner","Windows indoor tree, weird palette,-11,240,20","taste the rainbow, feel the flavor.,23,120,20","Not even abstract to me, very clear meaning.,44,40,20","cool. Sharp and blocky below, light and flowing on top. Overall pleasing to look at,32,340,20","Very pretty...the colors and good and flow well.,33,260,20","calm, tranquil, happy,50,180,20","Tanner","calm, tranquil, happy,50,180,20","Travis","Very pretty...the colors and good and flow well.,33,260,20","Victor","cool. Sharp and blocky below, light and flowing on top. Overall pleasing to look at,32,340,20","0"
"6549","","survey-text","166","1743652","0.0-166.0-0.0","A2JM1IVEZCXX3U","","","","{""Q0"":""interesting textures and technique""}","","","","","","","","","","","","","","","","","","","","","","",""
"2409.600000023842","","image-slider-response","167","1746065","0.0-167.0","A2JM1IVEZCXX3U","","","","","49","","","","","","","","","","","","","","","","","","","","","",""
"1718","","image-button-response","168","1751068","0.0-168.0","A2JM1IVEZCXX3U","img_art/10.jpg","0","","","","","","","","","","","","","","","","","","","","","","","","",""
"2238","","image-button-response","169","1753309","0.0-169.0","A2JM1IVEZCXX3U","img_art/10.jpg","4","","","","","","","","","","","","","","","","","","","","","","","","",""
"640","","image-button-response","170","1753951","0.0-170.0-0.0","A2JM1IVEZCXX3U","img_art/10.jpg","2","","","","","","","","","","","","","","","","","","","","","","","","",""
"1638","","image-button-response","171","1755591","0.0-171.0-0.0","A2JM1IVEZCXX3U","img_art/10.jpg","0","","","","","","","","","","","","","","","","","","","","","","","","",""
"null","","html-keyboard-response","172","1756592","0.0-172.0","A2JM1IVEZCXX3U","<p style=""font-size: 48px;"">+</p>","","","","","null","allTrialResponses","1000","1","18","img_art/10.jpg","49","interesting textures and technique","Nathaniel,Kyle,Chase,Victor,Travis,Tanner","For black and white, this is pretty vibrant and cool. I like this.,39,220,20","It's okay but not giving me the strongest reaction,6,340,20","Seems more harmonic with the strokes and colors.,31,120,20","Looks like someone just smeared some paint and called it good. Do not like.,-6,340,20","I liked it...it looked somewhat like a guitar.,32,260,20","music, serenity, love,33,180,20","Travis","I liked it...it looked somewhat like a guitar.,32,260,20","Chase","Seems more harmonic with the strokes and colors.,31,120,20","Nathaniel","For black and white, this is pretty vibrant and cool. I like this.,39,220,20","0"
"12611","","survey-text","173","1769213","0.0-173.0-0.0","A2JM1IVEZCXX3U","","","","{""Q0"":""idiotically stupid, took like five minutes probably""}","","","","","","","","","","","","","","","","","","","","","","",""
"2915.2000000476837","","image-slider-response","174","1772131","0.0-174.0","A2JM1IVEZCXX3U","","","","","-50","","","","","","","","","","","","","","","","","","","","","",""
"3885","","image-button-response","175","1777134","0.0-175.0","A2JM1IVEZCXX3U","img_art/5.jpg","5","","","","","","","","","","","","","","","","","","","","","","","","",""
"1669","","image-button-response","176","1778805","0.0-176.0","A2JM1IVEZCXX3U","img_art/5.jpg","3","","","","","","","","","","","","","","","","","","","","","","","","",""
"942","","image-button-response","177","1779749","0.0-177.0-0.0","A2JM1IVEZCXX3U","img_art/5.jpg","4","","","","","","","","","","","","","","","","","","","","","","","","",""
"600","","image-button-response","178","1780352","0.0-178.0-0.0","A2JM1IVEZCXX3U","img_art/5.jpg","5","","","","","","","","","","","","","","","","","","","","","","","","",""
"null","","html-keyboard-response","179","1780853","0.0-179.0","A2JM1IVEZCXX3U","<p style=""font-size: 48px;"">+</p>","","","","","null","allTrialResponses","500","1","19","img_art/5.jpg","-50","idiotically stupid, took like five minutes probably","Nathaniel,Aaron,Chase,Marcus,Travis,Brandon","Not sure what that even is. Looks like a 2-year old drawing,-40,220,20","It's kind of boring.,-20,20,20","Seems very basic and uninteresting.,-15,120,20","I really dislike this. It's ugly and looks dirty.,-44,60,20","This was awful and it looked like someone took minimul effort with it... no time at all.,-49,260,20","Kindergarten art. I really don't like this style.,-50,320,20","Marcus","I really dislike this. It's ugly and looks dirty.,-44,60,20","Travis","This was awful and it looked like someone took minimul effort with it... no time at all.,-49,260,20","Brandon","Kindergarten art. I really don't like this style.,-50,320,20","0"
"7381","","survey-text","180","1788244","0.0-180.0-0.0","A2JM1IVEZCXX3U","","","","{""Q0"":""tampon ad gone terribly wrong""}","","","","","","","","","","","","","","","","","","","","","","",""
"2834.2000000476837","","image-slider-response","181","1791081","0.0-181.0","A2JM1IVEZCXX3U","","","","","-49","","","","","","","","","","","","","","","","","","","","","",""
"4785","","image-button-response","182","1796082","0.0-182.0","A2JM1IVEZCXX3U","img_art/3.jpg","4","","","","","","","","","","","","","","","","","","","","","","","","",""
"670","","image-button-response","183","1796753","0.0-183.0","A2JM1IVEZCXX3U","img_art/3.jpg","4","","","","","","","","","","","","","","","","","","","","","","","","",""
"441","","image-button-response","184","1797195","0.0-184.0-0.0","A2JM1IVEZCXX3U","img_art/3.jpg","5","","","","","","","","","","","","","","","","","","","","","","","","",""
"972","","image-button-response","185","1798169","0.0-185.0-0.0","A2JM1IVEZCXX3U","img_art/3.jpg","0","","","","","","","","","","","","","","","","","","","","","","","","",""
"null","","html-keyboard-response","186","1798671","0.0-186.0","A2JM1IVEZCXX3U","<p style=""font-size: 48px;"">+</p>","","","","","null","allTrialResponses","500","1","20","img_art/3.jpg","-49","tampon ad gone terribly wrong","Steven,Anthony,Dylan,Marcus,Travis,Brandon","i don't like this, just looks like scribbles,-50,160,20","This looks like something a child created in 5 minutes.,-50,200,20","I could scribble on paper and mimic this,-48,40,20","Like the colors and energy of this work.,10,60,20","I hate this...just a scribble of red.,-50,260,20","Just scribbles. Not a fan.,-40,320,20","Travis","I hate this...just a scribble of red.,-50,260,20","Brandon","Just scribbles. Not a fan.,-40,320,20","Steven","i don't like this, just looks like scribbles,-50,160,20","0"
"3928","","survey-text","187","1802619","0.0-187.0-0.0","A2JM1IVEZCXX3U","","","","{""Q0"":""we""}","","","","","","","","","","","","","","","","","","","","","","",""
"12042","","survey-text","188","1814663","0.0-188.0-0.0","A2JM1IVEZCXX3U","","","","{""Q0"":""art room floor""}","","","","","","","","","","","","","","","","","","","","","","",""
"5649","","image-slider-response","189","1820314","0.0-189.0","A2JM1IVEZCXX3U","","","","","-50","","","","","","","","","","","","","","","","","","","","","",""
"2127","","image-button-response","190","1825320","0.0-190.0","A2JM1IVEZCXX3U","img_art/13.jpg","0","","","","","","","","","","","","","","","","","","","","","","","","",""
"1227","","image-button-response","191","1826549","0.0-191.0","A2JM1IVEZCXX3U","img_art/13.jpg","0","","","","","","","","","","","","","","","","","","","","","","","","",""
"1701","","image-button-response","192","1828251","0.0-192.0-0.0","A2JM1IVEZCXX3U","img_art/13.jpg","3","","","","","","","","","","","","","","","","","","","","","","","","",""
"1633","","image-button-response","193","1829887","0.0-193.0-0.0","A2JM1IVEZCXX3U","img_art/13.jpg","1","","","","","","","","","","","","","","","","","","","","","","","","",""
"null","","html-keyboard-response","194","1830889","0.0-194.0","A2JM1IVEZCXX3U","<p style=""font-size: 48px;"">+</p>","","","","","null","allTrialResponses","1000","1","21","img_art/13.jpg","-50","art room floor","Steven,Jake,Isaac,Thomas,Travis,Brandon","It's just paint splatter, no real meaning to me,-50,160,20","It's too violent looking and there's too much contrast between the white/black.,-21,360,20","The colors are okay but I don't like the shapes here.,-18,280,20","Nothing about this stands out to me,-10,220,20","I love the colors and the texture,37,260,20","Simple, but pleasing. The blue gradient is a favorite of mine,32,320,20","Steven","It's just paint splatter, no real meaning to me,-50,160,20","Thomas","Nothing about this stands out to me,-10,220,20","Jake","It's too violent looking and there's too much contrast between the white/black.,-21,360,20","0"
"12748","","survey-text","195","1843640","0.0-195.0-0.0","A2JM1IVEZCXX3U","","","","{""Q0"":""no idea whats going on but it looks like a murder scene painted by a five year old""}","","","","","","","","","","","","","","","","","","","","","","",""
"3145.5999999046326","","image-slider-response","196","1846789","0.0-196.0","A2JM1IVEZCXX3U","","","","","-21","","","","","","","","","","","","","","","","","","","","","",""
"3595","","image-button-response","197","1851792","0.0-197.0","A2JM1IVEZCXX3U","img_art/14.jpg","1","","","","","","","","","","","","","","","","","","","","","","","","",""
"2012","","image-button-response","198","1853807","0.0-198.0","A2JM1IVEZCXX3U","img_art/14.jpg","1","","","","","","","","","","","","","","","","","","","","","","","","",""
"638","","image-button-response","199","1854447","0.0-199.0-0.0","A2JM1IVEZCXX3U","img_art/14.jpg","2","","","","","","","","","","","","","","","","","","","","","","","","",""
"1622","","image-button-response","200","1856071","0.0-200.0-0.0","A2JM1IVEZCXX3U","img_art/14.jpg","5","","","","","","","","","","","","","","","","","","","","","","","","",""
"null","","html-keyboard-response","201","1856573","0.0-201.0","A2JM1IVEZCXX3U","<p style=""font-size: 48px;"">+</p>","","","","","null","allTrialResponses","500","1","22","img_art/14.jpg","-21","no idea whats going on but it looks like a murder scene painted by a five year old","Steven,Jake,Scott,Thomas,Nicholas,Miguel","this one isn't bad, reminds me a tree that gives life, and people are waiting for someone new to be born,27,160,20","This is poorly done and not aesthetically appealing.,-2,360,20","its okay nothing special,11,20,20","I like the colors in the background, but not the bottom/center. It almost looks sloppy.,-20,220,20","I love the feeling of the tree and people. Makes me happy,50,240,20","It's too basic.,23,160,20","Jake","This is poorly done and not aesthetically appealing.,-2,360,20","Scott","its okay nothing special,11,20,20","Miguel","It's too basic.,23,160,20","0"
"11591","","survey-text","202","1868177","0.0-202.0-0.0","A2JM1IVEZCXX3U","","","","{""Q0"":""ugly jackets of the 90s revisited""}","","","","","","","","","","","","","","","","","","","","","","",""
"3698.8000000715256","","image-slider-response","203","1871879","0.0-203.0","A2JM1IVEZCXX3U","","","","","-32","","","","","","","","","","","","","","","","","","","","","",""
"1184","","image-button-response","204","1876882","0.0-204.0","A2JM1IVEZCXX3U","img_art/12.jpg","0","","","","","","","","","","","","","","","","","","","","","","","","",""
"832","","image-button-response","205","1877717","0.0-205.0","A2JM1IVEZCXX3U","img_art/12.jpg","0","","","","","","","","","","","","","","","","","","","","","","","","",""
"440","","image-button-response","206","1878159","0.0-206.0-0.0","A2JM1IVEZCXX3U","img_art/12.jpg","1","","","","","","","","","","","","","","","","","","","","","","","","",""
"462","","image-button-response","207","1878623","0.0-207.0-0.0","A2JM1IVEZCXX3U","img_art/12.jpg","2","","","","","","","","","","","","","","","","","","","","","","","","",""
"null","","html-keyboard-response","208","1880125","0.0-208.0","A2JM1IVEZCXX3U","<p style=""font-size: 48px;"">+</p>","","","","","null","allTrialResponses","1500","1","23","img_art/12.jpg","-32","ugly jackets of the 90s revisited","Gabriel,Jake,Scott,Devin,Jack,Miguel","dont like the squares,-16,160,20","It's strange looking and unappealing.,-4,360,20","I don't like the pattern or color choice,-41,20,20","Love the shapes here,12,380,20","interesting, but feels like someone cut up a picture and pasted it together wrong. want to see the original,15,320,20","Good too basic.,18,160,20","Gabriel","dont like the squares,-16,160,20","Jake","It's strange looking and unappealing.,-4,360,20","Scott","I don't like the pattern or color choice,-41,20,20","0"
"7168","","survey-text","209","1887305","0.0-209.0-0.0","A2JM1IVEZCXX3U","","","","{""Q0"":""extremely threatening""}","","","","","","","","","","","","","","","","","","","","","","",""
"2360.5","","image-slider-response","210","1889667","0.0-210.0","A2JM1IVEZCXX3U","","","","","15","","","","","","","","","","","","","","","","","","","","","",""
"1870","","image-button-response","211","1894671","0.0-211.0","A2JM1IVEZCXX3U","img_art/25.jpg","0","","","","","","","","","","","","","","","","","","","","","","","","",""
"1497","","image-button-response","212","1896171","0.0-212.0","A2JM1IVEZCXX3U","img_art/25.jpg","0","","","","","","","","","","","","","","","","","","","","","","","","",""
"999","","image-button-response","213","1897171","0.0-213.0-0.0","A2JM1IVEZCXX3U","img_art/25.jpg","5","","","","","","","","","","","","","","","","","","","","","","","","",""
"677","","image-button-response","214","1897849","0.0-214.0-0.0","A2JM1IVEZCXX3U","img_art/25.jpg","4","","","","","","","","","","","","","","","","","","","","","","","","",""
"null","","html-keyboard-response","215","1898351","0.0-215.0","A2JM1IVEZCXX3U","<p style=""font-size: 48px;"">+</p>","","","","","null","allTrialResponses","500","1","24","img_art/25.jpg","15","extremely threatening","Gabriel,Jake,Scott,Jose,Lucas,Cole","quite unnerving,-15,160,20","This is strange and poorly done.,-2,360,20","reminds me of a zombie,-36,20,20","That's pretty awesome. I love the green and black combo, reminds me of one of those cartoon creepy movies,47,200,20","Well-designed, interesting.,30,380,20","Its scary. It looks like someone overlooking hell,-34,200,20","Gabriel","quite unnerving,-15,160,20","Cole","Its scary. It looks like someone overlooking hell,-34,200,20","Lucas","Well-designed, interesting.,30,380,20","0"
"7857","","survey-text","216","1906215","0.0-216.0-0.0","A2JM1IVEZCXX3U","","","","{""Q0"":""one pickle reigns supreme over the desert""}","","","","","","","","","","","","","","","","","","","","","","",""
"2649.1999999284744","","image-slider-response","217","1908867","0.0-217.0","A2JM1IVEZCXX3U","","","","","-36","","","","","","","","","","","","","","","","","","","","","",""
"1197","","image-button-response","218","1913869","0.0-218.0","A2JM1IVEZCXX3U","img_art/6.jpg","0","","","","","","","","","","","","","","","","","","","","","","","","",""
"1226","","image-button-response","219","1915097","0.0-219.0","A2JM1IVEZCXX3U","img_art/6.jpg","0","","","","","","","","","","","","","","","","","","","","","","","","",""
"713","","image-button-response","220","1915811","0.0-220.0-0.0","A2JM1IVEZCXX3U","img_art/6.jpg","4","","","","","","","","","","","","","","","","","","","","","","","","",""
"440","","image-button-response","221","1916253","0.0-221.0-0.0","A2JM1IVEZCXX3U","img_art/6.jpg","5","","","","","","","","","","","","","","","","","","","","","","","","",""
"null","","html-keyboard-response","222","1917255","0.0-222.0","A2JM1IVEZCXX3U","<p style=""font-size: 48px;"">+</p>","","","","","null","allTrialResponses","1000","1","25","img_art/6.jpg","-36","one pickle reigns supreme over the desert","Gabriel,James,Ryan,Jason,Lucas,Cole","its like a jalapeno,-28,160,20","Nice desert scene,10,380,20","Makes me feel lonely,-22,380,20","I like the simplicity of the picture,30,20,20","Nothing special.,-20,380,20","Close up peach? Hate it,-16,200,20","Gabriel","its like a jalapeno,-28,160,20","Lucas","Nothing special.,-20,380,20","Cole","Close up peach? Hate it,-16,200,20","0"
"2121","","survey-text","223","1919384","0.0-223.0-0.0","A2JM1IVEZCXX3U","","","","{""Q0"":""table""}","","","","","","","","","","","","","","","","","","","","","","",""
"5743","","survey-text","224","1925128","0.0-224.0-0.0","A2JM1IVEZCXX3U","","","","{""Q0"":""interesting mix of techniques""}","","","","","","","","","","","","","","","","","","","","","","",""
"2648.100000023842","","image-slider-response","225","1927779","0.0-225.0","A2JM1IVEZCXX3U","","","","","10","","","","","","","","","","","","","","","","","","","","","",""
"1556","","image-button-response","226","1932782","0.0-226.0","A2JM1IVEZCXX3U","img_art/26.jpg","0","","","","","","","","","","","","","","","","","","","","","","","","",""
"2284","","image-button-response","227","1935069","0.0-227.0","A2JM1IVEZCXX3U","img_art/26.jpg","2","","","","","","","","","","","","","","","","","","","","","","","","",""
"735","","image-button-response","228","1935805","0.0-228.0-0.0","A2JM1IVEZCXX3U","img_art/26.jpg","4","","","","","","","","","","","","","","","","","","","","","","","","",""
"769","","image-button-response","229","1936575","0.0-229.0-0.0","A2JM1IVEZCXX3U","img_art/26.jpg","0","","","","","","","","","","","","","","","","","","","","","","","","",""
"null","","html-keyboard-response","230","1938078","0.0-230.0","A2JM1IVEZCXX3U","<p style=""font-size: 48px;"">+</p>","","","","","null","allTrialResponses","1500","1","26","img_art/26.jpg","10","interesting mix of techniques","Gabriel,Jonathan,Benjamin,William,Lucas,Cole","this is nice!! i like the muted colors,34,160,20","It's relaxing to look at but I wish it was just a little more defined,20,140,20","The colors are muted.,1,260,20","feels a tad old,30,380,20","Nothing to say.,0,380,20","Another blob on a landscape. A city street?,9,200,20","Benjamin","The colors are muted.,1,260,20","Lucas","Nothing to say.,0,380,20","Gabriel","this is nice!! i like the muted colors,34,160,20","0"
"8184","","survey-text","231","1946267","0.0-231.0-0.0","A2JM1IVEZCXX3U","","","","{""Q0"":""actually interesting, i like the colors""}","","","","","","","","","","","","","","","","","","","","","","",""
"2687","","image-slider-response","232","1948957","0.0-232.0","A2JM1IVEZCXX3U","","","","","7","","","","","","","","","","","","","","","","","","","","","",""
"1578","","image-button-response","233","1953959","0.0-233.0","A2JM1IVEZCXX3U","img_art/21.jpg","1","","","","","","","","","","","","","","","","","","","","","","","","",""
"537","","image-button-response","234","1954499","0.0-234.0","A2JM1IVEZCXX3U","img_art/21.jpg","4","","","","","","","","","","","","","","","","","","","","","","","","",""
"710","","image-button-response","235","1955211","0.0-235.0-0.0","A2JM1IVEZCXX3U","img_art/21.jpg","5","","","","","","","","","","","","","","","","","","","","","","","","",""
"860","","image-button-response","236","1956073","0.0-236.0-0.0","A2JM1IVEZCXX3U","img_art/21.jpg","0","","","","","","","","","","","","","","","","","","","","","","","","",""
"null","","html-keyboard-response","237","1956575","0.0-237.0","A2JM1IVEZCXX3U","<p style=""font-size: 48px;"">+</p>","","","","","null","allTrialResponses","500","1","27","img_art/21.jpg","7","actually interesting, i like the colors","Gabriel,Patrick,Benjamin,Adrian,Lucas,Joshua","i like watercolor,22,160,20","It looks confusing,-21,280,20","sunset after the rain,49,260,20","I like this piece more the more I look at. Still wouldn't want it in my home, though.,8,60,20","Looks like a war. Many things happening on the painting, really enjoy it.,30,380,20","Boring colors and look. Too much 1980s.,-20,240,20","Lucas","Looks like a war. Many things happening on the painting, really enjoy it.,30,380,20","Joshua","Boring colors and look. Too much 1980s.,-20,240,20","Gabriel","i like watercolor,22,160,20","0"
"7957","","survey-text","238","1964545","0.0-238.0-0.0","A2JM1IVEZCXX3U","","","","{""Q0"":""confusing and kind of uncomfortable""}","","","","","","","","","","","","","","","","","","","","","","",""
"3740.7000000476837","","image-slider-response","239","1968289","0.0-239.0","A2JM1IVEZCXX3U","","","","","-29","","","","","","","","","","","","","","","","","","","","","",""
"3790","","image-button-response","240","1973291","0.0-240.0","A2JM1IVEZCXX3U","img_art/9.jpg","2","","","","","","","","","","","","","","","","","","","","","","","","",""
"2605","","image-button-response","241","1975899","0.0-241.0","A2JM1IVEZCXX3U","img_art/9.jpg","3","","","","","","","","","","","","","","","","","","","","","","","","",""
"1706","","image-button-response","242","1977607","0.0-242.0-0.0","A2JM1IVEZCXX3U","img_art/9.jpg","5","","","","","","","","","","","","","","","","","","","","","","","","",""
"1084","","image-button-response","243","1978693","0.0-243.0-0.0","A2JM1IVEZCXX3U","img_art/9.jpg","0","","","","","","","","","","","","","","","","","","","","","","","","",""
"null","","html-keyboard-response","244","1979195","0.0-244.0","A2JM1IVEZCXX3U","<p style=""font-size: 48px;"">+</p>","","","","","null","allTrialResponses","500","1","28","img_art/9.jpg","-29","confusing and kind of uncomfortable","Gabriel,Samuel,Ian,Eric,Lucas,Joshua","i like the colors but not the composition,-17,160,20","what a wild ride,11,400,20","It looks like someone gave a kid a coloring book page but the colors are soothing and look put together and elegant,27,260,20","I see some of my favorite colors which I like, but I don't like what's portrayed.,35,100,20","I like the way the artist has painted his painting.,20,380,20","Someone lying in bed?  Don't care for it.,-14,240,20","Eric","I see some of my favorite colors which I like, but I don't like what's portrayed.,35,100,20","Joshua","Someone lying in bed?  Don't care for it.,-14,240,20","Gabriel","i like the colors but not the composition,-17,160,20","0"
"7755","","survey-text","245","1986966","0.0-245.0-0.0","A2JM1IVEZCXX3U","","","","{""Q0"":""very interesting combination of shapes and color""}","","","","","","","","","","","","","","","","","","","","","","",""
"2863.3000000715256","","image-slider-response","246","1989833","0.0-246.0","A2JM1IVEZCXX3U","","","","","19","","","","","","","","","","","","","","","","","","","","","",""
"2434","","image-button-response","247","1994835","0.0-247.0","A2JM1IVEZCXX3U","img_art/8.jpg","1","","","","","","","","","","","","","","","","","","","","","","","","",""
"654","","image-button-response","248","1995493","0.0-248.0","A2JM1IVEZCXX3U","img_art/8.jpg","5","","","","","","","","","","","","","","","","","","","","","","","","",""
"3068","","image-button-response","249","1998563","0.0-249.0-0.0","A2JM1IVEZCXX3U","img_art/8.jpg","4","","","","","","","","","","","","","","","","","","","","","","","","",""
"1118","","image-button-response","250","1999683","0.0-250.0-0.0","A2JM1IVEZCXX3U","img_art/8.jpg","0","","","","","","","","","","","","","","","","","","","","","","","","",""
"null","","html-keyboard-response","251","2000684","0.0-251.0","A2JM1IVEZCXX3U","<p style=""font-size: 48px;"">+</p>","","","","","null","allTrialResponses","1000","1","29","img_art/8.jpg","19","very interesting combination of shapes and color","Gabriel,Blake,Sean,Eric,Kenneth,Joshua","i like all the different faces,19,160,20","cold city controlled by evil gods,-17,280,20","looks nice, like the details,25,40,20","I love the colors in this piece.,25,100,20","Interesting, i really like the face and the moon. Realy detailed and you see something new with each look.,11,300,20","I don't understand it. Makes no sense to me.,5,240,20","Joshua","I don't understand it. Makes no sense to me.,5,240,20","Kenneth","Interesting, i really like the face and the moon. Realy detailed and you see something new with each look.,11,300,20","Gabriel","i like all the different faces,19,160,20","0"
"6597","","survey-text","252","2007289","0.0-252.0-0.0","A2JM1IVEZCXX3U","","","","{""Q0"":""chaotic but interesting""}","","","","","","","","","","","","","","","","","","","","","","",""
"3522.1999999284744","","image-slider-response","253","2010815","0.0-253.0","A2JM1IVEZCXX3U","","","","","5","","","","","","","","","","","","","","","","","","","","","",""
"1361","","image-button-response","254","2015819","0.0-254.0","A2JM1IVEZCXX3U","img_art/18.jpg","0","","","","","","","","","","","","","","","","","","","","","","","","",""
"149","","image-button-response","255","2015971","0.0-255.0","A2JM1IVEZCXX3U","img_art/18.jpg","0","","","","","","","","","","","","","","","","","","","","","","","","",""
"1212","","image-button-response","256","2017185","0.0-256.0-0.0","A2JM1IVEZCXX3U","img_art/18.jpg","1","","","","","","","","","","","","","","","","","","","","","","","","",""
"880","","image-button-response","257","2018067","0.0-257.0-0.0","A2JM1IVEZCXX3U","img_art/18.jpg","2","","","","","","","","","","","","","","","","","","","","","","","","",""
"null","","html-keyboard-response","258","2019069","0.0-258.0","A2JM1IVEZCXX3U","<p style=""font-size: 48px;"">+</p>","","","","","null","allTrialResponses","1000","1","30","img_art/18.jpg","5","chaotic but interesting","Gabriel,Brendan,Shawn,Austin,Kenneth,Joshua","its messy, it seems angry,-21,160,20","looks like a war,22,340,20","Evocative but cheesy.,-20,100,20","Nice abstract art,50,240,20","It's interesting. I'm not sure how I feel about it, but i enjoy the ghostly apparitions.,10,300,20","Looks like ghost figures on a boat. It's okay.,7,240,20","Gabriel","its messy, it seems angry,-21,160,20","Brendan","looks like a war,22,340,20","Shawn","Evocative but cheesy.,-20,100,20","0"
"2444","","image-button-response_instructions","259","2021525","0.0-259.0","A2JM1IVEZCXX3U","","0","instructions","","","","","","","","","","","","","","","","","","","","","","","",""
"990","","image-button-response","260","2022520","0.0-260.0","A2JM1IVEZCXX3U","","0","","","","","","","","","","","","","","","","","","","","","","","","",""
