"rt","url","trial_type","trial_index","time_elapsed","internal_node_id","participant_id","stimulus","button_pressed","Name","responses","response","key_press","variableName","fixationTime","condition","trial","photo","subjectRating","subjectResponse","agentsNames","agent_1_Response","agent_2_Response","agent_3_Response","agent_4_Response","agent_5_Response","agent_6_Response","kept_1_name","kept_1_response","kept_2_name","kept_2_response","kept_3_name","kept_3_response","errorCounter"
"11891","external_page_harvard.html","external-html","0","11981","0.0-0.0","A2JQI1SDHK32T6","","","","","","","","","","","","","","","","","","","","","","","","","","",""
"1713","","image-button-response","1","13696","0.0-1.0","A2JQI1SDHK32T6","","0","","","","","","","","","","","","","","","","","","","","","","","","",""
"2711","","image-button-response","2","16414","0.0-2.0-0.0","A2JQI1SDHK32T6","","1","phone","","","","","","","","","","","","","","","","","","","","","","","",""
"10309","","survey-text","3","26725","0.0-3.0-0.0","A2JQI1SDHK32T6","","","","{""Q0"":""A2JQI1SDHK32T6""}","","","","","","","","","","","","","","","","","","","","","","",""
"13289","","image-button-response_instructions","4","40015","0.0-4.0","A2JQI1SDHK32T6","","0","instructions","","","","","","","","","","","","","","","","","","","","","","","",""
"23511","","image-button-response_instructions","5","63527","0.0-5.0","A2JQI1SDHK32T6","img_art/ins/popularity/ins1.png","0","instructions","","","","","","","","","","","","","","","","","","","","","","","",""
"8107","","image-button-response_instructions","6","71635","0.0-6.0","A2JQI1SDHK32T6","img_art/ins/popularity/ins2.png","0","instructions","","","","","","","","","","","","","","","","","","","","","","","",""
"8409","","image-button-response_instructions","7","80046","0.0-7.0","A2JQI1SDHK32T6","img_art/ins/popularity/ins2Extreme.png","0","instructions","","","","","","","","","","","","","","","","","","","","","","","",""
"7234","","image-button-response_instructions","8","87281","0.0-8.0","A2JQI1SDHK32T6","img_art/ins/popularity/ins3KEEPpop.PNG","0","instructions","","","","","","","","","","","","","","","","","","","","","","","",""
"5650","","image-button-response_instructions","9","92933","0.0-9.0","A2JQI1SDHK32T6","img_art/ins/popularity/ins3ANamepop.PNG","0","instructions","","","","","","","","","","","","","","","","","","","","","","","",""
"5179","","image-button-response_instructions","10","98114","0.0-10.0","A2JQI1SDHK32T6","img_art/ins/popularity/ins3ARatingpop.png","0","instructions","","","","","","","","","","","","","","","","","","","","","","","",""
"2389","","image-button-response_instructions","11","100505","0.0-11.0","A2JQI1SDHK32T6","img_art/ins/popularity/ins3ATextpop.png","0","instructions","","","","","","","","","","","","","","","","","","","","","","","",""
"5067","","image-button-response_instructions","12","105574","0.0-12.0","A2JQI1SDHK32T6","img_art/ins/popularity/ins3ALikespop.png","0","instructions","","","","","","","","","","","","","","","","","","","","","","","",""
"10126","","image-button-response_instructions","13","115701","0.0-13.0","A2JQI1SDHK32T6","img_art/ins/popularity/ins3KEEPpop.PNG","0","instructions","","","","","","","","","","","","","","","","","","","","","","","",""
"8153","","image-button-response_instructions","14","123854","0.0-14.0","A2JQI1SDHK32T6","img_art/ins/popularity/ins3_5RED.png","0","instructions","","","","","","","","","","","","","","","","","","","","","","","",""
"3205","","image-button-response_instructions","15","127061","0.0-15.0","A2JQI1SDHK32T6","img_art/ins/popularity/ins3KEEPpop.PNG","0","instructions","","","","","","","","","","","","","","","","","","","","","","","",""
"6842","","image-button-response_instructions","16","133904","0.0-16.0","A2JQI1SDHK32T6","img_art/ins/popularity/ins4KEEPpop.PNG","0","instructions","","","","","","","","","","","","","","","","","","","","","","","",""
"7827","","image-button-response_instructions","17","141732","0.0-17.0","A2JQI1SDHK32T6","img_art/ins/popularity/ins5KEEPpop.PNG","0","instructions","","","","","","","","","","","","","","","","","","","","","","","",""
"1582","","image-button-response_instructions","18","143315","0.0-18.0","A2JQI1SDHK32T6","","0","instructions","","","","","","","","","","","","","","","","","","","","","","","",""
"5092","","survey-text","19","148436","0.0-19.0-0.0","A2JQI1SDHK32T6","","","","{""Q0"":""but""}","","","","","","","","","","","","","","","","","","","","","","",""
"18154","","survey-text","20","166592","0.0-20.0-0.0","A2JQI1SDHK32T6","","","","{""Q0"":""This art is chaotic""}","","","","","","","","","","","","","","","","","","","","","","",""
"9594.699999988079","","image-slider-response","21","176189","0.0-21.0","A2JQI1SDHK32T6","","","","","-24","","","","","","","","","","","","","","","","","","","","","",""
"null","","image-button-response","22","181201","0.0-22.0","A2JQI1SDHK32T6","img_art/ins/1.jpg","null","","","","","","","","","","","","","","","","","","","","","","","","",""
"17910","","image-button-response","23","199114","0.0-23.0","A2JQI1SDHK32T6","img_art/ins/1.jpg","0","","","","","","","","","","","","","","","","","","","","","","","","",""
"6723","","image-button-response","24","205840","0.0-24.0-0.0","A2JQI1SDHK32T6","img_art/ins/1.jpg","1","","","","","","","","","","","","","","","","","","","","","","","","",""
"2849","","image-button-response","25","208691","0.0-25.0-0.0","A2JQI1SDHK32T6","img_art/ins/1.jpg","3","","","","","","","","","","","","","","","","","","","","","","","","",""
"null","","html-keyboard-response","26","210195","0.0-26.0","A2JQI1SDHK32T6","<p style=""font-size: 48px;"">+</p>","","","","","null","allTrialResponses","1500","1","-2","img_art/ins/1.jpg","-24","This art is chaotic","Adam,Alex,Ben,Carl,Daniel,Jack","Seems like doodles,-20,20,20","very creative work.,36,40,20","This color reminds me of poo,-46,60,20","very calming artwork,42,80,20","It looks like a murder scene.,-48,100,20","I like the sophisticated brushwork,40,120,20","Adam","Seems like doodles,-20,20,20","Alex","very creative work.,36,40,20","Carl","very calming artwork,42,80,20","0"
"8079","","survey-text","27","218277","0.0-27.0-0.0","A2JQI1SDHK32T6","","","","{""Q0"":""great texture""}","","","","","","","","","","","","","","","","","","","","","","",""
"7448.900000035763","","image-slider-response","28","225728","0.0-28.0","A2JQI1SDHK32T6","","","","","13","","","","","","","","","","","","","","","","","","","","","",""
"null","","image-button-response","29","230731","0.0-29.0","A2JQI1SDHK32T6","img_art/ins/2.jpg","null","","","","","","","","","","","","","","","","","","","","","","","","",""
"729","","image-button-response","30","231462","0.0-30.0","A2JQI1SDHK32T6","img_art/ins/2.jpg","1","","","","","","","","","","","","","","","","","","","","","","","","",""
"5293","","image-button-response","31","236757","0.0-31.0-0.0","A2JQI1SDHK32T6","img_art/ins/2.jpg","4","","","","","","","","","","","","","","","","","","","","","","","","",""
"1480","","image-button-response","32","238239","0.0-32.0-0.0","A2JQI1SDHK32T6","img_art/ins/2.jpg","3","","","","","","","","","","","","","","","","","","","","","","","","",""
"null","","html-keyboard-response","33","239256","0.0-33.0","A2JQI1SDHK32T6","<p style=""font-size: 48px;"">+</p>","","","","","null","allTrialResponses","1000","1","-1","img_art/ins/2.jpg","13","great texture","Adam,Alex,James,Carl,John,Kyle","too much color,-18,20,20","I like the blocks of color arrangements,30,40,20","looks too angry,-50,140,20","I can feel the artist's passion in it,45,80,20","love the texture of paint,48,160,20","Idk, it is just annoying,-32,180,20","Alex","I like the blocks of color arrangements,30,40,20","John","love the texture of paint,48,160,20","Carl","I can feel the artist's passion in it,45,80,20","0"
"7807","","survey-text","34","247070","0.0-34.0-0.0","A2JQI1SDHK32T6","","","","{""Q0"":""Pretty artwork""}","","","","","","","","","","","","","","","","","","","","","","",""
"5047.399999976158","","image-slider-response","35","252119","0.0-35.0","A2JQI1SDHK32T6","","","","","34","","","","","","","","","","","","","","","","","","","","","",""
"4914","","image-button-response","36","257127","0.0-36.0","A2JQI1SDHK32T6","img_art/ins/3.jpg","4","","","","","","","","","","","","","","","","","","","","","","","","",""
"3656","","image-button-response","37","260786","0.0-37.0","A2JQI1SDHK32T6","img_art/ins/3.jpg","0","","","","","","","","","","","","","","","","","","","","","","","","",""
"5313","","image-button-response","38","266102","0.0-38.0-0.0","A2JQI1SDHK32T6","img_art/ins/3.jpg","1","","","","","","","","","","","","","","","","","","","","","","","","",""
"1684","","image-button-response","39","267787","0.0-39.0-0.0","A2JQI1SDHK32T6","img_art/ins/3.jpg","4","","","","","","","","","","","","","","","","","","","","","","","","",""
"null","","html-keyboard-response","40","268290","0.0-40.0","A2JQI1SDHK32T6","<p style=""font-size: 48px;"">+</p>","","","","","null","allTrialResponses","500","1","0","img_art/ins/3.jpg","34","Pretty artwork","Mike,Alex,Ron,Carl,John,Sam","enjoy the different shades of blue,22,200,20","calming blue is very nice,36,40,20","It looks depressing,-26,220,20","It's an alright work,15,80,20","I like the overlapping of brushes,41,160,20","I can feel a rainy day from this painting,18,240,20","Mike","enjoy the different shades of blue,22,200,20","Alex","calming blue is very nice,36,40,20","John","I like the overlapping of brushes,41,160,20","0"
"4694","","image-button-response_instructions","41","272989","0.0-41.0","A2JQI1SDHK32T6","","0","instructions","","","","","","","","","","","","","","","","","","","","","","","",""
"11946","","survey-likert","42","284938","0.0-42.0-0.0","A2JQI1SDHK32T6","","","","{""Q0"":"""",""Q1"":0,""Q2"":1}","","","","","","","","","","","","","","","","","","","","","","",""
"3673","","survey-text","43","288616","0.0-43.0-0.0","A2JQI1SDHK32T6","","","","{""Q0"":""rock""}","","","","","","","","","","","","","","","","","","","","","","",""
"22260","","survey-text","44","310878","0.0-44.0-0.0","A2JQI1SDHK32T6","","","","{""Q0"":""love the style""}","","","","","","","","","","","","","","","","","","","","","","",""
"6123.300000011921","","image-slider-response","45","317003","0.0-45.0","A2JQI1SDHK32T6","","","","","36","","","","","","","","","","","","","","","","","","","","","",""
"null","","image-button-response","46","322046","0.0-46.0","A2JQI1SDHK32T6","img_art/20.jpg","null","","","","","","","","","","","","","","","","","","","","","","","","",""
"996","","image-button-response","47","323045","0.0-47.0","A2JQI1SDHK32T6","img_art/20.jpg","0","","","","","","","","","","","","","","","","","","","","","","","","",""
"8238","","image-button-response","48","331285","0.0-48.0-0.0","A2JQI1SDHK32T6","img_art/20.jpg","1","","","","","","","","","","","","","","","","","","","","","","","","",""
"866","","image-button-response","49","332154","0.0-49.0-0.0","A2JQI1SDHK32T6","img_art/20.jpg","2","","","","","","","","","","","","","","","","","","","","","","","","",""
"null","","html-keyboard-response","50","333159","0.0-50.0","A2JQI1SDHK32T6","<p style=""font-size: 48px;"">+</p>","","","","","null","allTrialResponses","1000","1","1","img_art/20.jpg","36","love the style","Jacob,Bryan,Thomas,Kenneth,Jorge,Isaac","It looks painted really nicely.,5,340,20","Reminds me of Georgia O'Keefe.,11,400,20","I really enjoy the contrast of colors (blue/red/orange),30,220,20","I want to like this more, but i wish it was more detailed. It's hard for me to see what it is.,5,300,20","Curious about what lies here,10,180,20","It is abstract but it looks neat.,15,280,20","Jacob","It looks painted really nicely.,5,340,20","Bryan","Reminds me of Georgia O'Keefe.,11,400,20","Thomas","I really enjoy the contrast of colors (blue/red/orange),30,220,20","0"
"14505","","survey-text","51","347672","0.0-51.0-0.0","A2JQI1SDHK32T6","","","","{""Q0"":""disturbing ""}","","","","","","","","","","","","","","","","","","","","","","",""
"5632.100000023842","","image-slider-response","52","353306","0.0-52.0","A2JQI1SDHK32T6","","","","","-44","","","","","","","","","","","","","","","","","","","","","",""
"null","","image-button-response","53","358311","0.0-53.0","A2JQI1SDHK32T6","img_art/16.jpg","null","","","","","","","","","","","","","","","","","","","","","","","","",""
"768","","image-button-response","54","359082","0.0-54.0","A2JQI1SDHK32T6","img_art/16.jpg","5","","","","","","","","","","","","","","","","","","","","","","","","",""
"9309","","image-button-response","55","368393","0.0-55.0-0.0","A2JQI1SDHK32T6","img_art/16.jpg","4","","","","","","","","","","","","","","","","","","","","","","","","",""
"2115","","image-button-response","56","370510","0.0-56.0-0.0","A2JQI1SDHK32T6","img_art/16.jpg","1","","","","","","","","","","","","","","","","","","","","","","","","",""
"null","","html-keyboard-response","57","371027","0.0-57.0","A2JQI1SDHK32T6","<p style=""font-size: 48px;"">+</p>","","","","","null","allTrialResponses","500","1","2","img_art/16.jpg","-44","disturbing ","Jacob,Bryan,Thomas,Logan,Dalton,Jose","Cool but the bear creeps me out?,8,340,20","Something terrible happened. Either the figure on the right is the victim or another shredded toy.,-49,400,20","Makes me want to know more,5,220,20","what is this doing for anyone. If you connect with this you're literally lying to yourself. pretentious,-50,360,20","lol i dont know how i feel about this.,1,300,20","Super weird. Id like to know more about it,24,200,20","Jose","Super weird. Id like to know more about it,24,200,20","Dalton","lol i dont know how i feel about this.,1,300,20","Bryan","Something terrible happened. Either the figure on the right is the victim or another shredded toy.,-49,400,20","0"
"17923","","survey-text","58","388955","0.0-58.0-0.0","A2JQI1SDHK32T6","","","","{""Q0"":""pretty colors but do not know what this is.""}","","","","","","","","","","","","","","","","","","","","","","",""
"8932.899999976158","","image-slider-response","59","397890","0.0-59.0","A2JQI1SDHK32T6","","","","","-11","","","","","","","","","","","","","","","","","","","","","",""
"null","","image-button-response","60","402893","0.0-60.0","A2JQI1SDHK32T6","img_art/6.jpg","null","","","","","","","","","","","","","","","","","","","","","","","","",""
"5319","","image-button-response","61","408215","0.0-61.0","A2JQI1SDHK32T6","img_art/6.jpg","2","","","","","","","","","","","","","","","","","","","","","","","","",""
"2462","","image-button-response","62","410679","0.0-62.0-0.0","A2JQI1SDHK32T6","img_art/6.jpg","5","","","","","","","","","","","","","","","","","","","","","","","","",""
"2001","","image-button-response","63","412682","0.0-63.0-0.0","A2JQI1SDHK32T6","img_art/6.jpg","3","","","","","","","","","","","","","","","","","","","","","","","","",""
"null","","html-keyboard-response","64","413684","0.0-64.0","A2JQI1SDHK32T6","<p style=""font-size: 48px;"">+</p>","","","","","null","allTrialResponses","1000","1","3","img_art/6.jpg","-11","pretty colors but do not know what this is.","Gabriel,Bryan,Paul,Zachary,Dalton,Jose","its like a jalapeno,-28,160,20","Growth in the desert?  Don't care for it very much.,-26,400,20","Maybe it's supposed to be a bird but it looks like a scary cloaked figure. it's just too simple and jarring,-23,300,20","Reminds me of a plant poking through the soil. It reminds me of new life.,31,400,20","it looks like a stick holding a wig on a cliff,21,300,20","This could be so many different things. I saw a bird first but then it looks like a needle going into skin,34,200,20","Paul","Maybe it's supposed to be a bird but it looks like a scary cloaked figure. it's just too simple and jarring,-23,300,20","Jose","This could be so many different things. I saw a bird first but then it looks like a needle going into skin,34,200,20","Zachary","Reminds me of a plant poking through the soil. It reminds me of new life.,31,400,20","0"
"11973","","survey-text","65","425665","0.0-65.0-0.0","A2JQI1SDHK32T6","","","","{""Q0"":""pretty. makes me think of a stream.""}","","","","","","","","","","","","","","","","","","","","","","",""
"5906.899999976158","","image-slider-response","66","431573","0.0-66.0","A2JQI1SDHK32T6","","","","","30","","","","","","","","","","","","","","","","","","","","","",""
"null","","image-button-response","67","436582","0.0-67.0","A2JQI1SDHK32T6","img_art/24.jpg","null","","","","","","","","","","","","","","","","","","","","","","","","",""
"458","","image-button-response","68","437043","0.0-68.0","A2JQI1SDHK32T6","img_art/24.jpg","3","","","","","","","","","","","","","","","","","","","","","","","","",""
"1296","","image-button-response","69","438341","0.0-69.0-0.0","A2JQI1SDHK32T6","img_art/24.jpg","4","","","","","","","","","","","","","","","","","","","","","","","","",""
"2093","","image-button-response","70","440437","0.0-70.0-0.0","A2JQI1SDHK32T6","img_art/24.jpg","5","","","","","","","","","","","","","","","","","","","","","","","","",""
"null","","html-keyboard-response","71","441939","0.0-71.0","A2JQI1SDHK32T6","<p style=""font-size: 48px;"">+</p>","","","","","null","allTrialResponses","1500","1","4","img_art/24.jpg","30","pretty. makes me think of a stream.","Justin,Shawn,Paul,Zachary,Colton,Jose","Nice colors, but doesn't do much for me.,1,280,20","Pretty but cheesy,-15,100,20","It looks alive, like I can hear the water flowing,41,300,20","Looks like a beautiful stream rolling through terrain of rocks and flowers.,43,400,20","reminds me of a beautiful waterfall,50,220,20","The combination of nature / realism with abstract colors is unique.,39,200,20","Zachary","Looks like a beautiful stream rolling through terrain of rocks and flowers.,43,400,20","Colton","reminds me of a beautiful waterfall,50,220,20","Jose","The combination of nature / realism with abstract colors is unique.,39,200,20","0"
"15762","","survey-text","72","457707","0.0-72.0-0.0","A2JQI1SDHK32T6","","","","{""Q0"":""neat looks ancient.""}","","","","","","","","","","","","","","","","","","","","","","",""
"3413.199999988079","","image-slider-response","73","461122","0.0-73.0","A2JQI1SDHK32T6","","","","","20","","","","","","","","","","","","","","","","","","","","","",""
"1961","","image-button-response","74","466129","0.0-74.0","A2JQI1SDHK32T6","img_art/25.jpg","4","","","","","","","","","","","","","","","","","","","","","","","","",""
"2045","","image-button-response","75","468176","0.0-75.0","A2JQI1SDHK32T6","img_art/25.jpg","1","","","","","","","","","","","","","","","","","","","","","","","","",""
"1695","","image-button-response","76","469872","0.0-76.0-0.0","A2JQI1SDHK32T6","img_art/25.jpg","4","","","","","","","","","","","","","","","","","","","","","","","","",""
"1725","","image-button-response","77","471600","0.0-77.0-0.0","A2JQI1SDHK32T6","img_art/25.jpg","2","","","","","","","","","","","","","","","","","","","","","","","","",""
"null","","html-keyboard-response","78","472602","0.0-78.0","A2JQI1SDHK32T6","<p style=""font-size: 48px;"">+</p>","","","","","null","allTrialResponses","1000","1","5","img_art/25.jpg","20","neat looks ancient.","Michael,Luke,Jesus,Zachary,Colton,Jose","Low skill not impressed.,-14,140,20","the contrasting colors are very interesting,24,20,20","Very nice color contrast and design.,40,100,20","I like the green color, but the combination of green and a person with a long neck reminds me of aliens,-27,400,20","the colors are pretty,11,220,20","That's pretty awesome. I love the green and black combo, reminds me of one of those cartoon creepy movies,47,200,20","Luke","the contrasting colors are very interesting,24,20,20","Colton","the colors are pretty,11,220,20","Jesus","Very nice color contrast and design.,40,100,20","0"
"3203","","survey-text","79","475823","0.0-79.0-0.0","A2JQI1SDHK32T6","","","","{""Q0"":""sky""}","","","","","","","","","","","","","","","","","","","","","","",""
"7942","","survey-text","80","483767","0.0-80.0-0.0","A2JQI1SDHK32T6","","","","{""Q0"":""very complex and abstract""}","","","","","","","","","","","","","","","","","","","","","","",""
"3525.100000023842","","image-slider-response","81","487294","0.0-81.0","A2JQI1SDHK32T6","","","","","29","","","","","","","","","","","","","","","","","","","","","",""
"null","","image-button-response","82","492307","0.0-82.0","A2JQI1SDHK32T6","img_art/29.jpg","null","","","","","","","","","","","","","","","","","","","","","","","","",""
"3295","","image-button-response","83","495605","0.0-83.0","A2JQI1SDHK32T6","img_art/29.jpg","2","","","","","","","","","","","","","","","","","","","","","","","","",""
"1970","","image-button-response","84","497577","0.0-84.0-0.0","A2JQI1SDHK32T6","img_art/29.jpg","1","","","","","","","","","","","","","","","","","","","","","","","","",""
"3516","","image-button-response","85","501095","0.0-85.0-0.0","A2JQI1SDHK32T6","img_art/29.jpg","4","","","","","","","","","","","","","","","","","","","","","","","","",""
"null","","html-keyboard-response","86","502100","0.0-86.0","A2JQI1SDHK32T6","<p style=""font-size: 48px;"">+</p>","","","","","null","allTrialResponses","1000","1","6","img_art/29.jpg","29","very complex and abstract","Chase,Luke,Jesus,Jordan,Colton,Cole","This is ugly as fuck,-50,120,20","it is difficult to look at but you can't look away,-25,20,20","The light source is confusing, but still interesting to look at,11,100,20","Messy and disorganized, to odark,-31,160,20","interesting, but I wouldn't put it on my wall,8,220,20","Looks like someone trying to make something they dont understand,-36,200,20","Jesus","The light source is confusing, but still interesting to look at,11,100,20","Luke","it is difficult to look at but you can't look away,-25,20,20","Colton","interesting, but I wouldn't put it on my wall,8,220,20","0"
"16035","","survey-text","87","518144","0.0-87.0-0.0","A2JQI1SDHK32T6","","","","{""Q0"":""strains my eyes, looks out of focus""}","","","","","","","","","","","","","","","","","","","","","","",""
"4240.199999988079","","image-slider-response","88","522386","0.0-88.0","A2JQI1SDHK32T6","","","","","-33","","","","","","","","","","","","","","","","","","","","","",""
"null","","image-button-response","89","527390","0.0-89.0","A2JQI1SDHK32T6","img_art/1.jpg","null","","","","","","","","","","","","","","","","","","","","","","","","",""
"1260","","image-button-response","90","528651","0.0-90.0","A2JQI1SDHK32T6","img_art/1.jpg","3","","","","","","","","","","","","","","","","","","","","","","","","",""
"5499","","image-button-response","91","534151","0.0-91.0-0.0","A2JQI1SDHK32T6","img_art/1.jpg","0","","","","","","","","","","","","","","","","","","","","","","","","",""
"4003","","image-button-response","92","538157","0.0-92.0-0.0","A2JQI1SDHK32T6","img_art/1.jpg","4","","","","","","","","","","","","","","","","","","","","","","","","",""
"null","","html-keyboard-response","93","539160","0.0-93.0","A2JQI1SDHK32T6","<p style=""font-size: 48px;"">+</p>","","","","","null","allTrialResponses","1000","1","7","img_art/1.jpg","-33","strains my eyes, looks out of focus","Carlos,Luke,Jesus,Malik,Colton,Joseph","Colors are pleasant, but feels incredibly generic.,9,80,20","it is very colorful and makes me happy,44,20,20","I like the simple aspect to the design,21,100,20","Vague and directionless,-14,40,20","the colors are nice,8,220,20","Happy! Reminds me of hiking in tennesee.,18,220,20","Malik","Vague and directionless,-14,40,20","Carlos","Colors are pleasant, but feels incredibly generic.,9,80,20","Colton","the colors are nice,8,220,20","0"
"18052","","survey-text","94","557225","0.0-94.0-0.0","A2JQI1SDHK32T6","","","","{""Q0"":""not a fan of the colors used together""}","","","","","","","","","","","","","","","","","","","","","","",""
"3422.900000035763","","image-slider-response","95","560650","0.0-95.0","A2JQI1SDHK32T6","","","","","-23","","","","","","","","","","","","","","","","","","","","","",""
"2778","","image-button-response","96","565653","0.0-96.0","A2JQI1SDHK32T6","img_art/28.jpg","4","","","","","","","","","","","","","","","","","","","","","","","","",""
"2100","","image-button-response","97","567755","0.0-97.0","A2JQI1SDHK32T6","img_art/28.jpg","4","","","","","","","","","","","","","","","","","","","","","","","","",""
"2942","","image-button-response","98","570699","0.0-98.0-0.0","A2JQI1SDHK32T6","img_art/28.jpg","2","","","","","","","","","","","","","","","","","","","","","","","","",""
"8298","","image-button-response","99","578999","0.0-99.0-0.0","A2JQI1SDHK32T6","img_art/28.jpg","0","","","","","","","","","","","","","","","","","","","","","","","","",""
"null","","html-keyboard-response","100","580508","0.0-100.0","A2JQI1SDHK32T6","<p style=""font-size: 48px;"">+</p>","","","","","null","allTrialResponses","1500","1","8","img_art/28.jpg","-23","not a fan of the colors used together","Carlos,Tyler,Alexis,Malik,Colton,Shane","Colors are pleasing, shapes are vaguely unpleasant. Kidneys at a smoky bar.,5,80,20","It's okay. There is harmony and balance.,11,320,20","The brown and green colors used look dull and unappealing,-30,140,20","Invokes curiosity, I want to know it's story.,15,40,20","not a fan of the colors or strokes used,-27,220,20","This is also something I would see in a serious but safe environment,14,80,20","Colton","not a fan of the colors or strokes used,-27,220,20","Alexis","The brown and green colors used look dull and unappealing,-30,140,20","Carlos","Colors are pleasing, shapes are vaguely unpleasant. Kidneys at a smoky bar.,5,80,20","0"
"29373","","survey-text","101","609895","0.0-101.0-0.0","A2JQI1SDHK32T6","","","","{""Q0"":""like the brush strokes but looks like a kids painting.""}","","","","","","","","","","","","","","","","","","","","","","",""
"4403.899999976158","","image-slider-response","102","614301","0.0-102.0","A2JQI1SDHK32T6","","","","","-20","","","","","","","","","","","","","","","","","","","","","",""
"2747","","image-button-response","103","619304","0.0-103.0","A2JQI1SDHK32T6","img_art/30.jpg","0","","","","","","","","","","","","","","","","","","","","","","","","",""
"382","","image-button-response","104","619689","0.0-104.0","A2JQI1SDHK32T6","img_art/30.jpg","4","","","","","","","","","","","","","","","","","","","","","","","","",""
"5560","","image-button-response","105","625249","0.0-105.0-0.0","A2JQI1SDHK32T6","img_art/30.jpg","0","","","","","","","","","","","","","","","","","","","","","","","","",""
"1490","","image-button-response","106","626742","0.0-106.0-0.0","A2JQI1SDHK32T6","img_art/30.jpg","1","","","","","","","","","","","","","","","","","","","","","","","","",""
"null","","html-keyboard-response","107","627244","0.0-107.0","A2JQI1SDHK32T6","<p style=""font-size: 48px;"">+</p>","","","","","null","allTrialResponses","500","1","9","img_art/30.jpg","-20","like the brush strokes but looks like a kids painting.","Carlos,Timothy,Alexis,Seth,Colton,Aaron","It just feels hasty and not well composed. Has an angsty teen feel,-31,80,20","It's pleasent but otherwise unprovoking,8,240,20","I like the strong lines or brush strokes. It looks modern and bold,21,140,20","I love the color contrast of the red against the blue.,9,60,20","too segmented, looks sloppy,-37,220,20","It looks like a pretty but unremarkable painting in a doctors office,15,20,20","Colton","too segmented, looks sloppy,-37,220,20","Carlos","It just feels hasty and not well composed. Has an angsty teen feel,-31,80,20","Timothy","It's pleasent but otherwise unprovoking,8,240,20","0"
"14351","","survey-text","108","641605","0.0-108.0-0.0","A2JQI1SDHK32T6","","","","{""Q0"":""interesting texture""}","","","","","","","","","","","","","","","","","","","","","","",""
"4128.699999988079","","image-slider-response","109","645736","0.0-109.0","A2JQI1SDHK32T6","","","","","-18","","","","","","","","","","","","","","","","","","","","","",""
"2513","","image-button-response","110","650743","0.0-110.0","A2JQI1SDHK32T6","img_art/7.jpg","4","","","","","","","","","","","","","","","","","","","","","","","","",""
"1234","","image-button-response","111","651981","0.0-111.0","A2JQI1SDHK32T6","img_art/7.jpg","1","","","","","","","","","","","","","","","","","","","","","","","","",""
"2513","","image-button-response","112","654495","0.0-112.0-0.0","A2JQI1SDHK32T6","img_art/7.jpg","2","","","","","","","","","","","","","","","","","","","","","","","","",""
"2473","","image-button-response","113","656971","0.0-113.0-0.0","A2JQI1SDHK32T6","img_art/7.jpg","4","","","","","","","","","","","","","","","","","","","","","","","","",""
"null","","html-keyboard-response","114","658478","0.0-114.0","A2JQI1SDHK32T6","<p style=""font-size: 48px;"">+</p>","","","","","null","allTrialResponses","1500","1","10","img_art/7.jpg","-18","interesting texture","Carlos,Timothy,Eric,Noah,Colton,Austin","The dried bottom of a puddle in July.,-41,80,20","This feels very earthy and grounded,20,240,20","This piece is really simple but the colors and texture work well together.,20,100,20","elicits no real response,0,260,20","reminds me of a cave wall,-21,220,20","The picture is just random,-8,240,20","Timothy","This feels very earthy and grounded,20,240,20","Eric","This piece is really simple but the colors and texture work well together.,20,100,20","Colton","reminds me of a cave wall,-21,220,20","0"
"3565","","survey-text","115","662051","0.0-115.0-0.0","A2JQI1SDHK32T6","","","","{""Q0"":""our""}","","","","","","","","","","","","","","","","","","","","","","",""
"16446","","survey-text","116","678498","0.0-116.0-0.0","A2JQI1SDHK32T6","","","","{""Q0"":""looks like a mangled hand.""}","","","","","","","","","","","","","","","","","","","","","","",""
"6110.399999976158","","image-slider-response","117","684610","0.0-117.0","A2JQI1SDHK32T6","","","","","-24","","","","","","","","","","","","","","","","","","","","","",""
"3401","","image-button-response","118","689627","0.0-118.0","A2JQI1SDHK32T6","img_art/4.jpg","4","","","","","","","","","","","","","","","","","","","","","","","","",""
"1091","","image-button-response","119","690722","0.0-119.0","A2JQI1SDHK32T6","img_art/4.jpg","4","","","","","","","","","","","","","","","","","","","","","","","","",""
"3874","","image-button-response","120","694597","0.0-120.0-0.0","A2JQI1SDHK32T6","img_art/4.jpg","1","","","","","","","","","","","","","","","","","","","","","","","","",""
"3186","","image-button-response","121","697786","0.0-121.0-0.0","A2JQI1SDHK32T6","img_art/4.jpg","5","","","","","","","","","","","","","","","","","","","","","","","","",""
"null","","html-keyboard-response","122","699298","0.0-122.0","A2JQI1SDHK32T6","<p style=""font-size: 48px;"">+</p>","","","","","null","allTrialResponses","1500","1","11","img_art/4.jpg","-24","looks like a mangled hand.","Nathan,Timothy,Eric,Caleb,Colton,Ian","Not my preference when it comes to art styles or subjects,-10,200,20","The colors feel a bit off to me,-10,240,20","This piece catches my eye, but it's strange to me.,10,100,20","Colors are horrendous, look like bodily fluids have been smeared.,-50,40,20","I really don't like the colors,-26,220,20","I just don't understand this one at all, I do not like it,-43,260,20","Colton","I really don't like the colors,-26,220,20","Timothy","The colors feel a bit off to me,-10,240,20","Ian","I just don't understand this one at all, I do not like it,-43,260,20","0"
"8644","","survey-text","123","707957","0.0-123.0-0.0","A2JQI1SDHK32T6","","","","{""Q0"":""complex, reminds me of a quilt.""}","","","","","","","","","","","","","","","","","","","","","","",""
"3933.300000011921","","image-slider-response","124","711893","0.0-124.0","A2JQI1SDHK32T6","","","","","22","","","","","","","","","","","","","","","","","","","","","",""
"null","","image-button-response","125","716906","0.0-125.0","A2JQI1SDHK32T6","img_art/12.jpg","null","","","","","","","","","","","","","","","","","","","","","","","","",""
"6023","","image-button-response","126","722933","0.0-126.0","A2JQI1SDHK32T6","img_art/12.jpg","4","","","","","","","","","","","","","","","","","","","","","","","","",""
"9382","","image-button-response","127","732317","0.0-127.0-0.0","A2JQI1SDHK32T6","img_art/12.jpg","3","","","","","","","","","","","","","","","","","","","","","","","","",""
"4095","","image-button-response","128","736415","0.0-128.0-0.0","A2JQI1SDHK32T6","img_art/12.jpg","2","","","","","","","","","","","","","","","","","","","","","","","","",""
"null","","html-keyboard-response","129","736921","0.0-129.0","A2JQI1SDHK32T6","<p style=""font-size: 48px;"">+</p>","","","","","null","allTrialResponses","500","1","12","img_art/12.jpg","22","complex, reminds me of a quilt.","Jesse,Timothy,Alex,Jeremy,Colton,Ian","Just confuses me overall,-11,80,20","The shapes make me feel a bit uncomfortable,-10,240,20","eww hate everything about this, looks like it belongs in a dentist's office,-14,100,20","do not like it. Seems too busy,-10,60,20","i like the repetition,30,220,20","This is like going to a really old mcdoanlds in a tiny town and it's never been renovated so it's breaking down,-31,260,20","Colton","i like the repetition,30,220,20","Jeremy","do not like it. Seems too busy,-10,60,20","Alex","eww hate everything about this, looks like it belongs in a dentist's office,-14,100,20","0"
"43098","","survey-text","130","780027","0.0-130.0-0.0","A2JQI1SDHK32T6","","","","{""Q0"":""i like the chaos over the cleaner background""}","","","","","","","","","","","","","","","","","","","","","","",""
"6142","","image-slider-response","131","786171","0.0-131.0","A2JQI1SDHK32T6","","","","","21","","","","","","","","","","","","","","","","","","","","","",""
"2146","","image-button-response","132","791176","0.0-132.0","A2JQI1SDHK32T6","img_art/13.jpg","4","","","","","","","","","","","","","","","","","","","","","","","","",""
"1973","","image-button-response","133","793154","0.0-133.0","A2JQI1SDHK32T6","img_art/13.jpg","2","","","","","","","","","","","","","","","","","","","","","","","","",""
"1449","","image-button-response","134","794606","0.0-134.0-0.0","A2JQI1SDHK32T6","img_art/13.jpg","3","","","","","","","","","","","","","","","","","","","","","","","","",""
"1143","","image-button-response","135","795752","0.0-135.0-0.0","A2JQI1SDHK32T6","img_art/13.jpg","4","","","","","","","","","","","","","","","","","","","","","","","","",""
"null","","html-keyboard-response","136","796760","0.0-136.0","A2JQI1SDHK32T6","<p style=""font-size: 48px;"">+</p>","","","","","null","allTrialResponses","1000","1","13","img_art/13.jpg","21","i like the chaos over the cleaner background","Lucas,Grant,Alex,Jeremy,Colton,Mason","Incredible, curious.,20,380,20","This elicits no reaction in me.,0,200,20","I like the blue colors and the symmetry and paint splatters but I would not hang it in my house,8,100,20","Pleased. I like to combination of colors,17,60,20","love the colors and splatters,44,220,20","meh, 80's. retro,-9,100,20","Alex","I like the blue colors and the symmetry and paint splatters but I would not hang it in my house,8,100,20","Jeremy","Pleased. I like to combination of colors,17,60,20","Colton","love the colors and splatters,44,220,20","0"
"10751","","survey-text","137","807523","0.0-137.0-0.0","A2JQI1SDHK32T6","","","","{""Q0"":""freaky""}","","","","","","","","","","","","","","","","","","","","","","",""
"2829.900000035763","","image-slider-response","138","810354","0.0-138.0","A2JQI1SDHK32T6","","","","","9","","","","","","","","","","","","","","","","","","","","","",""
"2564","","image-button-response","139","815358","0.0-139.0","A2JQI1SDHK32T6","img_art/18.jpg","4","","","","","","","","","","","","","","","","","","","","","","","","",""
"3316","","image-button-response","140","818677","0.0-140.0","A2JQI1SDHK32T6","img_art/18.jpg","4","","","","","","","","","","","","","","","","","","","","","","","","",""
"1622","","image-button-response","141","820302","0.0-141.0-0.0","A2JQI1SDHK32T6","img_art/18.jpg","0","","","","","","","","","","","","","","","","","","","","","","","","",""
"1244","","image-button-response","142","821550","0.0-142.0-0.0","A2JQI1SDHK32T6","img_art/18.jpg","2","","","","","","","","","","","","","","","","","","","","","","","","",""
"null","","html-keyboard-response","143","823052","0.0-143.0","A2JQI1SDHK32T6","<p style=""font-size: 48px;"">+</p>","","","","","null","allTrialResponses","1500","1","14","img_art/18.jpg","9","freaky","Hunter,Andrew,Alex,Jeremy,Colton,David","creamy color, feels like organized chaos,23,240,20","Another ominous painting,-10,160,20","The small lines elicit a very nauseating response for some reason, too Dali like for me,-19,100,20","Unhappy. Makes me thing of evil,-10,60,20","reminds me of greek mythology,22,220,20","I like how the image gives off an impression of bravery.,25,340,20","Colton","reminds me of greek mythology,22,220,20","Hunter","creamy color, feels like organized chaos,23,240,20","Alex","The small lines elicit a very nauseating response for some reason, too Dali like for me,-19,100,20","0"
"39253","","survey-text","144","862313","0.0-144.0-0.0","A2JQI1SDHK32T6","","","","{""Q0"":""interesting but depressing""}","","","","","","","","","","","","","","","","","","","","","","",""
"3535.899999976158","","image-slider-response","145","865850","0.0-145.0","A2JQI1SDHK32T6","","","","","-23","","","","","","","","","","","","","","","","","","","","","",""
"3034","","image-button-response","146","870860","0.0-146.0","A2JQI1SDHK32T6","img_art/10.jpg","4","","","","","","","","","","","","","","","","","","","","","","","","",""
"937","","image-button-response","147","871801","0.0-147.0","A2JQI1SDHK32T6","img_art/10.jpg","1","","","","","","","","","","","","","","","","","","","","","","","","",""
"1194","","image-button-response","148","872997","0.0-148.0-0.0","A2JQI1SDHK32T6","img_art/10.jpg","2","","","","","","","","","","","","","","","","","","","","","","","","",""
"1216","","image-button-response","149","874214","0.0-149.0-0.0","A2JQI1SDHK32T6","img_art/10.jpg","4","","","","","","","","","","","","","","","","","","","","","","","","",""
"null","","html-keyboard-response","150","875216","0.0-150.0","A2JQI1SDHK32T6","<p style=""font-size: 48px;"">+</p>","","","","","null","allTrialResponses","1000","1","15","img_art/10.jpg","-23","interesting but depressing","Hunter,Nicholas,Alex,Angel,Colton,Bryce","shapes are appealing/relationship between the beige square and the black lines,24,240,20","I like it but do not love it. It is sort of depressing,13,240,20","This could be a guitar, or it could be a completely random shape.,-3,100,20","This piece makes me think of music. The music is dark; I like dark music so it edges toward good.,10,180,20","it looks very musical,24,220,20","Kinda creepy not my favorite,-26,20,20","Nicholas","I like it but do not love it. It is sort of depressing,13,240,20","Alex","This could be a guitar, or it could be a completely random shape.,-3,100,20","Colton","it looks very musical,24,220,20","0"
"3456","","survey-text","151","878692","0.0-151.0-0.0","A2JQI1SDHK32T6","","","","{""Q0"":""course""}","","","","","","","","","","","","","","","","","","","","","","",""
"27974","","survey-text","152","906668","0.0-152.0-0.0","A2JQI1SDHK32T6","","","","{""Q0"":""pretty""}","","","","","","","","","","","","","","","","","","","","","","",""
"4028.300000011921","","image-slider-response","153","910698","0.0-153.0","A2JQI1SDHK32T6","","","","","9","","","","","","","","","","","","","","","","","","","","","",""
"2054","","image-button-response","154","915702","0.0-154.0","A2JQI1SDHK32T6","img_art/11.jpg","1","","","","","","","","","","","","","","","","","","","","","","","","",""
"1241","","image-button-response","155","916947","0.0-155.0","A2JQI1SDHK32T6","img_art/11.jpg","2","","","","","","","","","","","","","","","","","","","","","","","","",""
"1532","","image-button-response","156","918480","0.0-156.0-0.0","A2JQI1SDHK32T6","img_art/11.jpg","4","","","","","","","","","","","","","","","","","","","","","","","","",""
"3718","","image-button-response","157","922201","0.0-157.0-0.0","A2JQI1SDHK32T6","img_art/11.jpg","1","","","","","","","","","","","","","","","","","","","","","","","","",""
"null","","html-keyboard-response","158","923703","0.0-158.0","A2JQI1SDHK32T6","<p style=""font-size: 48px;"">+</p>","","","","","null","allTrialResponses","1500","1","16","img_art/11.jpg","9","pretty","Jeffrey,Nicholas,Alex,Patrick,Colton,Devin","a lot of dark colours,-8,40,20","Love the colors and flow,50,240,20","I think this is a city but I'm not sure, very abstract,18,100,20","Looks sad but clean,31,280,20","the wavy lines are nice and pleasing,13,220,20","I like the vibe of the painting,-3,380,20","Alex","I think this is a city but I'm not sure, very abstract,18,100,20","Colton","the wavy lines are nice and pleasing,13,220,20","Nicholas","Love the colors and flow,50,240,20","0"
"8350","","survey-text","159","932060","0.0-159.0-0.0","A2JQI1SDHK32T6","","","","{""Q0"":""well done love the dimensions""}","","","","","","","","","","","","","","","","","","","","","","",""
"4352.699999988079","","image-slider-response","160","936415","0.0-160.0","A2JQI1SDHK32T6","","","","","26","","","","","","","","","","","","","","","","","","","","","",""
"4395","","image-button-response","161","941418","0.0-161.0","A2JQI1SDHK32T6","img_art/8.jpg","4","","","","","","","","","","","","","","","","","","","","","","","","",""
"1714","","image-button-response","162","943134","0.0-162.0","A2JQI1SDHK32T6","img_art/8.jpg","5","","","","","","","","","","","","","","","","","","","","","","","","",""
"929","","image-button-response","163","944064","0.0-163.0-0.0","A2JQI1SDHK32T6","img_art/8.jpg","4","","","","","","","","","","","","","","","","","","","","","","","","",""
"1552","","image-button-response","164","945619","0.0-164.0-0.0","A2JQI1SDHK32T6","img_art/8.jpg","2","","","","","","","","","","","","","","","","","","","","","","","","",""
"null","","html-keyboard-response","165","946621","0.0-165.0","A2JQI1SDHK32T6","<p style=""font-size: 48px;"">+</p>","","","","","null","allTrialResponses","1000","1","17","img_art/8.jpg","26","well done love the dimensions","Trevor,Nicholas,Alex,Tanner,Colton,Steven","it looks very 80's and kind of scary,-11,280,20","The face bothers me,-25,240,20","I appreciate the complexity of this piece but it's too cubist for me,3,100,20","mothe nature/godess, watching over you,21,180,20","looks like an aerial view, very pretty,32,220,20","very nice, i love what's going on here,21,160,20","Steven","very nice, i love what's going on here,21,160,20","Colton","looks like an aerial view, very pretty,32,220,20","Alex","I appreciate the complexity of this piece but it's too cubist for me,3,100,20","0"
"14981","","survey-text","166","961614","0.0-166.0-0.0","A2JQI1SDHK32T6","","","","{""Q0"":""childish doodling""}","","","","","","","","","","","","","","","","","","","","","","",""
"5488.800000011921","","image-slider-response","167","967105","0.0-167.0","A2JQI1SDHK32T6","","","","","-15","","","","","","","","","","","","","","","","","","","","","",""
"3799","","image-button-response","168","972107","0.0-168.0","A2JQI1SDHK32T6","img_art/19.jpg","0","","","","","","","","","","","","","","","","","","","","","","","","",""
"586","","image-button-response","169","972697","0.0-169.0","A2JQI1SDHK32T6","img_art/19.jpg","0","","","","","","","","","","","","","","","","","","","","","","","","",""
"1848","","image-button-response","170","974547","0.0-170.0-0.0","A2JQI1SDHK32T6","img_art/19.jpg","4","","","","","","","","","","","","","","","","","","","","","","","","",""
"2075","","image-button-response","171","976623","0.0-171.0-0.0","A2JQI1SDHK32T6","img_art/19.jpg","1","","","","","","","","","","","","","","","","","","","","","","","","",""
"null","","html-keyboard-response","172","977128","0.0-172.0","A2JQI1SDHK32T6","<p style=""font-size: 48px;"">+</p>","","","","","null","allTrialResponses","500","1","18","img_art/19.jpg","-15","childish doodling","Dakota,Dustin,Alex,Joshua,Colton,Steven","confusion, scattered and diffuse,-4,280,20","Too busy, makes me anxious and frustrated. Lots of movement in the brush strokes.,-9,20,20","I like the water but again, the small lines with no detail are irritating,3,100,20","Just don't like this one.,-9,240,20","way too much going on,-33,220,20","I like it, I see someone walking his dog in the early morning time,23,160,20","Dakota","confusion, scattered and diffuse,-4,280,20","Colton","way too much going on,-33,220,20","Dustin","Too busy, makes me anxious and frustrated. Lots of movement in the brush strokes.,-9,20,20","0"
"9795","","survey-text","173","986938","0.0-173.0-0.0","A2JQI1SDHK32T6","","","","{""Q0"":""too dull""}","","","","","","","","","","","","","","","","","","","","","","",""
"3289.800000011921","","image-slider-response","174","990230","0.0-174.0","A2JQI1SDHK32T6","","","","","-23","","","","","","","","","","","","","","","","","","","","","",""
"null","","image-button-response","175","995240","0.0-175.0","A2JQI1SDHK32T6","img_art/27.jpg","null","","","","","","","","","","","","","","","","","","","","","","","","",""
"1890","","image-button-response","176","997132","0.0-176.0","A2JQI1SDHK32T6","img_art/27.jpg","0","","","","","","","","","","","","","","","","","","","","","","","","",""
"1470","","image-button-response","177","998604","0.0-177.0-0.0","A2JQI1SDHK32T6","img_art/27.jpg","4","","","","","","","","","","","","","","","","","","","","","","","","",""
"1634","","image-button-response","178","1000240","0.0-178.0-0.0","A2JQI1SDHK32T6","img_art/27.jpg","1","","","","","","","","","","","","","","","","","","","","","","","","",""
"null","","html-keyboard-response","179","1000753","0.0-179.0","A2JQI1SDHK32T6","<p style=""font-size: 48px;"">+</p>","","","","","null","allTrialResponses","500","1","19","img_art/27.jpg","-23","too dull","Dakota,Dustin,Bradley,Peter,Colton,Luis","feels like a bar scene, tucked away in the corner of a small town,-40,280,20","Fire, explosion. Red/orange colors are fire/explosion. White is smoke. Makes me worried/scared/anxious,-20,20,20","Yikes. I think I made this in kindergarten.,-20,300,20","Calming sky , relaxing,23,320,20","looks like a little kid did it,-30,220,20","Love the representation of home,22,400,20","Dakota","feels like a bar scene, tucked away in the corner of a small town,-40,280,20","Colton","looks like a little kid did it,-30,220,20","Dustin","Fire, explosion. Red/orange colors are fire/explosion. White is smoke. Makes me worried/scared/anxious,-20,20,20","0"
"10873","","survey-text","180","1011640","0.0-180.0-0.0","A2JQI1SDHK32T6","","","","{""Q0"":""Not sure whats going on here""}","","","","","","","","","","","","","","","","","","","","","","",""
"4158.699999988079","","image-slider-response","181","1015801","0.0-181.0","A2JQI1SDHK32T6","","","","","-13","","","","","","","","","","","","","","","","","","","","","",""
"2298","","image-button-response","182","1020807","0.0-182.0","A2JQI1SDHK32T6","img_art/5.jpg","4","","","","","","","","","","","","","","","","","","","","","","","","",""
"2689","","image-button-response","183","1023500","0.0-183.0","A2JQI1SDHK32T6","img_art/5.jpg","1","","","","","","","","","","","","","","","","","","","","","","","","",""
"2707","","image-button-response","184","1026209","0.0-184.0-0.0","A2JQI1SDHK32T6","img_art/5.jpg","4","","","","","","","","","","","","","","","","","","","","","","","","",""
"1265","","image-button-response","185","1027476","0.0-185.0-0.0","A2JQI1SDHK32T6","img_art/5.jpg","0","","","","","","","","","","","","","","","","","","","","","","","","",""
"null","","html-keyboard-response","186","1028979","0.0-186.0","A2JQI1SDHK32T6","<p style=""font-size: 48px;"">+</p>","","","","","null","allTrialResponses","1500","1","20","img_art/5.jpg","-13","Not sure whats going on here","Dakota,Dustin,James,Connor,Colton,John","fresh and fun - bright and active,16,280,20","I don't get it at all. But, maybe it is the top portion of a piece of fruit.,-50,20,20","Very bright and has colors you wouldn't think would go together,11,380,20","Flame, candle, wind,30,240,20","I like the strokes and colors used,20,220,20","It has a sense of vague familiarity that i like.Like a stick starting a fire at a campsite.,30,120,20","Dustin","I don't get it at all. But, maybe it is the top portion of a piece of fruit.,-50,20,20","Colton","I like the strokes and colors used,20,220,20","Dakota","fresh and fun - bright and active,16,280,20","0"
"5439","","survey-text","187","1034449","0.0-187.0-0.0","A2JQI1SDHK32T6","","","","{""Q0"":""we""}","","","","","","","","","","","","","","","","","","","","","","",""
"10172","","survey-text","188","1044622","0.0-188.0-0.0","A2JQI1SDHK32T6","","","","{""Q0"":""too dark not a fan""}","","","","","","","","","","","","","","","","","","","","","","",""
"3658.900000035763","","image-slider-response","189","1048283","0.0-189.0","A2JQI1SDHK32T6","","","","","-20","","","","","","","","","","","","","","","","","","","","","",""
"3576","","image-button-response","190","1053301","0.0-190.0","A2JQI1SDHK32T6","img_art/15.jpg","4","","","","","","","","","","","","","","","","","","","","","","","","",""
"1531","","image-button-response","191","1054836","0.0-191.0","A2JQI1SDHK32T6","img_art/15.jpg","1","","","","","","","","","","","","","","","","","","","","","","","","",""
"2126","","image-button-response","192","1056964","0.0-192.0-0.0","A2JQI1SDHK32T6","img_art/15.jpg","4","","","","","","","","","","","","","","","","","","","","","","","","",""
"1173","","image-button-response","193","1058139","0.0-193.0-0.0","A2JQI1SDHK32T6","img_art/15.jpg","5","","","","","","","","","","","","","","","","","","","","","","","","",""
"null","","html-keyboard-response","194","1059644","0.0-194.0","A2JQI1SDHK32T6","<p style=""font-size: 48px;"">+</p>","","","","","null","allTrialResponses","1500","1","21","img_art/15.jpg","-20","too dark not a fan","Dakota,Dustin,Brendan,Kyle,Colton,Jake","abrasive, rough, uneven,-31,280,20","Too much black. I see weeds or dead/dying flowers.,-40,20,20","some trees in the forest,15,340,20","I like it as the colors complement each other well,21,340,20","it's alright but a little cluttered,14,220,20","This looks odd and was not well executed.,-3,360,20","Dustin","Too much black. I see weeds or dead/dying flowers.,-40,20,20","Colton","it's alright but a little cluttered,14,220,20","Jake","This looks odd and was not well executed.,-3,360,20","0"
"27779","","survey-text","195","1087439","0.0-195.0-0.0","A2JQI1SDHK32T6","","","","{""Q0"":""I see a girl sleeping.   a little too scribbled for my taste""}","","","","","","","","","","","","","","","","","","","","","","",""
"3547.100000023842","","image-slider-response","196","1090988","0.0-196.0","A2JQI1SDHK32T6","","","","","-27","","","","","","","","","","","","","","","","","","","","","",""
"null","","image-button-response","197","1095993","0.0-197.0","A2JQI1SDHK32T6","img_art/9.jpg","null","","","","","","","","","","","","","","","","","","","","","","","","",""
"3521","","image-button-response","198","1099515","0.0-198.0","A2JQI1SDHK32T6","img_art/9.jpg","3","","","","","","","","","","","","","","","","","","","","","","","","",""
"2206","","image-button-response","199","1101723","0.0-199.0-0.0","A2JQI1SDHK32T6","img_art/9.jpg","1","","","","","","","","","","","","","","","","","","","","","","","","",""
"2371","","image-button-response","200","1104096","0.0-200.0-0.0","A2JQI1SDHK32T6","img_art/9.jpg","0","","","","","","","","","","","","","","","","","","","","","","","","",""
"null","","html-keyboard-response","201","1104597","0.0-201.0","A2JQI1SDHK32T6","<p style=""font-size: 48px;"">+</p>","","","","","null","allTrialResponses","500","1","22","img_art/9.jpg","-27","I see a girl sleeping.   a little too scribbled for my taste","Mitchell,Dustin,Travis,Tristan,Colton,Jake","Cozy, In her own world. feminine .,30,180,20","I like the blues and pinks. The woman lying down communicates relaxation. It is a serene, calming scene,30,20,20","Stuipid looking...dumb,-48,260,20","The busyness and harsh nature of the lines in this painting  mute my emotional response.,-10,300,20","the colors are nice,6,220,20","The colors and image is ugly.,-7,360,20","Tristan","The busyness and harsh nature of the lines in this painting  mute my emotional response.,-10,300,20","Dustin","I like the blues and pinks. The woman lying down communicates relaxation. It is a serene, calming scene,30,20,20","Mitchell","Cozy, In her own world. feminine .,30,180,20","0"
"26117","","survey-text","202","1130730","0.0-202.0-0.0","A2JQI1SDHK32T6","","","","{""Q0"":""reminds me of a hazy sunset""}","","","","","","","","","","","","","","","","","","","","","","",""
"3190.600000023842","","image-slider-response","203","1133922","0.0-203.0","A2JQI1SDHK32T6","","","","","7","","","","","","","","","","","","","","","","","","","","","",""
"null","","image-button-response","204","1138925","0.0-204.0","A2JQI1SDHK32T6","img_art/21.jpg","null","","","","","","","","","","","","","","","","","","","","","","","","",""
"424","","image-button-response","205","1139353","0.0-205.0","A2JQI1SDHK32T6","img_art/21.jpg","4","","","","","","","","","","","","","","","","","","","","","","","","",""
"4343","","image-button-response","206","1143698","0.0-206.0-0.0","A2JQI1SDHK32T6","img_art/21.jpg","1","","","","","","","","","","","","","","","","","","","","","","","","",""
"2308","","image-button-response","207","1146009","0.0-207.0-0.0","A2JQI1SDHK32T6","img_art/21.jpg","2","","","","","","","","","","","","","","","","","","","","","","","","",""
"null","","html-keyboard-response","208","1147011","0.0-208.0","A2JQI1SDHK32T6","<p style=""font-size: 48px;"">+</p>","","","","","null","allTrialResponses","1000","1","23","img_art/21.jpg","7","reminds me of a hazy sunset","Mitchell,Dustin,Derek,Tristan,Jack,Evan","Nature, water, ever changing. Cold then warm. Reaction is mostly positive and some negative,30,180,20","Immediately a positive response! I like the muted colors. the blurriness calms me. It's serene,40,20,20","I love the colors in this painting,30,360,20","A landscape that leaves me inspired and hopeful.,20,300,20","beautiful. reminds me of a storm brewing over sea. i love the white dots.,45,320,20","I feel confused,-18,140,20","Jack","beautiful. reminds me of a storm brewing over sea. i love the white dots.,45,320,20","Dustin","Immediately a positive response! I like the muted colors. the blurriness calms me. It's serene,40,20,20","Derek","I love the colors in this painting,30,360,20","0"
"31201","","survey-text","209","1178231","0.0-209.0-0.0","A2JQI1SDHK32T6","","","","{""Q0"":""reminds me of new years eve""}","","","","","","","","","","","","","","","","","","","","","","",""
"4538.699999988079","","image-slider-response","210","1182772","0.0-210.0","A2JQI1SDHK32T6","","","","","-12","","","","","","","","","","","","","","","","","","","","","",""
"3699","","image-button-response","211","1187787","0.0-211.0","A2JQI1SDHK32T6","img_art/23.jpg","1","","","","","","","","","","","","","","","","","","","","","","","","",""
"2671","","image-button-response","212","1190462","0.0-212.0","A2JQI1SDHK32T6","img_art/23.jpg","5","","","","","","","","","","","","","","","","","","","","","","","","",""
"15024","","image-button-response","213","1205488","0.0-213.0-0.0","A2JQI1SDHK32T6","img_art/23.jpg","0","","","","","","","","","","","","","","","","","","","","","","","","",""
"3607","","image-button-response","214","1209097","0.0-214.0-0.0","A2JQI1SDHK32T6","img_art/23.jpg","4","","","","","","","","","","","","","","","","","","","","","","","","",""
"null","","html-keyboard-response","215","1209614","0.0-215.0","A2JQI1SDHK32T6","<p style=""font-size: 48px;"">+</p>","","","","","null","allTrialResponses","500","1","24","img_art/23.jpg","-12","reminds me of new years eve","Matthew,Dustin,Derek,Jonathan,Jack,Corey","A line dance, it's really strinkingly beautiful.,50,120,20","I don't get it! the white in the middle of the speckled rainbow is confusing.,-10,20,20","Very colorful and wild. It's cool and I like it,32,360,20","Those colors are awesome! And I love the strip of negative space that almost looks like a line of people,50,140,20","awesome colors. love the white drawing the eye to the center. oddly comforting.,50,320,20","white reminds me of screamo music band tshirts when they have their name in the unreadable lettering,-9,260,20","Corey","white reminds me of screamo music band tshirts when they have their name in the unreadable lettering,-9,260,20","Matthew","A line dance, it's really strinkingly beautiful.,50,120,20","Jack","awesome colors. love the white drawing the eye to the center. oddly comforting.,50,320,20","0"
"7541","","survey-text","216","1217173","0.0-216.0-0.0","A2JQI1SDHK32T6","","","","{""Q0"":""too messy blah""}","","","","","","","","","","","","","","","","","","","","","","",""
"4467.700000047684","","image-slider-response","217","1221642","0.0-217.0","A2JQI1SDHK32T6","","","","","-23","","","","","","","","","","","","","","","","","","","","","",""
"4261","","image-button-response","218","1226656","0.0-218.0","A2JQI1SDHK32T6","img_art/2.jpg","5","","","","","","","","","","","","","","","","","","","","","","","","",""
"1045","","image-button-response","219","1227705","0.0-219.0","A2JQI1SDHK32T6","img_art/2.jpg","5","","","","","","","","","","","","","","","","","","","","","","","","",""
"2811","","image-button-response","220","1230518","0.0-220.0-0.0","A2JQI1SDHK32T6","img_art/2.jpg","1","","","","","","","","","","","","","","","","","","","","","","","","",""
"1398","","image-button-response","221","1231919","0.0-221.0-0.0","A2JQI1SDHK32T6","img_art/2.jpg","2","","","","","","","","","","","","","","","","","","","","","","","","",""
"null","","html-keyboard-response","222","1233436","0.0-222.0","A2JQI1SDHK32T6","<p style=""font-size: 48px;"">+</p>","","","","","null","allTrialResponses","1500","1","25","img_art/2.jpg","-23","too messy blah","Matthew,Ethan,Samuel,Mark,Jack,Corey","I think I can make out a face in there.,25,120,20","This looks like a professional abstract drawing. I like the shapes.,7,120,20","i liked the bright colors,13,400,20","It feels like a party and Moulin Rouge.,20,80,20","the colors are a bit odd, and the squiggly line at the top is distracting,0,320,20","doesn't do anything for me,-7,260,20","Corey","doesn't do anything for me,-7,260,20","Ethan","This looks like a professional abstract drawing. I like the shapes.,7,120,20","Samuel","i liked the bright colors,13,400,20","0"
"3385","","survey-text","223","1236846","0.0-223.0-0.0","A2JQI1SDHK32T6","","","","{""Q0"":""table""}","","","","","","","","","","","","","","","","","","","","","","",""
"17435","","survey-text","224","1254283","0.0-224.0-0.0","A2JQI1SDHK32T6","","","","{""Q0"":""looks like a bouquet of flowers blew up""}","","","","","","","","","","","","","","","","","","","","","","",""
"3475","","image-slider-response","225","1257759","0.0-225.0","A2JQI1SDHK32T6","","","","","-28","","","","","","","","","","","","","","","","","","","","","",""
"4066","","image-button-response","226","1262777","0.0-226.0","A2JQI1SDHK32T6","img_art/14.jpg","3","","","","","","","","","","","","","","","","","","","","","","","","",""
"877","","image-button-response","227","1263658","0.0-227.0","A2JQI1SDHK32T6","img_art/14.jpg","3","","","","","","","","","","","","","","","","","","","","","","","","",""
"1983","","image-button-response","228","1265642","0.0-228.0-0.0","A2JQI1SDHK32T6","img_art/14.jpg","0","","","","","","","","","","","","","","","","","","","","","","","","",""
"2861","","image-button-response","229","1268505","0.0-229.0-0.0","A2JQI1SDHK32T6","img_art/14.jpg","0","","","","","","","","","","","","","","","","","","","","","","","","",""
"4251","","image-button-response","230","1278413","0.0-229.1-0.1","A2JQI1SDHK32T6","img_art/14.jpg","5","","","","","","","","","","","","","","","","","","","","","","","","",""
"null","","html-keyboard-response","231","1279915","0.0-230.0","A2JQI1SDHK32T6","<p style=""font-size: 48px;"">+</p>","","","","","null","allTrialResponses","1500","1","26","img_art/14.jpg","-28","looks like a bouquet of flowers blew up","Taylor,Ethan,Samuel,Isaiah,Ryan,Corey","Are they blowing up a tree?,-5,200,20","I like the layers of color in this piece. The circles and lines are interesting.,29,120,20","tree of life brings hope,7,400,20","I feel uncomfortable looking at this painting, it is a mess that needs to be cleaned up.,-16,300,20","Gorgeous use of water color,50,380,20","its okay. pretty bland but looks like nature,8,260,20","Isaiah","I feel uncomfortable looking at this painting, it is a mess that needs to be cleaned up.,-16,300,20","Taylor","Are they blowing up a tree?,-5,200,20","Corey","its okay. pretty bland but looks like nature,8,260,20","2"
"14799","","survey-text","232","1294730","0.0-231.0-0.0","A2JQI1SDHK32T6","","","","{""Q0"":""too 90's abstract. hotel wall art""}","","","","","","","","","","","","","","","","","","","","","","",""
"4385.900000035763","","image-slider-response","233","1299118","0.0-232.0","A2JQI1SDHK32T6","","","","","-40","","","","","","","","","","","","","","","","","","","","","",""
"3607","","image-button-response","234","1304120","0.0-233.0","A2JQI1SDHK32T6","img_art/22.jpg","5","","","","","","","","","","","","","","","","","","","","","","","","",""
"1927","","image-button-response","235","1306050","0.0-234.0","A2JQI1SDHK32T6","img_art/22.jpg","5","","","","","","","","","","","","","","","","","","","","","","","","",""
"1592","","image-button-response","236","1307644","0.0-235.0-0.0","A2JQI1SDHK32T6","img_art/22.jpg","0","","","","","","","","","","","","","","","","","","","","","","","","",""
"1827","","image-button-response","237","1309474","0.0-236.0-0.0","A2JQI1SDHK32T6","img_art/22.jpg","3","","","","","","","","","","","","","","","","","","","","","","","","",""
"null","","html-keyboard-response","238","1309977","0.0-237.0","A2JQI1SDHK32T6","<p style=""font-size: 48px;"">+</p>","","","","","null","allTrialResponses","500","1","27","img_art/22.jpg","-40","too 90's abstract. hotel wall art","Taylor,Gregory,Blake,Isaiah,Robert,Corey","Looks like the kind of art I would see at the doctor's office.,-5,200,20","Like the mix of warm and cool colors,15,220,20","a lost balloon in outer space,12,280,20","The painting makes me feel a little sad.,12,300,20","I don't get much of a reaction.,11,360,20","i feel like this is a a basic art piece that a school would have on the wall,-24,260,20","Corey","i feel like this is a a basic art piece that a school would have on the wall,-24,260,20","Taylor","Looks like the kind of art I would see at the doctor's office.,-5,200,20","Isaiah","The painting makes me feel a little sad.,12,300,20","2"
"5789","","survey-text","239","1315783","0.0-238.0-0.0","A2JQI1SDHK32T6","","","","{""Q0"":""bloody madness""}","","","","","","","","","","","","","","","","","","","","","","",""
"4609.699999988079","","image-slider-response","240","1320394","0.0-239.0","A2JQI1SDHK32T6","","","","","-48","","","","","","","","","","","","","","","","","","","","","",""
"null","","image-button-response","241","1325409","0.0-240.0","A2JQI1SDHK32T6","img_art/3.jpg","null","","","","","","","","","","","","","","","","","","","","","","","","",""
"137","","image-button-response","242","1325548","0.0-241.0","A2JQI1SDHK32T6","img_art/3.jpg","3","","","","","","","","","","","","","","","","","","","","","","","","",""
"1288","","image-button-response","243","1326837","0.0-242.0-0.0","A2JQI1SDHK32T6","img_art/3.jpg","5","","","","","","","","","","","","","","","","","","","","","","","","",""
"2493","","image-button-response","244","1329332","0.0-243.0-0.0","A2JQI1SDHK32T6","img_art/3.jpg","0","","","","","","","","","","","","","","","","","","","","","","","","",""
"null","","html-keyboard-response","245","1329834","0.0-244.0","A2JQI1SDHK32T6","<p style=""font-size: 48px;"">+</p>","","","","","null","allTrialResponses","500","1","28","img_art/3.jpg","-48","bloody madness","Taylor,Jared,Alexander,Isaiah,Garrett,Corey","Why kids with color crayons is called art is beyond me. People pay for this???,-40,200,20","scattered and angry,-26,400,20","Somewhere between a child's art and a poorly drawn battle map.,8,120,20","I feel uncomfortable, like I am looking at a crime scene.,-17,300,20","I can't tell what this image is supposed to be it looks extremely ugly and color variety is boring.,-50,180,20","seems distressing. a blood scene,-3,260,20","Isaiah","I feel uncomfortable, like I am looking at a crime scene.,-17,300,20","Corey","seems distressing. a blood scene,-3,260,20","Taylor","Why kids with color crayons is called art is beyond me. People pay for this???,-40,200,20","2"
"21249","","survey-text","246","1351091","0.0-245.0-0.0","A2JQI1SDHK32T6","","","","{""Q0"":""looks like a tree in a courtyard""}","","","","","","","","","","","","","","","","","","","","","","",""
"3711.099999964237","","image-slider-response","247","1354803","0.0-246.0","A2JQI1SDHK32T6","","","","","16","","","","","","","","","","","","","","","","","","","","","",""
"4005","","image-button-response","248","1359806","0.0-247.0","A2JQI1SDHK32T6","img_art/17.jpg","4","","","","","","","","","","","","","","","","","","","","","","","","",""
"2509","","image-button-response","249","1362319","0.0-248.0","A2JQI1SDHK32T6","img_art/17.jpg","4","","","","","","","","","","","","","","","","","","","","","","","","",""
"2093","","image-button-response","250","1364414","0.0-249.0-0.0","A2JQI1SDHK32T6","img_art/17.jpg","3","","","","","","","","","","","","","","","","","","","","","","","","",""
"2514","","image-button-response","251","1366931","0.0-250.0-0.0","A2JQI1SDHK32T6","img_art/17.jpg","5","","","","","","","","","","","","","","","","","","","","","","","","",""
"null","","html-keyboard-response","252","1367944","0.0-251.0","A2JQI1SDHK32T6","<p style=""font-size: 48px;"">+</p>","","","","","null","allTrialResponses","1000","1","29","img_art/17.jpg","16","looks like a tree in a courtyard","Taylor,Alejandro,Christian,Isaiah,Spencer,Corey","Somewhat should trim the tree branches at the shopping mall.,10,200,20","Embodies beauty and complexity and in simplicity as well,50,80,20","tree sprouting out of a box (house) the invasion of nature?,39,140,20","The painting makes me feel relaxed, and a bit lonely, like I'm sitting at a park waiting for someone.,30,300,20","Love the colors, the flow, like a strange storm or tree off the balcony,50,120,20","gentle watercolor vibes,12,260,20","Spencer","Love the colors, the flow, like a strange storm or tree off the balcony,50,120,20","Isaiah","The painting makes me feel relaxed, and a bit lonely, like I'm sitting at a park waiting for someone.,30,300,20","Corey","gentle watercolor vibes,12,260,20","2"
"10096","","survey-text","253","1378055","0.0-252.0-0.0","A2JQI1SDHK32T6","","","","{""Q0"":""watercolor style pretty colors""}","","","","","","","","","","","","","","","","","","","","","","",""
"3536","","image-slider-response","254","1381593","0.0-253.0","A2JQI1SDHK32T6","","","","","17","","","","","","","","","","","","","","","","","","","","","",""
"null","","image-button-response","255","1386608","0.0-254.0","A2JQI1SDHK32T6","img_art/26.jpg","null","","","","","","","","","","","","","","","","","","","","","","","","",""
"943","","image-button-response","256","1387554","0.0-255.0","A2JQI1SDHK32T6","img_art/26.jpg","4","","","","","","","","","","","","","","","","","","","","","","","","",""
"2043","","image-button-response","257","1389599","0.0-256.0-0.0","A2JQI1SDHK32T6","img_art/26.jpg","1","","","","","","","","","","","","","","","","","","","","","","","","",""
"1307","","image-button-response","258","1390908","0.0-257.0-0.0","A2JQI1SDHK32T6","img_art/26.jpg","2","","","","","","","","","","","","","","","","","","","","","","","","",""
"null","","html-keyboard-response","259","1391410","0.0-258.0","A2JQI1SDHK32T6","<p style=""font-size: 48px;"">+</p>","","","","","null","allTrialResponses","500","1","30","img_art/26.jpg","17","watercolor style pretty colors","Kevin,Richard,Adam,Isaiah,Spencer,Corey","Some trees in front of a house.,2,320,20","subtle use of colors, city street view?,8,340,20","pretty colors, but sketch style isn't for me,10,40,20","It is very relaxing to look at, almost a relief.,21,300,20","Really like it, a very nice neighborhood scene to me,42,120,20","its boring and i dont like the color palette,3,260,20","Spencer","Really like it, a very nice neighborhood scene to me,42,120,20","Richard","subtle use of colors, city street view?,8,340,20","Adam","pretty colors, but sketch style isn't for me,10,40,20","2"
"2835","","image-button-response_instructions","260","1394250","0.0-259.0","A2JQI1SDHK32T6","","0","instructions","","","","","","","","","","","","","","","","","","","","","","","",""
"1661","","image-button-response","261","1395918","0.0-260.0","A2JQI1SDHK32T6","","0","","","","","","","","","","","","","","","","","","","","","","","","",""
