"rt","url","trial_type","trial_index","time_elapsed","internal_node_id","participant_id","stimulus","button_pressed","Name","responses","response","key_press","variableName","fixationTime","condition","trial","photo","subjectRating","subjectResponse","agentsNames","agent_1_Response","agent_2_Response","agent_3_Response","agent_4_Response","agent_5_Response","agent_6_Response","kept_1_name","kept_1_response","kept_2_name","kept_2_response","kept_3_name","kept_3_response","errorCounter"
"11225","external_page_harvard.html","external-html","0","11299","0.0-0.0","A2K0L9M1ZZO5C9","","","","","","","","","","","","","","","","","","","","","","","","","","",""
"1797","","image-button-response","1","13098","0.0-1.0","A2K0L9M1ZZO5C9","","1","","","","","","","","","","","","","","","","","","","","","","","","",""
"1891","","image-button-response","2","14995","0.0-2.0-0.0","A2K0L9M1ZZO5C9","","1","phone","","","","","","","","","","","","","","","","","","","","","","","",""
"5714","","survey-text","3","20712","0.0-3.0-0.0","A2K0L9M1ZZO5C9","","","","{""Q0"":""A2K0L9M1ZZO5C9""}","","","","","","","","","","","","","","","","","","","","","","",""
"6382","","image-button-response_instructions","4","27096","0.0-4.0","A2K0L9M1ZZO5C9","","0","instructions","","","","","","","","","","","","","","","","","","","","","","","",""
"11433","","image-button-response_instructions","5","38531","0.0-5.0","A2K0L9M1ZZO5C9","img_art/ins/popularity/ins1.png","0","instructions","","","","","","","","","","","","","","","","","","","","","","","",""
"7629","","image-button-response_instructions","6","46162","0.0-6.0","A2K0L9M1ZZO5C9","img_art/ins/popularity/ins2.png","0","instructions","","","","","","","","","","","","","","","","","","","","","","","",""
"7932","","image-button-response_instructions","7","54097","0.0-7.0","A2K0L9M1ZZO5C9","img_art/ins/popularity/ins2Extreme.png","0","instructions","","","","","","","","","","","","","","","","","","","","","","","",""
"30096","","image-button-response_instructions","8","84196","0.0-8.0","A2K0L9M1ZZO5C9","img_art/ins/popularity/ins3KEEPpop.PNG","0","instructions","","","","","","","","","","","","","","","","","","","","","","","",""
"4847","","image-button-response_instructions","9","89045","0.0-9.0","A2K0L9M1ZZO5C9","img_art/ins/popularity/ins3ANamepop.PNG","0","instructions","","","","","","","","","","","","","","","","","","","","","","","",""
"3099","","image-button-response_instructions","10","92146","0.0-10.0","A2K0L9M1ZZO5C9","img_art/ins/popularity/ins3ARatingpop.png","0","instructions","","","","","","","","","","","","","","","","","","","","","","","",""
"2963","","image-button-response_instructions","11","95111","0.0-11.0","A2K0L9M1ZZO5C9","img_art/ins/popularity/ins3ATextpop.png","0","instructions","","","","","","","","","","","","","","","","","","","","","","","",""
"3900","","image-button-response_instructions","12","99013","0.0-12.0","A2K0L9M1ZZO5C9","img_art/ins/popularity/ins3ALikespop.png","0","instructions","","","","","","","","","","","","","","","","","","","","","","","",""
"12682","","image-button-response_instructions","13","111697","0.0-13.0","A2K0L9M1ZZO5C9","img_art/ins/popularity/ins3KEEPpop.PNG","0","instructions","","","","","","","","","","","","","","","","","","","","","","","",""
"11714","","image-button-response_instructions","14","123412","0.0-14.0","A2K0L9M1ZZO5C9","img_art/ins/popularity/ins3_5RED.png","0","instructions","","","","","","","","","","","","","","","","","","","","","","","",""
"3581","","image-button-response_instructions","15","126994","0.0-15.0","A2K0L9M1ZZO5C9","img_art/ins/popularity/ins3KEEPpop.PNG","0","instructions","","","","","","","","","","","","","","","","","","","","","","","",""
"8149","","image-button-response_instructions","16","135145","0.0-16.0","A2K0L9M1ZZO5C9","img_art/ins/popularity/ins4KEEPpop.PNG","0","instructions","","","","","","","","","","","","","","","","","","","","","","","",""
"8600","","image-button-response_instructions","17","143747","0.0-17.0","A2K0L9M1ZZO5C9","img_art/ins/popularity/ins5KEEPpop.PNG","0","instructions","","","","","","","","","","","","","","","","","","","","","","","",""
"2649","","image-button-response_instructions","18","146398","0.0-18.0","A2K0L9M1ZZO5C9","","0","instructions","","","","","","","","","","","","","","","","","","","","","","","",""
"6922","","survey-text","19","153351","0.0-19.0-0.0","A2K0L9M1ZZO5C9","","","","{""Q0"":""but""}","","","","","","","","","","","","","","","","","","","","","","",""
"29578","","survey-text","20","182931","0.0-20.0-0.0","A2K0L9M1ZZO5C9","","","","{""Q0"":""It  looks like it was just thrown together without a purpose""}","","","","","","","","","","","","","","","","","","","","","","",""
"3980.10000000149","","image-slider-response","21","186914","0.0-21.0","A2K0L9M1ZZO5C9","","","","","-40","","","","","","","","","","","","","","","","","","","","","",""
"null","","image-button-response","22","191918","0.0-22.0","A2K0L9M1ZZO5C9","img_art/ins/1.jpg","null","","","","","","","","","","","","","","","","","","","","","","","","",""
"2808","","image-button-response","23","194731","0.0-23.0","A2K0L9M1ZZO5C9","img_art/ins/1.jpg","3","","","","","","","","","","","","","","","","","","","","","","","","",""
"2411","","image-button-response","24","197144","0.0-24.0-0.0","A2K0L9M1ZZO5C9","img_art/ins/1.jpg","0","","","","","","","","","","","","","","","","","","","","","","","","",""
"4533","","image-button-response","25","201678","0.0-25.0-0.0","A2K0L9M1ZZO5C9","img_art/ins/1.jpg","1","","","","","","","","","","","","","","","","","","","","","","","","",""
"null","","html-keyboard-response","26","202183","0.0-26.0","A2K0L9M1ZZO5C9","<p style=""font-size: 48px;"">+</p>","","","","","null","allTrialResponses","500","1","-2","img_art/ins/1.jpg","-40","It  looks like it was just thrown together without a purpose","Allison,Ashley,Beth,Dora,Erika,Jen","looks like a lot of things going on in the mist,20,20,20","I just don't get why these type of art would be popular,-32,40,20","This color reminds me of poo,-46,60,20","looks like what my niece in 3rd grade did this afternoon,-50,80,20","I like the sophisticated brushwork,40,100,20","It reminds me of a candy land dream I had,36,120,20","Dora","looks like what my niece in 3rd grade did this afternoon,-50,80,20","Allison","looks like a lot of things going on in the mist,20,20,20","Ashley","I just don't get why these type of art would be popular,-32,40,20","0"
"41406","","survey-text","27","243597","0.0-27.0-0.0","A2K0L9M1ZZO5C9","","","","{""Q0"":""Just umm NOO! Not for me. Seems like its a big splat of negative.""}","","","","","","","","","","","","","","","","","","","","","","",""
"2945.199999999255","","image-slider-response","28","246544","0.0-28.0","A2K0L9M1ZZO5C9","","","","","-50","","","","","","","","","","","","","","","","","","","","","",""
"2515","","image-button-response","29","251547","0.0-29.0","A2K0L9M1ZZO5C9","img_art/ins/2.jpg","1","","","","","","","","","","","","","","","","","","","","","","","","",""
"1678","","image-button-response","30","253229","0.0-30.0","A2K0L9M1ZZO5C9","img_art/ins/2.jpg","3","","","","","","","","","","","","","","","","","","","","","","","","",""
"1846","","image-button-response","31","255079","0.0-31.0-0.0","A2K0L9M1ZZO5C9","img_art/ins/2.jpg","2","","","","","","","","","","","","","","","","","","","","","","","","",""
"3295","","image-button-response","32","258379","0.0-32.0-0.0","A2K0L9M1ZZO5C9","img_art/ins/2.jpg","1","","","","","","","","","","","","","","","","","","","","","","","","",""
"null","","html-keyboard-response","33","259386","0.0-33.0","A2K0L9M1ZZO5C9","<p style=""font-size: 48px;"">+</p>","","","","","null","allTrialResponses","1000","1","-1","img_art/ins/2.jpg","-50","Just umm NOO! Not for me. Seems like its a big splat of negative.","Allison,Ashley,Jenna,Dora,Kara,Katie","I don't have strong feelings about this,10,20,20","Idk, it is just annoying,-32,40,20","One of my pet peevs,-48,140,20","looks too angry,-50,80,20","I like the blocks of color arrangements,30,160,20","too much color!,-28,180,20","Dora","looks too angry,-50,80,20","Jenna","One of my pet peevs,-48,140,20","Ashley","Idk, it is just annoying,-32,40,20","0"
"32821","","survey-text","34","292214","0.0-34.0-0.0","A2K0L9M1ZZO5C9","","","","{""Q0"":""Blue is supposed to be a calming color but this is too loud.""}","","","","","","","","","","","","","","","","","","","","","","",""
"3380.900000002235","","image-slider-response","35","295598","0.0-35.0","A2K0L9M1ZZO5C9","","","","","-34","","","","","","","","","","","","","","","","","","","","","",""
"4663","","image-button-response","36","300606","0.0-36.0","A2K0L9M1ZZO5C9","img_art/ins/3.jpg","1","","","","","","","","","","","","","","","","","","","","","","","","",""
"1086","","image-button-response","37","301694","0.0-37.0","A2K0L9M1ZZO5C9","img_art/ins/3.jpg","1","","","","","","","","","","","","","","","","","","","","","","","","",""
"4598","","image-button-response","38","306294","0.0-38.0-0.0","A2K0L9M1ZZO5C9","img_art/ins/3.jpg","3","","","","","","","","","","","","","","","","","","","","","","","","",""
"2998","","image-button-response","39","309294","0.0-39.0-0.0","A2K0L9M1ZZO5C9","img_art/ins/3.jpg","5","","","","","","","","","","","","","","","","","","","","","","","","",""
"null","","html-keyboard-response","40","310800","0.0-40.0","A2K0L9M1ZZO5C9","<p style=""font-size: 48px;"">+</p>","","","","","null","allTrialResponses","1500","1","0","img_art/ins/3.jpg","-34","Blue is supposed to be a calming color but this is too loud.","Leslie,Ashley,Jenna,Dora,Mary,Rose","It's an alright work,15,200,20","It looks like a playground for bats,-36,40,20","looks like a murder room,-35,140,20","My worst nightmare,-42,80,20","I like the overlapping of brushes,41,220,20","My daily routine, it's depressing,-20,240,20","Ashley","It looks like a playground for bats,-36,40,20","Dora","My worst nightmare,-42,80,20","Rose","My daily routine, it's depressing,-20,240,20","0"
"5722","","image-button-response_instructions","41","316530","0.0-41.0","A2K0L9M1ZZO5C9","","0","instructions","","","","","","","","","","","","","","","","","","","","","","","",""
"16498","","survey-likert","42","333031","0.0-42.0-0.0","A2K0L9M1ZZO5C9","","","","{""Q0"":"""",""Q1"":0,""Q2"":1}","","","","","","","","","","","","","","","","","","","","","","",""
"5041","","survey-text","43","338079","0.0-43.0-0.0","A2K0L9M1ZZO5C9","","","","{""Q0"":""rock""}","","","","","","","","","","","","","","","","","","","","","","",""
"49515","","survey-text","44","387596","0.0-44.0-0.0","A2K0L9M1ZZO5C9","","","","{""Q0"":""Depressing and negative. Art is an expression but this here would never go on my wall.""}","","","","","","","","","","","","","","","","","","","","","","",""
"3283.300000000745","","image-slider-response","45","390881","0.0-45.0","A2K0L9M1ZZO5C9","","","","","-48","","","","","","","","","","","","","","","","","","","","","",""
"4504","","image-button-response","46","395910","0.0-46.0","A2K0L9M1ZZO5C9","img_art/11.jpg","3","","","","","","","","","","","","","","","","","","","","","","","","",""
"703","","image-button-response","47","396616","0.0-47.0","A2K0L9M1ZZO5C9","img_art/11.jpg","3","","","","","","","","","","","","","","","","","","","","","","","","",""
"4679","","image-button-response","48","401297","0.0-48.0-0.0","A2K0L9M1ZZO5C9","img_art/11.jpg","5","","","","","","","","","","","","","","","","","","","","","","","","",""
"11358","","image-button-response","49","412658","0.0-49.0-0.0","A2K0L9M1ZZO5C9","img_art/11.jpg","2","","","","","","","","","","","","","","","","","","","","","","","","",""
"null","","html-keyboard-response","50","414163","0.0-50.0","A2K0L9M1ZZO5C9","<p style=""font-size: 48px;"">+</p>","","","","","null","allTrialResponses","1500","1","1","img_art/11.jpg","-48","Depressing and negative. Art is an expression but this here would never go on my wall.","Kayla,Kristen,Rachel,Gabriela,Haley,Diana","I like that it could be train tracks, or telephone wires, etc. It's always a means of getting from a to b.,15,180,20","small town, friendly. calm,35,280,20","Makes me think of a futuristic scene of vehicles flying in the sky in a city.,36,80,20","This photo makes me feel bleak,-16,140,20","Lovely. I could look at this for a really long time. I love the details and the composition.,40,220,20","It makes my head feel dizzy. So I rated it lower.,-25,380,20","Gabriela","This photo makes me feel bleak,-16,140,20","Diana","It makes my head feel dizzy. So I rated it lower.,-25,380,20","Rachel","Makes me think of a futuristic scene of vehicles flying in the sky in a city.,36,80,20","0"
"32226","","survey-text","51","446398","0.0-51.0-0.0","A2K0L9M1ZZO5C9","","","","{""Q0"":""It makes me feel irrated its just unorganized ""}","","","","","","","","","","","","","","","","","","","","","","",""
"2664.60000000149","","image-slider-response","52","449065","0.0-52.0","A2K0L9M1ZZO5C9","","","","","-34","","","","","","","","","","","","","","","","","","","","","",""
"3345","","image-button-response","53","454074","0.0-53.0","A2K0L9M1ZZO5C9","img_art/19.jpg","2","","","","","","","","","","","","","","","","","","","","","","","","",""
"803","","image-button-response","54","454882","0.0-54.0","A2K0L9M1ZZO5C9","img_art/19.jpg","2","","","","","","","","","","","","","","","","","","","","","","","","",""
"2530","","image-button-response","55","457415","0.0-55.0-0.0","A2K0L9M1ZZO5C9","img_art/19.jpg","3","","","","","","","","","","","","","","","","","","","","","","","","",""
"1380","","image-button-response","56","458799","0.0-56.0-0.0","A2K0L9M1ZZO5C9","img_art/19.jpg","4","","","","","","","","","","","","","","","","","","","","","","","","",""
"null","","html-keyboard-response","57","460303","0.0-57.0","A2K0L9M1ZZO5C9","<p style=""font-size: 48px;"">+</p>","","","","","null","allTrialResponses","1500","1","2","img_art/19.jpg","-34","It makes me feel irrated its just unorganized ","Catherine,Abigail,Rachel,Gabriela,Hannah,Diana","Higher power looking down at its creation with a half smile and some hurt.,45,160,20","I dont like the gray shadows, ruins it,-7,20,20","Reminds me of a busy town. Chaotic in nature.,-11,80,20","it looks messy and non-unique.,-9,140,20","Just don't like this one.,-9,240,20","I wasn't sure if I liked it or hated it. It oddly reminds me of a clothing store.,11,380,20","Rachel","Reminds me of a busy town. Chaotic in nature.,-11,80,20","Gabriela","it looks messy and non-unique.,-9,140,20","Hannah","Just don't like this one.,-9,240,20","0"
"28271","","survey-text","58","488580","0.0-58.0-0.0","A2K0L9M1ZZO5C9","","","","{""Q0"":""Ive seen worse, much worse smh""}","","","","","","","","","","","","","","","","","","","","","","",""
"4704","","image-slider-response","59","493285","0.0-59.0","A2K0L9M1ZZO5C9","","","","","7","","","","","","","","","","","","","","","","","","","","","",""
"4892","","image-button-response","60","498292","0.0-60.0","A2K0L9M1ZZO5C9","img_art/18.jpg","2","","","","","","","","","","","","","","","","","","","","","","","","",""
"338","","image-button-response","61","498633","0.0-61.0","A2K0L9M1ZZO5C9","img_art/18.jpg","2","","","","","","","","","","","","","","","","","","","","","","","","",""
"7896","","image-button-response","62","506531","0.0-62.0-0.0","A2K0L9M1ZZO5C9","img_art/18.jpg","5","","","","","","","","","","","","","","","","","","","","","","","","",""
"1585","","image-button-response","63","508118","0.0-63.0-0.0","A2K0L9M1ZZO5C9","img_art/18.jpg","4","","","","","","","","","","","","","","","","","","","","","","","","",""
"null","","html-keyboard-response","64","508623","0.0-64.0","A2K0L9M1ZZO5C9","<p style=""font-size: 48px;"">+</p>","","","","","null","allTrialResponses","500","1","3","img_art/18.jpg","7","Ive seen worse, much worse smh","Nicole,Melissa,Rachel,Gabriela,Hannah,Jennifer","There's danger in this painting and it's awesome,40,20,20","creamy color, feels like organized chaos,23,240,20","This one seems rather ghoulish to me.,-41,80,20","It's possibly of a mermaid luring in a ship,15,140,20","Looks like ghost figures on a boat. It's okay.,7,240,20","I have no strong feelings about this image,1,380,20","Rachel","This one seems rather ghoulish to me.,-41,80,20","Jennifer","I have no strong feelings about this image,1,380,20","Hannah","Looks like ghost figures on a boat. It's okay.,7,240,20","0"
"39655","","survey-text","65","548284","0.0-65.0-0.0","A2K0L9M1ZZO5C9","","","","{""Q0"":""reminds me of a broom and i don’t like cleaning others messes up lol""}","","","","","","","","","","","","","","","","","","","","","","",""
"3129.5","","image-slider-response","66","551417","0.0-66.0","A2K0L9M1ZZO5C9","","","","","-34","","","","","","","","","","","","","","","","","","","","","",""
"null","","image-button-response","67","556425","0.0-67.0","A2K0L9M1ZZO5C9","img_art/5.jpg","null","","","","","","","","","","","","","","","","","","","","","","","","",""
"737","","image-button-response","68","557167","0.0-68.0","A2K0L9M1ZZO5C9","img_art/5.jpg","4","","","","","","","","","","","","","","","","","","","","","","","","",""
"2314","","image-button-response","69","559484","0.0-69.0-0.0","A2K0L9M1ZZO5C9","img_art/5.jpg","2","","","","","","","","","","","","","","","","","","","","","","","","",""
"643","","image-button-response","70","560130","0.0-70.0-0.0","A2K0L9M1ZZO5C9","img_art/5.jpg","1","","","","","","","","","","","","","","","","","","","","","","","","",""
"null","","html-keyboard-response","71","560632","0.0-71.0","A2K0L9M1ZZO5C9","<p style=""font-size: 48px;"">+</p>","","","","","null","allTrialResponses","500","1","4","img_art/5.jpg","-34","reminds me of a broom and i don’t like cleaning others messes up lol","Meghan,Sierra,Rachel,Kelsey,Hannah,Jennifer","I like it but I don't know why,15,220,20","i dont like the yellow or the shape,-26,260,20","Not sure what to make of this one.,-1,80,20","too abstract, looks like a pyramid,-22,240,20","Very basic, but at least has some color to it.,-9,240,20","This piece doesn't really stand out.,0,380,20","Hannah","Very basic, but at least has some color to it.,-9,240,20","Rachel","Not sure what to make of this one.,-1,80,20","Sierra","i dont like the yellow or the shape,-26,260,20","0"
"28111","","survey-text","72","588748","0.0-72.0-0.0","A2K0L9M1ZZO5C9","","","","{""Q0"":""Not bad. reminds me of a little community with trees""}","","","","","","","","","","","","","","","","","","","","","","",""
"2050.400000002235","","image-slider-response","73","590800","0.0-73.0","A2K0L9M1ZZO5C9","","","","","21","","","","","","","","","","","","","","","","","","","","","",""
"4662","","image-button-response","74","595808","0.0-74.0","A2K0L9M1ZZO5C9","img_art/26.jpg","2","","","","","","","","","","","","","","","","","","","","","","","","",""
"970","","image-button-response","75","596782","0.0-75.0","A2K0L9M1ZZO5C9","img_art/26.jpg","2","","","","","","","","","","","","","","","","","","","","","","","","",""
"247","","image-button-response","76","597032","0.0-76.0-0.0","A2K0L9M1ZZO5C9","img_art/26.jpg","2","","","","","","","","","","","","","","","","","","","","","","","","",""
"1318","","image-button-response","77","602435","0.0-76.1-0.1","A2K0L9M1ZZO5C9","img_art/26.jpg","1","","","","","","","","","","","","","","","","","","","","","","","","",""
"2793","","image-button-response","78","605232","0.0-77.0-0.0","A2K0L9M1ZZO5C9","img_art/26.jpg","5","","","","","","","","","","","","","","","","","","","","","","","","",""
"null","","html-keyboard-response","79","605734","0.0-78.0","A2K0L9M1ZZO5C9","<p style=""font-size: 48px;"">+</p>","","","","","null","allTrialResponses","500","1","5","img_art/26.jpg","21","Not bad. reminds me of a little community with trees","Natalie,Sierra,Rachel,Jacqueline,Hannah,Brooke","picture looks alright,1,400,20","soothing and subtle,1,260,20","Pretty trees and bushes around fancy brown stones. I like the soft nature.,20,80,20","I don't really see the point in this painting.,-16,300,20","This is boring.,-15,240,20","street scene is okay?,15,60,20","Rachel","Pretty trees and bushes around fancy brown stones. I like the soft nature.,20,80,20","Sierra","soothing and subtle,1,260,20","Brooke","street scene is okay?,15,60,20","2"
"5376","","survey-text","80","611117","0.0-79.0-0.0","A2K0L9M1ZZO5C9","","","","{""Q0"":""sky""}","","","","","","","","","","","","","","","","","","","","","","",""
"31880","","survey-text","81","642999","0.0-80.0-0.0","A2K0L9M1ZZO5C9","","","","{""Q0"":""looks like a kid was finger painting""}","","","","","","","","","","","","","","","","","","","","","","",""
"3383.5","","image-slider-response","82","646384","0.0-81.0","A2K0L9M1ZZO5C9","","","","","-23","","","","","","","","","","","","","","","","","","","","","",""
"4561","","image-button-response","83","651389","0.0-82.0","A2K0L9M1ZZO5C9","img_art/4.jpg","1","","","","","","","","","","","","","","","","","","","","","","","","",""
"659","","image-button-response","84","652051","0.0-83.0","A2K0L9M1ZZO5C9","img_art/4.jpg","1","","","","","","","","","","","","","","","","","","","","","","","","",""
"2546","","image-button-response","85","654601","0.0-84.0-0.0","A2K0L9M1ZZO5C9","img_art/4.jpg","3","","","","","","","","","","","","","","","","","","","","","","","","",""
"2080","","image-button-response","86","656685","0.0-85.0-0.0","A2K0L9M1ZZO5C9","img_art/4.jpg","5","","","","","","","","","","","","","","","","","","","","","","","","",""
"null","","html-keyboard-response","87","658193","0.0-86.0","A2K0L9M1ZZO5C9","<p style=""font-size: 48px;"">+</p>","","","","","null","allTrialResponses","1500","1","6","img_art/4.jpg","-23","looks like a kid was finger painting","Laura,Sierra,Rachel,Cheyenne,Erika,Brooke","spontaneous, without hesitation,22,320,20","it looks like a deformed hand,-9,260,20","Not a huge fan of the color story, but it reminds me of a child finger-painting.,12,80,20","Just doesn't look nice.,-40,200,20","Reminds me of late night frustrated paintings of my own made of coffee,12,100,20","Looks like the roomba got into dog poop,-30,60,20","Sierra","it looks like a deformed hand,-9,260,20","Cheyenne","Just doesn't look nice.,-40,200,20","Brooke","Looks like the roomba got into dog poop,-30,60,20","2"
"21066","","survey-text","88","679265","0.0-87.0-0.0","A2K0L9M1ZZO5C9","","","","{""Q0"":""Not bad. I’ve seen a lot worse lol""}","","","","","","","","","","","","","","","","","","","","","","",""
"4367.10000000149","","image-slider-response","89","683635","0.0-88.0","A2K0L9M1ZZO5C9","","","","","16","","","","","","","","","","","","","","","","","","","","","",""
"null","","image-button-response","90","688638","0.0-89.0","A2K0L9M1ZZO5C9","img_art/30.jpg","null","","","","","","","","","","","","","","","","","","","","","","","","",""
"158","","image-button-response","91","688800","0.0-90.0","A2K0L9M1ZZO5C9","img_art/30.jpg","4","","","","","","","","","","","","","","","","","","","","","","","","",""
"3246","","image-button-response","92","692048","0.0-91.0-0.0","A2K0L9M1ZZO5C9","img_art/30.jpg","1","","","","","","","","","","","","","","","","","","","","","","","","",""
"850","","image-button-response","93","692900","0.0-92.0-0.0","A2K0L9M1ZZO5C9","img_art/30.jpg","2","","","","","","","","","","","","","","","","","","","","","","","","",""
"null","","html-keyboard-response","94","693404","0.0-93.0","A2K0L9M1ZZO5C9","<p style=""font-size: 48px;"">+</p>","","","","","null","allTrialResponses","500","1","7","img_art/30.jpg","16","Not bad. I’ve seen a lot worse lol","Paige,Sierra,Elizabeth,Cheyenne,Kimberly,Brooke","Happy. Makes me think of childhood finger painting,49,60,20","i dont like how the colors are mixed,-6,260,20","Love the bold brush strokes and the illusion it creates,50,20,20","A bit too dark for my liking,-10,200,20","looks like eels,-20,260,20","Like the color and style,31,60,20","Kimberly","looks like eels,-20,260,20","Sierra","i dont like how the colors are mixed,-6,260,20","Elizabeth","Love the bold brush strokes and the illusion it creates,50,20,20","2"
"49524","","survey-text","95","742935","0.0-94.0-0.0","A2K0L9M1ZZO5C9","","","","{""Q0"":""I like it a lot better. The images are more well defined and can be seperated from the others""}","","","","","","","","","","","","","","","","","","","","","","",""
"2514.800000000745","","image-slider-response","96","745453","0.0-95.0","A2K0L9M1ZZO5C9","","","","","36","","","","","","","","","","","","","","","","","","","","","",""
"4544","","image-button-response","97","750461","0.0-96.0","A2K0L9M1ZZO5C9","img_art/8.jpg","1","","","","","","","","","","","","","","","","","","","","","","","","",""
"735","","image-button-response","98","751199","0.0-97.0","A2K0L9M1ZZO5C9","img_art/8.jpg","1","","","","","","","","","","","","","","","","","","","","","","","","",""
"2199","","image-button-response","99","753401","0.0-98.0-0.0","A2K0L9M1ZZO5C9","img_art/8.jpg","2","","","","","","","","","","","","","","","","","","","","","","","","",""
"1563","","image-button-response","100","754968","0.0-99.0-0.0","A2K0L9M1ZZO5C9","img_art/8.jpg","3","","","","","","","","","","","","","","","","","","","","","","","","",""
"null","","html-keyboard-response","101","756474","0.0-100.0","A2K0L9M1ZZO5C9","<p style=""font-size: 48px;"">+</p>","","","","","null","allTrialResponses","1500","1","8","img_art/8.jpg","36","I like it a lot better. The images are more well defined and can be seperated from the others","Erica,Sierra,Elizabeth,Kathryn,Kimberly,Makayla","Very busy, I want to look at it and investigate,23,80,20","i love the colors, the church and the face,42,260,20","Very unique and different,31,20,20","The angle makes it kind of disorienting but I enjoy the fantastical colors and imagery. It's like a dream.,10,140,20","Feels very 90's but I like the doorway,15,260,20","I see water and structures that resemble Ancient Rome,15,80,20","Sierra","i love the colors, the church and the face,42,260,20","Elizabeth","Very unique and different,31,20,20","Kathryn","The angle makes it kind of disorienting but I enjoy the fantastical colors and imagery. It's like a dream.,10,140,20","2"
"28785","","survey-text","102","785267","0.0-101.0-0.0","A2K0L9M1ZZO5C9","","","","{""Q0"":""No! Looks like i gave a toddler a sharpie and told him to go to town on my walls.""}","","","","","","","","","","","","","","","","","","","","","","",""
"4316.79999999702","","image-slider-response","103","789586","0.0-102.0","A2K0L9M1ZZO5C9","","","","","-50","","","","","","","","","","","","","","","","","","","","","",""
"4744","","image-button-response","104","794593","0.0-103.0","A2K0L9M1ZZO5C9","img_art/3.jpg","0","","","","","","","","","","","","","","","","","","","","","","","","",""
"70","","image-button-response","105","794665","0.0-104.0","A2K0L9M1ZZO5C9","img_art/3.jpg","0","","","","","","","","","","","","","","","","","","","","","","","","",""
"167","","image-button-response","106","794834","0.0-105.0-0.0","A2K0L9M1ZZO5C9","img_art/3.jpg","0","","","","","","","","","","","","","","","","","","","","","","","","",""
"2465","","image-button-response","107","800586","0.0-105.1-0.1","A2K0L9M1ZZO5C9","img_art/3.jpg","2","","","","","","","","","","","","","","","","","","","","","","","","",""
"762","","image-button-response","108","801351","0.0-106.0-0.0","A2K0L9M1ZZO5C9","img_art/3.jpg","1","","","","","","","","","","","","","","","","","","","","","","","","",""
"null","","html-keyboard-response","109","801854","0.0-107.0","A2K0L9M1ZZO5C9","<p style=""font-size: 48px;"">+</p>","","","","","null","allTrialResponses","500","1","9","img_art/3.jpg","-50","No! Looks like i gave a toddler a sharpie and told him to go to town on my walls.","Monica,Sierra,Elizabeth,Kathryn,Emma,Sabrina","It looks like random scribbles by a child and not appealing,-38,360,20","scattered and angry,-26,260,20","It doesn't invoke any excitement,-21,20,20","This gives me a negative feeling, like someone trying to scratch out their flaws. I see low self-esteem.,-20,140,20","Feels upset .......,-10,60,20","I dont really feel anything from this, i cant see or understand any of it,-20,120,20","Monica","It looks like random scribbles by a child and not appealing,-38,360,20","Elizabeth","It doesn't invoke any excitement,-21,20,20","Sierra","scattered and angry,-26,260,20","4"
"22109","","survey-text","110","823968","0.0-108.0-0.0","A2K0L9M1ZZO5C9","","","","{""Q0"":""Drab and no life to it""}","","","","","","","","","","","","","","","","","","","","","","",""
"2866.10000000149","","image-slider-response","111","826835","0.0-109.0","A2K0L9M1ZZO5C9","","","","","-21","","","","","","","","","","","","","","","","","","","","","",""
"4513","","image-button-response","112","831839","0.0-110.0","A2K0L9M1ZZO5C9","img_art/28.jpg","1","","","","","","","","","","","","","","","","","","","","","","","","",""
"2793","","image-button-response","113","834635","0.0-111.0","A2K0L9M1ZZO5C9","img_art/28.jpg","3","","","","","","","","","","","","","","","","","","","","","","","","",""
"1210","","image-button-response","114","835850","0.0-112.0-0.0","A2K0L9M1ZZO5C9","img_art/28.jpg","0","","","","","","","","","","","","","","","","","","","","","","","","",""
"914","","image-button-response","115","836767","0.0-113.0-0.0","A2K0L9M1ZZO5C9","img_art/28.jpg","1","","","","","","","","","","","","","","","","","","","","","","","","",""
"null","","html-keyboard-response","116","838272","0.0-114.0","A2K0L9M1ZZO5C9","<p style=""font-size: 48px;"">+</p>","","","","","null","allTrialResponses","1500","1","10","img_art/28.jpg","-21","Drab and no life to it","Monica,Sierra,Elizabeth,Amber,Andrea,Taylor","The dark colors make it look dirty and the shapes make me uncomfortable,-50,360,20","i like the colors and the shapes look like people,20,260,20","Not really exciting,23,20,20","Colors are too dull.,-30,200,20","It reminds me of the cantina in Star Wars.,37,240,20","Doesn't give me an emotional response,0,340,20","Amber","Colors are too dull.,-30,200,20","Monica","The dark colors make it look dirty and the shapes make me uncomfortable,-50,360,20","Sierra","i like the colors and the shapes look like people,20,260,20","4"
"4633","","survey-text","117","842918","0.0-115.0-0.0","A2K0L9M1ZZO5C9","","","","{""Q0"":""our""}","","","","","","","","","","","","","","","","","","","","","","",""
"34683","","survey-text","118","877603","0.0-116.0-0.0","A2K0L9M1ZZO5C9","","","","{""Q0"":""Better than others Ive seen reminds me of a guitar on its side.""}","","","","","","","","","","","","","","","","","","","","","","",""
"3532.099999997765","","image-slider-response","119","881137","0.0-117.0","A2K0L9M1ZZO5C9","","","","","21","","","","","","","","","","","","","","","","","","","","","",""
"4179","","image-button-response","120","886142","0.0-118.0","A2K0L9M1ZZO5C9","img_art/10.jpg","1","","","","","","","","","","","","","","","","","","","","","","","","",""
"3889","","image-button-response","121","890034","0.0-119.0","A2K0L9M1ZZO5C9","img_art/10.jpg","3","","","","","","","","","","","","","","","","","","","","","","","","",""
"1133","","image-button-response","122","891170","0.0-120.0-0.0","A2K0L9M1ZZO5C9","img_art/10.jpg","4","","","","","","","","","","","","","","","","","","","","","","","","",""
"1078","","image-button-response","123","892253","0.0-121.0-0.0","A2K0L9M1ZZO5C9","img_art/10.jpg","5","","","","","","","","","","","","","","","","","","","","","","","","",""
"null","","html-keyboard-response","124","893256","0.0-122.0","A2K0L9M1ZZO5C9","<p style=""font-size: 48px;"">+</p>","","","","","null","allTrialResponses","1000","1","11","img_art/10.jpg","21","Better than others Ive seen reminds me of a guitar on its side.","Monica,Sierra,Kelly,Amber,Victoria,Alicia","It doesn't look pleasing to the eye, it kind of looks like an animal but a dirty one,-38,360,20","it just doesnt appeal to me.,-10,260,20","I cant tell what this is supposed to be, but I enjoy the simplicity of it.,28,220,20","This picture just seems depressing.,-26,200,20","absolutely beautiful piece of art,49,400,20","It's art. (for some),7,120,20","Amber","This picture just seems depressing.,-26,200,20","Victoria","absolutely beautiful piece of art,49,400,20","Alicia","It's art. (for some),7,120,20","4"
"13337","","survey-text","125","906602","0.0-123.0-0.0","A2K0L9M1ZZO5C9","","","","{""Q0"":""I just dont get it""}","","","","","","","","","","","","","","","","","","","","","","",""
"3764.60000000149","","image-slider-response","126","910370","0.0-124.0","A2K0L9M1ZZO5C9","","","","","-24","","","","","","","","","","","","","","","","","","","","","",""
"4696","","image-button-response","127","915373","0.0-125.0","A2K0L9M1ZZO5C9","img_art/2.jpg","2","","","","","","","","","","","","","","","","","","","","","","","","",""
"993","","image-button-response","128","916369","0.0-126.0","A2K0L9M1ZZO5C9","img_art/2.jpg","5","","","","","","","","","","","","","","","","","","","","","","","","",""
"145","","image-button-response","129","916519","0.0-127.0-0.0","A2K0L9M1ZZO5C9","img_art/2.jpg","5","","","","","","","","","","","","","","","","","","","","","","","","",""
"1779","","image-button-response","130","921001","0.0-127.1-0.1","A2K0L9M1ZZO5C9","img_art/2.jpg","2","","","","","","","","","","","","","","","","","","","","","","","","",""
"1063","","image-button-response","131","922068","0.0-128.0-0.0","A2K0L9M1ZZO5C9","img_art/2.jpg","0","","","","","","","","","","","","","","","","","","","","","","","","",""
"null","","html-keyboard-response","132","923072","0.0-129.0","A2K0L9M1ZZO5C9","<p style=""font-size: 48px;"">+</p>","","","","","null","allTrialResponses","1000","1","12","img_art/2.jpg","-24","I just dont get it","Christina,Dominique,Jenna,Amber,Victoria,Alicia","It looks like a little kids primary color picture,3,240,20","This reminds me of a peaceful day out alone shopping and spending some me time,41,400,20","the colors are a bit odd, and the squiggly line at the top is distracting,0,360,20","bright and happy,20,200,20","I like the colors,22,400,20","retro, amateurish, not a fan of the colors together.,-10,120,20","Alicia","retro, amateurish, not a fan of the colors together.,-10,120,20","Jenna","the colors are a bit odd, and the squiggly line at the top is distracting,0,360,20","Christina","It looks like a little kids primary color picture,3,240,20","6"
"8676","","survey-text","133","931752","0.0-130.0-0.0","A2K0L9M1ZZO5C9","","","","{""Q0"":""Inspiring""}","","","","","","","","","","","","","","","","","","","","","","",""
"4000","","image-slider-response","134","935755","0.0-131.0","A2K0L9M1ZZO5C9","","","","","36","","","","","","","","","","","","","","","","","","","","","",""
"3095","","image-button-response","135","940763","0.0-132.0","A2K0L9M1ZZO5C9","img_art/21.jpg","2","","","","","","","","","","","","","","","","","","","","","","","","",""
"236","","image-button-response","136","941002","0.0-133.0","A2K0L9M1ZZO5C9","img_art/21.jpg","0","","","","","","","","","","","","","","","","","","","","","","","","",""
"812","","image-button-response","137","941818","0.0-134.0-0.0","A2K0L9M1ZZO5C9","img_art/21.jpg","2","","","","","","","","","","","","","","","","","","","","","","","","",""
"1862","","image-button-response","138","943684","0.0-135.0-0.0","A2K0L9M1ZZO5C9","img_art/21.jpg","4","","","","","","","","","","","","","","","","","","","","","","","","",""
"null","","html-keyboard-response","139","945190","0.0-136.0","A2K0L9M1ZZO5C9","<p style=""font-size: 48px;"">+</p>","","","","","null","allTrialResponses","1500","1","13","img_art/21.jpg","36","Inspiring","Christina,Brittany,Jenna,Jasmine,Amanda,Alicia","it has a lot of happy colors and it's very classic looking,35,240,20","Alright. I like the colors.,5,40,20","beautiful. reminds me of a storm brewing over sea. i love the white dots.,45,360,20","The blues make me feel sadder as my mood is already not the best right now,-10,340,20","Very calming and nice to look at,30,180,20","Don't know why I like it, cant describe, maybe many landscapes?,47,120,20","Christina","it has a lot of happy colors and it's very classic looking,35,240,20","Jenna","beautiful. reminds me of a storm brewing over sea. i love the white dots.,45,360,20","Amanda","Very calming and nice to look at,30,180,20","6"
"17669","","survey-text","140","962871","0.0-137.0-0.0","A2K0L9M1ZZO5C9","","","","{""Q0"":""2 bodies of water crashing together""}","","","","","","","","","","","","","","","","","","","","","","",""
"2576.900000002235","","image-slider-response","141","965450","0.0-138.0","A2K0L9M1ZZO5C9","","","","","13","","","","","","","","","","","","","","","","","","","","","",""
"3898","","image-button-response","142","970452","0.0-139.0","A2K0L9M1ZZO5C9","img_art/24.jpg","2","","","","","","","","","","","","","","","","","","","","","","","","",""
"1462","","image-button-response","143","971916","0.0-140.0","A2K0L9M1ZZO5C9","img_art/24.jpg","3","","","","","","","","","","","","","","","","","","","","","","","","",""
"1282","","image-button-response","144","973200","0.0-141.0-0.0","A2K0L9M1ZZO5C9","img_art/24.jpg","4","","","","","","","","","","","","","","","","","","","","","","","","",""
"3465","","image-button-response","145","976666","0.0-142.0-0.0","A2K0L9M1ZZO5C9","img_art/24.jpg","1","","","","","","","","","","","","","","","","","","","","","","","","",""
"null","","html-keyboard-response","146","977171","0.0-143.0","A2K0L9M1ZZO5C9","<p style=""font-size: 48px;"">+</p>","","","","","null","allTrialResponses","500","1","14","img_art/24.jpg","13","2 bodies of water crashing together","Christina,Gabrielle,Jenna,Sara,Amanda,Leah","I like how it looks like a waterfall in an exotic place,50,240,20","flowing water part is good, some of the rest is ok but dark,14,160,20","colors are a bit cramped together. really unique take on a waterfall though.,32,360,20","Beautiful scenic drawing with perfect color coordination,43,160,20","Beautiful,  peaceful,50,180,20","Happy, the forest as I would love to see it,50,360,20","Sara","Beautiful scenic drawing with perfect color coordination,43,160,20","Amanda","Beautiful,  peaceful,50,180,20","Gabrielle","flowing water part is good, some of the rest is ok but dark,14,160,20","6"
"16988","","survey-text","147","994169","0.0-144.0-0.0","A2K0L9M1ZZO5C9","","","","{""Q0"":""Pointless ""}","","","","","","","","","","","","","","","","","","","","","","",""
"3845.60000000149","","image-slider-response","148","998016","0.0-145.0","A2K0L9M1ZZO5C9","","","","","-28","","","","","","","","","","","","","","","","","","","","","",""
"3483","","image-button-response","149","1003018","0.0-146.0","A2K0L9M1ZZO5C9","img_art/12.jpg","0","","","","","","","","","","","","","","","","","","","","","","","","",""
"247","","image-button-response","150","1003269","0.0-147.0","A2K0L9M1ZZO5C9","img_art/12.jpg","1","","","","","","","","","","","","","","","","","","","","","","","","",""
"3212","","image-button-response","151","1006485","0.0-148.0-0.0","A2K0L9M1ZZO5C9","img_art/12.jpg","2","","","","","","","","","","","","","","","","","","","","","","","","",""
"1562","","image-button-response","152","1008052","0.0-149.0-0.0","A2K0L9M1ZZO5C9","img_art/12.jpg","0","","","","","","","","","","","","","","","","","","","","","","","","",""
"null","","html-keyboard-response","153","1009056","0.0-150.0","A2K0L9M1ZZO5C9","<p style=""font-size: 48px;"">+</p>","","","","","null","allTrialResponses","1000","1","15","img_art/12.jpg","-28","Pointless ","Cassandra,Gabrielle,Shelby,Sara,Amanda,Chloe","Neutral...just blocks.,3,120,20","seems too dark on top and too common on the bottom,-19,160,20","The shapes make me feel a bit uncomfortable,-10,240,20","I don't like the blocking,-20,160,20","The colors are beautiful and it has great composition,50,180,20","Nice hallway art for a hotel.,21,220,20","Gabrielle","seems too dark on top and too common on the bottom,-19,160,20","Shelby","The shapes make me feel a bit uncomfortable,-10,240,20","Cassandra","Neutral...just blocks.,3,120,20","6"
"4952","","survey-text","154","1014020","0.0-151.0-0.0","A2K0L9M1ZZO5C9","","","","{""Q0"":""course""}","","","","","","","","","","","","","","","","","","","","","","",""
"8597","","survey-text","155","1022620","0.0-152.0-0.0","A2K0L9M1ZZO5C9","","","","{""Q0"":""Too loud and busy""}","","","","","","","","","","","","","","","","","","","","","","",""
"2080.099999997765","","image-slider-response","156","1024703","0.0-153.0","A2K0L9M1ZZO5C9","","","","","-42","","","","","","","","","","","","","","","","","","","","","",""
"4230","","image-button-response","157","1029710","0.0-154.0","A2K0L9M1ZZO5C9","img_art/15.jpg","1","","","","","","","","","","","","","","","","","","","","","","","","",""
"2937","","image-button-response","158","1032650","0.0-155.0","A2K0L9M1ZZO5C9","img_art/15.jpg","4","","","","","","","","","","","","","","","","","","","","","","","","",""
"1482","","image-button-response","159","1034135","0.0-156.0-0.0","A2K0L9M1ZZO5C9","img_art/15.jpg","0","","","","","","","","","","","","","","","","","","","","","","","","",""
"945","","image-button-response","160","1035083","0.0-157.0-0.0","A2K0L9M1ZZO5C9","img_art/15.jpg","1","","","","","","","","","","","","","","","","","","","","","","","","",""
"null","","html-keyboard-response","161","1035586","0.0-158.0","A2K0L9M1ZZO5C9","<p style=""font-size: 48px;"">+</p>","","","","","null","allTrialResponses","500","1","16","img_art/15.jpg","-42","Too loud and busy","Cassandra,Gabrielle,Shelby,Caitlin,Megan,Katherine","Hate it...black dots.,-47,120,20","dark and provoking,-50,160,20","This painting gives a calm vibe but no stronger emotions than that,10,240,20","Getting better.,10,80,20","Dark, drab asymmetrical floral piece,-26,200,20","black dots too ant-like,-25,120,20","Megan","Dark, drab asymmetrical floral piece,-26,200,20","Cassandra","Hate it...black dots.,-47,120,20","Gabrielle","dark and provoking,-50,160,20","6"
"11372","","survey-text","162","1046969","0.0-159.0-0.0","A2K0L9M1ZZO5C9","","","","{""Q0"":""I can make a circle out""}","","","","","","","","","","","","","","","","","","","","","","",""
"1849","","image-slider-response","163","1048821","0.0-160.0","A2K0L9M1ZZO5C9","","","","","-23","","","","","","","","","","","","","","","","","","","","","",""
"null","","image-button-response","164","1053824","0.0-161.0","A2K0L9M1ZZO5C9","img_art/22.jpg","null","","","","","","","","","","","","","","","","","","","","","","","","",""
"511","","image-button-response","165","1054337","0.0-162.0","A2K0L9M1ZZO5C9","img_art/22.jpg","1","","","","","","","","","","","","","","","","","","","","","","","","",""
"2098","","image-button-response","166","1056438","0.0-163.0-0.0","A2K0L9M1ZZO5C9","img_art/22.jpg","2","","","","","","","","","","","","","","","","","","","","","","","","",""
"660","","image-button-response","167","1057101","0.0-164.0-0.0","A2K0L9M1ZZO5C9","img_art/22.jpg","2","","","","","","","","","","","","","","","","","","","","","","","","",""
"1659","","image-button-response","168","1061985","0.0-164.1-0.1","A2K0L9M1ZZO5C9","img_art/22.jpg","5","","","","","","","","","","","","","","","","","","","","","","","","",""
"null","","html-keyboard-response","169","1062491","0.0-165.0","A2K0L9M1ZZO5C9","<p style=""font-size: 48px;"">+</p>","","","","","null","allTrialResponses","500","1","17","img_art/22.jpg","-23","I can make a circle out","Cassandra,Gabrielle,Cynthia,Kylie,Megan,Kaylee","Don't like it...too much red,-17,120,20","another OK work, mostly because of the blend of colors,12,160,20","A key to the unknown,15,320,20","Climate change in a big city,35,300,20","Organic sun spot on a flexible grid,18,200,20","its just ugly for me,-50,200,20","Gabrielle","another OK work, mostly because of the blend of colors,12,160,20","Cynthia","A key to the unknown,15,320,20","Kaylee","its just ugly for me,-50,200,20","8"
"14086","","survey-text","170","1076587","0.0-166.0-0.0","A2K0L9M1ZZO5C9","","","","{""Q0"":""Rover pics of the moon ""}","","","","","","","","","","","","","","","","","","","","","","",""
"3930.10000000149","","image-slider-response","171","1080520","0.0-167.0","A2K0L9M1ZZO5C9","","","","","16","","","","","","","","","","","","","","","","","","","","","",""
"4211","","image-button-response","172","1085526","0.0-168.0","A2K0L9M1ZZO5C9","img_art/7.jpg","2","","","","","","","","","","","","","","","","","","","","","","","","",""
"191","","image-button-response","173","1085721","0.0-169.0","A2K0L9M1ZZO5C9","img_art/7.jpg","0","","","","","","","","","","","","","","","","","","","","","","","","",""
"1945","","image-button-response","174","1087668","0.0-170.0-0.0","A2K0L9M1ZZO5C9","img_art/7.jpg","4","","","","","","","","","","","","","","","","","","","","","","","","",""
"1632","","image-button-response","175","1089303","0.0-171.0-0.0","A2K0L9M1ZZO5C9","img_art/7.jpg","5","","","","","","","","","","","","","","","","","","","","","","","","",""
"null","","html-keyboard-response","176","1090310","0.0-172.0","A2K0L9M1ZZO5C9","<p style=""font-size: 48px;"">+</p>","","","","","null","allTrialResponses","1000","1","18","img_art/7.jpg","16","Rover pics of the moon ","Cassidy,Gabrielle,Cynthia,Heather,Allison,Kaylee","I like the texture,12,140,20","looks like wallpaper,-6,160,20","time and change,1,320,20","i dont like it. it looks like rocks,-40,260,20","I like the earth tones here,5,140,20","some rocks on a mars?,7,200,20","Cassidy","I like the texture,12,140,20","Allison","I like the earth tones here,5,140,20","Kaylee","some rocks on a mars?,7,200,20","8"
"7485","","survey-text","177","1097804","0.0-173.0-0.0","A2K0L9M1ZZO5C9","","","","{""Q0"":""Too loud""}","","","","","","","","","","","","","","","","","","","","","","",""
"1813.2000000029802","","image-slider-response","178","1099620","0.0-174.0","A2K0L9M1ZZO5C9","","","","","-24","","","","","","","","","","","","","","","","","","","","","",""
"4097","","image-button-response","179","1104622","0.0-175.0","A2K0L9M1ZZO5C9","img_art/23.jpg","4","","","","","","","","","","","","","","","","","","","","","","","","",""
"643","","image-button-response","180","1105268","0.0-176.0","A2K0L9M1ZZO5C9","img_art/23.jpg","4","","","","","","","","","","","","","","","","","","","","","","","","",""
"1416","","image-button-response","181","1106685","0.0-177.0-0.0","A2K0L9M1ZZO5C9","img_art/23.jpg","5","","","","","","","","","","","","","","","","","","","","","","","","",""
"1696","","image-button-response","182","1108386","0.0-178.0-0.0","A2K0L9M1ZZO5C9","img_art/23.jpg","2","","","","","","","","","","","","","","","","","","","","","","","","",""
"null","","html-keyboard-response","183","1109892","0.0-179.0","A2K0L9M1ZZO5C9","<p style=""font-size: 48px;"">+</p>","","","","","null","allTrialResponses","1500","1","19","img_art/23.jpg","-24","Too loud","Cassidy,Amy,Kaitlyn,Alexandria,Allison,Kaylee","I like the colors, the tiny dots, and the contrast between the white and background,28,140,20","So exciting and full of the night.,20,220,20","Interesting contrast,9,80,20","makes me happy and want to dance,43,80,20","I like the color contrast, though I'm unable to tell what the white shapes are.,25,140,20","i completely dont get it,-47,200,20","Allison","I like the color contrast, though I'm unable to tell what the white shapes are.,25,140,20","Kaylee","i completely dont get it,-47,200,20","Kaitlyn","Interesting contrast,9,80,20","8"
"24347","","survey-text","184","1134248","0.0-180.0-0.0","A2K0L9M1ZZO5C9","","","","{""Q0"":""Not bad but little too much going on""}","","","","","","","","","","","","","","","","","","","","","","",""
"3454","","image-slider-response","185","1137704","0.0-181.0","A2K0L9M1ZZO5C9","","","","","8","","","","","","","","","","","","","","","","","","","","","",""
"4677","","image-button-response","186","1142713","0.0-182.0","A2K0L9M1ZZO5C9","img_art/27.jpg","1","","","","","","","","","","","","","","","","","","","","","","","","",""
"1353","","image-button-response","187","1144069","0.0-183.0","A2K0L9M1ZZO5C9","img_art/27.jpg","1","","","","","","","","","","","","","","","","","","","","","","","","",""
"1614","","image-button-response","188","1145687","0.0-184.0-0.0","A2K0L9M1ZZO5C9","img_art/27.jpg","2","","","","","","","","","","","","","","","","","","","","","","","","",""
"2362","","image-button-response","189","1148054","0.0-185.0-0.0","A2K0L9M1ZZO5C9","img_art/27.jpg","4","","","","","","","","","","","","","","","","","","","","","","","","",""
"null","","html-keyboard-response","190","1149562","0.0-186.0","A2K0L9M1ZZO5C9","<p style=""font-size: 48px;"">+</p>","","","","","null","allTrialResponses","1500","1","20","img_art/27.jpg","8","Not bad but little too much going on","Claire,Sarah,Kaitlyn,Erin,Allison,Kaylee","looks like a little kid did it,-30,260,20","i don't think i should like this one because it's a little chaotic and simple but I do,6,180,20","The variation of orange is nice,9,80,20","Looks like someone vandalized the original piece with a marker,-36,120,20","Warn colors are pretty, but too blotchy for me.,3,140,20","nice firestorm on desert,23,200,20","Sarah","i don't think i should like this one because it's a little chaotic and simple but I do,6,180,20","Kaitlyn","The variation of orange is nice,9,80,20","Allison","Warn colors are pretty, but too blotchy for me.,3,140,20","8"
"11113","","survey-text","191","1160687","0.0-187.0-0.0","A2K0L9M1ZZO5C9","","","","{""Q0"":""we""}","","","","","","","","","","","","","","","","","","","","","","",""
"9578","","survey-text","192","1170268","0.0-188.0-0.0","A2K0L9M1ZZO5C9","","","","{""Q0"":""Willow tree""}","","","","","","","","","","","","","","","","","","","","","","",""
"2885.800000000745","","image-slider-response","193","1173155","0.0-189.0","A2K0L9M1ZZO5C9","","","","","23","","","","","","","","","","","","","","","","","","","","","",""
"3928","","image-button-response","194","1178160","0.0-190.0","A2K0L9M1ZZO5C9","img_art/17.jpg","0","","","","","","","","","","","","","","","","","","","","","","","","",""
"1355","","image-button-response","195","1179520","0.0-191.0","A2K0L9M1ZZO5C9","img_art/17.jpg","1","","","","","","","","","","","","","","","","","","","","","","","","",""
"1212","","image-button-response","196","1180735","0.0-192.0-0.0","A2K0L9M1ZZO5C9","img_art/17.jpg","0","","","","","","","","","","","","","","","","","","","","","","","","",""
"2347","","image-button-response","197","1183086","0.0-193.0-0.0","A2K0L9M1ZZO5C9","img_art/17.jpg","5","","","","","","","","","","","","","","","","","","","","","","","","",""
"null","","html-keyboard-response","198","1183589","0.0-194.0","A2K0L9M1ZZO5C9","<p style=""font-size: 48px;"">+</p>","","","","","null","allTrialResponses","500","1","21","img_art/17.jpg","23","Willow tree","Alexandra,Sarah,Kaitlyn,Michelle,Allison,Alexis","This is very beautiful and elegant.,42,60,20","i like the delicate wispy part, but overall i don't love it,10,180,20","Very beautiful,19,80,20","I can tell there are tress and maybe some doors but I'm not a fan of the style,-2,280,20","Very washed out.,-10,140,20","Love the color and nature motif,36,100,20","Sarah","i like the delicate wispy part, but overall i don't love it,10,180,20","Alexandra","This is very beautiful and elegant.,42,60,20","Alexis","Love the color and nature motif,36,100,20","8"
"20305","","survey-text","199","1203903","0.0-195.0-0.0","A2K0L9M1ZZO5C9","","","","{""Q0"":""crow on a stump""}","","","","","","","","","","","","","","","","","","","","","","",""
"5082.800000000745","","image-slider-response","200","1208988","0.0-196.0","A2K0L9M1ZZO5C9","","","","","18","","","","","","","","","","","","","","","","","","","","","",""
"3210","","image-button-response","201","1213992","0.0-197.0","A2K0L9M1ZZO5C9","img_art/6.jpg","4","","","","","","","","","","","","","","","","","","","","","","","","",""
"1442","","image-button-response","202","1215438","0.0-198.0","A2K0L9M1ZZO5C9","img_art/6.jpg","5","","","","","","","","","","","","","","","","","","","","","","","","",""
"2063","","image-button-response","203","1217503","0.0-199.0-0.0","A2K0L9M1ZZO5C9","img_art/6.jpg","4","","","","","","","","","","","","","","","","","","","","","","","","",""
"1895","","image-button-response","204","1219401","0.0-200.0-0.0","A2K0L9M1ZZO5C9","img_art/6.jpg","1","","","","","","","","","","","","","","","","","","","","","","","","",""
"null","","html-keyboard-response","205","1220407","0.0-201.0","A2K0L9M1ZZO5C9","<p style=""font-size: 48px;"">+</p>","","","","","null","allTrialResponses","1000","1","22","img_art/6.jpg","18","crow on a stump","Alexandra,Sarah,Rebecca,Stephanie,Tiffany,Alexis","this is interesting and unique,11,60,20","it's interesting but I don't love it,10,180,20","??????? fake floating leaf? headless bird,-28,100,20","Nevermore!  A black raven sitting on a pumpkin. Halloween,-35,300,20","The painting makes me happy. Like I'm looking at a little bird.,6,360,20","The feeling of isolation with so little objects. Great,20,100,20","Alexis","The feeling of isolation with so little objects. Great,20,100,20","Tiffany","The painting makes me happy. Like I'm looking at a little bird.,6,360,20","Sarah","it's interesting but I don't love it,10,180,20","8"
"36986","","survey-text","206","1257403","0.0-202.0-0.0","A2K0L9M1ZZO5C9","","","","{""Q0"":""Not as busy/loud as others are""}","","","","","","","","","","","","","","","","","","","","","","",""
"5097.800000000745","","image-slider-response","207","1262504","0.0-203.0","A2K0L9M1ZZO5C9","","","","","7","","","","","","","","","","","","","","","","","","","","","",""
"null","","image-button-response","208","1267512","0.0-204.0","A2K0L9M1ZZO5C9","img_art/14.jpg","null","","","","","","","","","","","","","","","","","","","","","","","","",""
"920","","image-button-response","209","1268436","0.0-205.0","A2K0L9M1ZZO5C9","img_art/14.jpg","2","","","","","","","","","","","","","","","","","","","","","","","","",""
"2031","","image-button-response","210","1270470","0.0-206.0-0.0","A2K0L9M1ZZO5C9","img_art/14.jpg","5","","","","","","","","","","","","","","","","","","","","","","","","",""
"1245","","image-button-response","211","1271720","0.0-207.0-0.0","A2K0L9M1ZZO5C9","img_art/14.jpg","3","","","","","","","","","","","","","","","","","","","","","","","","",""
"null","","html-keyboard-response","212","1273223","0.0-208.0","A2K0L9M1ZZO5C9","<p style=""font-size: 48px;"">+</p>","","","","","null","allTrialResponses","1500","1","23","img_art/14.jpg","7","Not as busy/loud as others are","Jamie,Sarah,Samantha,Mary,Tiffany,Alexis","Not as cool as other tree looking paintings,-5,320,20","this looks pretty childish,-15,180,20","I love the feeling of the tree and people. Makes me happy,50,140,20","I like the layers of color in this piece. The circles and lines are interesting.,29,180,20","I feel uncomfortable looking at this painting, it is a mess that needs to be cleaned up.,-16,360,20","Don't like the colors on this. Too simple,-20,100,20","Samantha","I love the feeling of the tree and people. Makes me happy,50,140,20","Alexis","Don't like the colors on this. Too simple,-20,100,20","Mary","I like the layers of color in this piece. The circles and lines are interesting.,29,180,20","8"
"13606","","survey-text","213","1286838","0.0-209.0-0.0","A2K0L9M1ZZO5C9","","","","{""Q0"":""Irritating""}","","","","","","","","","","","","","","","","","","","","","","",""
"2761.599999997765","","image-slider-response","214","1289604","0.0-210.0","A2K0L9M1ZZO5C9","","","","","-22","","","","","","","","","","","","","","","","","","","","","",""
"4831","","image-button-response","215","1294613","0.0-211.0","A2K0L9M1ZZO5C9","img_art/9.jpg","4","","","","","","","","","","","","","","","","","","","","","","","","",""
"1287","","image-button-response","216","1295904","0.0-212.0","A2K0L9M1ZZO5C9","img_art/9.jpg","1","","","","","","","","","","","","","","","","","","","","","","","","",""
"1212","","image-button-response","217","1297120","0.0-213.0-0.0","A2K0L9M1ZZO5C9","img_art/9.jpg","4","","","","","","","","","","","","","","","","","","","","","","","","",""
"1480","","image-button-response","218","1298604","0.0-214.0-0.0","A2K0L9M1ZZO5C9","img_art/9.jpg","2","","","","","","","","","","","","","","","","","","","","","","","","",""
"null","","html-keyboard-response","219","1299109","0.0-215.0","A2K0L9M1ZZO5C9","<p style=""font-size: 48px;"">+</p>","","","","","null","allTrialResponses","500","1","24","img_art/9.jpg","-22","Irritating","Brianna,Mackenzie,Samantha,Mary,Kaitlin,Alexis","This has some of my favorite colors, and I like it,21,20,20","I enjoy the design, but the colors look waxy,-7,20,20","Some nice colors but i do not like it,-18,140,20","How neat is this piece?  I love the angry expressive lines. Emotion is captured in it.,26,180,20","this looks to be a child nightmare,-10,60,20","I like the sense of forboding, the green creates a claustrophobic feeling,10,100,20","Mackenzie","I enjoy the design, but the colors look waxy,-7,20,20","Kaitlin","this looks to be a child nightmare,-10,60,20","Samantha","Some nice colors but i do not like it,-18,140,20","8"
"27769","","survey-text","220","1326887","0.0-216.0-0.0","A2K0L9M1ZZO5C9","","","","{""Q0"":""looks like a horse running fwd""}","","","","","","","","","","","","","","","","","","","","","","",""
"3482.10000000149","","image-slider-response","221","1330372","0.0-217.0","A2K0L9M1ZZO5C9","","","","","9","","","","","","","","","","","","","","","","","","","","","",""
"4063","","image-button-response","222","1335379","0.0-218.0","A2K0L9M1ZZO5C9","img_art/20.jpg","2","","","","","","","","","","","","","","","","","","","","","","","","",""
"237","","image-button-response","223","1335621","0.0-219.0","A2K0L9M1ZZO5C9","img_art/20.jpg","5","","","","","","","","","","","","","","","","","","","","","","","","",""
"2428","","image-button-response","224","1338051","0.0-220.0-0.0","A2K0L9M1ZZO5C9","img_art/20.jpg","1","","","","","","","","","","","","","","","","","","","","","","","","",""
"634","","image-button-response","225","1338687","0.0-221.0-0.0","A2K0L9M1ZZO5C9","img_art/20.jpg","2","","","","","","","","","","","","","","","","","","","","","","","","",""
"null","","html-keyboard-response","226","1340194","0.0-222.0","A2K0L9M1ZZO5C9","<p style=""font-size: 48px;"">+</p>","","","","","null","allTrialResponses","1500","1","25","img_art/20.jpg","9","looks like a horse running fwd","Savannah,Mackenzie,Samantha,Vanessa,Kaitlin,Leslie","Lovely composition, colors, and message.,35,200,20","Shapes are fun to interpret,21,20,20","Use of white on foreground is too big and steals eyes away from rest of painting,2,140,20","I like the deep blues, but I don't like the way this picture makes me feel.,-13,380,20","i can feel the intensity in this,11,60,20","This elicits no reaction in me.,0,380,20","Leslie","This elicits no reaction in me.,0,380,20","Mackenzie","Shapes are fun to interpret,21,20,20","Samantha","Use of white on foreground is too big and steals eyes away from rest of painting,2,140,20","8"
"13469","","survey-text","227","1353672","0.0-223.0-0.0","A2K0L9M1ZZO5C9","","","","{""Q0"":""table""}","","","","","","","","","","","","","","","","","","","","","","",""
"12796","","survey-text","228","1366470","0.0-224.0-0.0","A2K0L9M1ZZO5C9","","","","{""Q0"":""too dark and messy""}","","","","","","","","","","","","","","","","","","","","","","",""
"3602.699999999255","","image-slider-response","229","1370074","0.0-225.0","A2K0L9M1ZZO5C9","","","","","-19","","","","","","","","","","","","","","","","","","","","","",""
"null","","image-button-response","230","1375082","0.0-226.0","A2K0L9M1ZZO5C9","img_art/29.jpg","null","","","","","","","","","","","","","","","","","","","","","","","","",""
"1135","","image-button-response","231","1376222","0.0-227.0","A2K0L9M1ZZO5C9","img_art/29.jpg","4","","","","","","","","","","","","","","","","","","","","","","","","",""
"845","","image-button-response","232","1377071","0.0-228.0-0.0","A2K0L9M1ZZO5C9","img_art/29.jpg","3","","","","","","","","","","","","","","","","","","","","","","","","",""
"2731","","image-button-response","233","1379807","0.0-229.0-0.0","A2K0L9M1ZZO5C9","img_art/29.jpg","1","","","","","","","","","","","","","","","","","","","","","","","","",""
"null","","html-keyboard-response","234","1381314","0.0-230.0","A2K0L9M1ZZO5C9","<p style=""font-size: 48px;"">+</p>","","","","","null","allTrialResponses","1500","1","26","img_art/29.jpg","-19","too dark and messy","Alexa,Mackenzie,Samantha,Bailey,Shannon,Leslie","Very wild and I like it,20,40,20","The light source is confusing, but still interesting to look at,11,20,20","I love this things almost hidden in it like paint brush and other details,50,140,20","Giant messy blob. Looks like it tries to be edgy, but fails.,-40,360,20","I think this image looks ugly and needs more colors so it looks nicer.,-30,220,20","I can relate to the frustration this evokes.,20,380,20","Shannon","I think this image looks ugly and needs more colors so it looks nicer.,-30,220,20","Bailey","Giant messy blob. Looks like it tries to be edgy, but fails.,-40,360,20","Mackenzie","The light source is confusing, but still interesting to look at,11,20,20","8"
"16715","","survey-text","235","1398038","0.0-231.0-0.0","A2K0L9M1ZZO5C9","","","","{""Q0"":""too busy""}","","","","","","","","","","","","","","","","","","","","","","",""
"4302.599999997765","","image-slider-response","236","1402342","0.0-232.0","A2K0L9M1ZZO5C9","","","","","-22","","","","","","","","","","","","","","","","","","","","","",""
"null","","image-button-response","237","1407347","0.0-233.0","A2K0L9M1ZZO5C9","img_art/1.jpg","null","","","","","","","","","","","","","","","","","","","","","","","","",""
"488","","image-button-response","238","1407838","0.0-234.0","A2K0L9M1ZZO5C9","img_art/1.jpg","2","","","","","","","","","","","","","","","","","","","","","","","","",""
"1463","","image-button-response","239","1409305","0.0-235.0-0.0","A2K0L9M1ZZO5C9","img_art/1.jpg","5","","","","","","","","","","","","","","","","","","","","","","","","",""
"1580","","image-button-response","240","1410888","0.0-236.0-0.0","A2K0L9M1ZZO5C9","img_art/1.jpg","0","","","","","","","","","","","","","","","","","","","","","","","","",""
"null","","html-keyboard-response","241","1412393","0.0-237.0","A2K0L9M1ZZO5C9","<p style=""font-size: 48px;"">+</p>","","","","","null","allTrialResponses","1500","1","27","img_art/1.jpg","-22","too busy","Crystal,Mackenzie,Margaret,Bailey,Shannon,Katelyn","Interesting color scheme but to bled to me,11,300,20","I like the simple aspect to the design,21,20,20","basic reminds me of something a school would have on the wall,-7,100,20","A bit of a smokey mess, but it does have an air of mystery I like,7,360,20","I think that this picture has nice colors and its pleasing to the eyes.,20,220,20","Im not a fan of the bluriness,-18,100,20","Margaret","basic reminds me of something a school would have on the wall,-7,100,20","Katelyn","Im not a fan of the bluriness,-18,100,20","Crystal","Interesting color scheme but to bled to me,11,300,20","8"
"24321","","survey-text","242","1436722","0.0-238.0-0.0","A2K0L9M1ZZO5C9","","","","{""Q0"":""White tree in the woods""}","","","","","","","","","","","","","","","","","","","","","","",""
"3445.699999999255","","image-slider-response","243","1440169","0.0-239.0","A2K0L9M1ZZO5C9","","","","","40","","","","","","","","","","","","","","","","","","","","","",""
"null","","image-button-response","244","1445171","0.0-240.0","A2K0L9M1ZZO5C9","img_art/13.jpg","null","","","","","","","","","","","","","","","","","","","","","","","","",""
"1029","","image-button-response","245","1446203","0.0-241.0","A2K0L9M1ZZO5C9","img_art/13.jpg","5","","","","","","","","","","","","","","","","","","","","","","","","",""
"2699","","image-button-response","246","1448903","0.0-242.0-0.0","A2K0L9M1ZZO5C9","img_art/13.jpg","2","","","","","","","","","","","","","","","","","","","","","","","","",""
"415","","image-button-response","247","1449320","0.0-243.0-0.0","A2K0L9M1ZZO5C9","img_art/13.jpg","2","","","","","","","","","","","","","","","","","","","","","","","","",""
"597","","image-button-response","248","1457472","0.0-243.1-0.1","A2K0L9M1ZZO5C9","img_art/13.jpg","3","","","","","","","","","","","","","","","","","","","","","","","","",""
"null","","html-keyboard-response","249","1458479","0.0-244.0","A2K0L9M1ZZO5C9","<p style=""font-size: 48px;"">+</p>","","","","","null","allTrialResponses","1000","1","28","img_art/13.jpg","40","White tree in the woods","Crystal,Emily,Margaret,Isabella,Julia,Katelyn","Reminiscent of Jackson Pollock and gives me a feeling of chaotic satisfaction,50,300,20","I don't car for it but it does seem organized and like it took considereably more skill that others.,9,40,20","i like the splatters and the colors,21,100,20","Rain drops on a window,35,280,20","I don't really care for splatter paintings; the spectral colors underneath are nice.,-18,40,20","Really like this. Its like looking out a window into a beautiful storm,39,100,20","Katelyn","Really like this. Its like looking out a window into a beautiful storm,39,100,20","Margaret","i like the splatters and the colors,21,100,20","Isabella","Rain drops on a window,35,280,20","10"
"16417","","survey-text","250","1474906","0.0-245.0-0.0","A2K0L9M1ZZO5C9","","","","{""Q0"":""ahhhh nooo bear got chewed up""}","","","","","","","","","","","","","","","","","","","","","","",""
"2830.5","","image-slider-response","251","1477739","0.0-246.0","A2K0L9M1ZZO5C9","","","","","-41","","","","","","","","","","","","","","","","","","","","","",""
"3314","","image-button-response","252","1482743","0.0-247.0","A2K0L9M1ZZO5C9","img_art/16.jpg","4","","","","","","","","","","","","","","","","","","","","","","","","",""
"241","","image-button-response","253","1482987","0.0-248.0","A2K0L9M1ZZO5C9","img_art/16.jpg","3","","","","","","","","","","","","","","","","","","","","","","","","",""
"1713","","image-button-response","254","1484703","0.0-249.0-0.0","A2K0L9M1ZZO5C9","img_art/16.jpg","4","","","","","","","","","","","","","","","","","","","","","","","","",""
"2201","","image-button-response","255","1486905","0.0-250.0-0.0","A2K0L9M1ZZO5C9","img_art/16.jpg","0","","","","","","","","","","","","","","","","","","","","","","","","",""
"null","","html-keyboard-response","256","1487406","0.0-251.0","A2K0L9M1ZZO5C9","<p style=""font-size: 48px;"">+</p>","","","","","null","allTrialResponses","500","1","29","img_art/16.jpg","-41","ahhhh nooo bear got chewed up","Maria,Courtney,Margaret,Isabella,Lindsey,Katelyn","feel a little creeped out,-20,120,20","Hmm i don't know what going on here.,1,280,20","i like how it incorporates mixed visual art with the photo of the bear and the drawings,30,100,20","This looks chaotic,-25,280,20","It's depressing. Probably achieved its goal. But I wouldn't want it hanging in my home.,-31,400,20","I dont feel any real response,5,100,20","Isabella","This looks chaotic,-25,280,20","Lindsey","It's depressing. Probably achieved its goal. But I wouldn't want it hanging in my home.,-31,400,20","Maria","feel a little creeped out,-20,120,20","10"
"13177","","survey-text","257","1500588","0.0-252.0-0.0","A2K0L9M1ZZO5C9","","","","{""Q0"":""Slendy.. slenderman""}","","","","","","","","","","","","","","","","","","","","","","",""
"12350","","image-slider-response","258","1512941","0.0-253.0","A2K0L9M1ZZO5C9","","","","","7","","","","","","","","","","","","","","","","","","","","","",""
"null","","image-button-response","259","1517949","0.0-254.0","A2K0L9M1ZZO5C9","img_art/25.jpg","null","","","","","","","","","","","","","","","","","","","","","","","","",""
"7204","","image-button-response","260","1525156","0.0-255.0","A2K0L9M1ZZO5C9","img_art/25.jpg","2","","","","","","","","","","","","","","","","","","","","","","","","",""
"1345","","image-button-response","261","1526504","0.0-256.0-0.0","A2K0L9M1ZZO5C9","img_art/25.jpg","5","","","","","","","","","","","","","","","","","","","","","","","","",""
"582","","image-button-response","262","1527090","0.0-257.0-0.0","A2K0L9M1ZZO5C9","img_art/25.jpg","4","","","","","","","","","","","","","","","","","","","","","","","","",""
"null","","html-keyboard-response","263","1528593","0.0-258.0","A2K0L9M1ZZO5C9","<p style=""font-size: 48px;"">+</p>","","","","","null","allTrialResponses","1500","1","30","img_art/25.jpg","7","Slendy.. slenderman","Maria,Angela,Caroline,Isabella,Lindsey,Danielle","I find it enjoyable - mainly because it is not art I ever expected to see,16,120,20","Ugly green color and don't like it at all,-30,260,20","Makes me think of Baphomet, As above so below and is scary,-50,100,20","I love the green and the figure is black but the green makes it pop,29,280,20","This piece makes me think of oppression and fighting it. Makes me feel calm, sad and strong.,11,400,20","I like it, a bit cryptic and obscene, I enjoy that,30,340,20","Caroline","Makes me think of Baphomet, As above so below and is scary,-50,100,20","Danielle","I like it, a bit cryptic and obscene, I enjoy that,30,340,20","Lindsey","This piece makes me think of oppression and fighting it. Makes me feel calm, sad and strong.,11,400,20","10"
"5034","","image-button-response_instructions","264","1533636","0.0-259.0","A2K0L9M1ZZO5C9","","0","instructions","","","","","","","","","","","","","","","","","","","","","","","",""
"1595","","image-button-response","265","1535236","0.0-260.0","A2K0L9M1ZZO5C9","","0","","","","","","","","","","","","","","","","","","","","","","","","",""
