"rt","url","trial_type","trial_index","time_elapsed","internal_node_id","participant_id","stimulus","button_pressed","Name","responses","response","key_press","variableName","fixationTime","condition","trial","photo","subjectRating","subjectResponse","agentsNames","agent_1_Response","agent_2_Response","agent_3_Response","agent_4_Response","agent_5_Response","agent_6_Response","kept_1_name","kept_1_response","kept_2_name","kept_2_response","kept_3_name","kept_3_response","errorCounter"
"28145","external_page_harvard.html","external-html","0","28249","0.0-0.0","A2KAO546CF46AZ","","","","","","","","","","","","","","","","","","","","","","","","","","",""
"1650","","image-button-response","1","29904","0.0-1.0","A2KAO546CF46AZ","","0","","","","","","","","","","","","","","","","","","","","","","","","",""
"1682","","image-button-response","2","31600","0.0-2.0-0.0","A2KAO546CF46AZ","","1","phone","","","","","","","","","","","","","","","","","","","","","","","",""
"7902","","survey-text","3","39506","0.0-3.0-0.0","A2KAO546CF46AZ","","","","{""Q0"":""A2KAO546CF46AZ""}","","","","","","","","","","","","","","","","","","","","","","",""
"6796","","image-button-response_instructions","4","46308","0.0-4.0","A2KAO546CF46AZ","","0","instructions","","","","","","","","","","","","","","","","","","","","","","","",""
"13895","","image-button-response_instructions","5","60207","0.0-5.0","A2KAO546CF46AZ","img_art/ins/popularity/ins1.png","0","instructions","","","","","","","","","","","","","","","","","","","","","","","",""
"11504","","image-button-response_instructions","6","71714","0.0-6.0","A2KAO546CF46AZ","img_art/ins/popularity/ins2.png","0","instructions","","","","","","","","","","","","","","","","","","","","","","","",""
"9100","","image-button-response_instructions","7","80816","0.0-7.0","A2KAO546CF46AZ","img_art/ins/popularity/ins2Extreme.png","0","instructions","","","","","","","","","","","","","","","","","","","","","","","",""
"15580","","image-button-response_instructions","8","96400","0.0-8.0","A2KAO546CF46AZ","img_art/ins/popularity/ins3KEEPpop.PNG","0","instructions","","","","","","","","","","","","","","","","","","","","","","","",""
"7021","","image-button-response_instructions","9","103424","0.0-9.0","A2KAO546CF46AZ","img_art/ins/popularity/ins3ANamepop.PNG","0","instructions","","","","","","","","","","","","","","","","","","","","","","","",""
"9475","","image-button-response_instructions","10","112902","0.0-10.0","A2KAO546CF46AZ","img_art/ins/popularity/ins3ARatingpop.png","0","instructions","","","","","","","","","","","","","","","","","","","","","","","",""
"4764","","image-button-response_instructions","11","117669","0.0-11.0","A2KAO546CF46AZ","img_art/ins/popularity/ins3ATextpop.png","0","instructions","","","","","","","","","","","","","","","","","","","","","","","",""
"8039","","image-button-response_instructions","12","125710","0.0-12.0","A2KAO546CF46AZ","img_art/ins/popularity/ins3ALikespop.png","0","instructions","","","","","","","","","","","","","","","","","","","","","","","",""
"21426","","image-button-response_instructions","13","147138","0.0-13.0","A2KAO546CF46AZ","img_art/ins/popularity/ins3KEEPpop.PNG","0","instructions","","","","","","","","","","","","","","","","","","","","","","","",""
"11224","","image-button-response_instructions","14","158365","0.0-14.0","A2KAO546CF46AZ","img_art/ins/popularity/ins3_5RED.png","0","instructions","","","","","","","","","","","","","","","","","","","","","","","",""
"7478","","image-button-response_instructions","15","165847","0.0-15.0","A2KAO546CF46AZ","img_art/ins/popularity/ins3KEEPpop.PNG","0","instructions","","","","","","","","","","","","","","","","","","","","","","","",""
"12284","","image-button-response_instructions","16","178134","0.0-16.0","A2KAO546CF46AZ","img_art/ins/popularity/ins4KEEPpop.PNG","0","instructions","","","","","","","","","","","","","","","","","","","","","","","",""
"14412","","image-button-response_instructions","17","192549","0.0-17.0","A2KAO546CF46AZ","img_art/ins/popularity/ins5KEEPpop.PNG","0","instructions","","","","","","","","","","","","","","","","","","","","","","","",""
"2027","","image-button-response_instructions","18","194579","0.0-18.0","A2KAO546CF46AZ","","0","instructions","","","","","","","","","","","","","","","","","","","","","","","",""
"7594","","survey-text","19","202273","0.0-19.0-0.0","A2KAO546CF46AZ","","","","{""Q0"":""but""}","","","","","","","","","","","","","","","","","","","","","","",""
"18137","","survey-text","20","220415","0.0-20.0-0.0","A2KAO546CF46AZ","","","","{""Q0"":""It reminds me of a field of flowers""}","","","","","","","","","","","","","","","","","","","","","","",""
"8665.299999952316","","image-slider-response","21","229089","0.0-21.0","A2KAO546CF46AZ","","","","","26","","","","","","","","","","","","","","","","","","","","","",""
"null","","image-button-response","22","234114","0.0-22.0","A2KAO546CF46AZ","img_art/ins/1.jpg","null","","","","","","","","","","","","","","","","","","","","","","","","",""
"20129","","image-button-response","23","254248","0.0-23.0","A2KAO546CF46AZ","img_art/ins/1.jpg","3","","","","","","","","","","","","","","","","","","","","","","","","",""
"2841","","image-button-response","24","257098","0.0-24.0-0.0","A2KAO546CF46AZ","img_art/ins/1.jpg","1","","","","","","","","","","","","","","","","","","","","","","","","",""
"4398","","image-button-response","25","261511","0.0-25.0-0.0","A2KAO546CF46AZ","img_art/ins/1.jpg","5","","","","","","","","","","","","","","","","","","","","","","","","",""
"null","","html-keyboard-response","26","262019","0.0-26.0","A2KAO546CF46AZ","<p style=""font-size: 48px;"">+</p>","","","","","null","allTrialResponses","500","1","-2","img_art/ins/1.jpg","26","It reminds me of a field of flowers","Adam,Alex,Ben,Carl,Daniel,Jack","Seems like doodles,-20,20,20","very creative work.,36,40,20","This color reminds me of poo,-46,60,20","very calming artwork,42,80,20","It looks like a murder scene.,-48,100,20","I like the sophisticated brushwork,40,120,20","Carl","very calming artwork,42,80,20","Alex","very creative work.,36,40,20","Jack","I like the sophisticated brushwork,40,120,20","0"
"25067","","survey-text","27","287103","0.0-27.0-0.0","A2KAO546CF46AZ","","","","{""Q0"":""The reds are very harsh and really stand out""}","","","","","","","","","","","","","","","","","","","","","","",""
"6088.100000023842","","image-slider-response","28","293196","0.0-28.0","A2KAO546CF46AZ","","","","","4","","","","","","","","","","","","","","","","","","","","","",""
"null","","image-button-response","29","298211","0.0-29.0","A2KAO546CF46AZ","img_art/ins/2.jpg","null","","","","","","","","","","","","","","","","","","","","","","","","",""
"12329","","image-button-response","30","310545","0.0-30.0","A2KAO546CF46AZ","img_art/ins/2.jpg","0","","","","","","","","","","","","","","","","","","","","","","","","",""
"6557","","image-button-response","31","317109","0.0-31.0-0.0","A2KAO546CF46AZ","img_art/ins/2.jpg","4","","","","","","","","","","","","","","","","","","","","","","","","",""
"3985","","image-button-response","32","321103","0.0-32.0-0.0","A2KAO546CF46AZ","img_art/ins/2.jpg","0","","","","","","","","","","","","","","","","","","","","","","","","",""
"1072","","image-button-response","33","330177","0.0-32.1-0.1","A2KAO546CF46AZ","img_art/ins/2.jpg","2","","","","","","","","","","","","","","","","","","","","","","","","",""
"null","","html-keyboard-response","34","330691","0.0-33.0","A2KAO546CF46AZ","<p style=""font-size: 48px;"">+</p>","","","","","null","allTrialResponses","500","1","-1","img_art/ins/2.jpg","4","The reds are very harsh and really stand out","James,Alex,Kyle,Carl,John,Jack","looks too angry,-50,140,20","I like the blocks of color arrangements,30,40,20","Idk, it is just annoying,-32,180,20","I can feel the artist's passion in it,45,80,20","love the texture of paint,48,160,20","I would never be able to compose a sophisticated pallete like this,48,120,20","James","looks too angry,-50,140,20","John","love the texture of paint,48,160,20","Kyle","Idk, it is just annoying,-32,180,20","2"
"22577","","survey-text","35","353284","0.0-34.0-0.0","A2KAO546CF46AZ","","","","{""Q0"":""It feels very cold and reminds me of ice crystals""}","","","","","","","","","","","","","","","","","","","","","","",""
"8609.399999976158","","image-slider-response","36","361898","0.0-35.0","A2KAO546CF46AZ","","","","","18","","","","","","","","","","","","","","","","","","","","","",""
"null","","image-button-response","37","366906","0.0-36.0","A2KAO546CF46AZ","img_art/ins/3.jpg","null","","","","","","","","","","","","","","","","","","","","","","","","",""
"757","","image-button-response","38","367671","0.0-37.0","A2KAO546CF46AZ","img_art/ins/3.jpg","3","","","","","","","","","","","","","","","","","","","","","","","","",""
"3896","","image-button-response","39","371573","0.0-38.0-0.0","A2KAO546CF46AZ","img_art/ins/3.jpg","5","","","","","","","","","","","","","","","","","","","","","","","","",""
"3724","","image-button-response","40","375307","0.0-39.0-0.0","A2KAO546CF46AZ","img_art/ins/3.jpg","4","","","","","","","","","","","","","","","","","","","","","","","","",""
"null","","html-keyboard-response","41","375812","0.0-40.0","A2KAO546CF46AZ","<p style=""font-size: 48px;"">+</p>","","","","","null","allTrialResponses","500","1","0","img_art/ins/3.jpg","18","It feels very cold and reminds me of ice crystals","James,Ron,Kyle,Mike,John,Sam","My worst nightmare,-42,140,20","It looks depressing,-26,220,20","It looks like a playground for bats,-36,180,20","enjoy the different shades of blue,22,200,20","I like the overlapping of brushes,41,160,20","I can feel a rainy day from this painting,18,240,20","Mike","enjoy the different shades of blue,22,200,20","Sam","I can feel a rainy day from this painting,18,240,20","John","I like the overlapping of brushes,41,160,20","2"
"6470","","image-button-response_instructions","42","382302","0.0-41.0","A2KAO546CF46AZ","","0","instructions","","","","","","","","","","","","","","","","","","","","","","","",""
"11851","","survey-likert","43","394158","0.0-42.0-0.0","A2KAO546CF46AZ","","","","{""Q0"":"""",""Q1"":0,""Q2"":1}","","","","","","","","","","","","","","","","","","","","","","",""
"5371","","survey-text","44","399564","0.0-43.0-0.0","A2KAO546CF46AZ","","","","{""Q0"":""rock""}","","","","","","","","","","","","","","","","","","","","","","",""
"35091","","survey-text","45","434659","0.0-44.0-0.0","A2KAO546CF46AZ","","","","{""Q0"":""The colors are unappetizing and feel muddy.""}","","","","","","","","","","","","","","","","","","","","","","",""
"3205.399999976158","","image-slider-response","46","437870","0.0-45.0","A2KAO546CF46AZ","","","","","-34","","","","","","","","","","","","","","","","","","","","","",""
"null","","image-button-response","47","442962","0.0-46.0","A2KAO546CF46AZ","img_art/2.jpg","null","","","","","","","","","","","","","","","","","","","","","","","","",""
"9751","","image-button-response","48","452718","0.0-47.0","A2KAO546CF46AZ","img_art/2.jpg","2","","","","","","","","","","","","","","","","","","","","","","","","",""
"2021","","image-button-response","49","454745","0.0-48.0-0.0","A2KAO546CF46AZ","img_art/2.jpg","1","","","","","","","","","","","","","","","","","","","","","","","","",""
"836","","image-button-response","50","455590","0.0-49.0-0.0","A2KAO546CF46AZ","img_art/2.jpg","0","","","","","","","","","","","","","","","","","","","","","","","","",""
"null","","html-keyboard-response","51","456098","0.0-50.0","A2KAO546CF46AZ","<p style=""font-size: 48px;"">+</p>","","","","","null","allTrialResponses","500","1","1","img_art/2.jpg","-34","The colors are unappetizing and feel muddy.","Zachary,Tristan,Bradley,Austin,Mark,Dalton","I am not a fan of the color story. I am confused by the piece and therefore do not like it.,-21,400,20","The color palette of this painting is for me displeasing and immature.,-30,300,20","I'm not fond of the colors in this one.,-33,300,20","Good color pallette,12,240,20","It feels like a party and Moulin Rouge.,20,80,20","i like the colors and again can make out my own picture,38,300,20","Bradley","I'm not fond of the colors in this one.,-33,300,20","Tristan","The color palette of this painting is for me displeasing and immature.,-30,300,20","Zachary","I am not a fan of the color story. I am confused by the piece and therefore do not like it.,-21,400,20","2"
"44491","","survey-text","52","500613","0.0-51.0-0.0","A2KAO546CF46AZ","","","","{""Q0"":""Reminds me of a photo that has been broken into pieces. Nice color transition though.""}","","","","","","","","","","","","","","","","","","","","","","",""
"5647.600000023842","","image-slider-response","53","506267","0.0-52.0","A2KAO546CF46AZ","","","","","8","","","","","","","","","","","","","","","","","","","","","",""
"null","","image-button-response","54","511277","0.0-53.0","A2KAO546CF46AZ","img_art/12.jpg","null","","","","","","","","","","","","","","","","","","","","","","","","",""
"15057","","image-button-response","55","526339","0.0-54.0","A2KAO546CF46AZ","img_art/12.jpg","2","","","","","","","","","","","","","","","","","","","","","","","","",""
"17848","","image-button-response","56","544195","0.0-55.0-0.0","A2KAO546CF46AZ","img_art/12.jpg","5","","","","","","","","","","","","","","","","","","","","","","","","",""
"5937","","image-button-response","57","550144","0.0-56.0-0.0","A2KAO546CF46AZ","img_art/12.jpg","0","","","","","","","","","","","","","","","","","","","","","","","","",""
"null","","html-keyboard-response","58","551159","0.0-57.0","A2KAO546CF46AZ","<p style=""font-size: 48px;"">+</p>","","","","","null","allTrialResponses","1000","1","2","img_art/12.jpg","8","Reminds me of a photo that has been broken into pieces. Nice color transition though.","Zachary,Tristan,Bradley,David,Jason,Jack","I like how it's split into tiny squares, but otherwise, not very intriguing.,-18,400,20","Quite lovely with depth and possibility.,21,300,20","Good technique. It's just not my thing.,2,300,20","This doesn't invoke anything. Just a mosaic of random images.,0,340,20","The shapes present in the picture make it very interesting,17,20,20","interesting, but feels like someone cut up a picture and pasted it together wrong. want to see the original,15,320,20","Bradley","Good technique. It's just not my thing.,2,300,20","Jack","interesting, but feels like someone cut up a picture and pasted it together wrong. want to see the original,15,320,20","Zachary","I like how it's split into tiny squares, but otherwise, not very intriguing.,-18,400,20","2"
"64238","","survey-text","59","615417","0.0-58.0-0.0","A2KAO546CF46AZ","","","","{""Q0"":""Kind of cool but also sort of looks like someone was cleaning their brushes.""}","","","","","","","","","","","","","","","","","","","","","","",""
"14449.700000047684","","image-slider-response","60","629873","0.0-59.0","A2KAO546CF46AZ","","","","","0","","","","","","","","","","","","","","","","","","","","","",""
"null","","image-button-response","61","634882","0.0-60.0","A2KAO546CF46AZ","img_art/15.jpg","null","","","","","","","","","","","","","","","","","","","","","","","","",""
"6897","","image-button-response","62","641784","0.0-61.0","A2KAO546CF46AZ","img_art/15.jpg","4","","","","","","","","","","","","","","","","","","","","","","","","",""
"4694","","image-button-response","63","646488","0.0-62.0-0.0","A2KAO546CF46AZ","img_art/15.jpg","5","","","","","","","","","","","","","","","","","","","","","","","","",""
"7215","","image-button-response","64","653714","0.0-63.0-0.0","A2KAO546CF46AZ","img_art/15.jpg","0","","","","","","","","","","","","","","","","","","","","","","","","",""
"null","","html-keyboard-response","65","655232","0.0-64.0","A2KAO546CF46AZ","<p style=""font-size: 48px;"">+</p>","","","","","null","allTrialResponses","1500","1","3","img_art/15.jpg","0","Kind of cool but also sort of looks like someone was cleaning their brushes.","Zachary,Travis,Bradley,Isaac,Anthony,Jack","Reminds me of blue birds in a tree at night. I love nature.,40,400,20","Hate it...black dots.,-47,260,20","I feel like there's ski jumping going on here.,2,300,20","The colors are too busy.,-39,280,20","This piece isn't particularly attractive, but it's not ugly either.,1,200,20","interesting technique. the blue is very pretty,18,320,20","Anthony","This piece isn't particularly attractive, but it's not ugly either.,1,200,20","Jack","interesting technique. the blue is very pretty,18,320,20","Zachary","Reminds me of blue birds in a tree at night. I love nature.,40,400,20","2"
"23251","","survey-text","66","678503","0.0-65.0-0.0","A2KAO546CF46AZ","","","","{""Q0"":""looks like a weird hand coming out of a sleeve.""}","","","","","","","","","","","","","","","","","","","","","","",""
"8697.799999952316","","image-slider-response","67","687206","0.0-66.0","A2KAO546CF46AZ","","","","","-50","","","","","","","","","","","","","","","","","","","","","",""
"null","","image-button-response","68","692215","0.0-67.0","A2KAO546CF46AZ","img_art/4.jpg","null","","","","","","","","","","","","","","","","","","","","","","","","",""
"8717","","image-button-response","69","700943","0.0-68.0","A2KAO546CF46AZ","img_art/4.jpg","0","","","","","","","","","","","","","","","","","","","","","","","","",""
"11977","","image-button-response","70","712927","0.0-69.0-0.0","A2KAO546CF46AZ","img_art/4.jpg","5","","","","","","","","","","","","","","","","","","","","","","","","",""
"5535","","image-button-response","71","718473","0.0-70.0-0.0","A2KAO546CF46AZ","img_art/4.jpg","4","","","","","","","","","","","","","","","","","","","","","","","","",""
"null","","html-keyboard-response","72","718980","0.0-71.0","A2KAO546CF46AZ","<p style=""font-size: 48px;"">+</p>","","","","","null","allTrialResponses","500","1","4","img_art/4.jpg","-50","looks like a weird hand coming out of a sleeve.","Zachary,Vincent,Brett,Alexander,Anthony,Jack","Not a huge fan of the color story, but it reminds me of a child finger-painting.,12,400,20","I like it not sure much of how I feel about it,7,360,20","I just have no clue,26,360,20","Pretzel noodles.,7,120,20","Ugly and bland compared to the other pieces.,-33,200,20","creepy, looks like a deformed hand, but the background is pretty,5,320,20","Zachary","Not a huge fan of the color story, but it reminds me of a child finger-painting.,12,400,20","Jack","creepy, looks like a deformed hand, but the background is pretty,5,320,20","Anthony","Ugly and bland compared to the other pieces.,-33,200,20","2"
"34651","","survey-text","73","753656","0.0-72.0-0.0","A2KAO546CF46AZ","","","","{""Q0"":""It reminds me of lines of music. Nice colors as well.""}","","","","","","","","","","","","","","","","","","","","","","",""
"4068.2999999523163","","image-slider-response","74","757730","0.0-73.0","A2KAO546CF46AZ","","","","","35","","","","","","","","","","","","","","","","","","","","","",""
"2927","","image-button-response","75","762740","0.0-74.0","A2KAO546CF46AZ","img_art/11.jpg","0","","","","","","","","","","","","","","","","","","","","","","","","",""
"3837","","image-button-response","76","766582","0.0-75.0","A2KAO546CF46AZ","img_art/11.jpg","0","","","","","","","","","","","","","","","","","","","","","","","","",""
"17733","","image-button-response","77","784323","0.0-76.0-0.0","A2KAO546CF46AZ","img_art/11.jpg","5","","","","","","","","","","","","","","","","","","","","","","","","",""
"12866","","image-button-response","78","797198","0.0-77.0-0.0","A2KAO546CF46AZ","img_art/11.jpg","2","","","","","","","","","","","","","","","","","","","","","","","","",""
"null","","html-keyboard-response","79","797711","0.0-78.0","A2KAO546CF46AZ","<p style=""font-size: 48px;"">+</p>","","","","","null","allTrialResponses","500","1","5","img_art/11.jpg","35","It reminds me of lines of music. Nice colors as well.","Zachary,Jeremy,Dustin,Shawn,Anthony,Jack","Makes me think of a futuristic scene of vehicles flying in the sky in a city.,36,400,20","gave me a sense of gloom,-21,60,20","Dark and dreary. Makes me think of rain/water. I see grey clouds and high waves. Looks unsettling.,-20,20,20","Like the movement but not the background colors.,21,100,20","The narrow groups of lines in the center make me feel uneasy for some reason,-31,200,20","makes me think of city highways & bridges on a rainy, foggy day. I like the melancholy it evokes.,43,320,20","Zachary","Makes me think of a futuristic scene of vehicles flying in the sky in a city.,36,400,20","Jack","makes me think of city highways & bridges on a rainy, foggy day. I like the melancholy it evokes.,43,320,20","Dustin","Dark and dreary. Makes me think of rain/water. I see grey clouds and high waves. Looks unsettling.,-20,20,20","2"
"5494","","survey-text","80","803246","0.0-79.0-0.0","A2KAO546CF46AZ","","","","{""Q0"":""sky""}","","","","","","","","","","","","","","","","","","","","","","",""
"50859","","survey-text","81","854109","0.0-80.0-0.0","A2KAO546CF46AZ","","","","{""Q0"":""It is startling - a bit too painful to look at for me.""}","","","","","","","","","","","","","","","","","","","","","","",""
"3906.5999999046326","","image-slider-response","82","858021","0.0-81.0","A2KAO546CF46AZ","","","","","-50","","","","","","","","","","","","","","","","","","","","","",""
"null","","image-button-response","83","863034","0.0-82.0","A2KAO546CF46AZ","img_art/23.jpg","null","","","","","","","","","","","","","","","","","","","","","","","","",""
"16561","","image-button-response","84","879600","0.0-83.0","A2KAO546CF46AZ","img_art/23.jpg","1","","","","","","","","","","","","","","","","","","","","","","","","",""
"2239","","image-button-response","85","881845","0.0-84.0-0.0","A2KAO546CF46AZ","img_art/23.jpg","0","","","","","","","","","","","","","","","","","","","","","","","","",""
"14879","","image-button-response","86","896731","0.0-85.0-0.0","A2KAO546CF46AZ","img_art/23.jpg","2","","","","","","","","","","","","","","","","","","","","","","","","",""
"null","","html-keyboard-response","87","897238","0.0-86.0","A2KAO546CF46AZ","<p style=""font-size: 48px;"">+</p>","","","","","null","allTrialResponses","500","1","6","img_art/23.jpg","-50","It is startling - a bit too painful to look at for me.","Zachary,Daniel,Dustin,Kenneth,Kevin,Jack","Vivid colors and the white in the middle looks like people dancing.,31,400,20","Too busy with color with warrior lineup,0,320,20","I don't get it! the white in the middle of the speckled rainbow is confusing.,-10,20,20","Love this. I love the white, really pops with the colors surrounding it.,44,300,20","Looks like fish fossils,12,320,20","awesome colors. love the white drawing the eye to the center. oddly comforting.,50,320,20","Daniel","Too busy with color with warrior lineup,0,320,20","Zachary","Vivid colors and the white in the middle looks like people dancing.,31,400,20","Dustin","I don't get it! the white in the middle of the speckled rainbow is confusing.,-10,20,20","2"
"32979","","survey-text","88","930248","0.0-87.0-0.0","A2KAO546CF46AZ","","","","{""Q0"":""It is very melancholy and feels lonely. It is impactful.""}","","","","","","","","","","","","","","","","","","","","","","",""
"6365","","image-slider-response","89","936618","0.0-88.0","A2KAO546CF46AZ","","","","","25","","","","","","","","","","","","","","","","","","","","","",""
"null","","image-button-response","90","941633","0.0-89.0","A2KAO546CF46AZ","img_art/6.jpg","null","","","","","","","","","","","","","","","","","","","","","","","","",""
"9879","","image-button-response","91","951517","0.0-90.0","A2KAO546CF46AZ","img_art/6.jpg","3","","","","","","","","","","","","","","","","","","","","","","","","",""
"31502","","image-button-response","92","983024","0.0-91.0-0.0","A2KAO546CF46AZ","img_art/6.jpg","1","","","","","","","","","","","","","","","","","","","","","","","","",""
"2153","","image-button-response","93","985187","0.0-92.0-0.0","A2KAO546CF46AZ","img_art/6.jpg","5","","","","","","","","","","","","","","","","","","","","","","","","",""
"null","","html-keyboard-response","94","986695","0.0-93.0","A2KAO546CF46AZ","<p style=""font-size: 48px;"">+</p>","","","","","null","allTrialResponses","1500","1","7","img_art/6.jpg","25","It is very melancholy and feels lonely. It is impactful.","Zachary,Daniel,Dustin,Grant,Bryan,Isaiah","Reminds me of a plant poking through the soil. It reminds me of new life.,31,400,20","Odd desert, nice sand color with headless bird,11,320,20","I like the warmth of the orange. But, I feel like it's a partial view. I'm frustrated I can't see the entirety.,-20,20,20","The limited colors make me feel lonely.,36,200,20","Growth in the desert?  Don't care for it very much.,-26,400,20","The painting makes me happy. Like I'm looking at a little bird.,6,300,20","Grant","The limited colors make me feel lonely.,36,200,20","Daniel","Odd desert, nice sand color with headless bird,11,320,20","Isaiah","The painting makes me happy. Like I'm looking at a little bird.,6,300,20","2"
"49984","","survey-text","95","1036702","0.0-94.0-0.0","A2KAO546CF46AZ","","","","{""Q0"":""I like how the colors are muted and blended. The dark elements add a nice touch and pop out.""}","","","","","","","","","","","","","","","","","","","","","","",""
"5280.700000047684","","image-slider-response","96","1041988","0.0-95.0","A2KAO546CF46AZ","","","","","33","","","","","","","","","","","","","","","","","","","","","",""
"null","","image-button-response","97","1047008","0.0-96.0","A2KAO546CF46AZ","img_art/1.jpg","null","","","","","","","","","","","","","","","","","","","","","","","","",""
"17654","","image-button-response","98","1064666","0.0-97.0","A2KAO546CF46AZ","img_art/1.jpg","1","","","","","","","","","","","","","","","","","","","","","","","","",""
"1609","","image-button-response","99","1066283","0.0-98.0-0.0","A2KAO546CF46AZ","img_art/1.jpg","5","","","","","","","","","","","","","","","","","","","","","","","","",""
"3469","","image-button-response","100","1069760","0.0-99.0-0.0","A2KAO546CF46AZ","img_art/1.jpg","3","","","","","","","","","","","","","","","","","","","","","","","","",""
"null","","html-keyboard-response","101","1071269","0.0-100.0","A2KAO546CF46AZ","<p style=""font-size: 48px;"">+</p>","","","","","null","allTrialResponses","1500","1","8","img_art/1.jpg","33","I like how the colors are muted and blended. The dark elements add a nice touch and pop out.","Connor,Daniel,Matthew,Grant,Jesse,Isaiah","Love the coloration and abstract figures,18,240,20","Nice colors with some 3D effects,15,320,20","More passable, colorful, abstract.,13,120,20","The use of reds, blues, and yellows together reminds me of fire. Very interesting to look at.,40,200,20","Im not a fan of the bluriness,-18,80,20","I feel relaxed, like I'm watching the leaves change color.,17,300,20","Daniel","Nice colors with some 3D effects,15,320,20","Isaiah","I feel relaxed, like I'm watching the leaves change color.,17,300,20","Grant","The use of reds, blues, and yellows together reminds me of fire. Very interesting to look at.,40,200,20","2"
"56475","","survey-text","102","1127769","0.0-101.0-0.0","A2KAO546CF46AZ","","","","{""Q0"":""Really imaginative, nice cool tones. Reminds me of space and water elements.""}","","","","","","","","","","","","","","","","","","","","","","",""
"3678.0999999046326","","image-slider-response","103","1131457","0.0-102.0","A2KAO546CF46AZ","","","","","50","","","","","","","","","","","","","","","","","","","","","",""
"null","","image-button-response","104","1136468","0.0-103.0","A2KAO546CF46AZ","img_art/13.jpg","null","","","","","","","","","","","","","","","","","","","","","","","","",""
"14325","","image-button-response","105","1150798","0.0-104.0","A2KAO546CF46AZ","img_art/13.jpg","4","","","","","","","","","","","","","","","","","","","","","","","","",""
"2309","","image-button-response","106","1153114","0.0-105.0-0.0","A2KAO546CF46AZ","img_art/13.jpg","2","","","","","","","","","","","","","","","","","","","","","","","","",""
"9234","","image-button-response","107","1162356","0.0-106.0-0.0","A2KAO546CF46AZ","img_art/13.jpg","5","","","","","","","","","","","","","","","","","","","","","","","","",""
"null","","html-keyboard-response","108","1162863","0.0-107.0","A2KAO546CF46AZ","<p style=""font-size: 48px;"">+</p>","","","","","null","allTrialResponses","500","1","9","img_art/13.jpg","50","Really imaginative, nice cool tones. Reminds me of space and water elements.","Richard,Daniel,Luke,Grant,Brandon,Isaiah","kind of like the pattern and colors but don't love it,13,340,20","Average overly symmetrical safe,-26,320,20","the monochrome of blue with splatters makes me excited and happy,36,20,20","This elicits no reaction in me.,0,200,20","Simple, but pleasing. The blue gradient is a favorite of mine,32,320,20","The painting makes me feel awe and like I am very little. Like I am alone at the bottom of the ocean.,41,300,20","Brandon","Simple, but pleasing. The blue gradient is a favorite of mine,32,320,20","Luke","the monochrome of blue with splatters makes me excited and happy,36,20,20","Isaiah","The painting makes me feel awe and like I am very little. Like I am alone at the bottom of the ocean.,41,300,20","2"
"72400","","survey-text","109","1235291","0.0-108.0-0.0","A2KAO546CF46AZ","","","","{""Q0"":""Reminds me of a tree in a field. Chaotic yet sort of peaceful at the same time.""}","","","","","","","","","","","","","","","","","","","","","","",""
"4030.600000023842","","image-slider-response","110","1239326","0.0-109.0","A2KAO546CF46AZ","","","","","10","","","","","","","","","","","","","","","","","","","","","",""
"null","","image-button-response","111","1244339","0.0-110.0","A2KAO546CF46AZ","img_art/14.jpg","null","","","","","","","","","","","","","","","","","","","","","","","","",""
"6806","","image-button-response","112","1251149","0.0-111.0","A2KAO546CF46AZ","img_art/14.jpg","0","","","","","","","","","","","","","","","","","","","","","","","","",""
"12379","","image-button-response","113","1263535","0.0-112.0-0.0","A2KAO546CF46AZ","img_art/14.jpg","1","","","","","","","","","","","","","","","","","","","","","","","","",""
"9216","","image-button-response","114","1272760","0.0-113.0-0.0","A2KAO546CF46AZ","img_art/14.jpg","5","","","","","","","","","","","","","","","","","","","","","","","","",""
"null","","html-keyboard-response","115","1273774","0.0-114.0","A2KAO546CF46AZ","<p style=""font-size: 48px;"">+</p>","","","","","null","allTrialResponses","1000","1","10","img_art/14.jpg","10","Reminds me of a tree in a field. Chaotic yet sort of peaceful at the same time.","Jacob,Corey,Luke,Sean,Brandon,Isaiah","I kind of like it!,6,340,20","its okay. pretty bland but looks like nature,8,260,20","looks like it's symbolizing rebirth which is hopeful,22,20,20","my reaction is that the picture is wierd,-14,40,20","Don't like the colors on this. Too simple,-20,320,20","I feel uncomfortable looking at this painting, it is a mess that needs to be cleaned up.,-16,300,20","Jacob","I kind of like it!,6,340,20","Corey","its okay. pretty bland but looks like nature,8,260,20","Isaiah","I feel uncomfortable looking at this painting, it is a mess that needs to be cleaned up.,-16,300,20","2"
"4215","","survey-text","116","1278047","0.0-115.0-0.0","A2KAO546CF46AZ","","","","{""Q0"":""our""}","","","","","","","","","","","","","","","","","","","","","","",""
"45088","","survey-text","117","1323140","0.0-116.0-0.0","A2KAO546CF46AZ","","","","{""Q0"":""It grows on me - the red lines really stand out and it creates a sense of motion.""}","","","","","","","","","","","","","","","","","","","","","","",""
"4253.300000071526","","image-slider-response","118","1327398","0.0-117.0","A2KAO546CF46AZ","","","","","26","","","","","","","","","","","","","","","","","","","","","",""
"null","","image-button-response","119","1332406","0.0-118.0","A2KAO546CF46AZ","img_art/30.jpg","null","","","","","","","","","","","","","","","","","","","","","","","","",""
"9939","","image-button-response","120","1342351","0.0-119.0","A2KAO546CF46AZ","img_art/30.jpg","0","","","","","","","","","","","","","","","","","","","","","","","","",""
"39552","","image-button-response","121","1381909","0.0-120.0-0.0","A2KAO546CF46AZ","img_art/30.jpg","3","","","","","","","","","","","","","","","","","","","","","","","","",""
"10533","","image-button-response","122","1392451","0.0-121.0-0.0","A2KAO546CF46AZ","img_art/30.jpg","5","","","","","","","","","","","","","","","","","","","","","","","","",""
"null","","html-keyboard-response","123","1393464","0.0-122.0","A2KAO546CF46AZ","<p style=""font-size: 48px;"">+</p>","","","","","null","allTrialResponses","1000","1","11","img_art/30.jpg","26","It grows on me - the red lines really stand out and it creates a sense of motion.","Jacob,Corey,Brendan,Joshua,Jordan,Isaiah","Looks cool , but no meaning,1,340,20","I dont like the colors whatsoever,-15,260,20","i cant really get it,-35,340,20","It's just all right.,5,240,20","Combination of colors arent good,-6,160,20","The painting doesn't elicit any response from me.,0,300,20","Jacob","Looks cool , but no meaning,1,340,20","Joshua","It's just all right.,5,240,20","Isaiah","The painting doesn't elicit any response from me.,0,300,20","2"
"47303","","survey-text","124","1440798","0.0-123.0-0.0","A2KAO546CF46AZ","","","","{""Q0"":""Looks like someone was purposely trying to create \""art.\"" Just looks like a big mess.""}","","","","","","","","","","","","","","","","","","","","","","",""
"2965.100000023842","","image-slider-response","125","1443768","0.0-124.0","A2KAO546CF46AZ","","","","","-50","","","","","","","","","","","","","","","","","","","","","",""
"null","","image-button-response","126","1448784","0.0-125.0","A2KAO546CF46AZ","img_art/29.jpg","null","","","","","","","","","","","","","","","","","","","","","","","","",""
"19301","","image-button-response","127","1468090","0.0-126.0","A2KAO546CF46AZ","img_art/29.jpg","3","","","","","","","","","","","","","","","","","","","","","","","","",""
"6060","","image-button-response","128","1474157","0.0-127.0-0.0","A2KAO546CF46AZ","img_art/29.jpg","5","","","","","","","","","","","","","","","","","","","","","","","","",""
"4346","","image-button-response","129","1478513","0.0-128.0-0.0","A2KAO546CF46AZ","img_art/29.jpg","0","","","","","","","","","","","","","","","","","","","","","","","","",""
"null","","html-keyboard-response","130","1479034","0.0-129.0","A2KAO546CF46AZ","<p style=""font-size: 48px;"">+</p>","","","","","null","allTrialResponses","500","1","12","img_art/29.jpg","-50","Looks like someone was purposely trying to create ""art."" Just looks like a big mess.","Jacob,Evan,Patrick,Joshua,Jonathan,Isaiah","It looks cool but I don't really get what's going on, it looks too busy,0,340,20","It makes me feel as though the artist put in a lot of time and effort and then gave up,10,140,20","I don't like the black,-50,280,20","I don't like the red X through it.,-20,240,20","This one feels scary in a good way,30,140,20","I feel a little disgust. There is something off-putting about the smooth shapes and dark colors.,-43,300,20","Joshua","I don't like the red X through it.,-20,240,20","Isaiah","I feel a little disgust. There is something off-putting about the smooth shapes and dark colors.,-43,300,20","Jacob","It looks cool but I don't really get what's going on, it looks too busy,0,340,20","2"
"56690","","survey-text","131","1535753","0.0-130.0-0.0","A2KAO546CF46AZ","","","","{""Q0"":""Yeah, no. I mean someone is trying too hard to be artistic and send a message.""}","","","","","","","","","","","","","","","","","","","","","","",""
"4119.100000023842","","image-slider-response","132","1539878","0.0-131.0","A2KAO546CF46AZ","","","","","-50","","","","","","","","","","","","","","","","","","","","","",""
"null","","image-button-response","133","1544894","0.0-132.0","A2KAO546CF46AZ","img_art/16.jpg","null","","","","","","","","","","","","","","","","","","","","","","","","",""
"4985","","image-button-response","134","1549884","0.0-133.0","A2KAO546CF46AZ","img_art/16.jpg","5","","","","","","","","","","","","","","","","","","","","","","","","",""
"9453","","image-button-response","135","1559344","0.0-134.0-0.0","A2KAO546CF46AZ","img_art/16.jpg","3","","","","","","","","","","","","","","","","","","","","","","","","",""
"1327","","image-button-response","136","1560680","0.0-135.0-0.0","A2KAO546CF46AZ","img_art/16.jpg","2","","","","","","","","","","","","","","","","","","","","","","","","",""
"null","","html-keyboard-response","137","1562186","0.0-136.0","A2KAO546CF46AZ","<p style=""font-size: 48px;"">+</p>","","","","","null","allTrialResponses","1500","1","13","img_art/16.jpg","-50","Yeah, no. I mean someone is trying too hard to be artistic and send a message.","Jacob,Christian,Juan,Joshua,Scott,Isaiah","Cool but the bear creeps me out?,8,340,20","don't know how to feel, I mean I respect it but I honestly don't know about this,-12,140,20","This is too bizarre.,-39,260,20","This is weird and a little creepy.,6,240,20","feels chaotic and morbid,-39,20,20","I feel irked, like somehow the items in this painting just happened to fall on the page together.,-44,300,20","Isaiah","I feel irked, like somehow the items in this painting just happened to fall on the page together.,-44,300,20","Joshua","This is weird and a little creepy.,6,240,20","Juan","This is too bizarre.,-39,260,20","2"
"26980","","survey-text","138","1589199","0.0-137.0-0.0","A2KAO546CF46AZ","","","","{""Q0"":""Peaceful, reminds me of a waterfall and grasses/flowers.""}","","","","","","","","","","","","","","","","","","","","","","",""
"4287.299999952316","","image-slider-response","139","1593491","0.0-138.0","A2KAO546CF46AZ","","","","","21","","","","","","","","","","","","","","","","","","","","","",""
"null","","image-button-response","140","1598512","0.0-139.0","A2KAO546CF46AZ","img_art/24.jpg","null","","","","","","","","","","","","","","","","","","","","","","","","",""
"12631","","image-button-response","141","1611148","0.0-140.0","A2KAO546CF46AZ","img_art/24.jpg","4","","","","","","","","","","","","","","","","","","","","","","","","",""
"1865","","image-button-response","142","1613021","0.0-141.0-0.0","A2KAO546CF46AZ","img_art/24.jpg","3","","","","","","","","","","","","","","","","","","","","","","","","",""
"1084","","image-button-response","143","1614116","0.0-142.0-0.0","A2KAO546CF46AZ","img_art/24.jpg","0","","","","","","","","","","","","","","","","","","","","","","","","",""
"null","","html-keyboard-response","144","1615627","0.0-143.0","A2KAO546CF46AZ","<p style=""font-size: 48px;"">+</p>","","","","","null","allTrialResponses","1500","1","14","img_art/24.jpg","21","Peaceful, reminds me of a waterfall and grasses/flowers.","Taylor,Eric,Juan,Joshua,Devon,Isaiah","I actually like this one. You can tell what it is.,25,200,20","I'm reminded of a waterfall, but I feel like it could've been better portrayed.,5,100,20","I love the colors, but I wish the water was less abstract.,17,260,20","It's okay but don't love it.,7,240,20","Aww. I love the peace brought by this picture.,40,400,20","I feel relaxed and happy, looking at the stream, but it feels hollow, like something is fake.,5,300,20","Devon","Aww. I love the peace brought by this picture.,40,400,20","Joshua","It's okay but don't love it.,7,240,20","Taylor","I actually like this one. You can tell what it is.,25,200,20","2"
"72894","","survey-text","145","1688551","0.0-144.0-0.0","A2KAO546CF46AZ","","","","{""Q0"":""Kind of cool, looks like an overturned truck in the desert with some cow bones.""}","","","","","","","","","","","","","","","","","","","","","","",""
"2538.899999976158","","image-slider-response","146","1691096","0.0-145.0","A2KAO546CF46AZ","","","","","34","","","","","","","","","","","","","","","","","","","","","",""
"null","","image-button-response","147","1696121","0.0-146.0","A2KAO546CF46AZ","img_art/20.jpg","null","","","","","","","","","","","","","","","","","","","","","","","","",""
"13545","","image-button-response","148","1709670","0.0-147.0","A2KAO546CF46AZ","img_art/20.jpg","2","","","","","","","","","","","","","","","","","","","","","","","","",""
"7763","","image-button-response","149","1717441","0.0-148.0-0.0","A2KAO546CF46AZ","img_art/20.jpg","3","","","","","","","","","","","","","","","","","","","","","","","","",""
"2735","","image-button-response","150","1720190","0.0-149.0-0.0","A2KAO546CF46AZ","img_art/20.jpg","4","","","","","","","","","","","","","","","","","","","","","","","","",""
"null","","html-keyboard-response","151","1721698","0.0-150.0","A2KAO546CF46AZ","<p style=""font-size: 48px;"">+</p>","","","","","null","allTrialResponses","1500","1","15","img_art/20.jpg","34","Kind of cool, looks like an overturned truck in the desert with some cow bones.","Taylor,Dylan,Justin,Joshua,Devon,Alexis","Not bad for all the southwestern people.,15,200,20","The white blob looks like a face and it's creepy,-30,40,20","The colors and the scene depicted is interesting.,13,280,20","Reminds me of the Southwest; i.e. New Mexico or Arizona. It's interesting.,12,240,20","i can feel the intensity in this,11,400,20","it is a bit disturbing, like a monster or ghost floating away from a bleak building,-8,140,20","Justin","The colors and the scene depicted is interesting.,13,280,20","Joshua","Reminds me of the Southwest; i.e. New Mexico or Arizona. It's interesting.,12,240,20","Devon","i can feel the intensity in this,11,400,20","2"
"5756","","survey-text","152","1727524","0.0-151.0-0.0","A2KAO546CF46AZ","","","","{""Q0"":""course""}","","","","","","","","","","","","","","","","","","","","","","",""
"27717","","survey-text","153","1755245","0.0-152.0-0.0","A2KAO546CF46AZ","","","","{""Q0"":""Too jarring and harsh for me - would not be pleasant to have on a wall.""}","","","","","","","","","","","","","","","","","","","","","","",""
"3530.899999976158","","image-slider-response","154","1758780","0.0-153.0","A2KAO546CF46AZ","","","","","-31","","","","","","","","","","","","","","","","","","","","","",""
"null","","image-button-response","155","1763791","0.0-154.0","A2KAO546CF46AZ","img_art/3.jpg","null","","","","","","","","","","","","","","","","","","","","","","","","",""
"14127","","image-button-response","156","1777925","0.0-155.0","A2KAO546CF46AZ","img_art/3.jpg","2","","","","","","","","","","","","","","","","","","","","","","","","",""
"1749","","image-button-response","157","1779681","0.0-156.0-0.0","A2KAO546CF46AZ","img_art/3.jpg","3","","","","","","","","","","","","","","","","","","","","","","","","",""
"4701","","image-button-response","158","1784395","0.0-157.0-0.0","A2KAO546CF46AZ","img_art/3.jpg","5","","","","","","","","","","","","","","","","","","","","","","","","",""
"null","","html-keyboard-response","159","1785409","0.0-158.0","A2KAO546CF46AZ","<p style=""font-size: 48px;"">+</p>","","","","","null","allTrialResponses","1000","1","16","img_art/3.jpg","-31","Too jarring and harsh for me - would not be pleasant to have on a wall.","Nathaniel,Caleb,Justin,Joshua,Devon,Charles","Just scribbles. People buy that?,-47,220,20","Completely incomprehensible.,-33,40,20","I don't care for art that looks like it was just scribbled.,-19,280,20","Looks like a Basquiat but just not my cup of tea.,-29,240,20","good choice of color,12,400,20","I like that it feels kind of simple but still chaotic,6,100,20","Justin","I don't care for art that looks like it was just scribbled.,-19,280,20","Joshua","Looks like a Basquiat but just not my cup of tea.,-29,240,20","Charles","I like that it feels kind of simple but still chaotic,6,100,20","2"
"39106","","survey-text","160","1824550","0.0-159.0-0.0","A2KAO546CF46AZ","","","","{""Q0"":""Looks like a village by a lake. I don't care for the colors or the technique.""}","","","","","","","","","","","","","","","","","","","","","","",""
"3542.1999999284744","","image-slider-response","161","1828097","0.0-160.0","A2KAO546CF46AZ","","","","","-11","","","","","","","","","","","","","","","","","","","","","",""
"null","","image-button-response","162","1833107","0.0-161.0","A2KAO546CF46AZ","img_art/19.jpg","null","","","","","","","","","","","","","","","","","","","","","","","","",""
"4986","","image-button-response","163","1838098","0.0-162.0","A2KAO546CF46AZ","img_art/19.jpg","2","","","","","","","","","","","","","","","","","","","","","","","","",""
"5709","","image-button-response","164","1843815","0.0-163.0-0.0","A2KAO546CF46AZ","img_art/19.jpg","0","","","","","","","","","","","","","","","","","","","","","","","","",""
"1383","","image-button-response","165","1845208","0.0-164.0-0.0","A2KAO546CF46AZ","img_art/19.jpg","3","","","","","","","","","","","","","","","","","","","","","","","","",""
"null","","html-keyboard-response","166","1846717","0.0-165.0","A2KAO546CF46AZ","<p style=""font-size: 48px;"">+</p>","","","","","null","allTrialResponses","1500","1","17","img_art/19.jpg","-11","Looks like a village by a lake. I don't care for the colors or the technique.","Benjamin,Peter,Justin,Joshua,Miguel,Charles","Reminds me of a busy village.,16,260,20","Looks like hustle and bustle ,,3,320,20","It looks too much of a rough sketch. Don't really enjoy looking at it.,-9,280,20","Just don't like this one.,-9,240,20","Messy and kid like.,-36,160,20","The blue makes it look like it has depth,11,100,20","Justin","It looks too much of a rough sketch. Don't really enjoy looking at it.,-9,280,20","Benjamin","Reminds me of a busy village.,16,260,20","Joshua","Just don't like this one.,-9,240,20","2"
"104463","","survey-text","167","1951215","0.0-166.0-0.0","A2KAO546CF46AZ","","","","{""Q0"":""I mean come on - really? It may mean something to the artist but this meaning is not conveyed well to the viewer.""}","","","","","","","","","","","","","","","","","","","","","","",""
"2768","","image-slider-response","168","1953988","0.0-167.0","A2KAO546CF46AZ","","","","","-50","","","","","","","","","","","","","","","","","","","","","",""
"null","","image-button-response","169","1959011","0.0-168.0","A2KAO546CF46AZ","img_art/5.jpg","null","","","","","","","","","","","","","","","","","","","","","","","","",""
"10299","","image-button-response","170","1969315","0.0-169.0","A2KAO546CF46AZ","img_art/5.jpg","1","","","","","","","","","","","","","","","","","","","","","","","","",""
"2946","","image-button-response","171","1972269","0.0-170.0-0.0","A2KAO546CF46AZ","img_art/5.jpg","1","","","","","","","","","","","","","","","","","","","","","","","","",""
"587","","image-button-response","172","1975183","0.0-170.1-0.1","A2KAO546CF46AZ","img_art/5.jpg","3","","","","","","","","","","","","","","","","","","","","","","","","",""
"3238","","image-button-response","173","1978429","0.0-171.0-0.0","A2KAO546CF46AZ","img_art/5.jpg","4","","","","","","","","","","","","","","","","","","","","","","","","",""
"null","","html-keyboard-response","174","1979435","0.0-172.0","A2KAO546CF46AZ","<p style=""font-size: 48px;"">+</p>","","","","","null","allTrialResponses","1000","1","18","img_art/5.jpg","-50","I mean come on - really? It may mean something to the artist but this meaning is not conveyed well to the viewer.","Benjamin,Adrian,Justin,Joshua,Marcus,Ethan","Missing something,-5,260,20","Black bit reminds me of a giant splinter. Yellow bit reminds me of urine. I hate it.,-50,60,20","Although it's very simple, there's something about the colors that really draws the eye.,11,280,20","Very basic, but at least has some color to it.,-9,240,20","I really dislike this. It's ugly and looks dirty.,-44,60,20","This piece has a good flow. I like the yellow with black combo.,11,120,20","Adrian","Black bit reminds me of a giant splinter. Yellow bit reminds me of urine. I hate it.,-50,60,20","Joshua","Very basic, but at least has some color to it.,-9,240,20","Marcus","I really dislike this. It's ugly and looks dirty.,-44,60,20","4"
"45272","","survey-text","175","2024754","0.0-173.0-0.0","A2KAO546CF46AZ","","","","{""Q0"":""Looks like a cityscape with trees, Too dull and muted for taste but it is peaceful.""}","","","","","","","","","","","","","","","","","","","","","","",""
"3939.2000000476837","","image-slider-response","176","2028698","0.0-174.0","A2KAO546CF46AZ","","","","","7","","","","","","","","","","","","","","","","","","","","","",""
"null","","image-button-response","177","2033712","0.0-175.0","A2KAO546CF46AZ","img_art/26.jpg","null","","","","","","","","","","","","","","","","","","","","","","","","",""
"13714","","image-button-response","178","2047430","0.0-176.0","A2KAO546CF46AZ","img_art/26.jpg","1","","","","","","","","","","","","","","","","","","","","","","","","",""
"2264","","image-button-response","179","2049701","0.0-177.0-0.0","A2KAO546CF46AZ","img_art/26.jpg","4","","","","","","","","","","","","","","","","","","","","","","","","",""
"14654","","image-button-response","180","2064366","0.0-178.0-0.0","A2KAO546CF46AZ","img_art/26.jpg","2","","","","","","","","","","","","","","","","","","","","","","","","",""
"null","","html-keyboard-response","181","2065385","0.0-179.0","A2KAO546CF46AZ","<p style=""font-size: 48px;"">+</p>","","","","","null","allTrialResponses","1000","1","19","img_art/26.jpg","7","Looks like a cityscape with trees, Too dull and muted for taste but it is peaceful.","Edward,Adrian,Colton,Joshua,Marcus,Jose","Elevator art but the watercolors are good,29,60,20","I see a suburban neighborhood with townhouses and trees. Not a fan of the colors or style.,-16,60,20","very impressionistic,11,220,20","This is boring.,-15,240,20","Nice, but not very interesting. I do like the blue tree though.,6,60,20","This style of objects that are supposed to be something but then are blurry is interesting.,38,200,20","Adrian","I see a suburban neighborhood with townhouses and trees. Not a fan of the colors or style.,-16,60,20","Marcus","Nice, but not very interesting. I do like the blue tree though.,6,60,20","Colton","very impressionistic,11,220,20","4"
"45284","","survey-text","182","2110712","0.0-180.0-0.0","A2KAO546CF46AZ","","","","{""Q0"":""It's a guitar I suppose. Would look cool hanging in a musician's house. Kind of cool.""}","","","","","","","","","","","","","","","","","","","","","","",""
"2801.1999999284744","","image-slider-response","183","2113518","0.0-181.0","A2KAO546CF46AZ","","","","","22","","","","","","","","","","","","","","","","","","","","","",""
"null","","image-button-response","184","2118533","0.0-182.0","A2KAO546CF46AZ","img_art/10.jpg","null","","","","","","","","","","","","","","","","","","","","","","","","",""
"6952","","image-button-response","185","2125490","0.0-183.0","A2KAO546CF46AZ","img_art/10.jpg","1","","","","","","","","","","","","","","","","","","","","","","","","",""
"2197","","image-button-response","186","2127694","0.0-184.0-0.0","A2KAO546CF46AZ","img_art/10.jpg","2","","","","","","","","","","","","","","","","","","","","","","","","",""
"8163","","image-button-response","187","2135866","0.0-185.0-0.0","A2KAO546CF46AZ","img_art/10.jpg","5","","","","","","","","","","","","","","","","","","","","","","","","",""
"null","","html-keyboard-response","188","2136880","0.0-186.0","A2KAO546CF46AZ","<p style=""font-size: 48px;"">+</p>","","","","","null","allTrialResponses","1000","1","20","img_art/10.jpg","22","It's a guitar I suppose. Would look cool hanging in a musician's house. Kind of cool.","Carlos,Adrian,Colton,Cameron,Marcus,Noah","The colors and shapes are soothing but also disconcerting.,21,80,20","Looks like a violin. Not a fan of the smudges and smears, but my initial reaction was positive.,11,60,20","it looks very musical,24,220,20","artistic cello piece?,30,60,20","This makes me think of a city, specifically London.,20,60,20","not sure what to make of this one,0,260,20","Adrian","Looks like a violin. Not a fan of the smudges and smears, but my initial reaction was positive.,11,60,20","Colton","it looks very musical,24,220,20","Noah","not sure what to make of this one,0,260,20","4"
"3885","","survey-text","189","2140841","0.0-187.0-0.0","A2KAO546CF46AZ","","","","{""Q0"":""we""}","","","","","","","","","","","","","","","","","","","","","","",""
"86628","","survey-text","190","2227473","0.0-188.0-0.0","A2KAO546CF46AZ","","","","{""Q0"":""The colors are warm yet sort of disturbing. The black key is a nice touch and adds a visual stimulant.""}","","","","","","","","","","","","","","","","","","","","","","",""
"7758.700000047684","","image-slider-response","191","2235238","0.0-189.0","A2KAO546CF46AZ","","","","","40","","","","","","","","","","","","","","","","","","","","","",""
"null","","image-button-response","192","2240253","0.0-190.0","A2KAO546CF46AZ","img_art/22.jpg","null","","","","","","","","","","","","","","","","","","","","","","","","",""
"5018","","image-button-response","193","2245276","0.0-191.0","A2KAO546CF46AZ","img_art/22.jpg","2","","","","","","","","","","","","","","","","","","","","","","","","",""
"8208","","image-button-response","194","2253491","0.0-192.0-0.0","A2KAO546CF46AZ","img_art/22.jpg","4","","","","","","","","","","","","","","","","","","","","","","","","",""
"9186","","image-button-response","195","2262687","0.0-193.0-0.0","A2KAO546CF46AZ","img_art/22.jpg","3","","","","","","","","","","","","","","","","","","","","","","","","",""
"null","","html-keyboard-response","196","2263196","0.0-194.0","A2KAO546CF46AZ","<p style=""font-size: 48px;"">+</p>","","","","","null","allTrialResponses","500","1","21","img_art/22.jpg","40","The colors are warm yet sort of disturbing. The black key is a nice touch and adds a visual stimulant.","Robert,Adrian,Colton,Dakota,Jared,Noah","I don't get much of a reaction.,11,360,20","Too much contrasting colors makes me feel anxious. I don't like it.,-20,60,20","I enjoy the colors used,24,220,20","muddy and rough,14,280,20","colorful. but not much happening,1,400,20","displeasure - not a fan of the colour or the shapes,-18,260,20","Colton","I enjoy the colors used,24,220,20","Jared","colorful. but not much happening,1,400,20","Dakota","muddy and rough,14,280,20","4"
"50408","","survey-text","197","2313645","0.0-195.0-0.0","A2KAO546CF46AZ","","","","{""Q0"":""Reminds me of a battle on horseback. Nice amount of detail mixed with abstract elements.""}","","","","","","","","","","","","","","","","","","","","","","",""
"2920.899999976158","","image-slider-response","198","2316571","0.0-196.0","A2KAO546CF46AZ","","","","","50","","","","","","","","","","","","","","","","","","","","","",""
"null","","image-button-response","199","2321595","0.0-197.0","A2KAO546CF46AZ","img_art/18.jpg","null","","","","","","","","","","","","","","","","","","","","","","","","",""
"94264","","image-button-response","200","2415864","0.0-198.0","A2KAO546CF46AZ","img_art/18.jpg","0","","","","","","","","","","","","","","","","","","","","","","","","",""
"1051","","image-button-response","201","2416922","0.0-199.0-0.0","A2KAO546CF46AZ","img_art/18.jpg","1","","","","","","","","","","","","","","","","","","","","","","","","",""
"857","","image-button-response","202","2417788","0.0-200.0-0.0","A2KAO546CF46AZ","img_art/18.jpg","2","","","","","","","","","","","","","","","","","","","","","","","","",""
"null","","html-keyboard-response","203","2418793","0.0-201.0","A2KAO546CF46AZ","<p style=""font-size: 48px;"">+</p>","","","","","null","allTrialResponses","1000","1","22","img_art/18.jpg","50","Reminds me of a battle on horseback. Nice amount of detail mixed with abstract elements.","Blake,Cole,Colton,Dakota,Jared,Andrew","i like the colors. outerspace,21,280,20","Two people fighting with one watching,17,200,20","reminds me of greek mythology,22,220,20","afraid and anxious,21,280,20","it looks like people,9,400,20","Another ominous painting,-10,160,20","Blake","i like the colors. outerspace,21,280,20","Cole","Two people fighting with one watching,17,200,20","Colton","reminds me of greek mythology,22,220,20","4"
"44568","","survey-text","204","2463416","0.0-202.0-0.0","A2KAO546CF46AZ","","","","{""Q0"":""Not a fan of the colors but the technique is cool. The use of black outlining is nice.""}","","","","","","","","","","","","","","","","","","","","","","",""
"3504.899999976158","","image-slider-response","205","2466926","0.0-203.0","A2KAO546CF46AZ","","","","","9","","","","","","","","","","","","","","","","","","","","","",""
"null","","image-button-response","206","2471943","0.0-204.0","A2KAO546CF46AZ","img_art/28.jpg","null","","","","","","","","","","","","","","","","","","","","","","","","",""
"28194","","image-button-response","207","2500142","0.0-205.0","A2KAO546CF46AZ","img_art/28.jpg","4","","","","","","","","","","","","","","","","","","","","","","","","",""
"5987","","image-button-response","208","2506137","0.0-206.0-0.0","A2KAO546CF46AZ","img_art/28.jpg","5","","","","","","","","","","","","","","","","","","","","","","","","",""
"3473","","image-button-response","209","2509620","0.0-207.0-0.0","A2KAO546CF46AZ","img_art/28.jpg","2","","","","","","","","","","","","","","","","","","","","","","","","",""
"null","","html-keyboard-response","210","2510128","0.0-208.0","A2KAO546CF46AZ","<p style=""font-size: 48px;"">+</p>","","","","","null","allTrialResponses","500","1","23","img_art/28.jpg","9","Not a fan of the colors but the technique is cool. The use of black outlining is nice.","Blake,Cole,Colton,Logan,Jesus,Joseph","an old woman in a wheelchair. sad,-35,280,20","Is this anything?,-20,200,20","not a fan of the colors or strokes used,-27,220,20","I wish I knew why I liked it, maybes its the pinky tones,36,360,20","The muted tones aren't my favorite.,-10,100,20","Don't love it, don't hate it. It's just there.,1,220,20","Jesus","The muted tones aren't my favorite.,-10,100,20","Joseph","Don't love it, don't hate it. It's just there.,1,220,20","Colton","not a fan of the colors or strokes used,-27,220,20","4"
"38069","","survey-text","211","2548248","0.0-209.0-0.0","A2KAO546CF46AZ","","","","{""Q0"":""Love the tones and use of different colors. Trees from a balcony.""}","","","","","","","","","","","","","","","","","","","","","","",""
"3393.6999999284744","","image-slider-response","212","2551647","0.0-210.0","A2KAO546CF46AZ","","","","","50","","","","","","","","","","","","","","","","","","","","","",""
"null","","image-button-response","213","2556661","0.0-211.0","A2KAO546CF46AZ","img_art/17.jpg","null","","","","","","","","","","","","","","","","","","","","","","","","",""
"13758","","image-button-response","214","2570425","0.0-212.0","A2KAO546CF46AZ","img_art/17.jpg","1","","","","","","","","","","","","","","","","","","","","","","","","",""
"13787","","image-button-response","215","2584217","0.0-213.0-0.0","A2KAO546CF46AZ","img_art/17.jpg","4","","","","","","","","","","","","","","","","","","","","","","","","",""
"1172","","image-button-response","216","2585399","0.0-214.0-0.0","A2KAO546CF46AZ","img_art/17.jpg","0","","","","","","","","","","","","","","","","","","","","","","","","",""
"null","","html-keyboard-response","217","2586910","0.0-215.0","A2KAO546CF46AZ","<p style=""font-size: 48px;"">+</p>","","","","","null","allTrialResponses","1500","1","24","img_art/17.jpg","50","Love the tones and use of different colors. Trees from a balcony.","Mitchell,Spencer,Colton,Michael,Jesus,Joseph","Nature coming to the inside of your space that you are locked into.,50,180,20","Love the colors, the flow, like a strange storm or tree off the balcony,50,120,20","its whimsical and light,50,220,20","There is better structure and direction in this one.,19,140,20","Very fun textures,32,100,20","I like the way the forest is taking over the buildings.,21,220,20","Spencer","Love the colors, the flow, like a strange storm or tree off the balcony,50,120,20","Jesus","Very fun textures,32,100,20","Mitchell","Nature coming to the inside of your space that you are locked into.,50,180,20","4"
"49313","","survey-text","218","2636270","0.0-216.0-0.0","A2KAO546CF46AZ","","","","{""Q0"":""Looks like a villa from above. Really nice colors and use of structures. The face adds nice surrealism.""}","","","","","","","","","","","","","","","","","","","","","","",""
"9194.299999952316","","image-slider-response","219","2645469","0.0-217.0","A2KAO546CF46AZ","","","","","45","","","","","","","","","","","","","","","","","","","","","",""
"null","","image-button-response","220","2650492","0.0-218.0","A2KAO546CF46AZ","img_art/8.jpg","null","","","","","","","","","","","","","","","","","","","","","","","","",""
"60590","","image-button-response","221","2711089","0.0-219.0","A2KAO546CF46AZ","img_art/8.jpg","2","","","","","","","","","","","","","","","","","","","","","","","","",""
"1083","","image-button-response","222","2712179","0.0-220.0-0.0","A2KAO546CF46AZ","img_art/8.jpg","4","","","","","","","","","","","","","","","","","","","","","","","","",""
"661","","image-button-response","223","2712849","0.0-221.0-0.0","A2KAO546CF46AZ","img_art/8.jpg","3","","","","","","","","","","","","","","","","","","","","","","","","",""
"null","","html-keyboard-response","224","2713854","0.0-222.0","A2KAO546CF46AZ","<p style=""font-size: 48px;"">+</p>","","","","","null","allTrialResponses","1000","1","25","img_art/8.jpg","45","Looks like a villa from above. Really nice colors and use of structures. The face adds nice surrealism.","Mitchell,Spencer,Thomas,Steven,Jesus,Trevor","Lost in a big city confuse as to where to go to next. No matter if you live in a mansion or homeless. Being bigger than what is going on around you,30,180,20","Nice formats, I just don't like it much,-16,120,20","Gorgeous! I love the colors and the details.,50,220,20","very nice, i love what's going on here,21,160,20","The different shapes are fun to look for.,30,100,20","it looks very 80's and kind of scary,-11,280,20","Thomas","Gorgeous! I love the colors and the details.,50,220,20","Jesus","The different shapes are fun to look for.,30,100,20","Steven","very nice, i love what's going on here,21,160,20","4"
"4466","","survey-text","225","2718410","0.0-223.0-0.0","A2KAO546CF46AZ","","","","{""Q0"":""table""}","","","","","","","","","","","","","","","","","","","","","","",""
"83614","","survey-text","226","2802028","0.0-224.0-0.0","A2KAO546CF46AZ","","","","{""Q0"":""The greens are really interesting and vivid yet peaceful. Looks like a warrior facing his enemy.""}","","","","","","","","","","","","","","","","","","","","","","",""
"2485.1999999284744","","image-slider-response","227","2804520","0.0-225.0","A2KAO546CF46AZ","","","","","50","","","","","","","","","","","","","","","","","","","","","",""
"null","","image-button-response","228","2809536","0.0-226.0","A2KAO546CF46AZ","img_art/25.jpg","null","","","","","","","","","","","","","","","","","","","","","","","","",""
"5801","","image-button-response","229","2815342","0.0-227.0","A2KAO546CF46AZ","img_art/25.jpg","4","","","","","","","","","","","","","","","","","","","","","","","","",""
"13258","","image-button-response","230","2828606","0.0-228.0-0.0","A2KAO546CF46AZ","img_art/25.jpg","5","","","","","","","","","","","","","","","","","","","","","","","","",""
"972","","image-button-response","231","2829588","0.0-229.0-0.0","A2KAO546CF46AZ","img_art/25.jpg","1","","","","","","","","","","","","","","","","","","","","","","","","",""
"null","","html-keyboard-response","232","2831105","0.0-230.0","A2KAO546CF46AZ","<p style=""font-size: 48px;"">+</p>","","","","","null","allTrialResponses","1500","1","26","img_art/25.jpg","50","The greens are really interesting and vivid yet peaceful. Looks like a warrior facing his enemy.","Chase,Tanner,Thomas,Steven,Jesus,Stephen","Not particularly interesting for me. The green color is strange mixed with this.,-11,120,20","reminds me of the grim reaper,3,180,20","I like the design but the brightness of the color feels almost blinding to me.,-3,220,20","It's fine, belongs in a church, or somewhere else mystical,15,160,20","Very nice color contrast and design.,40,100,20","It's nice but nothing special.,7,140,20","Jesus","Very nice color contrast and design.,40,100,20","Stephen","It's nice but nothing special.,7,140,20","Tanner","reminds me of the grim reaper,3,180,20","4"
"55741","","survey-text","233","2886896","0.0-231.0-0.0","A2KAO546CF46AZ","","","","{""Q0"":""Abstract yet feels realistic in some ways. Love the sky tones used, nice contrast with the reds on the left.""}","","","","","","","","","","","","","","","","","","","","","","",""
"3682.9000000953674","","image-slider-response","234","2890583","0.0-232.0","A2KAO546CF46AZ","","","","","39","","","","","","","","","","","","","","","","","","","","","",""
"null","","image-button-response","235","2895609","0.0-233.0","A2KAO546CF46AZ","img_art/21.jpg","null","","","","","","","","","","","","","","","","","","","","","","","","",""
"6001","","image-button-response","236","2901616","0.0-234.0","A2KAO546CF46AZ","img_art/21.jpg","3","","","","","","","","","","","","","","","","","","","","","","","","",""
"3582","","image-button-response","237","2905208","0.0-235.0-0.0","A2KAO546CF46AZ","img_art/21.jpg","4","","","","","","","","","","","","","","","","","","","","","","","","",""
"6172","","image-button-response","238","2911388","0.0-236.0-0.0","A2KAO546CF46AZ","img_art/21.jpg","2","","","","","","","","","","","","","","","","","","","","","","","","",""
"null","","html-keyboard-response","239","2911897","0.0-237.0","A2KAO546CF46AZ","<p style=""font-size: 48px;"">+</p>","","","","","null","allTrialResponses","500","1","27","img_art/21.jpg","39","Abstract yet feels realistic in some ways. Love the sky tones used, nice contrast with the reds on the left.","Hunter,Tanner,Ian,Nicholas,Jesus,Stephen","feels like a harbor scene,11,240,20","calm, ship at sea, sunset,16,180,20","This looks very interesting because something is happening but I can't tell what.,28,260,20","Love the colors and the relationship between the light and storm,50,240,20","The shapes and colors are very interesting to look at.,41,100,20","Don't see anything special about it,-21,140,20","Nicholas","Love the colors and the relationship between the light and storm,50,240,20","Jesus","The shapes and colors are very interesting to look at.,41,100,20","Ian","This looks very interesting because something is happening but I can't tell what.,28,260,20","4"
"26693","","survey-text","240","2938648","0.0-238.0-0.0","A2KAO546CF46AZ","","","","{""Q0"":""NOt a fan of the scribble technique - too busy for my taste.""}","","","","","","","","","","","","","","","","","","","","","","",""
"3907.5","","image-slider-response","241","2942561","0.0-239.0","A2KAO546CF46AZ","","","","","-36","","","","","","","","","","","","","","","","","","","","","",""
"null","","image-button-response","242","2947576","0.0-240.0","A2KAO546CF46AZ","img_art/9.jpg","null","","","","","","","","","","","","","","","","","","","","","","","","",""
"18478","","image-button-response","243","2966059","0.0-241.0","A2KAO546CF46AZ","img_art/9.jpg","3","","","","","","","","","","","","","","","","","","","","","","","","",""
"6475","","image-button-response","244","2972541","0.0-242.0-0.0","A2KAO546CF46AZ","img_art/9.jpg","2","","","","","","","","","","","","","","","","","","","","","","","","",""
"9528","","image-button-response","245","2982077","0.0-243.0-0.0","A2KAO546CF46AZ","img_art/9.jpg","5","","","","","","","","","","","","","","","","","","","","","","","","",""
"null","","html-keyboard-response","246","2982583","0.0-244.0","A2KAO546CF46AZ","<p style=""font-size: 48px;"">+</p>","","","","","null","allTrialResponses","500","1","28","img_art/9.jpg","-36","NOt a fan of the scribble technique - too busy for my taste.","Shane,Alex,Ian,Nicholas,Jesus,Christopher","Angry beast mouth,-37,80,20","Alright, I can see a reclining lady, I'm just glad to be able to tell what's in the picture,5,100,20","It looks like someone gave a kid a coloring book page but the colors are soothing and look put together and elegant,27,260,20","Some nice colors but i do not like it,-18,240,20","I enjoy the design, but the colors look waxy,-7,100,20","I really like the color balance but the image is odd,-5,160,20","Nicholas","Some nice colors but i do not like it,-18,240,20","Ian","It looks like someone gave a kid a coloring book page but the colors are soothing and look put together and elegant,27,260,20","Christopher","I really like the color balance but the image is odd,-5,160,20","4"
"47991","","survey-text","247","3030631","0.0-245.0-0.0","A2KAO546CF46AZ","","","","{""Q0"":""Nice use of warm colors. The green lines really pop. Reminds me of autumn.""}","","","","","","","","","","","","","","","","","","","","","","",""
"7882.300000071526","","image-slider-response","248","3038519","0.0-246.0","A2KAO546CF46AZ","","","","","39","","","","","","","","","","","","","","","","","","","","","",""
"null","","image-button-response","249","3043537","0.0-247.0","A2KAO546CF46AZ","img_art/27.jpg","null","","","","","","","","","","","","","","","","","","","","","","","","",""
"13671","","image-button-response","250","3057216","0.0-248.0","A2KAO546CF46AZ","img_art/27.jpg","5","","","","","","","","","","","","","","","","","","","","","","","","",""
"9858","","image-button-response","251","3067081","0.0-249.0-0.0","A2KAO546CF46AZ","img_art/27.jpg","0","","","","","","","","","","","","","","","","","","","","","","","","",""
"1250","","image-button-response","252","3068339","0.0-250.0-0.0","A2KAO546CF46AZ","img_art/27.jpg","3","","","","","","","","","","","","","","","","","","","","","","","","",""
"null","","html-keyboard-response","253","3069351","0.0-251.0","A2KAO546CF46AZ","<p style=""font-size: 48px;"">+</p>","","","","","null","allTrialResponses","1000","1","29","img_art/27.jpg","39","Nice use of warm colors. The green lines really pop. Reminds me of autumn.","Seth,Antonio,Ian,Nicholas,Lucas,Christopher","I don't care for the green scribbles; not sure what they are. But I adore the colors in the background.,24,60,20","Didnt actually make me feel anything, sort of bland,3,220,20","I'm not a fan. It looks like something my nephews (1 and 2) would make,-8,260,20","I like all it has going but i wouldnt put it in my house unless my child did it,25,240,20","No clue what to say.,0,380,20","i don't think i should like this one because it's a little chaotic and simple but I do,6,160,20","Christopher","i don't think i should like this one because it's a little chaotic and simple but I do,6,160,20","Seth","I don't care for the green scribbles; not sure what they are. But I adore the colors in the background.,24,60,20","Nicholas","I like all it has going but i wouldnt put it in my house unless my child did it,25,240,20","4"
"62005","","survey-text","254","3131412","0.0-252.0-0.0","A2KAO546CF46AZ","","","","{""Q0"":""Reminds me of leaves on a dry lake bed. The colors are nice but it is too busy.""}","","","","","","","","","","","","","","","","","","","","","","",""
"5293","","image-slider-response","255","3136710","0.0-253.0","A2KAO546CF46AZ","","","","","-3","","","","","","","","","","","","","","","","","","","","","",""
"null","","image-button-response","256","3141733","0.0-254.0","A2KAO546CF46AZ","img_art/7.jpg","null","","","","","","","","","","","","","","","","","","","","","","","","",""
"3941","","image-button-response","257","3145679","0.0-255.0","A2KAO546CF46AZ","img_art/7.jpg","2","","","","","","","","","","","","","","","","","","","","","","","","",""
"9117","","image-button-response","258","3154803","0.0-256.0-0.0","A2KAO546CF46AZ","img_art/7.jpg","5","","","","","","","","","","","","","","","","","","","","","","","","",""
"3629","","image-button-response","259","3158441","0.0-257.0-0.0","A2KAO546CF46AZ","img_art/7.jpg","3","","","","","","","","","","","","","","","","","","","","","","","","",""
"null","","html-keyboard-response","260","3159463","0.0-258.0","A2KAO546CF46AZ","<p style=""font-size: 48px;"">+</p>","","","","","null","allTrialResponses","1000","1","30","img_art/7.jpg","-3","Reminds me of leaves on a dry lake bed. The colors are nice but it is too busy.","Seth,Adam,Kyle,Nicholas,Jorge,Christopher","This piece reminds me of ants and it makes my skin crawl.,-37,60,20","I like the earth tones here,5,40,20","It just reminds me of dirt,-10,340,20","Makes me want to feel it,19,240,20","time and change,1,180,20","i kind of like this, it looks like a photo of a planet's surface,16,160,20","Kyle","It just reminds me of dirt,-10,340,20","Christopher","i kind of like this, it looks like a photo of a planet's surface,16,160,20","Nicholas","Makes me want to feel it,19,240,20","4"
"3752","","image-button-response_instructions","261","3163268","0.0-259.0","A2KAO546CF46AZ","","0","instructions","","","","","","","","","","","","","","","","","","","","","","","",""
"1204","","image-button-response","262","3164530","0.0-260.0","A2KAO546CF46AZ","","0","","","","","","","","","","","","","","","","","","","","","","","","",""
