"rt","url","trial_type","trial_index","time_elapsed","internal_node_id","participant_id","stimulus","button_pressed","Name","responses","response","key_press","variableName","fixationTime","condition","trial","photo","subjectRating","subjectResponse","agentsNames","agent_1_Response","agent_2_Response","agent_3_Response","agent_4_Response","agent_5_Response","agent_6_Response","kept_1_name","kept_1_response","kept_2_name","kept_2_response","kept_3_name","kept_3_response","errorCounter"
"21026","external_page_harvard.html","external-html","0","21105","0.0-0.0","A2KE139TQ886T3","","","","","","","","","","","","","","","","","","","","","","","","","","",""
"1872","","image-button-response","1","22981","0.0-1.0","A2KE139TQ886T3","","1","","","","","","","","","","","","","","","","","","","","","","","","",""
"1493","","image-button-response","2","24481","0.0-2.0-0.0","A2KE139TQ886T3","","1","phone","","","","","","","","","","","","","","","","","","","","","","","",""
"5299","","survey-text","3","29783","0.0-3.0-0.0","A2KE139TQ886T3","","","","{""Q0"":""A2KE139TQ886T3""}","","","","","","","","","","","","","","","","","","","","","","",""
"2351","","image-button-response_instructions","4","32138","0.0-4.0","A2KE139TQ886T3","","0","instructions","","","","","","","","","","","","","","","","","","","","","","","",""
"3110","","image-button-response_instructions","5","35249","0.0-5.0","A2KE139TQ886T3","img_art/ins/popularity/ins1.png","0","instructions","","","","","","","","","","","","","","","","","","","","","","","",""
"1739","","image-button-response_instructions","6","36990","0.0-6.0","A2KE139TQ886T3","img_art/ins/popularity/ins2.png","0","instructions","","","","","","","","","","","","","","","","","","","","","","","",""
"1098","","image-button-response_instructions","7","38090","0.0-7.0","A2KE139TQ886T3","img_art/ins/popularity/ins2Extreme.png","0","instructions","","","","","","","","","","","","","","","","","","","","","","","",""
"1144","","image-button-response_instructions","8","39235","0.0-8.0","A2KE139TQ886T3","img_art/ins/popularity/ins3KEEPpop.PNG","0","instructions","","","","","","","","","","","","","","","","","","","","","","","",""
"903","","image-button-response_instructions","9","40139","0.0-9.0","A2KE139TQ886T3","img_art/ins/popularity/ins3ANamepop.PNG","0","instructions","","","","","","","","","","","","","","","","","","","","","","","",""
"778","","image-button-response_instructions","10","40919","0.0-10.0","A2KE139TQ886T3","img_art/ins/popularity/ins3ARatingpop.png","0","instructions","","","","","","","","","","","","","","","","","","","","","","","",""
"800","","image-button-response_instructions","11","41721","0.0-11.0","A2KE139TQ886T3","img_art/ins/popularity/ins3ATextpop.png","0","instructions","","","","","","","","","","","","","","","","","","","","","","","",""
"774","","image-button-response_instructions","12","42497","0.0-12.0","A2KE139TQ886T3","img_art/ins/popularity/ins3ALikespop.png","0","instructions","","","","","","","","","","","","","","","","","","","","","","","",""
"697","","image-button-response_instructions","13","43196","0.0-13.0","A2KE139TQ886T3","img_art/ins/popularity/ins3KEEPpop.PNG","0","instructions","","","","","","","","","","","","","","","","","","","","","","","",""
"793","","image-button-response_instructions","14","43991","0.0-14.0","A2KE139TQ886T3","img_art/ins/popularity/ins3_5RED.png","0","instructions","","","","","","","","","","","","","","","","","","","","","","","",""
"644","","image-button-response_instructions","15","44636","0.0-15.0","A2KE139TQ886T3","img_art/ins/popularity/ins3KEEPpop.PNG","0","instructions","","","","","","","","","","","","","","","","","","","","","","","",""
"848","","image-button-response_instructions","16","45486","0.0-16.0","A2KE139TQ886T3","img_art/ins/popularity/ins4KEEPpop.PNG","0","instructions","","","","","","","","","","","","","","","","","","","","","","","",""
"913","","image-button-response_instructions","17","46400","0.0-17.0","A2KE139TQ886T3","img_art/ins/popularity/ins5KEEPpop.PNG","0","instructions","","","","","","","","","","","","","","","","","","","","","","","",""
"384","","image-button-response_instructions","18","46785","0.0-18.0","A2KE139TQ886T3","","0","instructions","","","","","","","","","","","","","","","","","","","","","","","",""
"3872","","survey-text","19","50689","0.0-19.0-0.0","A2KE139TQ886T3","","","","{""Q0"":""but""}","","","","","","","","","","","","","","","","","","","","","","",""
"11542","","survey-text","20","62233","0.0-20.0-0.0","A2KE139TQ886T3","","","","{""Q0"":""I am moved""}","","","","","","","","","","","","","","","","","","","","","","",""
"3128","","image-slider-response","21","65365","0.0-21.0","A2KE139TQ886T3","","","","","49","","","","","","","","","","","","","","","","","","","","","",""
"null","","image-button-response","22","70374","0.0-22.0","A2KE139TQ886T3","img_art/ins/1.jpg","null","","","","","","","","","","","","","","","","","","","","","","","","",""
"3450","","image-button-response","23","73827","0.0-23.0","A2KE139TQ886T3","img_art/ins/1.jpg","4","","","","","","","","","","","","","","","","","","","","","","","","",""
"1544","","image-button-response","24","75375","0.0-24.0-0.0","A2KE139TQ886T3","img_art/ins/1.jpg","1","","","","","","","","","","","","","","","","","","","","","","","","",""
"398","","image-button-response","25","75778","0.0-25.0-0.0","A2KE139TQ886T3","img_art/ins/1.jpg","2","","","","","","","","","","","","","","","","","","","","","","","","",""
"null","","html-keyboard-response","26","76281","0.0-26.0","A2KE139TQ886T3","<p style=""font-size: 48px;"">+</p>","","","","","null","allTrialResponses","500","1","-2","img_art/ins/1.jpg","49","I am moved","Allison,Ashley,Beth,Dora,Erika,Jen","looks like a lot of things going on in the mist,20,20,20","I just don't get why these type of art would be popular,-32,40,20","This color reminds me of poo,-46,60,20","looks like what my niece in 3rd grade did this afternoon,-50,80,20","I like the sophisticated brushwork,40,100,20","It reminds me of a candy land dream I had,36,120,20","Erika","I like the sophisticated brushwork,40,100,20","Ashley","I just don't get why these type of art would be popular,-32,40,20","Beth","This color reminds me of poo,-46,60,20","0"
"9033","","survey-text","27","85319","0.0-27.0-0.0","A2KE139TQ886T3","","","","{""Q0"":""It feels messy""}","","","","","","","","","","","","","","","","","","","","","","",""
"2811.699999988079","","image-slider-response","28","88132","0.0-28.0","A2KE139TQ886T3","","","","","-25","","","","","","","","","","","","","","","","","","","","","",""
"null","","image-button-response","29","93136","0.0-29.0","A2KE139TQ886T3","img_art/ins/2.jpg","null","","","","","","","","","","","","","","","","","","","","","","","","",""
"3489","","image-button-response","30","96627","0.0-30.0","A2KE139TQ886T3","img_art/ins/2.jpg","2","","","","","","","","","","","","","","","","","","","","","","","","",""
"1759","","image-button-response","31","98390","0.0-31.0-0.0","A2KE139TQ886T3","img_art/ins/2.jpg","5","","","","","","","","","","","","","","","","","","","","","","","","",""
"2644","","image-button-response","32","101037","0.0-32.0-0.0","A2KE139TQ886T3","img_art/ins/2.jpg","1","","","","","","","","","","","","","","","","","","","","","","","","",""
"null","","html-keyboard-response","33","101543","0.0-33.0","A2KE139TQ886T3","<p style=""font-size: 48px;"">+</p>","","","","","null","allTrialResponses","500","1","-1","img_art/ins/2.jpg","-25","It feels messy","Kara,Ashley,Beth,Jenna,Erika,Katie","I like the blocks of color arrangements,30,160,20","Idk, it is just annoying,-32,40,20","meaningless painting,-45,60,20","One of my pet peevs,-48,140,20","I would never be able to compose a sophisticated pallete like this,48,100,20","too much color!,-28,180,20","Beth","meaningless painting,-45,60,20","Katie","too much color!,-28,180,20","Ashley","Idk, it is just annoying,-32,40,20","0"
"16851","","survey-text","34","118399","0.0-34.0-0.0","A2KE139TQ886T3","","","","{""Q0"":""very mellow looking""}","","","","","","","","","","","","","","","","","","","","","","",""
"4039.5","","image-slider-response","35","122441","0.0-35.0","A2KE139TQ886T3","","","","","2","","","","","","","","","","","","","","","","","","","","","",""
"3985","","image-button-response","36","127443","0.0-36.0","A2KE139TQ886T3","img_art/ins/3.jpg","3","","","","","","","","","","","","","","","","","","","","","","","","",""
"909","","image-button-response","37","128354","0.0-37.0","A2KE139TQ886T3","img_art/ins/3.jpg","0","","","","","","","","","","","","","","","","","","","","","","","","",""
"4483","","image-button-response","38","132839","0.0-38.0-0.0","A2KE139TQ886T3","img_art/ins/3.jpg","5","","","","","","","","","","","","","","","","","","","","","","","","",""
"2982","","image-button-response","39","135824","0.0-39.0-0.0","A2KE139TQ886T3","img_art/ins/3.jpg","4","","","","","","","","","","","","","","","","","","","","","","","","",""
"null","","html-keyboard-response","40","137330","0.0-40.0","A2KE139TQ886T3","<p style=""font-size: 48px;"">+</p>","","","","","null","allTrialResponses","1500","1","0","img_art/ins/3.jpg","2","very mellow looking","Rose,Ashley,Beth,Leslie,Mary,Katie","My daily routine, it's depressing,-20,240,20","It looks like a playground for bats,-36,40,20","This thing gives me anxiety,-41,60,20","It's an alright work,15,200,20","I like the overlapping of brushes,41,220,20","It looks depressing,-26,180,20","Rose","My daily routine, it's depressing,-20,240,20","Katie","It looks depressing,-26,180,20","Mary","I like the overlapping of brushes,41,220,20","0"
"12376","","image-button-response_instructions","41","149723","0.0-41.0","A2KE139TQ886T3","","0","instructions","","","","","","","","","","","","","","","","","","","","","","","",""
"11424","","survey-likert","42","161148","0.0-42.0-0.0","A2KE139TQ886T3","","","","{""Q0"":"""",""Q1"":0,""Q2"":1}","","","","","","","","","","","","","","","","","","","","","","",""
"3441","","survey-text","43","164597","0.0-43.0-0.0","A2KE139TQ886T3","","","","{""Q0"":""rock""}","","","","","","","","","","","","","","","","","","","","","","",""
"12895","","survey-text","44","177493","0.0-44.0-0.0","A2KE139TQ886T3","","","","{""Q0"":""this feels upsetting""}","","","","","","","","","","","","","","","","","","","","","","",""
"4064.199999988079","","image-slider-response","45","181559","0.0-45.0","A2KE139TQ886T3","","","","","-49","","","","","","","","","","","","","","","","","","","","","",""
"null","","image-button-response","46","186585","0.0-46.0","A2KE139TQ886T3","img_art/19.jpg","null","","","","","","","","","","","","","","","","","","","","","","","","",""
"1478","","image-button-response","47","188064","0.0-47.0","A2KE139TQ886T3","img_art/19.jpg","1","","","","","","","","","","","","","","","","","","","","","","","","",""
"844","","image-button-response","48","188911","0.0-48.0-0.0","A2KE139TQ886T3","img_art/19.jpg","4","","","","","","","","","","","","","","","","","","","","","","","","",""
"1389","","image-button-response","49","190303","0.0-49.0-0.0","A2KE139TQ886T3","img_art/19.jpg","5","","","","","","","","","","","","","","","","","","","","","","","","",""
"null","","html-keyboard-response","50","190806","0.0-50.0","A2KE139TQ886T3","<p style=""font-size: 48px;"">+</p>","","","","","null","allTrialResponses","500","1","1","img_art/19.jpg","-49","this feels upsetting","Catherine,Sophia,Lindsey,Rebecca,Madeline,Mariah","Higher power looking down at its creation with a half smile and some hurt.,45,160,20","This looks like a child's piece. I appreciate the artistic value, but not for me.,-20,280,20","Pleasant colors with just enough detail to be recognizable. I can see a scene in it that tells a story.,7,400,20","interesting take on depth (reminds me of those 1000 piece puzzles),2,100,20","Looks a bit too loose,-2,40,20","I like the watercolor and colors, do not like the deconstructed city scene feel.,0,140,20","Sophia","This looks like a child's piece. I appreciate the artistic value, but not for me.,-20,280,20","Madeline","Looks a bit too loose,-2,40,20","Mariah","I like the watercolor and colors, do not like the deconstructed city scene feel.,0,140,20","0"
"16228","","survey-text","51","207038","0.0-51.0-0.0","A2KE139TQ886T3","","","","{""Q0"":""It looks like a kid smeared mustard and carrots on a plate""}","","","","","","","","","","","","","","","","","","","","","","",""
"2819.2999999523163","","image-slider-response","52","209859","0.0-52.0","A2KE139TQ886T3","","","","","-50","","","","","","","","","","","","","","","","","","","","","",""
"3358","","image-button-response","53","214863","0.0-53.0","A2KE139TQ886T3","img_art/27.jpg","4","","","","","","","","","","","","","","","","","","","","","","","","",""
"656","","image-button-response","54","215520","0.0-54.0","A2KE139TQ886T3","img_art/27.jpg","1","","","","","","","","","","","","","","","","","","","","","","","","",""
"1658","","image-button-response","55","217180","0.0-55.0-0.0","A2KE139TQ886T3","img_art/27.jpg","4","","","","","","","","","","","","","","","","","","","","","","","","",""
"812","","image-button-response","56","217995","0.0-56.0-0.0","A2KE139TQ886T3","img_art/27.jpg","5","","","","","","","","","","","","","","","","","","","","","","","","",""
"null","","html-keyboard-response","57","218498","0.0-57.0","A2KE139TQ886T3","<p style=""font-size: 48px;"">+</p>","","","","","null","allTrialResponses","500","1","2","img_art/27.jpg","-50","It looks like a kid smeared mustard and carrots on a plate","Maria,Sophia,Gabriela,Gabrielle,Madeline,Mariah","I generally enjoy the style, but I'm finding the green lines grating,-9,120,20","Yikes. I think I made this in kindergarten.,-20,280,20","I like hoe it looks like a fall day in a city,45,140,20","like the patterns and colors all but the orange blob on the right,32,160,20","Looks like the green bits were added on later,-1,40,20","The green lines disrupt the image in an unpleasant and hurried way.,-30,140,20","Sophia","Yikes. I think I made this in kindergarten.,-20,280,20","Madeline","Looks like the green bits were added on later,-1,40,20","Mariah","The green lines disrupt the image in an unpleasant and hurried way.,-30,140,20","0"
"20529","","survey-text","58","239034","0.0-58.0-0.0","A2KE139TQ886T3","","","","{""Q0"":""I like that there are many layers""}","","","","","","","","","","","","","","","","","","","","","","",""
"2712","","image-slider-response","59","241748","0.0-59.0","A2KE139TQ886T3","","","","","5","","","","","","","","","","","","","","","","","","","","","",""
"2755","","image-button-response","60","246751","0.0-60.0","A2KE139TQ886T3","img_art/8.jpg","1","","","","","","","","","","","","","","","","","","","","","","","","",""
"316","","image-button-response","61","247069","0.0-61.0","A2KE139TQ886T3","img_art/8.jpg","1","","","","","","","","","","","","","","","","","","","","","","","","",""
"2889","","image-button-response","62","249961","0.0-62.0-0.0","A2KE139TQ886T3","img_art/8.jpg","4","","","","","","","","","","","","","","","","","","","","","","","","",""
"3730","","image-button-response","63","253693","0.0-63.0-0.0","A2KE139TQ886T3","img_art/8.jpg","3","","","","","","","","","","","","","","","","","","","","","","","","",""
"null","","html-keyboard-response","64","254197","0.0-64.0","A2KE139TQ886T3","<p style=""font-size: 48px;"">+</p>","","","","","null","allTrialResponses","500","1","3","img_art/8.jpg","5","I like that there are many layers","Ashley,Sophia,Destiny,Brooke,Madeline,Mariah","Escher? Dali? Could be their lovechild?,50,320,20","Interesting but it has a bit of a dark feel to it.,6,280,20","a cute little cute with some protectors,25,360,20","what's going on here. looks like scary town.,-25,60,20","Very nice detail and colors!,10,40,20","Clean and stark. The colors are pleasant.,15,140,20","Sophia","Interesting but it has a bit of a dark feel to it.,6,280,20","Madeline","Very nice detail and colors!,10,40,20","Brooke","what's going on here. looks like scary town.,-25,60,20","0"
"64526","","survey-text","65","318729","0.0-65.0-0.0","A2KE139TQ886T3","","","","{""Q0"":""Looks like more condiments smeared on a plate""}","","","","","","","","","","","","","","","","","","","","","","",""
"3608.199999988079","","image-slider-response","66","322340","0.0-66.0","A2KE139TQ886T3","","","","","-50","","","","","","","","","","","","","","","","","","","","","",""
"null","","image-button-response","67","328251","0.0-67.0","A2KE139TQ886T3","img_art/30.jpg","null","","","","","","","","","","","","","","","","","","","","","","","","",""
"22914","","image-button-response","68","351167","0.0-68.0","A2KE139TQ886T3","img_art/30.jpg","5","","","","","","","","","","","","","","","","","","","","","","","","",""
"737","","image-button-response","69","351907","0.0-69.0-0.0","A2KE139TQ886T3","img_art/30.jpg","1","","","","","","","","","","","","","","","","","","","","","","","","",""
"2011","","image-button-response","70","353921","0.0-70.0-0.0","A2KE139TQ886T3","img_art/30.jpg","4","","","","","","","","","","","","","","","","","","","","","","","","",""
"null","","html-keyboard-response","71","354929","0.0-71.0","A2KE139TQ886T3","<p style=""font-size: 48px;"">+</p>","","","","","null","allTrialResponses","1000","1","4","img_art/30.jpg","-50","Looks like more condiments smeared on a plate","Alexandra,Sophia,Vanessa,Brooke,Madeline,Kimberly","I really love the pastel colors and the 3D design in this,43,60,20","Hmmm. I think the artist is trying to direct me to a spreadsheet?  (s/s),-10,280,20","I like the red against the blue, but otherwise, it's not really my taste,4,380,20","Like the color and style,31,60,20","A bit haphazard looking and lacking in vision,2,40,20","looks like eels,-20,260,20","Kimberly","looks like eels,-20,260,20","Sophia","Hmmm. I think the artist is trying to direct me to a spreadsheet?  (s/s),-10,280,20","Madeline","A bit haphazard looking and lacking in vision,2,40,20","0"
"16269","","survey-text","72","371214","0.0-72.0-0.0","A2KE139TQ886T3","","","","{""Q0"":""It looks like messy pasta""}","","","","","","","","","","","","","","","","","","","","","","",""
"2436","","image-slider-response","73","373652","0.0-73.0","A2KE139TQ886T3","","","","","-33","","","","","","","","","","","","","","","","","","","","","",""
"4534","","image-button-response","74","378655","0.0-74.0","A2KE139TQ886T3","img_art/14.jpg","0","","","","","","","","","","","","","","","","","","","","","","","","",""
"672","","image-button-response","75","379329","0.0-75.0","A2KE139TQ886T3","img_art/14.jpg","0","","","","","","","","","","","","","","","","","","","","","","","","",""
"1301","","image-button-response","76","380631","0.0-76.0-0.0","A2KE139TQ886T3","img_art/14.jpg","2","","","","","","","","","","","","","","","","","","","","","","","","",""
"1452","","image-button-response","77","382086","0.0-77.0-0.0","A2KE139TQ886T3","img_art/14.jpg","5","","","","","","","","","","","","","","","","","","","","","","","","",""
"null","","html-keyboard-response","78","382588","0.0-78.0","A2KE139TQ886T3","<p style=""font-size: 48px;"">+</p>","","","","","null","allTrialResponses","500","1","5","img_art/14.jpg","-33","It looks like messy pasta","Shelby,Sophia,Melissa,Amanda,Madeline,Kimberly","Something about the cahotic imagery makes me uncomfortable,-15,240,20","I don't know why, but this piece makes me happy.,20,280,20","makes me feel sad,-2,240,20","Gorgeous use of water color,50,180,20","It looks nice colorwise but detail is lacking,18,40,20","In some ways it looks natural, but I'm just not feeling it,0,260,20","Shelby","Something about the cahotic imagery makes me uncomfortable,-15,240,20","Melissa","makes me feel sad,-2,240,20","Kimberly","In some ways it looks natural, but I'm just not feeling it,0,260,20","0"
"5919","","survey-text","79","388519","0.0-79.0-0.0","A2KE139TQ886T3","","","","{""Q0"":""sky""}","","","","","","","","","","","","","","","","","","","","","","",""
"21192","","survey-text","80","409712","0.0-80.0-0.0","A2KE139TQ886T3","","","","{""Q0"":""this is pleasant but the red makes the painting feel angry""}","","","","","","","","","","","","","","","","","","","","","","",""
"2843","","image-slider-response","81","412557","0.0-81.0","A2KE139TQ886T3","","","","","-12","","","","","","","","","","","","","","","","","","","","","",""
"4588","","image-button-response","82","417559","0.0-82.0","A2KE139TQ886T3","img_art/1.jpg","1","","","","","","","","","","","","","","","","","","","","","","","","",""
"799","","image-button-response","83","418360","0.0-83.0","A2KE139TQ886T3","img_art/1.jpg","2","","","","","","","","","","","","","","","","","","","","","","","","",""
"460","","image-button-response","84","418822","0.0-84.0-0.0","A2KE139TQ886T3","img_art/1.jpg","1","","","","","","","","","","","","","","","","","","","","","","","","",""
"621","","image-button-response","85","419446","0.0-85.0-0.0","A2KE139TQ886T3","img_art/1.jpg","0","","","","","","","","","","","","","","","","","","","","","","","","",""
"null","","html-keyboard-response","86","420447","0.0-86.0","A2KE139TQ886T3","<p style=""font-size: 48px;"">+</p>","","","","","null","allTrialResponses","1000","1","6","img_art/1.jpg","-12","this is pleasant but the red makes the painting feel angry","Shelby,Isabella,Melissa,Cassidy,Meghan,Kimberly","This one has a pleasent energy,15,240,20","Warmth of the sun,22,280,20","muddy and uninteresting,-16,240,20","I like the colors and layers,25,140,20","good colors and contrast,31,220,20","It's like being out on a psychedelic lake,32,260,20","Melissa","muddy and uninteresting,-16,240,20","Isabella","Warmth of the sun,22,280,20","Shelby","This one has a pleasent energy,15,240,20","0"
"50604","","survey-text","87","471055","0.0-87.0-0.0","A2KE139TQ886T3","","","","{""Q0"":""it seems more abstract and haunting""}","","","","","","","","","","","","","","","","","","","","","","",""
"2210.899999976158","","image-slider-response","88","473269","0.0-88.0","A2KE139TQ886T3","","","","","9","","","","","","","","","","","","","","","","","","","","","",""
"null","","image-button-response","89","478274","0.0-89.0","A2KE139TQ886T3","img_art/22.jpg","null","","","","","","","","","","","","","","","","","","","","","","","","",""
"351","","image-button-response","90","478627","0.0-90.0","A2KE139TQ886T3","img_art/22.jpg","2","","","","","","","","","","","","","","","","","","","","","","","","",""
"2990","","image-button-response","91","481620","0.0-91.0-0.0","A2KE139TQ886T3","img_art/22.jpg","4","","","","","","","","","","","","","","","","","","","","","","","","",""
"2587","","image-button-response","92","484209","0.0-92.0-0.0","A2KE139TQ886T3","img_art/22.jpg","5","","","","","","","","","","","","","","","","","","","","","","","","",""
"null","","html-keyboard-response","93","485711","0.0-93.0","A2KE139TQ886T3","<p style=""font-size: 48px;"">+</p>","","","","","null","allTrialResponses","1500","1","7","img_art/22.jpg","9","it seems more abstract and haunting","Shelby,Isabella,Melissa,Julia,Breanna,Sydney","This painting has a very nostalgic feel,20,240,20","Sunsets at the beach,42,280,20","strong blending skills,7,240,20","this is too generic,-27,40,20","Makes me feel a bit anxious,6,380,20","I don't normally like bright colors, but I like them in this. Don't like the random black paint.,30,320,20","Melissa","strong blending skills,7,240,20","Breanna","Makes me feel a bit anxious,6,380,20","Sydney","I don't normally like bright colors, but I like them in this. Don't like the random black paint.,30,320,20","0"
"19606","","survey-text","94","505324","0.0-94.0-0.0","A2KE139TQ886T3","","","","{""Q0"":""It looks like a happy deformed cartoon character. ""}","","","","","","","","","","","","","","","","","","","","","","",""
"9847.599999964237","","image-slider-response","95","515173","0.0-95.0","A2KE139TQ886T3","","","","","15","","","","","","","","","","","","","","","","","","","","","",""
"4568","","image-button-response","96","520177","0.0-96.0","A2KE139TQ886T3","img_art/2.jpg","3","","","","","","","","","","","","","","","","","","","","","","","","",""
"854","","image-button-response","97","521034","0.0-97.0","A2KE139TQ886T3","img_art/2.jpg","2","","","","","","","","","","","","","","","","","","","","","","","","",""
"1702","","image-button-response","98","522738","0.0-98.0-0.0","A2KE139TQ886T3","img_art/2.jpg","3","","","","","","","","","","","","","","","","","","","","","","","","",""
"901","","image-button-response","99","523642","0.0-99.0-0.0","A2KE139TQ886T3","img_art/2.jpg","0","","","","","","","","","","","","","","","","","","","","","","","","",""
"null","","html-keyboard-response","100","524644","0.0-100.0","A2KE139TQ886T3","<p style=""font-size: 48px;"">+</p>","","","","","null","allTrialResponses","1000","1","8","img_art/2.jpg","15","It looks like a happy deformed cartoon character. ","Alyssa,Alexandria,Melissa,Mikayla,Breanna,Sydney","Its meh. Doesnt illicit any strong feelings in me,1,160,20","too abstract and confusing,-19,80,20","appealing colors,4,240,20","I love the colors in this.,29,300,20","It's just a splash of paint on a canvas,-31,380,20","I like the color, but I feel like I see a creepy face which I dislike.,-5,320,20","Melissa","appealing colors,4,240,20","Mikayla","I love the colors in this.,29,300,20","Alyssa","Its meh. Doesnt illicit any strong feelings in me,1,160,20","0"
"10984","","survey-text","101","535633","0.0-101.0-0.0","A2KE139TQ886T3","","","","{""Q0"":""It looks like dirty dirt""}","","","","","","","","","","","","","","","","","","","","","","",""
"2707.5","","image-slider-response","102","538343","0.0-102.0","A2KE139TQ886T3","","","","","1","","","","","","","","","","","","","","","","","","","","","",""
"null","","image-button-response","103","543354","0.0-103.0","A2KE139TQ886T3","img_art/7.jpg","null","","","","","","","","","","","","","","","","","","","","","","","","",""
"1380","","image-button-response","104","544736","0.0-104.0","A2KE139TQ886T3","img_art/7.jpg","5","","","","","","","","","","","","","","","","","","","","","","","","",""
"758","","image-button-response","105","545498","0.0-105.0-0.0","A2KE139TQ886T3","img_art/7.jpg","4","","","","","","","","","","","","","","","","","","","","","","","","",""
"1472","","image-button-response","106","546972","0.0-106.0-0.0","A2KE139TQ886T3","img_art/7.jpg","1","","","","","","","","","","","","","","","","","","","","","","","","",""
"null","","html-keyboard-response","107","547474","0.0-107.0","A2KE139TQ886T3","<p style=""font-size: 48px;"">+</p>","","","","","null","allTrialResponses","500","1","9","img_art/7.jpg","1","It looks like dirty dirt","Alyssa,Abigail,Melissa,Mikayla,Brianna,Jessica","It looks like someone took a picture of a muddy ground and called it art.,-41,160,20","Looks like a skin disease,-31,20,20","textures are engaging,8,240,20","I love the texture.,20,300,20","Looks plain and dull, sorry.,-31,20,20","Looks like a natural texture, reminds me of rocks.,0,400,20","Jessica","Looks like a natural texture, reminds me of rocks.,0,400,20","Brianna","Looks plain and dull, sorry.,-31,20,20","Abigail","Looks like a skin disease,-31,20,20","0"
"12802","","survey-text","108","560282","0.0-108.0-0.0","A2KE139TQ886T3","","","","{""Q0"":""It looks ominous but like wallpaper ""}","","","","","","","","","","","","","","","","","","","","","","",""
"67240.69999998808","","image-slider-response","109","627525","0.0-109.0","A2KE139TQ886T3","","","","","-18","","","","","","","","","","","","","","","","","","","","","",""
"2653","","image-button-response","110","632527","0.0-110.0","A2KE139TQ886T3","img_art/15.jpg","4","","","","","","","","","","","","","","","","","","","","","","","","",""
"1903","","image-button-response","111","634432","0.0-111.0","A2KE139TQ886T3","img_art/15.jpg","5","","","","","","","","","","","","","","","","","","","","","","","","",""
"1178","","image-button-response","112","635613","0.0-112.0-0.0","A2KE139TQ886T3","img_art/15.jpg","4","","","","","","","","","","","","","","","","","","","","","","","","",""
"636","","image-button-response","113","636252","0.0-113.0-0.0","A2KE139TQ886T3","img_art/15.jpg","3","","","","","","","","","","","","","","","","","","","","","","","","",""
"null","","html-keyboard-response","114","637754","0.0-114.0","A2KE139TQ886T3","<p style=""font-size: 48px;"">+</p>","","","","","null","allTrialResponses","1500","1","10","img_art/15.jpg","-18","It looks ominous but like wallpaper ","Natalie,Abigail,Leah,Claire,Brianna,Jessica","my response to the picture is that I dont know what I am looking at,-25,400,20","This also has nice contrast,34,20,20","Pretty, like in a field of poppies,19,360,20","it's alright but a little cluttered,14,260,20","No opinion truthfully,1,20,20","I think it's trying to execute a cool idea, but unfortunately it doesn't appeal,5,400,20","Jessica","I think it's trying to execute a cool idea, but unfortunately it doesn't appeal,5,400,20","Brianna","No opinion truthfully,1,20,20","Claire","it's alright but a little cluttered,14,260,20","0"
"2950","","survey-text","115","640713","0.0-115.0-0.0","A2KE139TQ886T3","","","","{""Q0"":""our""}","","","","","","","","","","","","","","","","","","","","","","",""
"12931","","survey-text","116","653647","0.0-116.0-0.0","A2KE139TQ886T3","","","","{""Q0"":""looks like mashed mustard and ketchup""}","","","","","","","","","","","","","","","","","","","","","","",""
"2755.099999964237","","image-slider-response","117","656406","0.0-117.0","A2KE139TQ886T3","","","","","-9","","","","","","","","","","","","","","","","","","","","","",""
"null","","image-button-response","118","661409","0.0-118.0","A2KE139TQ886T3","img_art/4.jpg","null","","","","","","","","","","","","","","","","","","","","","","","","",""
"305","","image-button-response","119","661716","0.0-119.0","A2KE139TQ886T3","img_art/4.jpg","2","","","","","","","","","","","","","","","","","","","","","","","","",""
"1352","","image-button-response","120","663072","0.0-120.0-0.0","A2KE139TQ886T3","img_art/4.jpg","0","","","","","","","","","","","","","","","","","","","","","","","","",""
"787","","image-button-response","121","663864","0.0-121.0-0.0","A2KE139TQ886T3","img_art/4.jpg","3","","","","","","","","","","","","","","","","","","","","","","","","",""
"null","","html-keyboard-response","122","664366","0.0-122.0","A2KE139TQ886T3","<p style=""font-size: 48px;"">+</p>","","","","","null","allTrialResponses","500","1","11","img_art/4.jpg","-9","looks like mashed mustard and ketchup","Marissa,Kylie,Kelsey,Claire,Brianna,Jessica","I'm disappointed that such a simple piece, with very little effort spent, could be grouped with other detailed pieces,-31,160,20","I just have no clue,26,300,20","this is terrible,-49,240,20","I really don't like the colors,-26,260,20","Really don't care for the yellowish brown color in the center.,-19,20,20","Looks like they just smothered on some paint and called it a day.,-17,400,20","Kelsey","this is terrible,-49,240,20","Marissa","I'm disappointed that such a simple piece, with very little effort spent, could be grouped with other detailed pieces,-31,160,20","Claire","I really don't like the colors,-26,260,20","0"
"13593","","survey-text","123","677964","0.0-123.0-0.0","A2KE139TQ886T3","","","","{""Q0"":""it's too abstract and confusing. ""}","","","","","","","","","","","","","","","","","","","","","","",""
"3069.699999988079","","image-slider-response","124","681036","0.0-124.0","A2KE139TQ886T3","","","","","-35","","","","","","","","","","","","","","","","","","","","","",""
"1169","","image-button-response","125","686051","0.0-125.0","A2KE139TQ886T3","img_art/20.jpg","2","","","","","","","","","","","","","","","","","","","","","","","","",""
"565","","image-button-response","126","686617","0.0-126.0","A2KE139TQ886T3","img_art/20.jpg","2","","","","","","","","","","","","","","","","","","","","","","","","",""
"1013","","image-button-response","127","687633","0.0-127.0-0.0","A2KE139TQ886T3","img_art/20.jpg","1","","","","","","","","","","","","","","","","","","","","","","","","",""
"2683","","image-button-response","128","690319","0.0-128.0-0.0","A2KE139TQ886T3","img_art/20.jpg","4","","","","","","","","","","","","","","","","","","","","","","","","",""
"null","","html-keyboard-response","129","691321","0.0-129.0","A2KE139TQ886T3","<p style=""font-size: 48px;"">+</p>","","","","","null","allTrialResponses","1000","1","12","img_art/20.jpg","-35","it's too abstract and confusing. ","Marissa,Bailey,Kelsey,Claire,Angela,Jamie","I feel intrigued and impressed,34,160,20","A bit hectic, but it does have a bit of coolness to it,6,360,20","i almost feel like i can recognize what this is,-6,240,20","reminds me of Salvadore Dali,24,260,20","I like the blues, and the sense of foreboding it makes me feel.,20,260,20","Looks like some type of future dystopian civilization,35,320,20","Kelsey","i almost feel like i can recognize what this is,-6,240,20","Bailey","A bit hectic, but it does have a bit of coolness to it,6,360,20","Angela","I like the blues, and the sense of foreboding it makes me feel.,20,260,20","0"
"29107","","survey-text","130","720433","0.0-130.0-0.0","A2KE139TQ886T3","","","","{""Q0"":""This is scary yet simple. ""}","","","","","","","","","","","","","","","","","","","","","","",""
"3050.199999988079","","image-slider-response","131","723485","0.0-131.0","A2KE139TQ886T3","","","","","-8","","","","","","","","","","","","","","","","","","","","","",""
"2787","","image-button-response","132","728489","0.0-132.0","A2KE139TQ886T3","img_art/25.jpg","4","","","","","","","","","","","","","","","","","","","","","","","","",""
"556","","image-button-response","133","729046","0.0-133.0","A2KE139TQ886T3","img_art/25.jpg","2","","","","","","","","","","","","","","","","","","","","","","","","",""
"911","","image-button-response","134","729959","0.0-134.0-0.0","A2KE139TQ886T3","img_art/25.jpg","4","","","","","","","","","","","","","","","","","","","","","","","","",""
"651","","image-button-response","135","730613","0.0-135.0-0.0","A2KE139TQ886T3","img_art/25.jpg","5","","","","","","","","","","","","","","","","","","","","","","","","",""
"null","","html-keyboard-response","136","731617","0.0-136.0","A2KE139TQ886T3","<p style=""font-size: 48px;"">+</p>","","","","","null","allTrialResponses","1000","1","13","img_art/25.jpg","-8","This is scary yet simple. ","Chloe,Bailey,Kelsey,Katelyn,Angela,Hailey","Cheesy and unprofessional,-30,220,20","I love the background color and it's creepy...but cool.,30,360,20","quite unnerving,-15,240,20","Creates a bit of fear in me for some reason,-26,100,20","Ugly green color and don't like it at all,-30,260,20","ugly color and very sad old lady,-45,200,20","Kelsey","quite unnerving,-15,240,20","Angela","Ugly green color and don't like it at all,-30,260,20","Hailey","ugly color and very sad old lady,-45,200,20","0"
"17131","","survey-text","137","748758","0.0-137.0-0.0","A2KE139TQ886T3","","","","{""Q0"":""this is interesting I like the color but not the plain white part""}","","","","","","","","","","","","","","","","","","","","","","",""
"2659.399999976158","","image-slider-response","138","751420","0.0-138.0","A2KE139TQ886T3","","","","","27","","","","","","","","","","","","","","","","","","","","","",""
"2059","","image-button-response","139","756423","0.0-139.0","A2KE139TQ886T3","img_art/23.jpg","1","","","","","","","","","","","","","","","","","","","","","","","","",""
"1072","","image-button-response","140","757496","0.0-140.0","A2KE139TQ886T3","img_art/23.jpg","1","","","","","","","","","","","","","","","","","","","","","","","","",""
"1328","","image-button-response","141","758827","0.0-141.0-0.0","A2KE139TQ886T3","img_art/23.jpg","2","","","","","","","","","","","","","","","","","","","","","","","","",""
"965","","image-button-response","142","759794","0.0-142.0-0.0","A2KE139TQ886T3","img_art/23.jpg","3","","","","","","","","","","","","","","","","","","","","","","","","",""
"null","","html-keyboard-response","143","760799","0.0-143.0","A2KE139TQ886T3","<p style=""font-size: 48px;"">+</p>","","","","","null","allTrialResponses","1000","1","14","img_art/23.jpg","27","this is interesting I like the color but not the plain white part","Jennifer,Michaela,Kelsey,Amber,Angela,Hailey","The cluster of white silhouettes against the colorful background makes me feel uneasy for some reason,-36,380,20","This would make a great mural,37,260,20","i think this ones okay,10,240,20","The background colors seem too dark and the middle images take away from it.,4,200,20","Like the background colors and the energy, but the white bits ruin it for me,-7,260,20","cold and dark feeling,-27,200,20","Michaela","This would make a great mural,37,260,20","Kelsey","i think this ones okay,10,240,20","Amber","The background colors seem too dark and the middle images take away from it.,4,200,20","0"
"16992","","survey-text","144","777798","0.0-144.0-0.0","A2KE139TQ886T3","","","","{""Q0"":""I am ashamed for this artist. this is art?""}","","","","","","","","","","","","","","","","","","","","","","",""
"4203.300000011921","","image-slider-response","145","782003","0.0-145.0","A2KE139TQ886T3","","","","","-50","","","","","","","","","","","","","","","","","","","","","",""
"null","","image-button-response","146","787010","0.0-146.0","A2KE139TQ886T3","img_art/16.jpg","null","","","","","","","","","","","","","","","","","","","","","","","","",""
"367091","","image-button-response","147","1154102","0.0-147.0","A2KE139TQ886T3","img_art/16.jpg","5","","","","","","","","","","","","","","","","","","","","","","","","",""
"935","","image-button-response","148","1155040","0.0-148.0-0.0","A2KE139TQ886T3","img_art/16.jpg","2","","","","","","","","","","","","","","","","","","","","","","","","",""
"957","","image-button-response","149","1156000","0.0-149.0-0.0","A2KE139TQ886T3","img_art/16.jpg","3","","","","","","","","","","","","","","","","","","","","","","","","",""
"null","","html-keyboard-response","150","1157007","0.0-150.0","A2KE139TQ886T3","<p style=""font-size: 48px;"">+</p>","","","","","null","allTrialResponses","1000","1","15","img_art/16.jpg","-50","I am ashamed for this artist. this is art?","Cheyenne,Michaela,Kelsey,Amber,Brittany,Christina","Cute but there's a lot going on.,7,200,20","It feels lazily done,-9,260,20","its disturbing! what the heck,-27,240,20","Don't like the teddy bear. It takes away from the painting.,-39,200,20","Kind of dull, colors and drawings are not really interesting.,0,40,20","very creepy with a bear and a gun,-50,240,20","Christina","very creepy with a bear and a gun,-50,240,20","Kelsey","its disturbing! what the heck,-27,240,20","Amber","Don't like the teddy bear. It takes away from the painting.,-39,200,20","0"
"10623","","survey-text","151","1167640","0.0-151.0-0.0","A2KE139TQ886T3","","","","{""Q0"":""course""}","","","","","","","","","","","","","","","","","","","","","","",""
"105398","","survey-text","152","1273040","0.0-152.0-0.0","A2KE139TQ886T3","","","","{""Q0"":""it looks like motel art""}","","","","","","","","","","","","","","","","","","","","","","",""
"3203","","image-slider-response","153","1276245","0.0-153.0","A2KE139TQ886T3","","","","","-41","","","","","","","","","","","","","","","","","","","","","",""
"null","","image-button-response","154","1281247","0.0-154.0","A2KE139TQ886T3","img_art/26.jpg","null","","","","","","","","","","","","","","","","","","","","","","","","",""
"4380","","image-button-response","155","1285629","0.0-155.0","A2KE139TQ886T3","img_art/26.jpg","5","","","","","","","","","","","","","","","","","","","","","","","","",""
"1109","","image-button-response","156","1286741","0.0-156.0-0.0","A2KE139TQ886T3","img_art/26.jpg","4","","","","","","","","","","","","","","","","","","","","","","","","",""
"1856","","image-button-response","157","1288600","0.0-157.0-0.0","A2KE139TQ886T3","img_art/26.jpg","3","","","","","","","","","","","","","","","","","","","","","","","","",""
"null","","html-keyboard-response","158","1289604","0.0-158.0","A2KE139TQ886T3","<p style=""font-size: 48px;"">+</p>","","","","","null","allTrialResponses","1000","1","16","img_art/26.jpg","-41","it looks like motel art","Elizabeth,Kaylee,Kelsey,Amber,Mary,Christina","Like the soft blend of colors,26,20,20","cool cozy town vibes,50,200,20","this is nice!! i like the muted colors,34,240,20","The colors are muted.,1,200,20","I can tell it's some sort of outdoor scene. It looks very amateurish.,-9,180,20","looks like a little kids painting,-17,240,20","Christina","looks like a little kids painting,-17,240,20","Mary","I can tell it's some sort of outdoor scene. It looks very amateurish.,-9,180,20","Amber","The colors are muted.,1,200,20","0"
"13395","","survey-text","159","1303005","0.0-159.0-0.0","A2KE139TQ886T3","","","","{""Q0"":""the bottom part looks modern""}","","","","","","","","","","","","","","","","","","","","","","",""
"5190.100000023842","","image-slider-response","160","1308197","0.0-160.0","A2KE139TQ886T3","","","","","20","","","","","","","","","","","","","","","","","","","","","",""
"null","","image-button-response","161","1313202","0.0-161.0","A2KE139TQ886T3","img_art/12.jpg","null","","","","","","","","","","","","","","","","","","","","","","","","",""
"4457","","image-button-response","162","1317662","0.0-162.0","A2KE139TQ886T3","img_art/12.jpg","3","","","","","","","","","","","","","","","","","","","","","","","","",""
"1289","","image-button-response","163","1318953","0.0-163.0-0.0","A2KE139TQ886T3","img_art/12.jpg","2","","","","","","","","","","","","","","","","","","","","","","","","",""
"807","","image-button-response","164","1319762","0.0-164.0-0.0","A2KE139TQ886T3","img_art/12.jpg","1","","","","","","","","","","","","","","","","","","","","","","","","",""
"null","","html-keyboard-response","165","1321267","0.0-165.0","A2KE139TQ886T3","<p style=""font-size: 48px;"">+</p>","","","","","null","allTrialResponses","1500","1","17","img_art/12.jpg","20","the bottom part looks modern","Molly,Angelica,Kelly,Amber,Mary,Christina","Seems to be puzzles.,25,340,20","It's strange looking and unappealing.,-4,280,20","It's pretty, I find it interesting to look at.,10,220,20","Like how all the colors seem to blend together.,15,200,20","The colors are ok. The piece reminds me of the 90s era, so I kinda like it!,-4,180,20","way too 90s/80s for me,-9,240,20","Amber","Like how all the colors seem to blend together.,15,200,20","Kelly","It's pretty, I find it interesting to look at.,10,220,20","Angelica","It's strange looking and unappealing.,-4,280,20","0"
"9049","","survey-text","166","1330321","0.0-166.0-0.0","A2KE139TQ886T3","","","","{""Q0"":""This looks like art""}","","","","","","","","","","","","","","","","","","","","","","",""
"4559","","image-slider-response","167","1334881","0.0-167.0","A2KE139TQ886T3","","","","","50","","","","","","","","","","","","","","","","","","","","","",""
"4070","","image-button-response","168","1339885","0.0-168.0","A2KE139TQ886T3","img_art/13.jpg","3","","","","","","","","","","","","","","","","","","","","","","","","",""
"1765","","image-button-response","169","1341652","0.0-169.0","A2KE139TQ886T3","img_art/13.jpg","3","","","","","","","","","","","","","","","","","","","","","","","","",""
"931","","image-button-response","170","1342585","0.0-170.0-0.0","A2KE139TQ886T3","img_art/13.jpg","2","","","","","","","","","","","","","","","","","","","","","","","","",""
"783","","image-button-response","171","1343371","0.0-171.0-0.0","A2KE139TQ886T3","img_art/13.jpg","0","","","","","","","","","","","","","","","","","","","","","","","","",""
"null","","html-keyboard-response","172","1344874","0.0-172.0","A2KE139TQ886T3","<p style=""font-size: 48px;"">+</p>","","","","","null","allTrialResponses","1500","1","18","img_art/13.jpg","50","This looks like art","Autumn,Angelica,Kelly,Amber,Kristen,Kathryn","Nice color abstractions.,21,340,20","It's too violent looking and there's too much contrast between the white/black.,-21,280,20","I would hang this photo in my room.,21,220,20","Reminds me of rain running down a window.,35,200,20","happy, serenity,30,280,20","Reminds me of depression anxiety, but negativity is dampened by motion. It's trying to release itself through expression.,-10,140,20","Amber","Reminds me of rain running down a window.,35,200,20","Kelly","I would hang this photo in my room.,21,220,20","Autumn","Nice color abstractions.,21,340,20","0"
"11144","","survey-text","173","1356023","0.0-173.0-0.0","A2KE139TQ886T3","","","","{""Q0"":""i love the muted colors""}","","","","","","","","","","","","","","","","","","","","","","",""
"2611.399999976158","","image-slider-response","174","1358636","0.0-174.0","A2KE139TQ886T3","","","","","16","","","","","","","","","","","","","","","","","","","","","",""
"1717","","image-button-response","175","1363643","0.0-175.0","A2KE139TQ886T3","img_art/21.jpg","1","","","","","","","","","","","","","","","","","","","","","","","","",""
"750","","image-button-response","176","1364397","0.0-176.0","A2KE139TQ886T3","img_art/21.jpg","0","","","","","","","","","","","","","","","","","","","","","","","","",""
"716","","image-button-response","177","1365114","0.0-177.0-0.0","A2KE139TQ886T3","img_art/21.jpg","1","","","","","","","","","","","","","","","","","","","","","","","","",""
"1122","","image-button-response","178","1366239","0.0-178.0-0.0","A2KE139TQ886T3","img_art/21.jpg","2","","","","","","","","","","","","","","","","","","","","","","","","",""
"null","","html-keyboard-response","179","1366744","0.0-179.0","A2KE139TQ886T3","<p style=""font-size: 48px;"">+</p>","","","","","null","allTrialResponses","500","1","19","img_art/21.jpg","16","i love the muted colors","Autumn,Anna,Kelly,Amber,Cassandra,Amy","Amazing colors.,34,340,20","I love the colors and the differences between the left and right sides.,22,300,20","It actually reminded me of a place I've been to. So I had a positive reaction to it.,22,220,20","sunset after the rain,49,200,20","I liked it...it looked like a storm raging.,12,120,20","A landscape that leaves me inspired and hopeful.,20,220,20","Autumn","Amazing colors.,34,340,20","Anna","I love the colors and the differences between the left and right sides.,22,300,20","Kelly","It actually reminded me of a place I've been to. So I had a positive reaction to it.,22,220,20","0"
"18484","","survey-text","180","1385234","0.0-180.0-0.0","A2KE139TQ886T3","","","","{""Q0"":""this is ugly and makes me feel annoyed""}","","","","","","","","","","","","","","","","","","","","","","",""
"65383.80000001192","","image-slider-response","181","1450620","0.0-181.0","A2KE139TQ886T3","","","","","-39","","","","","","","","","","","","","","","","","","","","","",""
"2426","","image-button-response","182","1455625","0.0-182.0","A2KE139TQ886T3","img_art/6.jpg","1","","","","","","","","","","","","","","","","","","","","","","","","",""
"1618","","image-button-response","183","1457244","0.0-183.0","A2KE139TQ886T3","img_art/6.jpg","5","","","","","","","","","","","","","","","","","","","","","","","","",""
"1154","","image-button-response","184","1458401","0.0-184.0-0.0","A2KE139TQ886T3","img_art/6.jpg","0","","","","","","","","","","","","","","","","","","","","","","","","",""
"1053","","image-button-response","185","1459456","0.0-185.0-0.0","A2KE139TQ886T3","img_art/6.jpg","4","","","","","","","","","","","","","","","","","","","","","","","","",""
"null","","html-keyboard-response","186","1460960","0.0-186.0","A2KE139TQ886T3","<p style=""font-size: 48px;"">+</p>","","","","","null","allTrialResponses","1500","1","20","img_art/6.jpg","-39","this is ugly and makes me feel annoyed","Autumn,Anna,Kelly,Madison,Allison,Stephanie","Bird? It's a bird.,23,340,20","It reminds me of a simplistic bird. I like the colors used.,40,300,20","Simple and pretty.,18,220,20","Is this the villain from Despicable Me?,29,60,20","Simple desert scene.,5,140,20","Nevermore!  A black raven sitting on a pumpkin. Halloween,-35,300,20","Stephanie","Nevermore!  A black raven sitting on a pumpkin. Halloween,-35,300,20","Autumn","Bird? It's a bird.,23,340,20","Allison","Simple desert scene.,5,140,20","0"
"17996","","survey-text","187","1478971","0.0-187.0-0.0","A2KE139TQ886T3","","","","{""Q0"":""we""}","","","","","","","","","","","","","","","","","","","","","","",""
"16074","","survey-text","188","1495047","0.0-188.0-0.0","A2KE139TQ886T3","","","","{""Q0"":""This looks gross""}","","","","","","","","","","","","","","","","","","","","","","",""
"3008.099999964237","","image-slider-response","189","1498058","0.0-189.0","A2KE139TQ886T3","","","","","-31","","","","","","","","","","","","","","","","","","","","","",""
"4423","","image-button-response","190","1503062","0.0-190.0","A2KE139TQ886T3","img_art/5.jpg","2","","","","","","","","","","","","","","","","","","","","","","","","",""
"890","","image-button-response","191","1503955","0.0-191.0","A2KE139TQ886T3","img_art/5.jpg","2","","","","","","","","","","","","","","","","","","","","","","","","",""
"747","","image-button-response","192","1504703","0.0-192.0-0.0","A2KE139TQ886T3","img_art/5.jpg","5","","","","","","","","","","","","","","","","","","","","","","","","",""
"759","","image-button-response","193","1505465","0.0-193.0-0.0","A2KE139TQ886T3","img_art/5.jpg","4","","","","","","","","","","","","","","","","","","","","","","","","",""
"null","","html-keyboard-response","194","1506468","0.0-194.0","A2KE139TQ886T3","<p style=""font-size: 48px;"">+</p>","","","","","null","allTrialResponses","1000","1","21","img_art/5.jpg","-31","This looks gross","Autumn,Heather,Katie,Shannon,Allison,Stephanie","Appealing but shapeless,24,340,20","its something. i just dont know what it is.,1,260,20","I don't get it at all. But, maybe it is the top portion of a piece of fruit.,-50,160,20","I don't know what it's supposed to be and it looks ugly the way the colors are on the yellow cube.,-50,220,20","Too loud. Dislike the bright yellow.,-5,140,20","This did not do a thing for me.,-50,300,20","Katie","I don't get it at all. But, maybe it is the top portion of a piece of fruit.,-50,160,20","Stephanie","This did not do a thing for me.,-50,300,20","Allison","Too loud. Dislike the bright yellow.,-5,140,20","0"
"15401","","survey-text","195","1521874","0.0-195.0-0.0","A2KE139TQ886T3","","","","{""Q0"":""it looks basic. ""}","","","","","","","","","","","","","","","","","","","","","","",""
"2630.300000011921","","image-slider-response","196","1524506","0.0-196.0","A2KE139TQ886T3","","","","","-24","","","","","","","","","","","","","","","","","","","","","",""
"null","","image-button-response","197","1529509","0.0-197.0","A2KE139TQ886T3","img_art/11.jpg","null","","","","","","","","","","","","","","","","","","","","","","","","",""
"128","","image-button-response","198","1529639","0.0-198.0","A2KE139TQ886T3","img_art/11.jpg","2","","","","","","","","","","","","","","","","","","","","","","","","",""
"1516","","image-button-response","199","1531158","0.0-199.0-0.0","A2KE139TQ886T3","img_art/11.jpg","5","","","","","","","","","","","","","","","","","","","","","","","","",""
"760","","image-button-response","200","1531920","0.0-200.0-0.0","A2KE139TQ886T3","img_art/11.jpg","4","","","","","","","","","","","","","","","","","","","","","","","","",""
"null","","html-keyboard-response","201","1533422","0.0-201.0","A2KE139TQ886T3","<p style=""font-size: 48px;"">+</p>","","","","","null","allTrialResponses","1500","1","22","img_art/11.jpg","-24","it looks basic. ","Chelsea,Laura,Katie,Alexa,Allison,Stephanie","I like the harsh black lines against a soft background.,27,180,20","i think of beatnik music and dark piano lounges,25,320,20","Dark and dreary. Makes me think of rain/water. I see grey clouds and high waves. Looks unsettling.,-20,160,20","There's a lot going on in this painting but it is pleasing and neat looking,31,40,20","Kind of reminds me of DNA.,9,140,20","Rainy dreary day in a town.,7,300,20","Katie","Dark and dreary. Makes me think of rain/water. I see grey clouds and high waves. Looks unsettling.,-20,160,20","Stephanie","Rainy dreary day in a town.,7,300,20","Allison","Kind of reminds me of DNA.,9,140,20","0"
"12898","","survey-text","202","1546327","0.0-202.0-0.0","A2KE139TQ886T3","","","","{""Q0"":""it looks like a gutted bird""}","","","","","","","","","","","","","","","","","","","","","","",""
"3453.5","","image-slider-response","203","1549783","0.0-203.0","A2KE139TQ886T3","","","","","-24","","","","","","","","","","","","","","","","","","","","","",""
"null","","image-button-response","204","1555209","0.0-204.0","A2KE139TQ886T3","img_art/24.jpg","null","","","","","","","","","","","","","","","","","","","","","","","","",""
"232223","","image-button-response","205","1787433","0.0-205.0","A2KE139TQ886T3","img_art/24.jpg","4","","","","","","","","","","","","","","","","","","","","","","","","",""
"1638","","image-button-response","206","1789074","0.0-206.0-0.0","A2KE139TQ886T3","img_art/24.jpg","3","","","","","","","","","","","","","","","","","","","","","","","","",""
"737","","image-button-response","207","1789814","0.0-207.0-0.0","A2KE139TQ886T3","img_art/24.jpg","5","","","","","","","","","","","","","","","","","","","","","","","","",""
"null","","html-keyboard-response","208","1791320","0.0-208.0","A2KE139TQ886T3","<p style=""font-size: 48px;"">+</p>","","","","","null","allTrialResponses","1500","1","23","img_art/24.jpg","-24","it looks like a gutted bird","Kaitlin,Miranda,Katie,Paige,Allison,Stephanie","Aww. I love the peace brought by this picture.,40,60,20","I find the colors work really well. It's very pretty but I have no idea as what it is.,34,320,20","I see a waterfall, which is relaxing and peaceful!  I like the blue coloring,30,160,20","somewhat happy. I like the colors,38,60,20","I appreciate the earth tones. Soothing.,5,140,20","A beautiful waterfall in the springtime.,40,300,20","Allison","I appreciate the earth tones. Soothing.,5,140,20","Paige","somewhat happy. I like the colors,38,60,20","Stephanie","A beautiful waterfall in the springtime.,40,300,20","0"
"28938","","survey-text","209","1820273","0.0-209.0-0.0","A2KE139TQ886T3","","","","{""Q0"":""reminds me of a junkyard""}","","","","","","","","","","","","","","","","","","","","","","",""
"3366.399999976158","","image-slider-response","210","1823641","0.0-210.0","A2KE139TQ886T3","","","","","-39","","","","","","","","","","","","","","","","","","","","","",""
"null","","image-button-response","211","1828645","0.0-211.0","A2KE139TQ886T3","img_art/28.jpg","null","","","","","","","","","","","","","","","","","","","","","","","","",""
"1531","","image-button-response","212","1830178","0.0-212.0","A2KE139TQ886T3","img_art/28.jpg","0","","","","","","","","","","","","","","","","","","","","","","","","",""
"1950","","image-button-response","213","1832130","0.0-213.0-0.0","A2KE139TQ886T3","img_art/28.jpg","2","","","","","","","","","","","","","","","","","","","","","","","","",""
"962","","image-button-response","214","1833095","0.0-214.0-0.0","A2KE139TQ886T3","img_art/28.jpg","5","","","","","","","","","","","","","","","","","","","","","","","","",""
"null","","html-keyboard-response","215","1834102","0.0-215.0","A2KE139TQ886T3","<p style=""font-size: 48px;"">+</p>","","","","","null","allTrialResponses","1000","1","24","img_art/28.jpg","-39","reminds me of a junkyard","Margaret,Leslie,Victoria,Paige,Allison,Stephanie","i like the neutral color pallette but i dont know what i am looking at,26,100,20","The darker colors make this unnerving.,40,380,20","drab and dreary,-21,400,20","I just don't like it. It makes no sense to me,1,60,20","Dislike the colors.,-20,140,20","The colors are neutral but I see a mother helping her child,31,300,20","Margaret","i like the neutral color pallette but i dont know what i am looking at,26,100,20","Victoria","drab and dreary,-21,400,20","Stephanie","The colors are neutral but I see a mother helping her child,31,300,20","0"
"16197","","survey-text","216","1850309","0.0-216.0-0.0","A2KE139TQ886T3","","","","{""Q0"":""looks very dark and abstract""}","","","","","","","","","","","","","","","","","","","","","","",""
"3170.800000011921","","image-slider-response","217","1853482","0.0-217.0","A2KE139TQ886T3","","","","","2","","","","","","","","","","","","","","","","","","","","","",""
"null","","image-button-response","218","1859067","0.0-218.0","A2KE139TQ886T3","img_art/10.jpg","null","","","","","","","","","","","","","","","","","","","","","","","","",""
"95179","","image-button-response","219","1954250","0.0-219.0","A2KE139TQ886T3","img_art/10.jpg","3","","","","","","","","","","","","","","","","","","","","","","","","",""
"2150","","image-button-response","220","1956402","0.0-220.0-0.0","A2KE139TQ886T3","img_art/10.jpg","1","","","","","","","","","","","","","","","","","","","","","","","","",""
"1288","","image-button-response","221","1957692","0.0-221.0-0.0","A2KE139TQ886T3","img_art/10.jpg","0","","","","","","","","","","","","","","","","","","","","","","","","",""
"null","","html-keyboard-response","222","1958194","0.0-222.0","A2KE139TQ886T3","<p style=""font-size: 48px;"">+</p>","","","","","null","allTrialResponses","500","1","25","img_art/10.jpg","2","looks very dark and abstract","Margaret,Tiffany,Victoria,Alicia,Monica,Stephanie","I think this was going to be a guitar but then the artist got mad and gave up,-4,100,20","I feel little to no emotion looking at this painting.,0,360,20","absolutely beautiful piece of art,49,400,20","It's art. (for some),7,120,20","It doesn't look pleasing to the eye, it kind of looks like an animal but a dirty one,-38,360,20","The black color is depressing.,-50,300,20","Alicia","It's art. (for some),7,120,20","Tiffany","I feel little to no emotion looking at this painting.,0,360,20","Margaret","I think this was going to be a guitar but then the artist got mad and gave up,-4,100,20","0"
"7428","","survey-text","223","1965651","0.0-223.0-0.0","A2KE139TQ886T3","","","","{""Q0"":""table""}","","","","","","","","","","","","","","","","","","","","","","",""
"22196","","survey-text","224","1987848","0.0-224.0-0.0","A2KE139TQ886T3","","","","{""Q0"":""it looks too modern.""}","","","","","","","","","","","","","","","","","","","","","","",""
"2392.900000035763","","image-slider-response","225","1990244","0.0-225.0","A2KE139TQ886T3","","","","","-50","","","","","","","","","","","","","","","","","","","","","",""
"2924","","image-button-response","226","1995246","0.0-226.0","A2KE139TQ886T3","img_art/29.jpg","1","","","","","","","","","","","","","","","","","","","","","","","","",""
"1199","","image-button-response","227","1996448","0.0-227.0","A2KE139TQ886T3","img_art/29.jpg","1","","","","","","","","","","","","","","","","","","","","","","","","",""
"949","","image-button-response","228","1997400","0.0-228.0-0.0","A2KE139TQ886T3","img_art/29.jpg","0","","","","","","","","","","","","","","","","","","","","","","","","",""
"1684","","image-button-response","229","1999087","0.0-229.0-0.0","A2KE139TQ886T3","img_art/29.jpg","3","","","","","","","","","","","","","","","","","","","","","","","","",""
"null","","html-keyboard-response","230","2000590","0.0-230.0","A2KE139TQ886T3","<p style=""font-size: 48px;"">+</p>","","","","","null","allTrialResponses","1500","1","26","img_art/29.jpg","-50","it looks too modern.","Margaret,Tiffany,Lauren,Alicia,Courtney,Grace","this does nothing for me. hate the colors. hate the design,-50,100,20","I feel a little disgust. There is something off-putting about the smooth shapes and dark colors.,-43,360,20","Don't really like the red x. It gives the impression that this a discarded piece.,-10,340,20","easy, too abstract for me, don't get it.,-25,120,20","Thats a pretty wierd picture.,6,280,20","Doesn't do much for me. I like some of the colors but not much else.,-10,180,20","Tiffany","I feel a little disgust. There is something off-putting about the smooth shapes and dark colors.,-43,360,20","Margaret","this does nothing for me. hate the colors. hate the design,-50,100,20","Alicia","easy, too abstract for me, don't get it.,-25,120,20","0"
"26246","","survey-text","231","2026844","0.0-231.0-0.0","A2KE139TQ886T3","","","","{""Q0"":""this looks like blood""}","","","","","","","","","","","","","","","","","","","","","","",""
"3102.5","","image-slider-response","232","2029949","0.0-232.0","A2KE139TQ886T3","","","","","-50","","","","","","","","","","","","","","","","","","","","","",""
"4021","","image-button-response","233","2034959","0.0-233.0","A2KE139TQ886T3","img_art/3.jpg","4","","","","","","","","","","","","","","","","","","","","","","","","",""
"515","","image-button-response","234","2035477","0.0-234.0","A2KE139TQ886T3","img_art/3.jpg","4","","","","","","","","","","","","","","","","","","","","","","","","",""
"702","","image-button-response","235","2036182","0.0-235.0-0.0","A2KE139TQ886T3","img_art/3.jpg","3","","","","","","","","","","","","","","","","","","","","","","","","",""
"1043","","image-button-response","236","2037228","0.0-236.0-0.0","A2KE139TQ886T3","img_art/3.jpg","1","","","","","","","","","","","","","","","","","","","","","","","","",""
"null","","html-keyboard-response","237","2037732","0.0-237.0","A2KE139TQ886T3","<p style=""font-size: 48px;"">+</p>","","","","","null","allTrialResponses","500","1","27","img_art/3.jpg","-50","this looks like blood","Margaret,Tiffany,Rachel,Alicia,Alexis,Sarah","seems distressing. a blood scene,-3,100,20","I feel uncomfortable, like I am looking at a crime scene.,-17,360,20","Too red and chaotic. Not calming.,-41,80,20","scribbles in red. 2 minute piece.,-30,120,20","Just scribbles. Not a fan.,-40,100,20","the red is impactful but the work overall doesn't say anything to me,-8,180,20","Alexis","Just scribbles. Not a fan.,-40,100,20","Alicia","scribbles in red. 2 minute piece.,-30,120,20","Tiffany","I feel uncomfortable, like I am looking at a crime scene.,-17,360,20","0"
"35481","","survey-text","238","2073225","0.0-238.0-0.0","A2KE139TQ886T3","","","","{""Q0"":""it looks like a classical painting got pressured washed into abstract""}","","","","","","","","","","","","","","","","","","","","","","",""
"2193.300000011921","","image-slider-response","239","2075420","0.0-239.0","A2KE139TQ886T3","","","","","-25","","","","","","","","","","","","","","","","","","","","","",""
"3556","","image-button-response","240","2080422","0.0-240.0","A2KE139TQ886T3","img_art/18.jpg","0","","","","","","","","","","","","","","","","","","","","","","","","",""
"978","","image-button-response","241","2081403","0.0-241.0","A2KE139TQ886T3","img_art/18.jpg","0","","","","","","","","","","","","","","","","","","","","","","","","",""
"1414","","image-button-response","242","2082822","0.0-242.0-0.0","A2KE139TQ886T3","img_art/18.jpg","1","","","","","","","","","","","","","","","","","","","","","","","","",""
"2452","","image-button-response","243","2085276","0.0-243.0-0.0","A2KE139TQ886T3","img_art/18.jpg","3","","","","","","","","","","","","","","","","","","","","","","","","",""
"null","","html-keyboard-response","244","2085778","0.0-244.0","A2KE139TQ886T3","<p style=""font-size: 48px;"">+</p>","","","","","null","allTrialResponses","500","1","28","img_art/18.jpg","-25","it looks like a classical painting got pressured washed into abstract","Erin,Tiffany,Jacqueline,Alicia,Alexis,Morgan","See a weird horse,-22,120,20","I'm mildly disgusted by the colors, and can't piece together the story the figures are trying to tell.,-10,360,20","Kinda neat, looks like cavalry, or a knight.,15,300,20","Skeletons, death, bleak colors, still kinda like it.,16,120,20","Crusade-feel, but a little too abstract for my taste,23,100,20","Ghostly sea adventure.,20,380,20","Erin","See a weird horse,-22,120,20","Tiffany","I'm mildly disgusted by the colors, and can't piece together the story the figures are trying to tell.,-10,360,20","Alicia","Skeletons, death, bleak colors, still kinda like it.,16,120,20","0"
"23901","","survey-text","245","2109688","0.0-245.0-0.0","A2KE139TQ886T3","","","","{""Q0"":""I love the soft flowing flower likeness""}","","","","","","","","","","","","","","","","","","","","","","",""
"2939.5","","image-slider-response","246","2112631","0.0-246.0","A2KE139TQ886T3","","","","","50","","","","","","","","","","","","","","","","","","","","","",""
"2315","","image-button-response","247","2117636","0.0-247.0","A2KE139TQ886T3","img_art/17.jpg","1","","","","","","","","","","","","","","","","","","","","","","","","",""
"391","","image-button-response","248","2118029","0.0-248.0","A2KE139TQ886T3","img_art/17.jpg","5","","","","","","","","","","","","","","","","","","","","","","","","",""
"1085","","image-button-response","249","2119117","0.0-249.0-0.0","A2KE139TQ886T3","img_art/17.jpg","3","","","","","","","","","","","","","","","","","","","","","","","","",""
"806","","image-button-response","250","2119925","0.0-250.0-0.0","A2KE139TQ886T3","img_art/17.jpg","1","","","","","","","","","","","","","","","","","","","","","","","","",""
"null","","html-keyboard-response","251","2120930","0.0-251.0","A2KE139TQ886T3","<p style=""font-size: 48px;"">+</p>","","","","","null","allTrialResponses","1000","1","29","img_art/17.jpg","50","I love the soft flowing flower likeness","Erin,Tiffany,Kaitlyn,Alicia,Nicole,Taylor","Windows indoor tree, weird palette,-11,120,20","The painting makes me feel relaxed, and a bit lonely, like I'm sitting at a park waiting for someone.,30,360,20","Very beautiful,19,80,20","Like this one, super creative, calming.,43,120,20","Feels nostalgic somehow,31,20,20","A very inspiring piece,41,340,20","Taylor","A very inspiring piece,41,340,20","Alicia","Like this one, super creative, calming.,43,120,20","Tiffany","The painting makes me feel relaxed, and a bit lonely, like I'm sitting at a park waiting for someone.,30,360,20","0"
"14430","","survey-text","252","2135369","0.0-252.0-0.0","A2KE139TQ886T3","","","","{""Q0"":""this is disturbing""}","","","","","","","","","","","","","","","","","","","","","","",""
"2496.300000011921","","image-slider-response","253","2137867","0.0-253.0","A2KE139TQ886T3","","","","","-50","","","","","","","","","","","","","","","","","","","","","",""
"3531","","image-button-response","254","2142870","0.0-254.0","A2KE139TQ886T3","img_art/9.jpg","5","","","","","","","","","","","","","","","","","","","","","","","","",""
"168","","image-button-response","255","2143042","0.0-255.0","A2KE139TQ886T3","img_art/9.jpg","5","","","","","","","","","","","","","","","","","","","","","","","","",""
"1751","","image-button-response","256","2144796","0.0-256.0-0.0","A2KE139TQ886T3","img_art/9.jpg","4","","","","","","","","","","","","","","","","","","","","","","","","",""
"3913","","image-button-response","257","2148711","0.0-257.0-0.0","A2KE139TQ886T3","img_art/9.jpg","0","","","","","","","","","","","","","","","","","","","","","","","","",""
"null","","html-keyboard-response","258","2149713","0.0-258.0","A2KE139TQ886T3","<p style=""font-size: 48px;"">+</p>","","","","","null","allTrialResponses","1000","1","30","img_art/9.jpg","-50","this is disturbing","Kayla,Tiffany,Erica,Alicia,Mackenzie,Taylor","It's nice. Peaceful. Calming.,11,180,20","The piece of art makes me happy, it reminds me of a lively carnival.,15,360,20","Looks very relaxing; someone laying in a meadow,13,80,20","Abstract titanic scene. It's nice though. I like how it makes me feel.,28,120,20","I enjoy the design, but the colors look waxy,-7,20,20","The peacock theme gives me negative connotations of my ex-sister-in-law,-10,340,20","Taylor","The peacock theme gives me negative connotations of my ex-sister-in-law,-10,340,20","Mackenzie","I enjoy the design, but the colors look waxy,-7,20,20","Kayla","It's nice. Peaceful. Calming.,11,180,20","0"
"3069","","image-button-response_instructions","259","2152790","0.0-259.0","A2KE139TQ886T3","","0","instructions","","","","","","","","","","","","","","","","","","","","","","","",""
"1371","","image-button-response","260","2154168","0.0-260.0","A2KE139TQ886T3","","0","","","","","","","","","","","","","","","","","","","","","","","","",""
