"rt","url","trial_type","trial_index","time_elapsed","internal_node_id","participant_id","stimulus","button_pressed","Name","responses","response","key_press","variableName","fixationTime","condition","trial","photo","subjectRating","subjectResponse","agentsNames","agent_1_Response","agent_2_Response","agent_3_Response","agent_4_Response","agent_5_Response","agent_6_Response","kept_1_name","kept_1_response","kept_2_name","kept_2_response","kept_3_name","kept_3_response","errorCounter"
"16351","external_page_harvard.html","external-html","0","16486","0.0-0.0","A2L2E6J3D23CN4","","","","","","","","","","","","","","","","","","","","","","","","","","",""
"268760","","image-button-response","1","285250","0.0-1.0","A2L2E6J3D23CN4","","0","","","","","","","","","","","","","","","","","","","","","","","","",""
"1695","","image-button-response","2","286954","0.0-2.0-0.0","A2L2E6J3D23CN4","","1","phone","","","","","","","","","","","","","","","","","","","","","","","",""
"6928","","survey-text","3","293884","0.0-3.0-0.0","A2L2E6J3D23CN4","","","","{""Q0"":""A2L2E6J3D23CN4""}","","","","","","","","","","","","","","","","","","","","","","",""
"2311","","image-button-response_instructions","4","296198","0.0-4.0","A2L2E6J3D23CN4","","0","instructions","","","","","","","","","","","","","","","","","","","","","","","",""
"4578","","image-button-response_instructions","5","300778","0.0-5.0","A2L2E6J3D23CN4","img_art/ins/popularity/ins1.png","0","instructions","","","","","","","","","","","","","","","","","","","","","","","",""
"983","","image-button-response_instructions","6","301764","0.0-6.0","A2L2E6J3D23CN4","img_art/ins/popularity/ins2.png","0","instructions","","","","","","","","","","","","","","","","","","","","","","","",""
"1155","","image-button-response_instructions","7","302921","0.0-7.0","A2L2E6J3D23CN4","img_art/ins/popularity/ins2Extreme.png","0","instructions","","","","","","","","","","","","","","","","","","","","","","","",""
"1314","","image-button-response_instructions","8","304237","0.0-8.0","A2L2E6J3D23CN4","img_art/ins/popularity/ins3KEEPpop.PNG","0","instructions","","","","","","","","","","","","","","","","","","","","","","","",""
"1301","","image-button-response_instructions","9","305540","0.0-9.0","A2L2E6J3D23CN4","img_art/ins/popularity/ins3ANamepop.PNG","0","instructions","","","","","","","","","","","","","","","","","","","","","","","",""
"1180","","image-button-response_instructions","10","306722","0.0-10.0","A2L2E6J3D23CN4","img_art/ins/popularity/ins3ARatingpop.png","0","instructions","","","","","","","","","","","","","","","","","","","","","","","",""
"595","","image-button-response_instructions","11","307319","0.0-11.0","A2L2E6J3D23CN4","img_art/ins/popularity/ins3ATextpop.png","0","instructions","","","","","","","","","","","","","","","","","","","","","","","",""
"961","","image-button-response_instructions","12","308280","0.0-12.0","A2L2E6J3D23CN4","img_art/ins/popularity/ins3ALikespop.png","0","instructions","","","","","","","","","","","","","","","","","","","","","","","",""
"1034","","image-button-response_instructions","13","309316","0.0-13.0","A2L2E6J3D23CN4","img_art/ins/popularity/ins3KEEPpop.PNG","0","instructions","","","","","","","","","","","","","","","","","","","","","","","",""
"2191","","image-button-response_instructions","14","311508","0.0-14.0","A2L2E6J3D23CN4","img_art/ins/popularity/ins3_5RED.png","0","instructions","","","","","","","","","","","","","","","","","","","","","","","",""
"620","","image-button-response_instructions","15","312130","0.0-15.0","A2L2E6J3D23CN4","img_art/ins/popularity/ins3KEEPpop.PNG","0","instructions","","","","","","","","","","","","","","","","","","","","","","","",""
"655","","image-button-response_instructions","16","312787","0.0-16.0","A2L2E6J3D23CN4","img_art/ins/popularity/ins4KEEPpop.PNG","0","instructions","","","","","","","","","","","","","","","","","","","","","","","",""
"852","","image-button-response_instructions","17","313640","0.0-17.0","A2L2E6J3D23CN4","img_art/ins/popularity/ins5KEEPpop.PNG","0","instructions","","","","","","","","","","","","","","","","","","","","","","","",""
"1691","","image-button-response_instructions","18","315333","0.0-18.0","A2L2E6J3D23CN4","","0","instructions","","","","","","","","","","","","","","","","","","","","","","","",""
"3229","","survey-text","19","318610","0.0-19.0-0.0","A2L2E6J3D23CN4","","","","{""Q0"":""but""}","","","","","","","","","","","","","","","","","","","","","","",""
"12593","","survey-text","20","331205","0.0-20.0-0.0","A2L2E6J3D23CN4","","","","{""Q0"":""It uses limited colors and is very random.""}","","","","","","","","","","","","","","","","","","","","","","",""
"2273.699999809265","","image-slider-response","21","333483","0.0-21.0","A2L2E6J3D23CN4","","","","","-17","","","","","","","","","","","","","","","","","","","","","",""
"4635","","image-button-response","22","338488","0.0-22.0","A2L2E6J3D23CN4","img_art/ins/1.jpg","5","","","","","","","","","","","","","","","","","","","","","","","","",""
"3517","","image-button-response","23","342009","0.0-23.0","A2L2E6J3D23CN4","img_art/ins/1.jpg","4","","","","","","","","","","","","","","","","","","","","","","","","",""
"1519","","image-button-response","24","343532","0.0-24.0-0.0","A2L2E6J3D23CN4","img_art/ins/1.jpg","5","","","","","","","","","","","","","","","","","","","","","","","","",""
"2006","","image-button-response","25","345541","0.0-25.0-0.0","A2L2E6J3D23CN4","img_art/ins/1.jpg","1","","","","","","","","","","","","","","","","","","","","","","","","",""
"null","","html-keyboard-response","26","347044","0.0-26.0","A2L2E6J3D23CN4","<p style=""font-size: 48px;"">+</p>","","","","","null","allTrialResponses","1500","1","-2","img_art/ins/1.jpg","-17","It uses limited colors and is very random.","Adam,Alex,Ben,Carl,Daniel,Jack","Seems like doodles,-20,20,20","very creative work.,36,40,20","This color reminds me of poo,-46,60,20","very calming artwork,42,80,20","It looks like a murder scene.,-48,100,20","I like the sophisticated brushwork,40,120,20","Daniel","It looks like a murder scene.,-48,100,20","Jack","I like the sophisticated brushwork,40,120,20","Alex","very creative work.,36,40,20","0"
"25967","","survey-text","27","373017","0.0-27.0-0.0","A2L2E6J3D23CN4","","","","{""Q0"":""The meshing of the colors is not present. I wonder how it was created.""}","","","","","","","","","","","","","","","","","","","","","","",""
"2896.199999809265","","image-slider-response","28","375916","0.0-28.0","A2L2E6J3D23CN4","","","","","5","","","","","","","","","","","","","","","","","","","","","",""
"1800","","image-button-response","29","380920","0.0-29.0","A2L2E6J3D23CN4","img_art/ins/2.jpg","1","","","","","","","","","","","","","","","","","","","","","","","","",""
"206","","image-button-response","30","381129","0.0-30.0","A2L2E6J3D23CN4","img_art/ins/2.jpg","1","","","","","","","","","","","","","","","","","","","","","","","","",""
"851","","image-button-response","31","381983","0.0-31.0-0.0","A2L2E6J3D23CN4","img_art/ins/2.jpg","0","","","","","","","","","","","","","","","","","","","","","","","","",""
"1483","","image-button-response","32","383469","0.0-32.0-0.0","A2L2E6J3D23CN4","img_art/ins/2.jpg","0","","","","","","","","","","","","","","","","","","","","","","","","",""
"1251","","image-button-response","33","388206","0.0-32.1-0.1","A2L2E6J3D23CN4","img_art/ins/2.jpg","5","","","","","","","","","","","","","","","","","","","","","","","","",""
"null","","html-keyboard-response","34","389707","0.0-33.0","A2L2E6J3D23CN4","<p style=""font-size: 48px;"">+</p>","","","","","null","allTrialResponses","1500","1","-1","img_art/ins/2.jpg","5","The meshing of the colors is not present. I wonder how it was created.","John,Alex,Kyle,James,Daniel,Jack","love the texture of paint,48,160,20","I like the blocks of color arrangements,30,40,20","Idk, it is just annoying,-32,180,20","looks too angry,-50,140,20","One of my pet peevs,-48,100,20","I would never be able to compose a sophisticated pallete like this,48,120,20","Alex","I like the blocks of color arrangements,30,40,20","John","love the texture of paint,48,160,20","Jack","I would never be able to compose a sophisticated pallete like this,48,120,20","2"
"17043","","survey-text","35","406758","0.0-34.0-0.0","A2L2E6J3D23CN4","","","","{""Q0"":""The varying shades of blue are quite interesting.""}","","","","","","","","","","","","","","","","","","","","","","",""
"2798.699999809265","","image-slider-response","36","409559","0.0-35.0","A2L2E6J3D23CN4","","","","","8","","","","","","","","","","","","","","","","","","","","","",""
"3347","","image-button-response","37","414563","0.0-36.0","A2L2E6J3D23CN4","img_art/ins/3.jpg","3","","","","","","","","","","","","","","","","","","","","","","","","",""
"1267","","image-button-response","38","415833","0.0-37.0","A2L2E6J3D23CN4","img_art/ins/3.jpg","0","","","","","","","","","","","","","","","","","","","","","","","","",""
"1129","","image-button-response","39","416966","0.0-38.0-0.0","A2L2E6J3D23CN4","img_art/ins/3.jpg","3","","","","","","","","","","","","","","","","","","","","","","","","",""
"1166","","image-button-response","40","418136","0.0-39.0-0.0","A2L2E6J3D23CN4","img_art/ins/3.jpg","1","","","","","","","","","","","","","","","","","","","","","","","","",""
"null","","html-keyboard-response","41","419138","0.0-40.0","A2L2E6J3D23CN4","<p style=""font-size: 48px;"">+</p>","","","","","null","allTrialResponses","1000","1","0","img_art/ins/3.jpg","8","The varying shades of blue are quite interesting.","John,Alex,Sam,Mike,Ron,Jack","I like the overlapping of brushes,41,160,20","calming blue is very nice,36,40,20","I can feel a rainy day from this painting,18,240,20","enjoy the different shades of blue,22,200,20","It looks depressing,-26,220,20","I feel connected to the artist,40,120,20","John","I like the overlapping of brushes,41,160,20","Mike","enjoy the different shades of blue,22,200,20","Alex","calming blue is very nice,36,40,20","2"
"1999","","image-button-response_instructions","42","421143","0.0-41.0","A2L2E6J3D23CN4","","0","instructions","","","","","","","","","","","","","","","","","","","","","","","",""
"9974","","survey-likert","43","431119","0.0-42.0-0.0","A2L2E6J3D23CN4","","","","{""Q0"":"""",""Q1"":0,""Q2"":1}","","","","","","","","","","","","","","","","","","","","","","",""
"3141","","survey-text","44","434273","0.0-43.0-0.0","A2L2E6J3D23CN4","","","","{""Q0"":""rock""}","","","","","","","","","","","","","","","","","","","","","","",""
"110712","","survey-text","45","544986","0.0-44.0-0.0","A2L2E6J3D23CN4","","","","{""Q0"":""The blocks and gradient of colors is quite telling""}","","","","","","","","","","","","","","","","","","","","","","",""
"2884.4000005722046","","image-slider-response","46","547873","0.0-45.0","A2L2E6J3D23CN4","","","","","15","","","","","","","","","","","","","","","","","","","","","",""
"1533","","image-button-response","47","552910","0.0-46.0","A2L2E6J3D23CN4","img_art/12.jpg","4","","","","","","","","","","","","","","","","","","","","","","","","",""
"3166","","image-button-response","48","556081","0.0-47.0","A2L2E6J3D23CN4","img_art/12.jpg","0","","","","","","","","","","","","","","","","","","","","","","","","",""
"1837","","image-button-response","49","557921","0.0-48.0-0.0","A2L2E6J3D23CN4","img_art/12.jpg","4","","","","","","","","","","","","","","","","","","","","","","","","",""
"2506","","image-button-response","50","560431","0.0-49.0-0.0","A2L2E6J3D23CN4","img_art/12.jpg","1","","","","","","","","","","","","","","","","","","","","","","","","",""
"null","","html-keyboard-response","51","561434","0.0-50.0","A2L2E6J3D23CN4","<p style=""font-size: 48px;"">+</p>","","","","","null","allTrialResponses","1000","1","1","img_art/12.jpg","15","The blocks and gradient of colors is quite telling","Ian,Alejandro,Christian,Carlos,Benjamin,Steven","This is like going to a really old mcdoanlds in a tiny town and it's never been renovated so it's breaking down,-31,260,20","I like the sectioned nature of the squares and curves. Not my favorite but still a good one.,27,80,20","so many different available interpretations for this, would love to closer.,24,140,20","It is very bland and the colors are not cohesive.,-20,80,20","Like how all the colors seem to blend together.,15,260,20","not my kind of thing,1,160,20","Ian","This is like going to a really old mcdoanlds in a tiny town and it's never been renovated so it's breaking down,-31,260,20","Benjamin","Like how all the colors seem to blend together.,15,260,20","Alejandro","I like the sectioned nature of the squares and curves. Not my favorite but still a good one.,27,80,20","2"
"14441","","survey-text","52","575886","0.0-51.0-0.0","A2L2E6J3D23CN4","","","","{""Q0"":""It looks like the texture of the moon. Very interesting.""}","","","","","","","","","","","","","","","","","","","","","","",""
"1873","","image-slider-response","53","577761","0.0-52.0","A2L2E6J3D23CN4","","","","","19","","","","","","","","","","","","","","","","","","","","","",""
"1909","","image-button-response","54","582765","0.0-53.0","A2L2E6J3D23CN4","img_art/7.jpg","3","","","","","","","","","","","","","","","","","","","","","","","","",""
"643","","image-button-response","55","583413","0.0-54.0","A2L2E6J3D23CN4","img_art/7.jpg","1","","","","","","","","","","","","","","","","","","","","","","","","",""
"2372","","image-button-response","56","585789","0.0-55.0-0.0","A2L2E6J3D23CN4","img_art/7.jpg","3","","","","","","","","","","","","","","","","","","","","","","","","",""
"2067","","image-button-response","57","587859","0.0-56.0-0.0","A2L2E6J3D23CN4","img_art/7.jpg","0","","","","","","","","","","","","","","","","","","","","","","","","",""
"null","","html-keyboard-response","58","588861","0.0-57.0","A2L2E6J3D23CN4","<p style=""font-size: 48px;"">+</p>","","","","","null","allTrialResponses","1000","1","2","img_art/7.jpg","19","It looks like the texture of the moon. Very interesting.","Ian,Alejandro,Kevin,Alex,Benjamin,Gregory","This looks like a literal picture of the ground so I'm really not too sure about this one.,-42,260,20","I thought I was looking at a satellite image of mars.,21,80,20","That a desert floor,16,320,20","Hmm interesting, looks like mars or something terrestrial. Too abstract for me and too much brown,4,100,20","Dull and confusing,-24,260,20","Looks like a battle raging on,20,220,20","Alejandro","I thought I was looking at a satellite image of mars.,21,80,20","Alex","Hmm interesting, looks like mars or something terrestrial. Too abstract for me and too much brown,4,100,20","Ian","This looks like a literal picture of the ground so I'm really not too sure about this one.,-42,260,20","2"
"17043","","survey-text","59","605909","0.0-58.0-0.0","A2L2E6J3D23CN4","","","","{""Q0"":""This is a very simple tree blowing in the winds of the desert""}","","","","","","","","","","","","","","","","","","","","","","",""
"3638.6000003814697","","image-slider-response","60","609551","0.0-59.0","A2L2E6J3D23CN4","","","","","-8","","","","","","","","","","","","","","","","","","","","","",""
"null","","image-button-response","61","614554","0.0-60.0","A2L2E6J3D23CN4","img_art/6.jpg","null","","","","","","","","","","","","","","","","","","","","","","","","",""
"804","","image-button-response","62","615360","0.0-61.0","A2L2E6J3D23CN4","img_art/6.jpg","1","","","","","","","","","","","","","","","","","","","","","","","","",""
"558","","image-button-response","63","615921","0.0-62.0-0.0","A2L2E6J3D23CN4","img_art/6.jpg","2","","","","","","","","","","","","","","","","","","","","","","","","",""
"3931","","image-button-response","64","619855","0.0-63.0-0.0","A2L2E6J3D23CN4","img_art/6.jpg","3","","","","","","","","","","","","","","","","","","","","","","","","",""
"null","","html-keyboard-response","65","621358","0.0-64.0","A2L2E6J3D23CN4","<p style=""font-size: 48px;"">+</p>","","","","","null","allTrialResponses","1500","1","3","img_art/6.jpg","-8","This is a very simple tree blowing in the winds of the desert","Ian,Alejandro,Marcus,Alex,Eric,Alexander","It's slightly unnerving to look at, it looks a little creepy/eerie,-16,260,20","Gives me a feeling of solitude and nothingness,11,80,20","I like the orange color, and I don't know why but I like this piece.,22,60,20","Definitely belongs at a doctor's office, I think it's a crow or a tree?,-3,100,20","This piece reminds me of the lorax.,5,100,20","Desert that's too simple.,-15,120,20","Alejandro","Gives me a feeling of solitude and nothingness,11,80,20","Marcus","I like the orange color, and I don't know why but I like this piece.,22,60,20","Alex","Definitely belongs at a doctor's office, I think it's a crow or a tree?,-3,100,20","2"
"29038","","survey-text","66","650402","0.0-65.0-0.0","A2L2E6J3D23CN4","","","","{""Q0"":""The purple brushstrokes are interesting here""}","","","","","","","","","","","","","","","","","","","","","","",""
"3127.800000190735","","image-slider-response","67","653533","0.0-66.0","A2L2E6J3D23CN4","","","","","12","","","","","","","","","","","","","","","","","","","","","",""
"3736","","image-button-response","68","658539","0.0-67.0","A2L2E6J3D23CN4","img_art/5.jpg","0","","","","","","","","","","","","","","","","","","","","","","","","",""
"1237","","image-button-response","69","659782","0.0-68.0","A2L2E6J3D23CN4","img_art/5.jpg","0","","","","","","","","","","","","","","","","","","","","","","","","",""
"2530","","image-button-response","70","662315","0.0-69.0-0.0","A2L2E6J3D23CN4","img_art/5.jpg","4","","","","","","","","","","","","","","","","","","","","","","","","",""
"1068","","image-button-response","71","663387","0.0-70.0-0.0","A2L2E6J3D23CN4","img_art/5.jpg","5","","","","","","","","","","","","","","","","","","","","","","","","",""
"null","","html-keyboard-response","72","664390","0.0-71.0","A2L2E6J3D23CN4","<p style=""font-size: 48px;"">+</p>","","","","","null","allTrialResponses","1000","1","4","img_art/5.jpg","12","The purple brushstrokes are interesting here","Nicholas,Alejandro,Marcus,Alex,Tyler,Brendan","I cant explain why i like this so much but it really calls out to me,50,240,20","Confused as to what the artist is attempting to do.,-50,80,20","I really dislike this. It's ugly and looks dirty.,-44,60,20","What is this? It looks like no effort was put into this work,-2,100,20","Bright and luminous,31,320,20","a volcano erruption,21,340,20","Nicholas","I cant explain why i like this so much but it really calls out to me,50,240,20","Tyler","Bright and luminous,31,320,20","Brendan","a volcano erruption,21,340,20","2"
"10878","","survey-text","73","675275","0.0-72.0-0.0","A2L2E6J3D23CN4","","","","{""Q0"":""This looks like the scene of a crime.""}","","","","","","","","","","","","","","","","","","","","","","",""
"3651.4000005722046","","image-slider-response","74","678929","0.0-73.0","A2L2E6J3D23CN4","","","","","-16","","","","","","","","","","","","","","","","","","","","","",""
"2822","","image-button-response","75","683933","0.0-74.0","A2L2E6J3D23CN4","img_art/3.jpg","1","","","","","","","","","","","","","","","","","","","","","","","","",""
"827","","image-button-response","76","684763","0.0-75.0","A2L2E6J3D23CN4","img_art/3.jpg","1","","","","","","","","","","","","","","","","","","","","","","","","",""
"1384","","image-button-response","77","686151","0.0-76.0-0.0","A2L2E6J3D23CN4","img_art/3.jpg","4","","","","","","","","","","","","","","","","","","","","","","","","",""
"1544","","image-button-response","78","687698","0.0-77.0-0.0","A2L2E6J3D23CN4","img_art/3.jpg","0","","","","","","","","","","","","","","","","","","","","","","","","",""
"null","","html-keyboard-response","79","689201","0.0-78.0","A2L2E6J3D23CN4","<p style=""font-size: 48px;"">+</p>","","","","","null","allTrialResponses","1500","1","5","img_art/3.jpg","-16","This looks like the scene of a crime.","Nicholas,Michael,Timothy,Bryce,Tyler,Brendan","Too angry and scribbly,-43,240,20","Looks like someone mentalyl unstable drew and is ready to go a a killing spree.,-50,140,20","This makes me feel a bit disturbed,-35,240,20","Scary. Looks like blood.,-45,20,20","This doesn't grab me. Perhaps the red is meant to be provocative; I find it gimmicky.,-9,320,20","i really cant get it,-44,340,20","Michael","Looks like someone mentalyl unstable drew and is ready to go a a killing spree.,-50,140,20","Tyler","This doesn't grab me. Perhaps the red is meant to be provocative; I find it gimmicky.,-9,320,20","Nicholas","Too angry and scribbly,-43,240,20","2"
"3024","","survey-text","80","692239","0.0-79.0-0.0","A2L2E6J3D23CN4","","","","{""Q0"":""sky""}","","","","","","","","","","","","","","","","","","","","","","",""
"16662","","survey-text","81","708904","0.0-80.0-0.0","A2L2E6J3D23CN4","","","","{""Q0"":""This looks like an aerial view of the Earth on a cloudy day""}","","","","","","","","","","","","","","","","","","","","","","",""
"1971.1999998092651","","image-slider-response","82","710878","0.0-81.0","A2L2E6J3D23CN4","","","","","-9","","","","","","","","","","","","","","","","","","","","","",""
"null","","image-button-response","83","715882","0.0-82.0","A2L2E6J3D23CN4","img_art/27.jpg","null","","","","","","","","","","","","","","","","","","","","","","","","",""
"854","","image-button-response","84","716738","0.0-83.0","A2L2E6J3D23CN4","img_art/27.jpg","4","","","","","","","","","","","","","","","","","","","","","","","","",""
"1594","","image-button-response","85","718336","0.0-84.0-0.0","A2L2E6J3D23CN4","img_art/27.jpg","3","","","","","","","","","","","","","","","","","","","","","","","","",""
"1116","","image-button-response","86","719455","0.0-85.0-0.0","A2L2E6J3D23CN4","img_art/27.jpg","0","","","","","","","","","","","","","","","","","","","","","","","","",""
"null","","html-keyboard-response","87","720958","0.0-86.0","A2L2E6J3D23CN4","<p style=""font-size: 48px;"">+</p>","","","","","null","allTrialResponses","1500","1","6","img_art/27.jpg","-9","This looks like an aerial view of the Earth on a cloudy day","Nicholas,Michael,Jeremy,Brandon,Tyler,Chase","I like all it has going but i wouldnt put it in my house unless my child did it,25,240,20","Anyone could do that.,-31,140,20","Pleased. Reminds me of a child drawing,46,60,20","Too abstract, doesn't remind me of anything,-42,320,20","The photographing is horribly distracting. I would feel more favorable toward the original colors/ brightness,1,320,20","I don't really see anything to this art.,-5,120,20","Tyler","The photographing is horribly distracting. I would feel more favorable toward the original colors/ brightness,1,320,20","Brandon","Too abstract, doesn't remind me of anything,-42,320,20","Nicholas","I like all it has going but i wouldnt put it in my house unless my child did it,25,240,20","2"
"10186","","survey-text","88","731149","0.0-87.0-0.0","A2L2E6J3D23CN4","","","","{""Q0"":""A house in the distant. I love the art style.""}","","","","","","","","","","","","","","","","","","","","","","",""
"2516.9000005722046","","image-slider-response","89","733669","0.0-88.0","A2L2E6J3D23CN4","","","","","34","","","","","","","","","","","","","","","","","","","","","",""
"null","","image-button-response","90","738673","0.0-89.0","A2L2E6J3D23CN4","img_art/20.jpg","null","","","","","","","","","","","","","","","","","","","","","","","","",""
"890","","image-button-response","91","739566","0.0-90.0","A2L2E6J3D23CN4","img_art/20.jpg","3","","","","","","","","","","","","","","","","","","","","","","","","",""
"983","","image-button-response","92","740552","0.0-91.0-0.0","A2L2E6J3D23CN4","img_art/20.jpg","4","","","","","","","","","","","","","","","","","","","","","","","","",""
"3187","","image-button-response","93","743743","0.0-92.0-0.0","A2L2E6J3D23CN4","img_art/20.jpg","0","","","","","","","","","","","","","","","","","","","","","","","","",""
"null","","html-keyboard-response","94","744746","0.0-93.0","A2L2E6J3D23CN4","<p style=""font-size: 48px;"">+</p>","","","","","null","allTrialResponses","1000","1","7","img_art/20.jpg","34","A house in the distant. I love the art style.","Nicholas,Brett,Evan,Brandon,Tyler,Kenneth","Use of white on foreground is too big and steals eyes away from rest of painting,2,240,20","City life vs shore life,40,360,20","I feel intrigued and impressed,34,140,20","I like the proportion of the car to the desert city, but too abstract for me,15,320,20","This is not abstract art, it is representative.,0,320,20","I want to like this more, but i wish it was more detailed. It's hard for me to see what it is.,5,300,20","Brandon","I like the proportion of the car to the desert city, but too abstract for me,15,320,20","Tyler","This is not abstract art, it is representative.,0,320,20","Nicholas","Use of white on foreground is too big and steals eyes away from rest of painting,2,240,20","2"
"13095","","survey-text","95","757848","0.0-94.0-0.0","A2L2E6J3D23CN4","","","","{""Q0"":""I hate the use of what appears to be a real teddy bear.""}","","","","","","","","","","","","","","","","","","","","","","",""
"3736.300000190735","","image-slider-response","96","761587","0.0-95.0","A2L2E6J3D23CN4","","","","","-50","","","","","","","","","","","","","","","","","","","","","",""
"4064","","image-button-response","97","766592","0.0-96.0","A2L2E6J3D23CN4","img_art/16.jpg","4","","","","","","","","","","","","","","","","","","","","","","","","",""
"1069","","image-button-response","98","767665","0.0-97.0","A2L2E6J3D23CN4","img_art/16.jpg","4","","","","","","","","","","","","","","","","","","","","","","","","",""
"776","","image-button-response","99","768445","0.0-98.0-0.0","A2L2E6J3D23CN4","img_art/16.jpg","3","","","","","","","","","","","","","","","","","","","","","","","","",""
"837","","image-button-response","100","769286","0.0-99.0-0.0","A2L2E6J3D23CN4","img_art/16.jpg","5","","","","","","","","","","","","","","","","","","","","","","","","",""
"null","","html-keyboard-response","101","770788","0.0-100.0","A2L2E6J3D23CN4","<p style=""font-size: 48px;"">+</p>","","","","","null","allTrialResponses","1500","1","8","img_art/16.jpg","-50","I hate the use of what appears to be a real teddy bear.","Nicholas,Spencer,Adam,Brandon,Tyler,Mason","Creepy teddybear,-50,240,20","Know it is a piece relating to children and gun violence. Sad,-30,120,20","Hard contrast, but no emotions towards any of the objects.,-6,40,20","Don't like this technique. Too serial killer.,-50,320,20","Pop art, Tate Modern horse dung.,-50,320,20","Don't get it. Hate it. ugly.,-44,100,20","Tyler","Pop art, Tate Modern horse dung.,-50,320,20","Brandon","Don't like this technique. Too serial killer.,-50,320,20","Mason","Don't get it. Hate it. ugly.,-44,100,20","2"
"5434","","survey-text","102","776229","0.0-101.0-0.0","A2L2E6J3D23CN4","","","","{""Q0"":""Just a mix of colors""}","","","","","","","","","","","","","","","","","","","","","","",""
"2019.8000001907349","","image-slider-response","103","778251","0.0-102.0","A2L2E6J3D23CN4","","","","","-24","","","","","","","","","","","","","","","","","","","","","",""
"3993","","image-button-response","104","783255","0.0-103.0","A2L2E6J3D23CN4","img_art/1.jpg","4","","","","","","","","","","","","","","","","","","","","","","","","",""
"342","","image-button-response","105","783600","0.0-104.0","A2L2E6J3D23CN4","img_art/1.jpg","4","","","","","","","","","","","","","","","","","","","","","","","","",""
"1374","","image-button-response","106","784977","0.0-105.0-0.0","A2L2E6J3D23CN4","img_art/1.jpg","3","","","","","","","","","","","","","","","","","","","","","","","","",""
"1287","","image-button-response","107","786267","0.0-106.0-0.0","A2L2E6J3D23CN4","img_art/1.jpg","1","","","","","","","","","","","","","","","","","","","","","","","","",""
"null","","html-keyboard-response","108","787270","0.0-107.0","A2L2E6J3D23CN4","<p style=""font-size: 48px;"">+</p>","","","","","null","allTrialResponses","1000","1","9","img_art/1.jpg","-24","Just a mix of colors","Shane,Dustin,Samuel,Brandon,Tyler,Mason","Warmth of the sun,22,80,20","Too messy. Just looks like a mess of dark colors.,-20,20,20","feels like there is meaning,9,400,20","Taco Bell wallpaper. Doesn't really make me feel anything,3,320,20","This looks like the same artist as the first picture, but cropped? Looks incomplete.,28,320,20","just colors mixed together. not interesting.,5,100,20","Tyler","This looks like the same artist as the first picture, but cropped? Looks incomplete.,28,320,20","Brandon","Taco Bell wallpaper. Doesn't really make me feel anything,3,320,20","Dustin","Too messy. Just looks like a mess of dark colors.,-20,20,20","2"
"5946","","survey-text","109","793224","0.0-108.0-0.0","A2L2E6J3D23CN4","","","","{""Q0"":""The wicker man""}","","","","","","","","","","","","","","","","","","","","","","",""
"2968.9000005722046","","image-slider-response","110","796196","0.0-109.0","A2L2E6J3D23CN4","","","","","-21","","","","","","","","","","","","","","","","","","","","","",""
"3115","","image-button-response","111","801200","0.0-110.0","A2L2E6J3D23CN4","img_art/25.jpg","5","","","","","","","","","","","","","","","","","","","","","","","","",""
"658","","image-button-response","112","801861","0.0-111.0","A2L2E6J3D23CN4","img_art/25.jpg","5","","","","","","","","","","","","","","","","","","","","","","","","",""
"691","","image-button-response","113","802555","0.0-112.0-0.0","A2L2E6J3D23CN4","img_art/25.jpg","4","","","","","","","","","","","","","","","","","","","","","","","","",""
"1398","","image-button-response","114","803956","0.0-113.0-0.0","A2L2E6J3D23CN4","img_art/25.jpg","0","","","","","","","","","","","","","","","","","","","","","","","","",""
"null","","html-keyboard-response","115","804458","0.0-114.0","A2L2E6J3D23CN4","<p style=""font-size: 48px;"">+</p>","","","","","null","allTrialResponses","500","1","10","img_art/25.jpg","-21","The wicker man","Derek,Dustin,Matthew,Brandon,Tyler,David","It's really neat and cool looking,20,360,20","Reminds me of ancient civilization art. I like the aqua color; soothing to me.,1,20,20","haunting, a lovely impression.,50,120,20","Reminds me of cave drawings,21,320,20","Meh. Hardly abstract, though.,-40,320,20","Depicts something negative, such as ritual. I'm not a fan.,-10,340,20","David","Depicts something negative, such as ritual. I'm not a fan.,-10,340,20","Tyler","Meh. Hardly abstract, though.,-40,320,20","Derek","It's really neat and cool looking,20,360,20","2"
"2578","","survey-text","116","807050","0.0-115.0-0.0","A2L2E6J3D23CN4","","","","{""Q0"":""our""}","","","","","","","","","","","","","","","","","","","","","","",""
"10352","","survey-text","117","817404","0.0-116.0-0.0","A2L2E6J3D23CN4","","","","{""Q0"":""Two men talking at a bar""}","","","","","","","","","","","","","","","","","","","","","","",""
"3371.199999809265","","image-slider-response","118","820778","0.0-117.0","A2L2E6J3D23CN4","","","","","-5","","","","","","","","","","","","","","","","","","","","","",""
"3846","","image-button-response","119","825782","0.0-118.0","A2L2E6J3D23CN4","img_art/28.jpg","4","","","","","","","","","","","","","","","","","","","","","","","","",""
"1693","","image-button-response","120","827478","0.0-119.0","A2L2E6J3D23CN4","img_art/28.jpg","2","","","","","","","","","","","","","","","","","","","","","","","","",""
"1603","","image-button-response","121","829086","0.0-120.0-0.0","A2L2E6J3D23CN4","img_art/28.jpg","5","","","","","","","","","","","","","","","","","","","","","","","","",""
"787","","image-button-response","122","829877","0.0-121.0-0.0","A2L2E6J3D23CN4","img_art/28.jpg","4","","","","","","","","","","","","","","","","","","","","","","","","",""
"null","","html-keyboard-response","123","830379","0.0-122.0","A2L2E6J3D23CN4","<p style=""font-size: 48px;"">+</p>","","","","","null","allTrialResponses","500","1","11","img_art/28.jpg","-5","Two men talking at a bar","Derek,Luke,Nathan,Dylan,Tyler,David","The colors are dull but there's some kind of nostalgic essence of this painting,15,360,20","no clear colors or meaning to evoke emotions,-15,20,20","I enjoy the color themes, they seem gloomy and mysterious, and content in their own way, which I love.,20,200,20","Boring, looks like it belongs in a coffee shop,-20,40,20","It's okay. There is harmony and balance.,11,320,20","I feel that the image is invoking a sense of negativity.,-15,340,20","Nathan","I enjoy the color themes, they seem gloomy and mysterious, and content in their own way, which I love.,20,200,20","David","I feel that the image is invoking a sense of negativity.,-15,340,20","Tyler","It's okay. There is harmony and balance.,11,320,20","2"
"9907","","survey-text","124","840293","0.0-123.0-0.0","A2L2E6J3D23CN4","","","","{""Q0"":""A city on a bright summer day.""}","","","","","","","","","","","","","","","","","","","","","","",""
"2323.3999996185303","","image-slider-response","125","842619","0.0-124.0","A2L2E6J3D23CN4","","","","","-5","","","","","","","","","","","","","","","","","","","","","",""
"1495","","image-button-response","126","847623","0.0-125.0","A2L2E6J3D23CN4","img_art/19.jpg","5","","","","","","","","","","","","","","","","","","","","","","","","",""
"999","","image-button-response","127","848625","0.0-126.0","A2L2E6J3D23CN4","img_art/19.jpg","2","","","","","","","","","","","","","","","","","","","","","","","","",""
"1117","","image-button-response","128","849746","0.0-127.0-0.0","A2L2E6J3D23CN4","img_art/19.jpg","5","","","","","","","","","","","","","","","","","","","","","","","","",""
"1276","","image-button-response","129","851026","0.0-128.0-0.0","A2L2E6J3D23CN4","img_art/19.jpg","0","","","","","","","","","","","","","","","","","","","","","","","","",""
"null","","html-keyboard-response","130","852529","0.0-129.0","A2L2E6J3D23CN4","<p style=""font-size: 48px;"">+</p>","","","","","null","allTrialResponses","1500","1","12","img_art/19.jpg","-5","A city on a bright summer day.","Daniel,James,Nathan,Austin,Tyler,David","Simple, scratchy lack of negative space.,-10,320,20","I don't know what's going on, and I realise that I don't like it,-21,380,20","It looks like as if it were portraying a village that was polluted? I don't like the theme anyway,-21,200,20","Like the painting strokes,39,240,20","Seems unfinished and sloppy,-11,320,20","The image doesn't really invoke any emotions strongly.,0,340,20","Nathan","It looks like as if it were portraying a village that was polluted? I don't like the theme anyway,-21,200,20","David","The image doesn't really invoke any emotions strongly.,0,340,20","Daniel","Simple, scratchy lack of negative space.,-10,320,20","2"
"16871","","survey-text","131","869406","0.0-130.0-0.0","A2L2E6J3D23CN4","","","","{""Q0"":""Potentially the body of a guitar""}","","","","","","","","","","","","","","","","","","","","","","",""
"2483.5","","image-slider-response","132","871892","0.0-131.0","A2L2E6J3D23CN4","","","","","-2","","","","","","","","","","","","","","","","","","","","","",""
"4808","","image-button-response","133","876896","0.0-132.0","A2L2E6J3D23CN4","img_art/10.jpg","1","","","","","","","","","","","","","","","","","","","","","","","","",""
"500","","image-button-response","134","877398","0.0-133.0","A2L2E6J3D23CN4","img_art/10.jpg","1","","","","","","","","","","","","","","","","","","","","","","","","",""
"582","","image-button-response","135","877983","0.0-134.0-0.0","A2L2E6J3D23CN4","img_art/10.jpg","0","","","","","","","","","","","","","","","","","","","","","","","","",""
"1482","","image-button-response","136","879469","0.0-135.0-0.0","A2L2E6J3D23CN4","img_art/10.jpg","3","","","","","","","","","","","","","","","","","","","","","","","","",""
"null","","html-keyboard-response","137","879971","0.0-136.0","A2L2E6J3D23CN4","<p style=""font-size: 48px;"">+</p>","","","","","null","allTrialResponses","500","1","13","img_art/10.jpg","-2","Potentially the body of a guitar","Daniel,Antonio,Nathan,Richard,Andrew,David","Music visualized with subtle color,17,320,20","This painting made me think of a guitar which made me think of music which envoked happy feelings.,28,220,20","Seems very lovecraftian, which I love that style,25,200,20","interesting portrayal of a violin?,10,340,20","Makes me think of the exhilaration of a roller coaster,31,160,20","I can't really tell what this is suppose to represent, but overall I don't like the design.,-20,340,20","Antonio","This painting made me think of a guitar which made me think of music which envoked happy feelings.,28,220,20","Daniel","Music visualized with subtle color,17,320,20","Richard","interesting portrayal of a violin?,10,340,20","2"
"8468","","survey-text","138","888446","0.0-137.0-0.0","A2L2E6J3D23CN4","","","","{""Q0"":""A hand that lacks control""}","","","","","","","","","","","","","","","","","","","","","","",""
"2811.8999996185303","","image-slider-response","139","891261","0.0-138.0","A2L2E6J3D23CN4","","","","","4","","","","","","","","","","","","","","","","","","","","","",""
"null","","image-button-response","140","896266","0.0-139.0","A2L2E6J3D23CN4","img_art/4.jpg","null","","","","","","","","","","","","","","","","","","","","","","","","",""
"254","","image-button-response","141","896524","0.0-140.0","A2L2E6J3D23CN4","img_art/4.jpg","2","","","","","","","","","","","","","","","","","","","","","","","","",""
"1581","","image-button-response","142","898108","0.0-141.0-0.0","A2L2E6J3D23CN4","img_art/4.jpg","5","","","","","","","","","","","","","","","","","","","","","","","","",""
"2687","","image-button-response","143","900799","0.0-142.0-0.0","A2L2E6J3D23CN4","img_art/4.jpg","4","","","","","","","","","","","","","","","","","","","","","","","","",""
"null","","html-keyboard-response","144","902301","0.0-143.0","A2L2E6J3D23CN4","<p style=""font-size: 48px;"">+</p>","","","","","null","allTrialResponses","1500","1","14","img_art/4.jpg","4","A hand that lacks control","Daniel,Antonio,Jack,Richard,Juan,Malik","Better version of a 7 year old who got lucky,-23,320,20","Blah feeling, nothing,-8,220,20","creepy, looks like a deformed hand, but the background is pretty,5,320,20","too childish, not really art in my world,-50,340,20","Again, this is too abstract and I really don't like the colors.,-21,260,20","Reminds me of late night frustrated paintings of my own made of coffee,12,40,20","Jack","creepy, looks like a deformed hand, but the background is pretty,5,320,20","Malik","Reminds me of late night frustrated paintings of my own made of coffee,12,40,20","Juan","Again, this is too abstract and I really don't like the colors.,-21,260,20","2"
"7931","","survey-text","145","910240","0.0-144.0-0.0","A2L2E6J3D23CN4","","","","{""Q0"":""Greek gods in chaos""}","","","","","","","","","","","","","","","","","","","","","","",""
"1678.4000005722046","","image-slider-response","146","911920","0.0-145.0","A2L2E6J3D23CN4","","","","","3","","","","","","","","","","","","","","","","","","","","","",""
"3932","","image-button-response","147","916924","0.0-146.0","A2L2E6J3D23CN4","img_art/18.jpg","2","","","","","","","","","","","","","","","","","","","","","","","","",""
"586","","image-button-response","148","917513","0.0-147.0","A2L2E6J3D23CN4","img_art/18.jpg","2","","","","","","","","","","","","","","","","","","","","","","","","",""
"1215","","image-button-response","149","918730","0.0-148.0-0.0","A2L2E6J3D23CN4","img_art/18.jpg","5","","","","","","","","","","","","","","","","","","","","","","","","",""
"1763","","image-button-response","150","920496","0.0-149.0-0.0","A2L2E6J3D23CN4","img_art/18.jpg","0","","","","","","","","","","","","","","","","","","","","","","","","",""
"null","","html-keyboard-response","151","921498","0.0-150.0","A2L2E6J3D23CN4","<p style=""font-size: 48px;"">+</p>","","","","","null","allTrialResponses","1000","1","15","img_art/18.jpg","3","Greek gods in chaos","Jorge,Kyle,Jack,Jake,Juan,Malik","Imaginative, makes me feel creative.,42,180,20","I feel indifferent about this one,0,340,20","hauntingly beautiful. more things revealed the longer you look. love the spirit-like figure in the top left.,47,320,20","It looks grotesque and violent.,-50,360,20","Again, this is too abtract.,-25,260,20","Gently chaotic and beautiful,40,40,20","Jack","hauntingly beautiful. more things revealed the longer you look. love the spirit-like figure in the top left.,47,320,20","Malik","Gently chaotic and beautiful,40,40,20","Jorge","Imaginative, makes me feel creative.,42,180,20","2"
"3261","","survey-text","152","924772","0.0-151.0-0.0","A2L2E6J3D23CN4","","","","{""Q0"":""course""}","","","","","","","","","","","","","","","","","","","","","","",""
"7137","","survey-text","153","931911","0.0-152.0-0.0","A2L2E6J3D23CN4","","","","{""Q0"":""The bloody sky""}","","","","","","","","","","","","","","","","","","","","","","",""
"2018.6999998092651","","image-slider-response","154","933932","0.0-153.0","A2L2E6J3D23CN4","","","","","-14","","","","","","","","","","","","","","","","","","","","","",""
"null","","image-button-response","155","938935","0.0-154.0","A2L2E6J3D23CN4","img_art/21.jpg","null","","","","","","","","","","","","","","","","","","","","","","","","",""
"1608","","image-button-response","156","940547","0.0-155.0","A2L2E6J3D23CN4","img_art/21.jpg","2","","","","","","","","","","","","","","","","","","","","","","","","",""
"1397","","image-button-response","157","941948","0.0-156.0-0.0","A2L2E6J3D23CN4","img_art/21.jpg","3","","","","","","","","","","","","","","","","","","","","","","","","",""
"472","","image-button-response","158","942423","0.0-157.0-0.0","A2L2E6J3D23CN4","img_art/21.jpg","4","","","","","","","","","","","","","","","","","","","","","","","","",""
"null","","html-keyboard-response","159","943925","0.0-158.0","A2L2E6J3D23CN4","<p style=""font-size: 48px;"">+</p>","","","","","null","allTrialResponses","1500","1","16","img_art/21.jpg","-14","The bloody sky","Jorge,Taylor,Jack,Joseph,Jordan,Malik","mythical between good and evil,16,180,20","Remove the rocks(?) on the lower right.,5,200,20","beautiful. reminds me of a storm brewing over sea. i love the white dots.,45,320,20","I like that it reminds me of an abstract version of a Bob Ross painting.,36,220,20","Beautiful colors, remind me of my yoga studio,50,160,20","Indistinct, but beautiful hues,10,40,20","Jack","beautiful. reminds me of a storm brewing over sea. i love the white dots.,45,320,20","Joseph","I like that it reminds me of an abstract version of a Bob Ross painting.,36,220,20","Jordan","Beautiful colors, remind me of my yoga studio,50,160,20","2"
"10525","","survey-text","160","954458","0.0-159.0-0.0","A2L2E6J3D23CN4","","","","{""Q0"":""Very childish. I think a literal child made it.""}","","","","","","","","","","","","","","","","","","","","","","",""
"2335.5","","image-slider-response","161","956798","0.0-160.0","A2L2E6J3D23CN4","","","","","-42","","","","","","","","","","","","","","","","","","","","","",""
"4125","","image-button-response","162","961802","0.0-161.0","A2L2E6J3D23CN4","img_art/14.jpg","3","","","","","","","","","","","","","","","","","","","","","","","","",""
"669","","image-button-response","163","962475","0.0-162.0","A2L2E6J3D23CN4","img_art/14.jpg","4","","","","","","","","","","","","","","","","","","","","","","","","",""
"557","","image-button-response","164","963035","0.0-163.0-0.0","A2L2E6J3D23CN4","img_art/14.jpg","3","","","","","","","","","","","","","","","","","","","","","","","","",""
"446","","image-button-response","165","963485","0.0-164.0-0.0","A2L2E6J3D23CN4","img_art/14.jpg","5","","","","","","","","","","","","","","","","","","","","","","","","",""
"null","","html-keyboard-response","166","964487","0.0-165.0","A2L2E6J3D23CN4","<p style=""font-size: 48px;"">+</p>","","","","","null","allTrialResponses","1000","1","17","img_art/14.jpg","-42","Very childish. I think a literal child made it.","Gabriel,Jesus,Jack,Joseph,Jordan,Bradley","i like this one!,23,160,20","I like the combination of colors and textures.,35,100,20","love the colors. despite their brightness it seems sad somehow.,41,320,20","I like that it looks like plants on a table, which reminds me of life.,4,220,20","Reminds me of art class,22,160,20","I don't know why, but this piece makes me happy.,20,300,20","Jordan","Reminds me of art class,22,160,20","Joseph","I like that it looks like plants on a table, which reminds me of life.,4,220,20","Bradley","I don't know why, but this piece makes me happy.,20,300,20","2"
"9661","","survey-text","167","974156","0.0-166.0-0.0","A2L2E6J3D23CN4","","","","{""Q0"":""A mouth in distress""}","","","","","","","","","","","","","","","","","","","","","","",""
"1909.9000005722046","","image-slider-response","168","976069","0.0-167.0","A2L2E6J3D23CN4","","","","","-12","","","","","","","","","","","","","","","","","","","","","",""
"null","","image-button-response","169","981071","0.0-168.0","A2L2E6J3D23CN4","img_art/9.jpg","null","","","","","","","","","","","","","","","","","","","","","","","","",""
"121343","","image-button-response","170","1102419","0.0-169.0","A2L2E6J3D23CN4","img_art/9.jpg","4","","","","","","","","","","","","","","","","","","","","","","","","",""
"667","","image-button-response","171","1103090","0.0-170.0-0.0","A2L2E6J3D23CN4","img_art/9.jpg","5","","","","","","","","","","","","","","","","","","","","","","","","",""
"1154","","image-button-response","172","1104247","0.0-171.0-0.0","A2L2E6J3D23CN4","img_art/9.jpg","2","","","","","","","","","","","","","","","","","","","","","","","","",""
"null","","html-keyboard-response","173","1105250","0.0-172.0","A2L2E6J3D23CN4","<p style=""font-size: 48px;"">+</p>","","","","","null","allTrialResponses","1000","1","18","img_art/9.jpg","-12","A mouth in distress","Dakota,Brian,Jacob,Joseph,Jordan,Bradley","autopsy, morgue, dead corpses - don't like the flesh tones,-43,280,20","I don't like the framing of this one,-25,380,20","So I don't really like this style but it looks somewhat okay,3,340,20","It's nice. Peaceful. Calming.,11,220,20","Reminds me of a cave in a scary movie,-21,160,20","Yikes. I'm not sure what to make of this one.,-14,300,20","Jordan","Reminds me of a cave in a scary movie,-21,160,20","Bradley","Yikes. I'm not sure what to make of this one.,-14,300,20","Jacob","So I don't really like this style but it looks somewhat okay,3,340,20","2"
"8102","","survey-text","174","1113359","0.0-173.0-0.0","A2L2E6J3D23CN4","","","","{""Q0"":""A man sitting at a bar. It feels nice""}","","","","","","","","","","","","","","","","","","","","","","",""
"2860.7999992370605","","image-slider-response","175","1116223","0.0-174.0","A2L2E6J3D23CN4","","","","","37","","","","","","","","","","","","","","","","","","","","","",""
"4067","","image-button-response","176","1121226","0.0-175.0","A2L2E6J3D23CN4","img_art/2.jpg","0","","","","","","","","","","","","","","","","","","","","","","","","",""
"476","","image-button-response","177","1121705","0.0-176.0","A2L2E6J3D23CN4","img_art/2.jpg","2","","","","","","","","","","","","","","","","","","","","","","","","",""
"972","","image-button-response","178","1122680","0.0-177.0-0.0","A2L2E6J3D23CN4","img_art/2.jpg","0","","","","","","","","","","","","","","","","","","","","","","","","",""
"1056","","image-button-response","179","1123739","0.0-178.0-0.0","A2L2E6J3D23CN4","img_art/2.jpg","3","","","","","","","","","","","","","","","","","","","","","","","","",""
"null","","html-keyboard-response","180","1124741","0.0-179.0","A2L2E6J3D23CN4","<p style=""font-size: 48px;"">+</p>","","","","","null","allTrialResponses","1000","1","19","img_art/2.jpg","37","A man sitting at a bar. It feels nice","Jose,Hunter,Jacob,Garrett,Jordan,Bradley","The color combo is kind of ugly but there's something charming about it still,17,200,20","appealing colors,4,240,20","I don't get the meaning of this piece either.,-13,340,20","I like this picture a little because the colors make it look a little vibrant.,10,180,20","Reminds me of my baby brother,11,160,20","I'm not fond of the colors in this one.,-33,300,20","Jacob","I don't get the meaning of this piece either.,-13,340,20","Jose","The color combo is kind of ugly but there's something charming about it still,17,200,20","Garrett","I like this picture a little because the colors make it look a little vibrant.,10,180,20","2"
"13524","","survey-text","181","1138273","0.0-180.0-0.0","A2L2E6J3D23CN4","","","","{""Q0"":""A wonderful use of colors in a stream or waterfall. Well done!""}","","","","","","","","","","","","","","","","","","","","","","",""
"4481","","image-slider-response","182","1142757","0.0-181.0","A2L2E6J3D23CN4","","","","","50","","","","","","","","","","","","","","","","","","","","","",""
"4857","","image-button-response","183","1147761","0.0-182.0","A2L2E6J3D23CN4","img_art/24.jpg","2","","","","","","","","","","","","","","","","","","","","","","","","",""
"732","","image-button-response","184","1148495","0.0-183.0","A2L2E6J3D23CN4","img_art/24.jpg","2","","","","","","","","","","","","","","","","","","","","","","","","",""
"825","","image-button-response","185","1149323","0.0-184.0-0.0","A2L2E6J3D23CN4","img_art/24.jpg","0","","","","","","","","","","","","","","","","","","","","","","","","",""
"1640","","image-button-response","186","1150967","0.0-185.0-0.0","A2L2E6J3D23CN4","img_art/24.jpg","3","","","","","","","","","","","","","","","","","","","","","","","","",""
"null","","html-keyboard-response","187","1152469","0.0-186.0","A2L2E6J3D23CN4","<p style=""font-size: 48px;"">+</p>","","","","","null","allTrialResponses","1500","1","20","img_art/24.jpg","50","A wonderful use of colors in a stream or waterfall. Well done!","Jose,Patrick,Jacob,Garrett,Isaiah,Christopher","The combination of nature / realism with abstract colors is unique.,39,200,20","Beautiful scenic drawing with perfect color coordination,43,280,20","Vibrant, beautiful depiction.,50,340,20","I like the way the colors are put together, and I can imagine this picture in real life.,40,180,20","I feel relaxed and happy, looking at the stream, but it feels hollow, like something is fake.,5,300,20","it's fine, the colors are pleasing, but not my taste,9,160,20","Jacob","Vibrant, beautiful depiction.,50,340,20","Jose","The combination of nature / realism with abstract colors is unique.,39,200,20","Garrett","I like the way the colors are put together, and I can imagine this picture in real life.,40,180,20","2"
"2614","","survey-text","188","1155096","0.0-187.0-0.0","A2L2E6J3D23CN4","","","","{""Q0"":""we""}","","","","","","","","","","","","","","","","","","","","","","",""
"11913","","survey-text","189","1167012","0.0-188.0-0.0","A2L2E6J3D23CN4","","","","{""Q0"":""White lines among colored dots. I don't feel anything""}","","","","","","","","","","","","","","","","","","","","","","",""
"2568.2999992370605","","image-slider-response","190","1169583","0.0-189.0","A2L2E6J3D23CN4","","","","","-1","","","","","","","","","","","","","","","","","","","","","",""
"2274","","image-button-response","191","1174586","0.0-190.0","A2L2E6J3D23CN4","img_art/23.jpg","0","","","","","","","","","","","","","","","","","","","","","","","","",""
"1048","","image-button-response","192","1175637","0.0-191.0","A2L2E6J3D23CN4","img_art/23.jpg","0","","","","","","","","","","","","","","","","","","","","","","","","",""
"1214","","image-button-response","193","1176855","0.0-192.0-0.0","A2L2E6J3D23CN4","img_art/23.jpg","4","","","","","","","","","","","","","","","","","","","","","","","","",""
"509","","image-button-response","194","1177368","0.0-193.0-0.0","A2L2E6J3D23CN4","img_art/23.jpg","5","","","","","","","","","","","","","","","","","","","","","","","","",""
"null","","html-keyboard-response","195","1178870","0.0-194.0","A2L2E6J3D23CN4","<p style=""font-size: 48px;"">+</p>","","","","","null","allTrialResponses","1500","1","21","img_art/23.jpg","-1","White lines among colored dots. I don't feel anything","Jose,Sean,Jacob,Garrett,Mitchell,Noah","This one is awesome, kinda looks like a cake with sprinkles but in a different universe,50,200,20","so much detail .,31,40,20","This is very cool!,24,340,20","I really like the way all the colors look, I think this is a pretty picture.,40,180,20","Partying, dancing, delusion, kaus.,10,180,20","the pattern of colours imbues in me a sense of infinity, which I find soothing,10,260,20","Jose","This one is awesome, kinda looks like a cake with sprinkles but in a different universe,50,200,20","Mitchell","Partying, dancing, delusion, kaus.,10,180,20","Noah","the pattern of colours imbues in me a sense of infinity, which I find soothing,10,260,20","2"
"10463","","survey-text","196","1189341","0.0-195.0-0.0","A2L2E6J3D23CN4","","","","{""Q0"":""A park in the city. Very relaxing.""}","","","","","","","","","","","","","","","","","","","","","","",""
"2396.2000007629395","","image-slider-response","197","1191740","0.0-196.0","A2L2E6J3D23CN4","","","","","29","","","","","","","","","","","","","","","","","","","","","",""
"2312","","image-button-response","198","1196743","0.0-197.0","A2L2E6J3D23CN4","img_art/26.jpg","0","","","","","","","","","","","","","","","","","","","","","","","","",""
"476","","image-button-response","199","1197223","0.0-198.0","A2L2E6J3D23CN4","img_art/26.jpg","0","","","","","","","","","","","","","","","","","","","","","","","","",""
"1873","","image-button-response","200","1199098","0.0-199.0-0.0","A2L2E6J3D23CN4","img_art/26.jpg","2","","","","","","","","","","","","","","","","","","","","","","","","",""
"1032","","image-button-response","201","1200134","0.0-200.0-0.0","A2L2E6J3D23CN4","img_art/26.jpg","5","","","","","","","","","","","","","","","","","","","","","","","","",""
"null","","html-keyboard-response","202","1200636","0.0-201.0","A2L2E6J3D23CN4","<p style=""font-size: 48px;"">+</p>","","","","","null","allTrialResponses","500","1","22","img_art/26.jpg","29","A park in the city. Very relaxing.","Jose,William,Devon,Devin,Mitchell,Noah","This style of objects that are supposed to be something but then are blurry is interesting.,38,200,20","feels a tad old,30,380,20","i can feel the warmth,12,400,20","I like the shapes but needs more detail i think,3,380,20","Incomplete, The artist painted his impression of somthing he was thinking of,0,180,20","fairly neutral, really,8,260,20","Jose","This style of objects that are supposed to be something but then are blurry is interesting.,38,200,20","Devon","i can feel the warmth,12,400,20","Noah","fairly neutral, really,8,260,20","2"
"12001","","survey-text","203","1212644","0.0-202.0-0.0","A2L2E6J3D23CN4","","","","{""Q0"":""Trees in bloom. Interesting use of black.""}","","","","","","","","","","","","","","","","","","","","","","",""
"2701.199999809265","","image-slider-response","204","1215348","0.0-203.0","A2L2E6J3D23CN4","","","","","9","","","","","","","","","","","","","","","","","","","","","",""
"3384","","image-button-response","205","1220352","0.0-204.0","A2L2E6J3D23CN4","img_art/15.jpg","1","","","","","","","","","","","","","","","","","","","","","","","","",""
"756","","image-button-response","206","1221111","0.0-205.0","A2L2E6J3D23CN4","img_art/15.jpg","2","","","","","","","","","","","","","","","","","","","","","","","","",""
"705","","image-button-response","207","1221819","0.0-206.0-0.0","A2L2E6J3D23CN4","img_art/15.jpg","1","","","","","","","","","","","","","","","","","","","","","","","","",""
"1056","","image-button-response","208","1222879","0.0-207.0-0.0","A2L2E6J3D23CN4","img_art/15.jpg","5","","","","","","","","","","","","","","","","","","","","","","","","",""
"null","","html-keyboard-response","209","1223881","0.0-208.0","A2L2E6J3D23CN4","<p style=""font-size: 48px;"">+</p>","","","","","null","allTrialResponses","1000","1","23","img_art/15.jpg","9","Trees in bloom. Interesting use of black.","Jose,Cameron,Devon,Luis,Robert,Noah","black dots too ant-like,-25,200,20","This one reminds me of a postage stamp, but branches and leaves. Kind of fun.,15,60,20","This one seems a bit frightening,-19,400,20","Extreme darkness and sadness,-30,400,20","This piece is too dark,-42,360,20","i enjoy its apaprent simplicity (of colour and shape),32,260,20","Devon","This one seems a bit frightening,-19,400,20","Cameron","This one reminds me of a postage stamp, but branches and leaves. Kind of fun.,15,60,20","Noah","i enjoy its apaprent simplicity (of colour and shape),32,260,20","2"
"13473","","survey-text","210","1237363","0.0-209.0-0.0","A2L2E6J3D23CN4","","","","{""Q0"":""Just a splash of paint here and there. The color gradient is nice.""}","","","","","","","","","","","","","","","","","","","","","","",""
"2517.8999996185303","","image-slider-response","211","1239884","0.0-210.0","A2L2E6J3D23CN4","","","","","27","","","","","","","","","","","","","","","","","","","","","",""
"1483","","image-button-response","212","1244887","0.0-211.0","A2L2E6J3D23CN4","img_art/13.jpg","4","","","","","","","","","","","","","","","","","","","","","","","","",""
"756","","image-button-response","213","1245647","0.0-212.0","A2L2E6J3D23CN4","img_art/13.jpg","4","","","","","","","","","","","","","","","","","","","","","","","","",""
"789","","image-button-response","214","1246439","0.0-213.0-0.0","A2L2E6J3D23CN4","img_art/13.jpg","5","","","","","","","","","","","","","","","","","","","","","","","","",""
"1031","","image-button-response","215","1247475","0.0-214.0-0.0","A2L2E6J3D23CN4","img_art/13.jpg","2","","","","","","","","","","","","","","","","","","","","","","","","",""
"null","","html-keyboard-response","216","1248477","0.0-215.0","A2L2E6J3D23CN4","<p style=""font-size: 48px;"">+</p>","","","","","null","allTrialResponses","1000","1","24","img_art/13.jpg","27","Just a splash of paint here and there. The color gradient is nice.","Blake,Cameron,Devon,Cody,Victor,Noah","warm splash of salt water from ocean,16,280,20","Like the use of color, not a fan of the splatter,29,60,20","I like this picture. The choice of colors are good,31,400,20","It's pretty ...........,41,180,20","Great color balance. I like the splatter, and how the vertical lines go from sharper to more blended.,31,340,20","evokes a dampening feeling,-9,260,20","Victor","Great color balance. I like the splatter, and how the vertical lines go from sharper to more blended.,31,340,20","Noah","evokes a dampening feeling,-9,260,20","Devon","I like this picture. The choice of colors are good,31,400,20","2"
"9381","","survey-text","217","1257866","0.0-216.0-0.0","A2L2E6J3D23CN4","","","","{""Q0"":""Just a mess of lines. I like the colors""}","","","","","","","","","","","","","","","","","","","","","","",""
"3421.5","","image-slider-response","218","1261290","0.0-217.0","A2L2E6J3D23CN4","","","","","14","","","","","","","","","","","","","","","","","","","","","",""
"1617","","image-button-response","219","1266294","0.0-218.0","A2L2E6J3D23CN4","img_art/30.jpg","3","","","","","","","","","","","","","","","","","","","","","","","","",""
"499","","image-button-response","220","1266796","0.0-219.0","A2L2E6J3D23CN4","img_art/30.jpg","2","","","","","","","","","","","","","","","","","","","","","","","","",""
"1674","","image-button-response","221","1268478","0.0-220.0-0.0","A2L2E6J3D23CN4","img_art/30.jpg","1","","","","","","","","","","","","","","","","","","","","","","","","",""
"1190","","image-button-response","222","1269672","0.0-221.0-0.0","A2L2E6J3D23CN4","img_art/30.jpg","5","","","","","","","","","","","","","","","","","","","","","","","","",""
"null","","html-keyboard-response","223","1271174","0.0-222.0","A2L2E6J3D23CN4","<p style=""font-size: 48px;"">+</p>","","","","","null","allTrialResponses","1500","1","25","img_art/30.jpg","14","Just a mess of lines. I like the colors","Bryan,Joshua,Devon,Logan,Victor,Noah","A little too dull. Would've liked brighter colors. Also looks washed out.,1,400,20","It's just all right.,5,240,20","the different roads to take in life,10,400,20","literally stupid I made this with as seen on tv products when I was 7,-42,360,20","I just don't see the point of this piece,-11,340,20","uplifted and yet calmed,15,260,20","Devon","the different roads to take in life,10,400,20","Joshua","It's just all right.,5,240,20","Noah","uplifted and yet calmed,15,260,20","2"
"3245","","survey-text","224","1274434","0.0-223.0-0.0","A2L2E6J3D23CN4","","","","{""Q0"":""table""}","","","","","","","","","","","","","","","","","","","","","","",""
"12474","","survey-text","225","1286911","0.0-224.0-0.0","A2L2E6J3D23CN4","","","","{""Q0"":""Very well done. I'm not sure what it is, but it took a while to create.""}","","","","","","","","","","","","","","","","","","","","","","",""
"2396.3999996185303","","image-slider-response","226","1289310","0.0-225.0","A2L2E6J3D23CN4","","","","","10","","","","","","","","","","","","","","","","","","","","","",""
"null","","image-button-response","227","1294313","0.0-226.0","A2L2E6J3D23CN4","img_art/17.jpg","null","","","","","","","","","","","","","","","","","","","","","","","","",""
"355","","image-button-response","228","1294670","0.0-227.0","A2L2E6J3D23CN4","img_art/17.jpg","4","","","","","","","","","","","","","","","","","","","","","","","","",""
"911","","image-button-response","229","1295585","0.0-228.0-0.0","A2L2E6J3D23CN4","img_art/17.jpg","3","","","","","","","","","","","","","","","","","","","","","","","","",""
"458","","image-button-response","230","1296048","0.0-229.0-0.0","A2L2E6J3D23CN4","img_art/17.jpg","5","","","","","","","","","","","","","","","","","","","","","","","","",""
"null","","html-keyboard-response","231","1297050","0.0-230.0","A2L2E6J3D23CN4","<p style=""font-size: 48px;"">+</p>","","","","","null","allTrialResponses","1000","1","26","img_art/17.jpg","10","Very well done. I'm not sure what it is, but it took a while to create.","Charles,Joshua,Devon,John,Angel,Noah","I like the trees, but the doors less so,19,100,20","Looks like an abandoned building that is being overtaken by nature.,-10,240,20","i feel some sadness in this picture,25,400,20","It gorgeous and i love how the tree is almost 3 dimensional.So many elements to it.,50,120,20","Reminds me of the modern art museum in Rome. I didn't ""get"" many pieces, but had a positive cultural experience overall.,20,180,20","feel close to nature,30,260,20","Angel","Reminds me of the modern art museum in Rome. I didn't ""get"" many pieces, but had a positive cultural experience overall.,20,180,20","John","It gorgeous and i love how the tree is almost 3 dimensional.So many elements to it.,50,120,20","Noah","feel close to nature,30,260,20","2"
"7856","","survey-text","232","1304916","0.0-231.0-0.0","A2L2E6J3D23CN4","","","","{""Q0"":""A city in boom""}","","","","","","","","","","","","","","","","","","","","","","",""
"2044.6000003814697","","image-slider-response","233","1306963","0.0-232.0","A2L2E6J3D23CN4","","","","","5","","","","","","","","","","","","","","","","","","","","","",""
"1911","","image-button-response","234","1311967","0.0-233.0","A2L2E6J3D23CN4","img_art/11.jpg","5","","","","","","","","","","","","","","","","","","","","","","","","",""
"379","","image-button-response","235","1312349","0.0-234.0","A2L2E6J3D23CN4","img_art/11.jpg","0","","","","","","","","","","","","","","","","","","","","","","","","",""
"642","","image-button-response","236","1312994","0.0-235.0-0.0","A2L2E6J3D23CN4","img_art/11.jpg","2","","","","","","","","","","","","","","","","","","","","","","","","",""
"1214","","image-button-response","237","1314212","0.0-236.0-0.0","A2L2E6J3D23CN4","img_art/11.jpg","5","","","","","","","","","","","","","","","","","","","","","","","","",""
"null","","html-keyboard-response","238","1315214","0.0-237.0","A2L2E6J3D23CN4","<p style=""font-size: 48px;"">+</p>","","","","","null","allTrialResponses","1000","1","27","img_art/11.jpg","5","A city in boom","Connor,Miguel,Peter,John,Angel,Noah","Frank Lloyd Wright, music,24,240,20","Good but not eye catching,14,160,20","Smoggy, oily, industrial. Don't like,1,320,20","Its interesting.,20,120,20","This is disorienting, like motion sickness.,-20,180,20","I enjoy the kandinsky-like general vibe, but the grey brings me down a bit,27,260,20","Connor","Frank Lloyd Wright, music,24,240,20","Peter","Smoggy, oily, industrial. Don't like,1,320,20","Noah","I enjoy the kandinsky-like general vibe, but the grey brings me down a bit,27,260,20","2"
"12402","","survey-text","239","1327625","0.0-238.0-0.0","A2L2E6J3D23CN4","","","","{""Q0"":""A roman city in peril as a god looks on.""}","","","","","","","","","","","","","","","","","","","","","","",""
"2433.800000190735","","image-slider-response","240","1330061","0.0-239.0","A2L2E6J3D23CN4","","","","","18","","","","","","","","","","","","","","","","","","","","","",""
"4835","","image-button-response","241","1335065","0.0-240.0","A2L2E6J3D23CN4","img_art/8.jpg","4","","","","","","","","","","","","","","","","","","","","","","","","",""
"719","","image-button-response","242","1335787","0.0-241.0","A2L2E6J3D23CN4","img_art/8.jpg","4","","","","","","","","","","","","","","","","","","","","","","","","",""
"1071","","image-button-response","243","1336861","0.0-242.0-0.0","A2L2E6J3D23CN4","img_art/8.jpg","0","","","","","","","","","","","","","","","","","","","","","","","","",""
"726","","image-button-response","244","1337591","0.0-243.0-0.0","A2L2E6J3D23CN4","img_art/8.jpg","2","","","","","","","","","","","","","","","","","","","","","","","","",""
"null","","html-keyboard-response","245","1338094","0.0-244.0","A2L2E6J3D23CN4","<p style=""font-size: 48px;"">+</p>","","","","","null","allTrialResponses","500","1","28","img_art/8.jpg","18","A roman city in peril as a god looks on.","Connor,Ryan,Peter,Cole,Seth,Noah","Lots of depth, faces, city, arch,3,240,20","I love architectural paintings,46,380,20","I see water and structures that resemble Ancient Rome,15,320,20","Its abstract and interesting,24,200,20","I don't care for the piece, but I appreciate the talent that it took to create it.,22,60,20","not sure what to make of this - just neutral again,-1,260,20","Seth","I don't care for the piece, but I appreciate the talent that it took to create it.,22,60,20","Connor","Lots of depth, faces, city, arch,3,240,20","Peter","I see water and structures that resemble Ancient Rome,15,320,20","2"
"14109","","survey-text","246","1352213","0.0-245.0-0.0","A2L2E6J3D23CN4","","","","{""Q0"":""What an artists paint set looks like at the end of a day""}","","","","","","","","","","","","","","","","","","","","","","",""
"1897.0999994277954","","image-slider-response","247","1354113","0.0-246.0","A2L2E6J3D23CN4","","","","","5","","","","","","","","","","","","","","","","","","","","","",""
"2629","","image-button-response","248","1359116","0.0-247.0","A2L2E6J3D23CN4","img_art/29.jpg","5","","","","","","","","","","","","","","","","","","","","","","","","",""
"758","","image-button-response","249","1359877","0.0-248.0","A2L2E6J3D23CN4","img_art/29.jpg","5","","","","","","","","","","","","","","","","","","","","","","","","",""
"801","","image-button-response","250","1360680","0.0-249.0-0.0","A2L2E6J3D23CN4","img_art/29.jpg","3","","","","","","","","","","","","","","","","","","","","","","","","",""
"1497","","image-button-response","251","1362180","0.0-250.0-0.0","A2L2E6J3D23CN4","img_art/29.jpg","1","","","","","","","","","","","","","","","","","","","","","","","","",""
"null","","html-keyboard-response","252","1362683","0.0-251.0","A2L2E6J3D23CN4","<p style=""font-size: 48px;"">+</p>","","","","","null","allTrialResponses","500","1","29","img_art/29.jpg","5","What an artists paint set looks like at the end of a day","Connor,Paul,Peter,Tanner,Seth,Stephen","Red X is scary, like the bricks,7,240,20","There's too much black and it looks sloppy,-35,300,20","Looks like a jail cell,-15,320,20","danger, crime scene,,10,180,20","I rated it lower because it looked like a crime scene. It didn't make me feel good.,-44,60,20","Really enjoy everything about this one.,50,140,20","Stephen","Really enjoy everything about this one.,50,140,20","Tanner","danger, crime scene,,10,180,20","Paul","There's too much black and it looks sloppy,-35,300,20","2"
"8548","","survey-text","253","1371241","0.0-252.0-0.0","A2L2E6J3D23CN4","","","","{""Q0"":""I don't understand this one""}","","","","","","","","","","","","","","","","","","","","","","",""
"2274.5999994277954","","image-slider-response","254","1373519","0.0-253.0","A2L2E6J3D23CN4","","","","","-20","","","","","","","","","","","","","","","","","","","","","",""
"null","","image-button-response","255","1378522","0.0-254.0","A2L2E6J3D23CN4","img_art/22.jpg","null","","","","","","","","","","","","","","","","","","","","","","","","",""
"549","","image-button-response","256","1379074","0.0-255.0","A2L2E6J3D23CN4","img_art/22.jpg","1","","","","","","","","","","","","","","","","","","","","","","","","",""
"520","","image-button-response","257","1379598","0.0-256.0-0.0","A2L2E6J3D23CN4","img_art/22.jpg","0","","","","","","","","","","","","","","","","","","","","","","","","",""
"507","","image-button-response","258","1380109","0.0-257.0-0.0","A2L2E6J3D23CN4","img_art/22.jpg","2","","","","","","","","","","","","","","","","","","","","","","","","",""
"null","","html-keyboard-response","259","1380611","0.0-258.0","A2L2E6J3D23CN4","<p style=""font-size: 48px;"">+</p>","","","","","null","allTrialResponses","500","1","30","img_art/22.jpg","-20","I don't understand this one","Anthony,Paul,Jeffrey,Tanner,Caleb,Stephen","Colors are subdued yet vibrant,30,200,20","I really like the bright colors and sunset feel,31,300,20","Picture is very relaxing,32,40,20","fire, danger, resentful,-17,180,20","Seems too simple.,-19,40,20","Didn't illicit any reaction,1,140,20","Paul","I really like the bright colors and sunset feel,31,300,20","Anthony","Colors are subdued yet vibrant,30,200,20","Jeffrey","Picture is very relaxing,32,40,20","2"
"3738","","image-button-response_instructions","260","1384360","0.0-259.0","A2L2E6J3D23CN4","","0","instructions","","","","","","","","","","","","","","","","","","","","","","","",""
"1259","","image-button-response","261","1385628","0.0-260.0","A2L2E6J3D23CN4","","0","","","","","","","","","","","","","","","","","","","","","","","","",""
