"rt","url","trial_type","trial_index","time_elapsed","internal_node_id","participant_id","stimulus","button_pressed","Name","responses","response","key_press","variableName","fixationTime","condition","trial","photo","subjectRating","subjectResponse","agentsNames","agent_1_Response","agent_2_Response","agent_3_Response","agent_4_Response","agent_5_Response","agent_6_Response","kept_1_name","kept_1_response","kept_2_name","kept_2_response","kept_3_name","kept_3_response","errorCounter"
"28898","external_page_harvard.html","external-html","0","29032","0.0-0.0","A2LDDDJ4WBKB8Y","","","","","","","","","","","","","","","","","","","","","","","","","","",""
"1328","","image-button-response","1","30363","0.0-1.0","A2LDDDJ4WBKB8Y","","1","","","","","","","","","","","","","","","","","","","","","","","","",""
"1724","","image-button-response","2","32094","0.0-2.0-0.0","A2LDDDJ4WBKB8Y","","1","phone","","","","","","","","","","","","","","","","","","","","","","","",""
"5414","","survey-text","3","37512","0.0-3.0-0.0","A2LDDDJ4WBKB8Y","","","","{""Q0"":""A2LDDDJ4WBKB8Y""}","","","","","","","","","","","","","","","","","","","","","","",""
"3154","","image-button-response_instructions","4","40668","0.0-4.0","A2LDDDJ4WBKB8Y","","0","instructions","","","","","","","","","","","","","","","","","","","","","","","",""
"7749","","image-button-response_instructions","5","48419","0.0-5.0","A2LDDDJ4WBKB8Y","img_art/ins/popularity/ins1.png","0","instructions","","","","","","","","","","","","","","","","","","","","","","","",""
"5547","","image-button-response_instructions","6","53968","0.0-6.0","A2LDDDJ4WBKB8Y","img_art/ins/popularity/ins2.png","0","instructions","","","","","","","","","","","","","","","","","","","","","","","",""
"30469","","image-button-response_instructions","7","84440","0.0-7.0","A2LDDDJ4WBKB8Y","img_art/ins/popularity/ins2Extreme.png","0","instructions","","","","","","","","","","","","","","","","","","","","","","","",""
"2624","","image-button-response_instructions","8","87064","0.0-8.0","A2LDDDJ4WBKB8Y","img_art/ins/popularity/ins3KEEPpop.PNG","0","instructions","","","","","","","","","","","","","","","","","","","","","","","",""
"1435","","image-button-response_instructions","9","88501","0.0-9.0","A2LDDDJ4WBKB8Y","img_art/ins/popularity/ins3ANamepop.PNG","0","instructions","","","","","","","","","","","","","","","","","","","","","","","",""
"1095","","image-button-response_instructions","10","89597","0.0-10.0","A2LDDDJ4WBKB8Y","img_art/ins/popularity/ins3ARatingpop.png","0","instructions","","","","","","","","","","","","","","","","","","","","","","","",""
"896","","image-button-response_instructions","11","90495","0.0-11.0","A2LDDDJ4WBKB8Y","img_art/ins/popularity/ins3ATextpop.png","0","instructions","","","","","","","","","","","","","","","","","","","","","","","",""
"1933","","image-button-response_instructions","12","92430","0.0-12.0","A2LDDDJ4WBKB8Y","img_art/ins/popularity/ins3ALikespop.png","0","instructions","","","","","","","","","","","","","","","","","","","","","","","",""
"3544","","image-button-response_instructions","13","95975","0.0-13.0","A2LDDDJ4WBKB8Y","img_art/ins/popularity/ins3KEEPpop.PNG","0","instructions","","","","","","","","","","","","","","","","","","","","","","","",""
"1493","","image-button-response_instructions","14","97470","0.0-14.0","A2LDDDJ4WBKB8Y","img_art/ins/popularity/ins3_5RED.png","0","instructions","","","","","","","","","","","","","","","","","","","","","","","",""
"1616","","image-button-response_instructions","15","99088","0.0-15.0","A2LDDDJ4WBKB8Y","img_art/ins/popularity/ins3KEEPpop.PNG","0","instructions","","","","","","","","","","","","","","","","","","","","","","","",""
"3806","","image-button-response_instructions","16","102895","0.0-16.0","A2LDDDJ4WBKB8Y","img_art/ins/popularity/ins4KEEPpop.PNG","0","instructions","","","","","","","","","","","","","","","","","","","","","","","",""
"1134","","image-button-response_instructions","17","104031","0.0-17.0","A2LDDDJ4WBKB8Y","img_art/ins/popularity/ins5KEEPpop.PNG","0","instructions","","","","","","","","","","","","","","","","","","","","","","","",""
"870","","image-button-response_instructions","18","104902","0.0-18.0","A2LDDDJ4WBKB8Y","","0","instructions","","","","","","","","","","","","","","","","","","","","","","","",""
"3624","","survey-text","19","108559","0.0-19.0-0.0","A2LDDDJ4WBKB8Y","","","","{""Q0"":""but""}","","","","","","","","","","","","","","","","","","","","","","",""
"7139","","survey-text","20","115700","0.0-20.0-0.0","A2LDDDJ4WBKB8Y","","","","{""Q0"":""it's cheerful and energetic. I like it.""}","","","","","","","","","","","","","","","","","","","","","","",""
"2387.3999999910593","","image-slider-response","21","118091","0.0-21.0","A2LDDDJ4WBKB8Y","","","","","28","","","","","","","","","","","","","","","","","","","","","",""
"null","","image-button-response","22","123098","0.0-22.0","A2LDDDJ4WBKB8Y","img_art/ins/1.jpg","null","","","","","","","","","","","","","","","","","","","","","","","","",""
"1239","","image-button-response","23","124340","0.0-23.0","A2LDDDJ4WBKB8Y","img_art/ins/1.jpg","4","","","","","","","","","","","","","","","","","","","","","","","","",""
"5030","","image-button-response","24","129375","0.0-24.0-0.0","A2LDDDJ4WBKB8Y","img_art/ins/1.jpg","5","","","","","","","","","","","","","","","","","","","","","","","","",""
"3608","","image-button-response","25","132988","0.0-25.0-0.0","A2LDDDJ4WBKB8Y","img_art/ins/1.jpg","0","","","","","","","","","","","","","","","","","","","","","","","","",""
"null","","html-keyboard-response","26","133492","0.0-26.0","A2LDDDJ4WBKB8Y","<p style=""font-size: 48px;"">+</p>","","","","","null","allTrialResponses","500","1","-2","img_art/ins/1.jpg","28","it's cheerful and energetic. I like it.","Allison,Ashley,Beth,Dora,Erika,Jen","looks like a lot of things going on in the mist,20,20,20","I just don't get why these type of art would be popular,-32,40,20","This color reminds me of poo,-46,60,20","looks like what my niece in 3rd grade did this afternoon,-50,80,20","I like the sophisticated brushwork,40,100,20","It reminds me of a candy land dream I had,36,120,20","Erika","I like the sophisticated brushwork,40,100,20","Jen","It reminds me of a candy land dream I had,36,120,20","Allison","looks like a lot of things going on in the mist,20,20,20","0"
"10297","","survey-text","27","143799","0.0-27.0-0.0","A2LDDDJ4WBKB8Y","","","","{""Q0"":""there's something vibrant and vital here. ""}","","","","","","","","","","","","","","","","","","","","","","",""
"2524.300000011921","","image-slider-response","28","146326","0.0-28.0","A2LDDDJ4WBKB8Y","","","","","50","","","","","","","","","","","","","","","","","","","","","",""
"3291","","image-button-response","29","151332","0.0-29.0","A2LDDDJ4WBKB8Y","img_art/ins/2.jpg","4","","","","","","","","","","","","","","","","","","","","","","","","",""
"1153","","image-button-response","30","152488","0.0-30.0","A2LDDDJ4WBKB8Y","img_art/ins/2.jpg","1","","","","","","","","","","","","","","","","","","","","","","","","",""
"1881","","image-button-response","31","154372","0.0-31.0-0.0","A2LDDDJ4WBKB8Y","img_art/ins/2.jpg","4","","","","","","","","","","","","","","","","","","","","","","","","",""
"3440","","image-button-response","32","157817","0.0-32.0-0.0","A2LDDDJ4WBKB8Y","img_art/ins/2.jpg","5","","","","","","","","","","","","","","","","","","","","","","","","",""
"null","","html-keyboard-response","33","158820","0.0-33.0","A2LDDDJ4WBKB8Y","<p style=""font-size: 48px;"">+</p>","","","","","null","allTrialResponses","1000","1","-1","img_art/ins/2.jpg","50","there's something vibrant and vital here. ","Allison,Kara,Katie,Jenna,Erika,Jen","I don't have strong feelings about this,10,20,20","I like the blocks of color arrangements,30,160,20","too much color!,-28,180,20","One of my pet peevs,-48,140,20","I would never be able to compose a sophisticated pallete like this,48,100,20","It reminds me of a fireplace,36,120,20","Kara","I like the blocks of color arrangements,30,160,20","Erika","I would never be able to compose a sophisticated pallete like this,48,100,20","Jen","It reminds me of a fireplace,36,120,20","0"
"8048","","survey-text","34","166877","0.0-34.0-0.0","A2LDDDJ4WBKB8Y","","","","{""Q0"":""this looks vibrant and cold all at once; I love it""}","","","","","","","","","","","","","","","","","","","","","","",""
"2782","","image-slider-response","35","169661","0.0-35.0","A2LDDDJ4WBKB8Y","","","","","47","","","","","","","","","","","","","","","","","","","","","",""
"4477","","image-button-response","36","174665","0.0-36.0","A2LDDDJ4WBKB8Y","img_art/ins/3.jpg","1","","","","","","","","","","","","","","","","","","","","","","","","",""
"11369","","image-button-response","37","186037","0.0-37.0","A2LDDDJ4WBKB8Y","img_art/ins/3.jpg","4","","","","","","","","","","","","","","","","","","","","","","","","",""
"1127","","image-button-response","38","187168","0.0-38.0-0.0","A2LDDDJ4WBKB8Y","img_art/ins/3.jpg","5","","","","","","","","","","","","","","","","","","","","","","","","",""
"1393","","image-button-response","39","188565","0.0-39.0-0.0","A2LDDDJ4WBKB8Y","img_art/ins/3.jpg","0","","","","","","","","","","","","","","","","","","","","","","","","",""
"null","","html-keyboard-response","40","189569","0.0-40.0","A2LDDDJ4WBKB8Y","<p style=""font-size: 48px;"">+</p>","","","","","null","allTrialResponses","1000","1","0","img_art/ins/3.jpg","47","this looks vibrant and cold all at once; I love it","Mary,Kara,Rose,Leslie,Erika,Jen","I like the overlapping of brushes,41,220,20","calming blue is very nice,36,160,20","My daily routine, it's depressing,-20,240,20","It's an alright work,15,200,20","I feel connected to the artist,40,100,20","I can feel a rainy day from this painting,18,120,20","Erika","I feel connected to the artist,40,100,20","Jen","I can feel a rainy day from this painting,18,120,20","Mary","I like the overlapping of brushes,41,220,20","0"
"2651","","image-button-response_instructions","41","192229","0.0-41.0","A2LDDDJ4WBKB8Y","","0","instructions","","","","","","","","","","","","","","","","","","","","","","","",""
"6911","","survey-likert","42","199143","0.0-42.0-0.0","A2LDDDJ4WBKB8Y","","","","{""Q0"":"""",""Q1"":0,""Q2"":1}","","","","","","","","","","","","","","","","","","","","","","",""
"3316","","survey-text","43","202468","0.0-43.0-0.0","A2LDDDJ4WBKB8Y","","","","{""Q0"":""rock""}","","","","","","","","","","","","","","","","","","","","","","",""
"9242","","survey-text","44","211713","0.0-44.0-0.0","A2LDDDJ4WBKB8Y","","","","{""Q0"":""it seems luminescent and vibrant""}","","","","","","","","","","","","","","","","","","","","","","",""
"2968","","image-slider-response","45","214683","0.0-45.0","A2LDDDJ4WBKB8Y","","","","","28","","","","","","","","","","","","","","","","","","","","","",""
"4781","","image-button-response","46","219715","0.0-46.0","A2LDDDJ4WBKB8Y","img_art/30.jpg","3","","","","","","","","","","","","","","","","","","","","","","","","",""
"303","","image-button-response","47","220022","0.0-47.0","A2LDDDJ4WBKB8Y","img_art/30.jpg","3","","","","","","","","","","","","","","","","","","","","","","","","",""
"2279","","image-button-response","48","222304","0.0-48.0-0.0","A2LDDDJ4WBKB8Y","img_art/30.jpg","2","","","","","","","","","","","","","","","","","","","","","","","","",""
"2209","","image-button-response","49","224517","0.0-49.0-0.0","A2LDDDJ4WBKB8Y","img_art/30.jpg","4","","","","","","","","","","","","","","","","","","","","","","","","",""
"null","","html-keyboard-response","50","226022","0.0-50.0","A2LDDDJ4WBKB8Y","<p style=""font-size: 48px;"">+</p>","","","","","null","allTrialResponses","1500","1","1","img_art/30.jpg","28","it seems luminescent and vibrant","Samantha,Meghan,Molly,Katelyn,Erika,Autumn","Too much like childrens finger paint. I dont like the smear of blended colors,-50,140,20","nothing special about it,1,220,20","I like the way the artist has painted his work.,40,340,20","I do like the multi-dimensional aspect of this piece,10,100,20","I can't parse any intention or emotion,-17,100,20","Absolutely messy,-31,340,20","Katelyn","I do like the multi-dimensional aspect of this piece,10,100,20","Molly","I like the way the artist has painted his work.,40,340,20","Erika","I can't parse any intention or emotion,-17,100,20","0"
"22181","","survey-text","51","248212","0.0-51.0-0.0","A2LDDDJ4WBKB8Y","","","","{""Q0"":""there's something alive about the verdent greens., I like it.""}","","","","","","","","","","","","","","","","","","","","","","",""
"1635.4000000059605","","image-slider-response","52","249850","0.0-52.0","A2LDDDJ4WBKB8Y","","","","","38","","","","","","","","","","","","","","","","","","","","","",""
"1984","","image-button-response","53","254856","0.0-53.0","A2LDDDJ4WBKB8Y","img_art/9.jpg","4","","","","","","","","","","","","","","","","","","","","","","","","",""
"343","","image-button-response","54","255204","0.0-54.0","A2LDDDJ4WBKB8Y","img_art/9.jpg","4","","","","","","","","","","","","","","","","","","","","","","","","",""
"1940","","image-button-response","55","257147","0.0-55.0-0.0","A2LDDDJ4WBKB8Y","img_art/9.jpg","1","","","","","","","","","","","","","","","","","","","","","","","","",""
"3639","","image-button-response","56","260790","0.0-56.0-0.0","A2LDDDJ4WBKB8Y","img_art/9.jpg","5","","","","","","","","","","","","","","","","","","","","","","","","",""
"null","","html-keyboard-response","57","261293","0.0-57.0","A2LDDDJ4WBKB8Y","<p style=""font-size: 48px;"">+</p>","","","","","null","allTrialResponses","500","1","2","img_art/9.jpg","38","there's something alive about the verdent greens., I like it.","Savannah,Jenna,Molly,Katelyn,Erika,Olivia","Unfinished, weird composition.,-34,200,20","gorgeous colors, love the little details,42,360,20","I like the way the artist has painted his painting.,20,340,20","The lack of concrete form kind of turns me off,-2,100,20","Colorful and expressive,15,100,20","what a wild ride,11,40,20","Erika","Colorful and expressive,15,100,20","Jenna","gorgeous colors, love the little details,42,360,20","Olivia","what a wild ride,11,40,20","0"
"9496","","survey-text","58","270799","0.0-58.0-0.0","A2LDDDJ4WBKB8Y","","","","{""Q0"":""not sure what this is but looks strong and appealing""}","","","","","","","","","","","","","","","","","","","","","","",""
"3042.1000000089407","","image-slider-response","59","273844","0.0-59.0","A2LDDDJ4WBKB8Y","","","","","27","","","","","","","","","","","","","","","","","","","","","",""
"3392","","image-button-response","60","278852","0.0-60.0","A2LDDDJ4WBKB8Y","img_art/5.jpg","3","","","","","","","","","","","","","","","","","","","","","","","","",""
"865","","image-button-response","61","279720","0.0-61.0","A2LDDDJ4WBKB8Y","img_art/5.jpg","3","","","","","","","","","","","","","","","","","","","","","","","","",""
"3482","","image-button-response","62","283205","0.0-62.0-0.0","A2LDDDJ4WBKB8Y","img_art/5.jpg","0","","","","","","","","","","","","","","","","","","","","","","","","",""
"2728","","image-button-response","63","285937","0.0-63.0-0.0","A2LDDDJ4WBKB8Y","img_art/5.jpg","4","","","","","","","","","","","","","","","","","","","","","","","","",""
"null","","html-keyboard-response","64","286943","0.0-64.0","A2LDDDJ4WBKB8Y","<p style=""font-size: 48px;"">+</p>","","","","","null","allTrialResponses","1000","1","3","img_art/5.jpg","27","not sure what this is but looks strong and appealing","Chloe,Jenna,Cheyenne,Amanda,Erika,Olivia","Black stripe looks violent,-31,220,20","it's okay. the colors are eye catching, but that's about it.,3,360,20","Very little going on.,-4,200,20","Very good color coordination,41,180,20","Not sure what I'm looking at,-16,100,20","a brush in time,-14,40,20","Amanda","Very good color coordination,41,180,20","Chloe","Black stripe looks violent,-31,220,20","Erika","Not sure what I'm looking at,-16,100,20","0"
"10370","","survey-text","65","297322","0.0-65.0-0.0","A2LDDDJ4WBKB8Y","","","","{""Q0"":""there's something lonely yet confident about this color palate""}","","","","","","","","","","","","","","","","","","","","","","",""
"2869.0999999940395","","image-slider-response","66","300193","0.0-66.0","A2LDDDJ4WBKB8Y","","","","","34","","","","","","","","","","","","","","","","","","","","","",""
"4742","","image-button-response","67","305202","0.0-67.0","A2LDDDJ4WBKB8Y","img_art/6.jpg","2","","","","","","","","","","","","","","","","","","","","","","","","",""
"424","","image-button-response","68","305629","0.0-68.0","A2LDDDJ4WBKB8Y","img_art/6.jpg","2","","","","","","","","","","","","","","","","","","","","","","","","",""
"1598","","image-button-response","69","307230","0.0-69.0-0.0","A2LDDDJ4WBKB8Y","img_art/6.jpg","3","","","","","","","","","","","","","","","","","","","","","","","","",""
"1880","","image-button-response","70","309115","0.0-70.0-0.0","A2LDDDJ4WBKB8Y","img_art/6.jpg","4","","","","","","","","","","","","","","","","","","","","","","","","",""
"null","","html-keyboard-response","71","310618","0.0-71.0","A2LDDDJ4WBKB8Y","<p style=""font-size: 48px;"">+</p>","","","","","null","allTrialResponses","1500","1","4","img_art/6.jpg","34","there's something lonely yet confident about this color palate","Chloe,Lauren,Catherine,Amanda,Erika,Sarah","Cute and evocative,11,220,20","I like the simplicity of the piece.,10,340,20","Looking, searching at the same time being content.,30,160,20","Makes me feel lonely,-22,180,20","Lonesome in nature,13,100,20","it's interesting but I don't love it,10,180,20","Catherine","Looking, searching at the same time being content.,30,160,20","Amanda","Makes me feel lonely,-22,180,20","Erika","Lonesome in nature,13,100,20","0"
"5642","","survey-text","72","316270","0.0-72.0-0.0","A2LDDDJ4WBKB8Y","","","","{""Q0"":""reminds me of italian art""}","","","","","","","","","","","","","","","","","","","","","","",""
"3007.6000000089407","","image-slider-response","73","319281","0.0-73.0","A2LDDDJ4WBKB8Y","","","","","-21","","","","","","","","","","","","","","","","","","","","","",""
"4558","","image-button-response","74","324285","0.0-74.0","A2LDDDJ4WBKB8Y","img_art/24.jpg","1","","","","","","","","","","","","","","","","","","","","","","","","",""
"344","","image-button-response","75","324633","0.0-75.0","A2LDDDJ4WBKB8Y","img_art/24.jpg","1","","","","","","","","","","","","","","","","","","","","","","","","",""
"1204","","image-button-response","76","325841","0.0-76.0-0.0","A2LDDDJ4WBKB8Y","img_art/24.jpg","0","","","","","","","","","","","","","","","","","","","","","","","","",""
"720","","image-button-response","77","326566","0.0-77.0-0.0","A2LDDDJ4WBKB8Y","img_art/24.jpg","2","","","","","","","","","","","","","","","","","","","","","","","","",""
"null","","html-keyboard-response","78","328072","0.0-78.0","A2LDDDJ4WBKB8Y","<p style=""font-size: 48px;"">+</p>","","","","","null","allTrialResponses","1500","1","5","img_art/24.jpg","-21","reminds me of italian art","Alexandra,Monica,Catherine,Amanda,Erika,Lindsey","This reminds me of a creek or a river. It puts me a peace,42,60,20","It looks alive, like I can hear the water flowing,41,360,20","Nature, Peace, connected.,50,160,20","Beautiful,  peaceful,50,180,20","Very nice textures and subject,38,100,20","I like the colors and see a stream in a wooded setting. Makes me feel calm and cheerful.,27,400,20","Monica","It looks alive, like I can hear the water flowing,41,360,20","Alexandra","This reminds me of a creek or a river. It puts me a peace,42,60,20","Catherine","Nature, Peace, connected.,50,160,20","0"
"3536","","survey-text","79","331623","0.0-79.0-0.0","A2LDDDJ4WBKB8Y","","","","{""Q0"":""sky""}","","","","","","","","","","","","","","","","","","","","","","",""
"7276","","survey-text","80","338902","0.0-80.0-0.0","A2LDDDJ4WBKB8Y","","","","{""Q0"":""it's sort of dark despite the bright colors""}","","","","","","","","","","","","","","","","","","","","","","",""
"3112.5999999940395","","image-slider-response","81","342018","0.0-81.0","A2LDDDJ4WBKB8Y","","","","","37","","","","","","","","","","","","","","","","","","","","","",""
"4663","","image-button-response","82","347024","0.0-82.0","A2LDDDJ4WBKB8Y","img_art/27.jpg","1","","","","","","","","","","","","","","","","","","","","","","","","",""
"687","","image-button-response","83","347715","0.0-83.0","A2LDDDJ4WBKB8Y","img_art/27.jpg","1","","","","","","","","","","","","","","","","","","","","","","","","",""
"1903","","image-button-response","84","349622","0.0-84.0-0.0","A2LDDDJ4WBKB8Y","img_art/27.jpg","3","","","","","","","","","","","","","","","","","","","","","","","","",""
"1185","","image-button-response","85","350812","0.0-85.0-0.0","A2LDDDJ4WBKB8Y","img_art/27.jpg","5","","","","","","","","","","","","","","","","","","","","","","","","",""
"null","","html-keyboard-response","86","351314","0.0-86.0","A2LDDDJ4WBKB8Y","<p style=""font-size: 48px;"">+</p>","","","","","null","allTrialResponses","500","1","6","img_art/27.jpg","37","it's sort of dark despite the bright colors","Alexandra,Monica,Catherine,Victoria,Elizabeth,Brittany","This is ugly and looks like a child did this,-36,60,20","It tries to remind me of the autumn season but it's grey and looks dirty,-5,360,20","Angelic, childlike. happiness but also with sadness.,40,160,20","reminds me of fall,33,400,20","Like the abstractness of this picture,20,20,20","The colors are put together in an interesting way.,-9,40,20","Monica","It tries to remind me of the autumn season but it's grey and looks dirty,-5,360,20","Victoria","reminds me of fall,33,400,20","Brittany","The colors are put together in an interesting way.,-9,40,20","0"
"10143","","survey-text","87","361467","0.0-87.0-0.0","A2LDDDJ4WBKB8Y","","","","{""Q0"":""this isn't appealing to me; it looks like cheap waiting room art""}","","","","","","","","","","","","","","","","","","","","","","",""
"3440.2999999970198","","image-slider-response","88","364912","0.0-88.0","A2LDDDJ4WBKB8Y","","","","","-26","","","","","","","","","","","","","","","","","","","","","",""
"4497","","image-button-response","89","369919","0.0-89.0","A2LDDDJ4WBKB8Y","img_art/12.jpg","3","","","","","","","","","","","","","","","","","","","","","","","","",""
"1134","","image-button-response","90","371055","0.0-90.0","A2LDDDJ4WBKB8Y","img_art/12.jpg","5","","","","","","","","","","","","","","","","","","","","","","","","",""
"981","","image-button-response","91","372041","0.0-91.0-0.0","A2LDDDJ4WBKB8Y","img_art/12.jpg","3","","","","","","","","","","","","","","","","","","","","","","","","",""
"1156","","image-button-response","92","373201","0.0-92.0-0.0","A2LDDDJ4WBKB8Y","img_art/12.jpg","0","","","","","","","","","","","","","","","","","","","","","","","","",""
"null","","html-keyboard-response","93","374706","0.0-93.0","A2LDDDJ4WBKB8Y","<p style=""font-size: 48px;"">+</p>","","","","","null","allTrialResponses","1500","1","7","img_art/12.jpg","-26","this isn't appealing to me; it looks like cheap waiting room art","Angelica,Monica,Kylie,Victoria,Kathryn,Brittany","It's strange looking and unappealing.,-4,280,20","Reminds me of collages we made in elementary school. I like the contrast of the colors from top to bottom,43,360,20","Night and day, light and dark,35,300,20","to contemporary for me,3,400,20","This feels cosmopolitan. Like looking at a high rise apartment at night and seeing into everyone's windows.,20,140,20","Too blocky and not interesting enough.,-15,40,20","Brittany","Too blocky and not interesting enough.,-15,40,20","Victoria","to contemporary for me,3,400,20","Angelica","It's strange looking and unappealing.,-4,280,20","0"
"5690","","survey-text","94","380408","0.0-94.0-0.0","A2LDDDJ4WBKB8Y","","","","{""Q0"":""too dark despite the bright colors""}","","","","","","","","","","","","","","","","","","","","","","",""
"2114.2000000029802","","image-slider-response","95","382525","0.0-95.0","A2LDDDJ4WBKB8Y","","","","","-16","","","","","","","","","","","","","","","","","","","","","",""
"2865","","image-button-response","96","387532","0.0-96.0","A2LDDDJ4WBKB8Y","img_art/26.jpg","0","","","","","","","","","","","","","","","","","","","","","","","","",""
"658","","image-button-response","97","388193","0.0-97.0","A2LDDDJ4WBKB8Y","img_art/26.jpg","0","","","","","","","","","","","","","","","","","","","","","","","","",""
"1011","","image-button-response","98","389207","0.0-98.0-0.0","A2LDDDJ4WBKB8Y","img_art/26.jpg","1","","","","","","","","","","","","","","","","","","","","","","","","",""
"1806","","image-button-response","99","391018","0.0-99.0-0.0","A2LDDDJ4WBKB8Y","img_art/26.jpg","5","","","","","","","","","","","","","","","","","","","","","","","","",""
"null","","html-keyboard-response","100","392521","0.0-100.0","A2LDDDJ4WBKB8Y","<p style=""font-size: 48px;"">+</p>","","","","","null","allTrialResponses","1500","1","8","img_art/26.jpg","-16","too dark despite the bright colors","Angelica,Mariah,Emma,Victoria,Shannon,Brittany","It's not ugly but not beautiful at all.,-3,280,20","Pleasant but bland.,10,140,20","Looks unfinished,-31,60,20","feels a tad old,30,400,20","I like that it looks like an actual picture and isn't just random colors.,25,220,20","It looks boring and too rough.,-9,40,20","Angelica","It's not ugly but not beautiful at all.,-3,280,20","Mariah","Pleasant but bland.,10,140,20","Brittany","It looks boring and too rough.,-9,40,20","0"
"8225","","survey-text","101","400757","0.0-101.0-0.0","A2LDDDJ4WBKB8Y","","","","{""Q0"":""cheerful and dancy looking""}","","","","","","","","","","","","","","","","","","","","","","",""
"2446.4000000059605","","image-slider-response","102","403206","0.0-102.0","A2LDDDJ4WBKB8Y","","","","","18","","","","","","","","","","","","","","","","","","","","","",""
"3112","","image-button-response","103","408216","0.0-103.0","A2LDDDJ4WBKB8Y","img_art/23.jpg","1","","","","","","","","","","","","","","","","","","","","","","","","",""
"267","","image-button-response","104","408487","0.0-104.0","A2LDDDJ4WBKB8Y","img_art/23.jpg","1","","","","","","","","","","","","","","","","","","","","","","","","",""
"1731","","image-button-response","105","410221","0.0-105.0-0.0","A2LDDDJ4WBKB8Y","img_art/23.jpg","4","","","","","","","","","","","","","","","","","","","","","","","","",""
"936","","image-button-response","106","411161","0.0-106.0-0.0","A2LDDDJ4WBKB8Y","img_art/23.jpg","5","","","","","","","","","","","","","","","","","","","","","","","","",""
"null","","html-keyboard-response","107","412164","0.0-107.0","A2LDDDJ4WBKB8Y","<p style=""font-size: 48px;"">+</p>","","","","","null","allTrialResponses","1000","1","9","img_art/23.jpg","18","cheerful and dancy looking","Angelica,Mariah,Rebecca,Tiffany,Maria,Brittany","This looks like hotel room art, it's ugly and odd.,-2,280,20","It feels active and vibrant.,20,140,20","love the contrast (was this painted by a left-handed artist?),7,100,20","I feel happy and a little excited. Like watching fireworks with family.,26,360,20","the pattern of colours imbues in me a sense of infinity, which I find soothing,10,120,20","The white paint through the middle really draws the eye.,30,40,20","Mariah","It feels active and vibrant.,20,140,20","Maria","the pattern of colours imbues in me a sense of infinity, which I find soothing,10,120,20","Brittany","The white paint through the middle really draws the eye.,30,40,20","0"
"14041","","survey-text","108","426215","0.0-108.0-0.0","A2LDDDJ4WBKB8Y","","","","{""Q0"":""this looks boring and like moldy milk or something""}","","","","","","","","","","","","","","","","","","","","","","",""
"2354","","image-slider-response","109","428571","0.0-109.0","A2LDDDJ4WBKB8Y","","","","","27","","","","","","","","","","","","","","","","","","","","","",""
"2004","","image-button-response","110","433576","0.0-110.0","A2LDDDJ4WBKB8Y","img_art/7.jpg","4","","","","","","","","","","","","","","","","","","","","","","","","",""
"468","","image-button-response","111","434047","0.0-111.0","A2LDDDJ4WBKB8Y","img_art/7.jpg","4","","","","","","","","","","","","","","","","","","","","","","","","",""
"1003","","image-button-response","112","435054","0.0-112.0-0.0","A2LDDDJ4WBKB8Y","img_art/7.jpg","5","","","","","","","","","","","","","","","","","","","","","","","","",""
"1534","","image-button-response","113","436594","0.0-113.0-0.0","A2LDDDJ4WBKB8Y","img_art/7.jpg","1","","","","","","","","","","","","","","","","","","","","","","","","",""
"null","","html-keyboard-response","114","438098","0.0-114.0","A2LDDDJ4WBKB8Y","<p style=""font-size: 48px;"">+</p>","","","","","null","allTrialResponses","1500","1","10","img_art/7.jpg","27","this looks boring and like moldy milk or something","Nicole,Mariah,Alyssa,Margaret,Maria,Brittany","Looks like the surface of mars,29,20,20","The dried bottom of a puddle in July.,-41,140,20","It looks like someone took a picture of a muddy ground and called it art.,-41,160,20","looks like a close up of irritated skin under a microscope,-49,100,20","elicits no real response,0,120,20","It looks like a wall, not really something I'd enjoy looking at.,-12,40,20","Maria","elicits no real response,0,120,20","Brittany","It looks like a wall, not really something I'd enjoy looking at.,-12,40,20","Mariah","The dried bottom of a puddle in July.,-41,140,20","0"
"3304","","survey-text","115","441419","0.0-115.0-0.0","A2LDDDJ4WBKB8Y","","","","{""Q0"":""our""}","","","","","","","","","","","","","","","","","","","","","","",""
"7654","","survey-text","116","449074","0.0-116.0-0.0","A2LDDDJ4WBKB8Y","","","","{""Q0"":""looks almost like a guitar. abstract and pretty.""}","","","","","","","","","","","","","","","","","","","","","","",""
"2519.2999999970198","","image-slider-response","117","451596","0.0-117.0","A2LDDDJ4WBKB8Y","","","","","13","","","","","","","","","","","","","","","","","","","","","",""
"4399","","image-button-response","118","456601","0.0-118.0","A2LDDDJ4WBKB8Y","img_art/10.jpg","1","","","","","","","","","","","","","","","","","","","","","","","","",""
"465","","image-button-response","119","457069","0.0-119.0","A2LDDDJ4WBKB8Y","img_art/10.jpg","1","","","","","","","","","","","","","","","","","","","","","","","","",""
"1516","","image-button-response","120","458589","0.0-120.0-0.0","A2LDDDJ4WBKB8Y","img_art/10.jpg","4","","","","","","","","","","","","","","","","","","","","","","","","",""
"1528","","image-button-response","121","460120","0.0-121.0-0.0","A2LDDDJ4WBKB8Y","img_art/10.jpg","3","","","","","","","","","","","","","","","","","","","","","","","","",""
"null","","html-keyboard-response","122","462324","0.0-122.0","A2LDDDJ4WBKB8Y","<p style=""font-size: 48px;"">+</p>","","","","","null","allTrialResponses","1500","1","11","img_art/10.jpg","13","looks almost like a guitar. abstract and pretty.","Sierra,Mariah,Katie,Katherine,Maria,Brittany","it just doesnt appeal to me.,-10,260,20","The colors and shapes are soothing but also disconcerting.,21,140,20","Dark and weird. Unidentifiable shape. I can't tell what it is, so I don't like it.,-50,160,20","This is pretty rad. The outline looks like a music staff,15,120,20","not sure what to make of this one,0,120,20","The design is dynamic and interesting.,14,40,20","Mariah","The colors and shapes are soothing but also disconcerting.,21,140,20","Maria","not sure what to make of this one,0,120,20","Katherine","This is pretty rad. The outline looks like a music staff,15,120,20","0"
"39868","","survey-text","123","502202","0.0-123.0-0.0","A2LDDDJ4WBKB8Y","","","","{""Q0"":""this is vibrant and lovely""}","","","","","","","","","","","","","","","","","","","","","","",""
"6519","","image-slider-response","124","508724","0.0-124.0","A2LDDDJ4WBKB8Y","","","","","13","","","","","","","","","","","","","","","","","","","","","",""
"3723","","image-button-response","125","513730","0.0-125.0","A2LDDDJ4WBKB8Y","img_art/1.jpg","1","","","","","","","","","","","","","","","","","","","","","","","","",""
"893","","image-button-response","126","514625","0.0-126.0","A2LDDDJ4WBKB8Y","img_art/1.jpg","1","","","","","","","","","","","","","","","","","","","","","","","","",""
"1830","","image-button-response","127","516459","0.0-127.0-0.0","A2LDDDJ4WBKB8Y","img_art/1.jpg","4","","","","","","","","","","","","","","","","","","","","","","","","",""
"1791","","image-button-response","128","518255","0.0-128.0-0.0","A2LDDDJ4WBKB8Y","img_art/1.jpg","3","","","","","","","","","","","","","","","","","","","","","","","","",""
"null","","html-keyboard-response","129","519759","0.0-129.0","A2LDDDJ4WBKB8Y","<p style=""font-size: 48px;"">+</p>","","","","","null","allTrialResponses","1500","1","12","img_art/1.jpg","13","this is vibrant and lovely","Natalie,Mariah,Vanessa,Katherine,Maria,Julia","my reaction is that the picture is that Ive seen it before,-14,400,20","Colors are pleasant, but feels incredibly generic.,9,140,20","I don't like how this one makes me feel.,-32,380,20","Blurry but that's how emotions are a lot of the time.,27,120,20","the bright colours evoke the 90s, and not their best part,-10,120,20","I don't feel like much is happening in this painting,-25,40,20","Mariah","Colors are pleasant, but feels incredibly generic.,9,140,20","Maria","the bright colours evoke the 90s, and not their best part,-10,120,20","Katherine","Blurry but that's how emotions are a lot of the time.,27,120,20","0"
"8129","","survey-text","130","527904","0.0-130.0-0.0","A2LDDDJ4WBKB8Y","","","","{""Q0"":""seems out of focus, hard to sort of absorb it""}","","","","","","","","","","","","","","","","","","","","","","",""
"2986.9000000059605","","image-slider-response","131","530894","0.0-131.0","A2LDDDJ4WBKB8Y","","","","","17","","","","","","","","","","","","","","","","","","","","","",""
"4443","","image-button-response","132","535900","0.0-132.0","A2LDDDJ4WBKB8Y","img_art/14.jpg","0","","","","","","","","","","","","","","","","","","","","","","","","",""
"628","","image-button-response","133","536532","0.0-133.0","A2LDDDJ4WBKB8Y","img_art/14.jpg","0","","","","","","","","","","","","","","","","","","","","","","","","",""
"2249","","image-button-response","134","538785","0.0-134.0-0.0","A2LDDDJ4WBKB8Y","img_art/14.jpg","4","","","","","","","","","","","","","","","","","","","","","","","","",""
"1350","","image-button-response","135","540140","0.0-135.0-0.0","A2LDDDJ4WBKB8Y","img_art/14.jpg","5","","","","","","","","","","","","","","","","","","","","","","","","",""
"null","","html-keyboard-response","136","540644","0.0-136.0","A2LDDDJ4WBKB8Y","<p style=""font-size: 48px;"">+</p>","","","","","null","allTrialResponses","500","1","13","img_art/14.jpg","17","seems out of focus, hard to sort of absorb it","Hailey,Mariah,Marissa,Katherine,Maria,Bailey","fuzzy and confused. ok then well,16,200,20","The lighting feels like spring.,20,140,20","I like the sharpness of the lines,20,160,20","I don't like the color red,30,120,20","I enjoy what comes across as a playful take on nature themes,26,120,20","Not quite the style I'd like, but it does have a certain air of emptiness.,12,360,20","Hailey","fuzzy and confused. ok then well,16,200,20","Maria","I enjoy what comes across as a playful take on nature themes,26,120,20","Bailey","Not quite the style I'd like, but it does have a certain air of emptiness.,12,360,20","0"
"8194","","survey-text","137","548853","0.0-137.0-0.0","A2LDDDJ4WBKB8Y","","","","{""Q0"":""this looks like cheap waiting room art; its boring""}","","","","","","","","","","","","","","","","","","","","","","",""
"2659","","image-slider-response","138","551515","0.0-138.0","A2LDDDJ4WBKB8Y","","","","","-15","","","","","","","","","","","","","","","","","","","","","",""
"null","","image-button-response","139","556521","0.0-139.0","A2LDDDJ4WBKB8Y","img_art/13.jpg","null","","","","","","","","","","","","","","","","","","","","","","","","",""
"1308","","image-button-response","140","557832","0.0-140.0","A2LDDDJ4WBKB8Y","img_art/13.jpg","1","","","","","","","","","","","","","","","","","","","","","","","","",""
"2322","","image-button-response","141","560158","0.0-141.0-0.0","A2LDDDJ4WBKB8Y","img_art/13.jpg","2","","","","","","","","","","","","","","","","","","","","","","","","",""
"3202","","image-button-response","142","563365","0.0-142.0-0.0","A2LDDDJ4WBKB8Y","img_art/13.jpg","5","","","","","","","","","","","","","","","","","","","","","","","","",""
"null","","html-keyboard-response","143","564373","0.0-143.0","A2LDDDJ4WBKB8Y","<p style=""font-size: 48px;"">+</p>","","","","","null","allTrialResponses","1000","1","14","img_art/13.jpg","-15","this looks like cheap waiting room art; its boring","Hailey,Shelby,Amy,Heather,Maria,Bailey","warm splash of salt water from ocean,16,200,20","Doesnt really provoke an emotional responce,0,240,20","I recognize the beauty of this but FOR ME its large degree of abstraction diminishes my emotional interaction.,-10,220,20","rain in blue black and white,1,260,20","evokes a dampening feeling,-9,120,20","Looks like an upclose dried set of water droplets. Boring.,-25,360,20","Shelby","Doesnt really provoke an emotional responce,0,240,20","Amy","I recognize the beauty of this but FOR ME its large degree of abstraction diminishes my emotional interaction.,-10,220,20","Bailey","Looks like an upclose dried set of water droplets. Boring.,-25,360,20","0"
"7706","","survey-text","144","572096","0.0-144.0-0.0","A2LDDDJ4WBKB8Y","","","","{""Q0"":""muted earth colors are ugly""}","","","","","","","","","","","","","","","","","","","","","","",""
"2634.7000000029802","","image-slider-response","145","574734","0.0-145.0","A2LDDDJ4WBKB8Y","","","","","-22","","","","","","","","","","","","","","","","","","","","","",""
"null","","image-button-response","146","580663","0.0-146.0","A2LDDDJ4WBKB8Y","img_art/28.jpg","null","","","","","","","","","","","","","","","","","","","","","","","","",""
"12707","","image-button-response","147","593374","0.0-147.0","A2LDDDJ4WBKB8Y","img_art/28.jpg","1","","","","","","","","","","","","","","","","","","","","","","","","",""
"1156","","image-button-response","148","594535","0.0-148.0-0.0","A2LDDDJ4WBKB8Y","img_art/28.jpg","0","","","","","","","","","","","","","","","","","","","","","","","","",""
"1994","","image-button-response","149","596534","0.0-149.0-0.0","A2LDDDJ4WBKB8Y","img_art/28.jpg","3","","","","","","","","","","","","","","","","","","","","","","","","",""
"null","","html-keyboard-response","150","597539","0.0-150.0","A2LDDDJ4WBKB8Y","<p style=""font-size: 48px;"">+</p>","","","","","null","allTrialResponses","1000","1","15","img_art/28.jpg","-22","muted earth colors are ugly","Kelly,Shelby,Amy,Gabrielle,Chelsea,Bailey","This one is too bleak, not a fan of the image or colors.,-28,220,20","This one gives me an uneasy feeling,-10,240,20","Contemplative and a little dark. The muted colors and subject create a sense of mystery.,15,220,20","bland coloring but pattern interesting,2,160,20","It is too messy.,-38,180,20","Has an air of darkness to it, but no real substance besides the mouse-like thing.,-38,360,20","Shelby","This one gives me an uneasy feeling,-10,240,20","Kelly","This one is too bleak, not a fan of the image or colors.,-28,220,20","Gabrielle","bland coloring but pattern interesting,2,160,20","0"
"2909","","survey-text","151","600473","0.0-151.0-0.0","A2LDDDJ4WBKB8Y","","","","{""Q0"":""course""}","","","","","","","","","","","","","","","","","","","","","","",""
"7994","","survey-text","152","608468","0.0-152.0-0.0","A2LDDDJ4WBKB8Y","","","","{""Q0"":""vibrant and sunny and full of energy""}","","","","","","","","","","","","","","","","","","","","","","",""
"3489.9000000059605","","image-slider-response","153","611962","0.0-153.0","A2LDDDJ4WBKB8Y","","","","","-21","","","","","","","","","","","","","","","","","","","","","",""
"null","","image-button-response","154","616973","0.0-154.0","A2LDDDJ4WBKB8Y","img_art/22.jpg","null","","","","","","","","","","","","","","","","","","","","","","","","",""
"42441","","image-button-response","155","659417","0.0-155.0","A2LDDDJ4WBKB8Y","img_art/22.jpg","0","","","","","","","","","","","","","","","","","","","","","","","","",""
"1236","","image-button-response","156","660657","0.0-156.0-0.0","A2LDDDJ4WBKB8Y","img_art/22.jpg","2","","","","","","","","","","","","","","","","","","","","","","","","",""
"1523","","image-button-response","157","662183","0.0-157.0-0.0","A2LDDDJ4WBKB8Y","img_art/22.jpg","0","","","","","","","","","","","","","","","","","","","","","","","","",""
"1417","","image-button-response","158","667626","0.0-157.1-0.1","A2LDDDJ4WBKB8Y","img_art/22.jpg","4","","","","","","","","","","","","","","","","","","","","","","","","",""
"null","","html-keyboard-response","159","668129","0.0-158.0","A2LDDDJ4WBKB8Y","<p style=""font-size: 48px;"">+</p>","","","","","null","allTrialResponses","500","1","16","img_art/22.jpg","-21","vibrant and sunny and full of energy","Kelly,Shelby,Sara,Gabrielle,Destiny,Kimberly","I really enjoy the blended colors.,20,220,20","This painting has a very nostalgic feel,20,240,20","Looks like a warm sunset to me i like it,42,160,20","another OK work, mostly because of the blend of colors,12,160,20","so boring. Wow you made some circles some squares very nice,-40,360,20","I like the key near the sphere in the center,19,260,20","Kelly","I really enjoy the blended colors.,20,220,20","Sara","Looks like a warm sunset to me i like it,42,160,20","Destiny","so boring. Wow you made some circles some squares very nice,-40,360,20","2"
"6815","","survey-text","160","674960","0.0-159.0-0.0","A2LDDDJ4WBKB8Y","","","","{""Q0"":""looks kinda 80s to me""}","","","","","","","","","","","","","","","","","","","","","","",""
"3756.2000000029802","","image-slider-response","161","678719","0.0-160.0","A2LDDDJ4WBKB8Y","","","","","-24","","","","","","","","","","","","","","","","","","","","","",""
"null","","image-button-response","162","683724","0.0-161.0","A2LDDDJ4WBKB8Y","img_art/17.jpg","null","","","","","","","","","","","","","","","","","","","","","","","","",""
"1922","","image-button-response","163","685650","0.0-162.0","A2LDDDJ4WBKB8Y","img_art/17.jpg","1","","","","","","","","","","","","","","","","","","","","","","","","",""
"1653","","image-button-response","164","687307","0.0-163.0-0.0","A2LDDDJ4WBKB8Y","img_art/17.jpg","2","","","","","","","","","","","","","","","","","","","","","","","","",""
"3667","","image-button-response","165","690978","0.0-164.0-0.0","A2LDDDJ4WBKB8Y","img_art/17.jpg","3","","","","","","","","","","","","","","","","","","","","","","","","",""
"null","","html-keyboard-response","166","691983","0.0-165.0","A2LDDDJ4WBKB8Y","<p style=""font-size: 48px;"">+</p>","","","","","null","allTrialResponses","1000","1","17","img_art/17.jpg","-24","looks kinda 80s to me","Kelly,Kayla,Sara,Madison,Destiny,Madeline","I really like this, especially the tree.,23,220,20","I like the way the forest is taking over the buildings.,21,180,20","Beautiful patterns but evokes sad emotions in me due to the color shades,31,160,20","No strong reaction. Beautiful design, but hue appears taciturn. Bad photograph?,1,60,20","similar to last one, still pretty cool but I liked arrangement of last one better,13,360,20","So expressive and wonderful wow!,17,40,20","Kayla","I like the way the forest is taking over the buildings.,21,180,20","Sara","Beautiful patterns but evokes sad emotions in me due to the color shades,31,160,20","Madison","No strong reaction. Beautiful design, but hue appears taciturn. Bad photograph?,1,60,20","2"
"5288","","survey-text","167","697290","0.0-166.0-0.0","A2LDDDJ4WBKB8Y","","","","{""Q0"":""this one is just unsettling""}","","","","","","","","","","","","","","","","","","","","","","",""
"3272","","image-slider-response","168","700565","0.0-167.0","A2LDDDJ4WBKB8Y","","","","","-27","","","","","","","","","","","","","","","","","","","","","",""
"4988","","image-button-response","169","705569","0.0-168.0","A2LDDDJ4WBKB8Y","img_art/4.jpg","4","","","","","","","","","","","","","","","","","","","","","","","","",""
"660","","image-button-response","170","706234","0.0-169.0","A2LDDDJ4WBKB8Y","img_art/4.jpg","4","","","","","","","","","","","","","","","","","","","","","","","","",""
"1268","","image-button-response","171","707506","0.0-170.0-0.0","A2LDDDJ4WBKB8Y","img_art/4.jpg","5","","","","","","","","","","","","","","","","","","","","","","","","",""
"4033","","image-button-response","172","711546","0.0-171.0-0.0","A2LDDDJ4WBKB8Y","img_art/4.jpg","3","","","","","","","","","","","","","","","","","","","","","","","","",""
"null","","html-keyboard-response","173","712552","0.0-172.0","A2LDDDJ4WBKB8Y","<p style=""font-size: 48px;"">+</p>","","","","","null","allTrialResponses","1000","1","18","img_art/4.jpg","-27","this one is just unsettling","Haley,Kayla,Sara,Madison,Jordan,Jamie","This image doesn't invoke anything in me,-9,220,20","It's okay, I guess. Nothing much either way.,5,180,20","Random swirls again,-30,160,20","This is what makes suburban dads say, ""my 4-year-old can do that."",-49,60,20","The colors remind me of mcdonalds,-33,20,20","Mustard yellow doesn't do it for me,-25,320,20","Jordan","The colors remind me of mcdonalds,-33,20,20","Jamie","Mustard yellow doesn't do it for me,-25,320,20","Madison","This is what makes suburban dads say, ""my 4-year-old can do that."",-49,60,20","2"
"7101","","survey-text","174","719671","0.0-173.0-0.0","A2LDDDJ4WBKB8Y","","","","{""Q0"":""too messy and busy to be appealing""}","","","","","","","","","","","","","","","","","","","","","","",""
"3383.2999999970198","","image-slider-response","175","723058","0.0-174.0","A2LDDDJ4WBKB8Y","","","","","-20","","","","","","","","","","","","","","","","","","","","","",""
"null","","image-button-response","176","728069","0.0-175.0","A2LDDDJ4WBKB8Y","img_art/8.jpg","null","","","","","","","","","","","","","","","","","","","","","","","","",""
"43983","","image-button-response","177","772055","0.0-176.0","A2LDDDJ4WBKB8Y","img_art/8.jpg","5","","","","","","","","","","","","","","","","","","","","","","","","",""
"1326","","image-button-response","178","773386","0.0-177.0-0.0","A2LDDDJ4WBKB8Y","img_art/8.jpg","1","","","","","","","","","","","","","","","","","","","","","","","","",""
"802","","image-button-response","179","774193","0.0-178.0-0.0","A2LDDDJ4WBKB8Y","img_art/8.jpg","0","","","","","","","","","","","","","","","","","","","","","","","","",""
"null","","html-keyboard-response","180","774701","0.0-179.0","A2LDDDJ4WBKB8Y","<p style=""font-size: 48px;"">+</p>","","","","","null","allTrialResponses","500","1","19","img_art/8.jpg","-20","too messy and busy to be appealing","Kristen,Makayla,Mary,Madison,Jordan,Jamie","mothe nature/godess, watching over you,21,280,20","I see water and structures that resemble Ancient Rome,15,80,20","Very inspiring piece. I love how it's at angle. It gives it character.,23,180,20","The composition is striking, and some of the images are quite dramatic,11,60,20","very nice, i love what's going on here,21,20,20","Cool designs and color schemes,44,320,20","Jamie","Cool designs and color schemes,44,320,20","Makayla","I see water and structures that resemble Ancient Rome,15,80,20","Kristen","mothe nature/godess, watching over you,21,280,20","2"
"28449","","survey-text","181","803168","0.0-180.0-0.0","A2LDDDJ4WBKB8Y","","","","{""Q0"":""like a bleak cityscape""}","","","","","","","","","","","","","","","","","","","","","","",""
"3217.0999999940395","","image-slider-response","182","806389","0.0-181.0","A2LDDDJ4WBKB8Y","","","","","26","","","","","","","","","","","","","","","","","","","","","",""
"2954","","image-button-response","183","811395","0.0-182.0","A2LDDDJ4WBKB8Y","img_art/11.jpg","0","","","","","","","","","","","","","","","","","","","","","","","","",""
"678","","image-button-response","184","812076","0.0-183.0","A2LDDDJ4WBKB8Y","img_art/11.jpg","2","","","","","","","","","","","","","","","","","","","","","","","","",""
"711","","image-button-response","185","812790","0.0-184.0-0.0","A2LDDDJ4WBKB8Y","img_art/11.jpg","5","","","","","","","","","","","","","","","","","","","","","","","","",""
"3993","","image-button-response","186","816788","0.0-185.0-0.0","A2LDDDJ4WBKB8Y","img_art/11.jpg","4","","","","","","","","","","","","","","","","","","","","","","","","",""
"null","","html-keyboard-response","187","817797","0.0-186.0","A2LDDDJ4WBKB8Y","<p style=""font-size: 48px;"">+</p>","","","","","null","allTrialResponses","1000","1","20","img_art/11.jpg","26","like a bleak cityscape","Kristen,Makayla,Kaitlin,Briana,Sydney,Jamie","small town, friendly. calm,35,280,20","Smoggy, oily, industrial. Don't like,1,80,20","a beautiful piece of art,33,60,20","Grays arent my thing,-25,400,20","I don't like the gloomy color, but it reminds me of a city which I like.,35,320,20","Looks like a cityscape,25,320,20","Kaitlin","a beautiful piece of art,33,60,20","Jamie","Looks like a cityscape,25,320,20","Sydney","I don't like the gloomy color, but it reminds me of a city which I like.,35,320,20","2"
"5156","","survey-text","188","822982","0.0-187.0-0.0","A2LDDDJ4WBKB8Y","","","","{""Q0"":""we""}","","","","","","","","","","","","","","","","","","","","","","",""
"17538","","survey-text","189","840523","0.0-188.0-0.0","A2LDDDJ4WBKB8Y","","","","{""Q0"":""busy. muted. ugly.""}","","","","","","","","","","","","","","","","","","","","","","",""
"4378.4000000059605","","image-slider-response","190","844904","0.0-189.0","A2LDDDJ4WBKB8Y","","","","","-42","","","","","","","","","","","","","","","","","","","","","",""
"null","","image-button-response","191","849910","0.0-190.0","A2LDDDJ4WBKB8Y","img_art/29.jpg","null","","","","","","","","","","","","","","","","","","","","","","","","",""
"8997","","image-button-response","192","858910","0.0-191.0","A2LDDDJ4WBKB8Y","img_art/29.jpg","4","","","","","","","","","","","","","","","","","","","","","","","","",""
"1073","","image-button-response","193","859989","0.0-192.0-0.0","A2LDDDJ4WBKB8Y","img_art/29.jpg","3","","","","","","","","","","","","","","","","","","","","","","","","",""
"2604","","image-button-response","194","862599","0.0-193.0-0.0","A2LDDDJ4WBKB8Y","img_art/29.jpg","1","","","","","","","","","","","","","","","","","","","","","","","","",""
"null","","html-keyboard-response","195","864104","0.0-194.0","A2LDDDJ4WBKB8Y","<p style=""font-size: 48px;"">+</p>","","","","","null","allTrialResponses","1500","1","21","img_art/29.jpg","-42","busy. muted. ugly.","Michaela,Megan,Kaitlin,Mikayla,Sydney,Jamie","Like a crime scene. It's neat and different,30,260,20","Pinball meets a dark dream meets whale alien, drab,13,200,20","seems fun, looks like a battle zone,22,60,20","Its kinda scary,-35,300,20","I like that the colors are toned down even though they're everywhere.,5,320,20","3D looks is really cool,30,320,20","Sydney","I like that the colors are toned down even though they're everywhere.,5,320,20","Mikayla","Its kinda scary,-35,300,20","Megan","Pinball meets a dark dream meets whale alien, drab,13,200,20","2"
"21662","","survey-text","196","885785","0.0-195.0-0.0","A2LDDDJ4WBKB8Y","","","","{""Q0"":""disturbing and like a mix of the macabre with the childlike""}","","","","","","","","","","","","","","","","","","","","","","",""
"3558.7999999970198","","image-slider-response","197","889349","0.0-196.0","A2LDDDJ4WBKB8Y","","","","","-28","","","","","","","","","","","","","","","","","","","","","",""
"4948","","image-button-response","198","894362","0.0-197.0","A2LDDDJ4WBKB8Y","img_art/16.jpg","1","","","","","","","","","","","","","","","","","","","","","","","","",""
"803","","image-button-response","199","895168","0.0-198.0","A2LDDDJ4WBKB8Y","img_art/16.jpg","1","","","","","","","","","","","","","","","","","","","","","","","","",""
"1506","","image-button-response","200","896679","0.0-199.0-0.0","A2LDDDJ4WBKB8Y","img_art/16.jpg","4","","","","","","","","","","","","","","","","","","","","","","","","",""
"687","","image-button-response","201","897369","0.0-200.0-0.0","A2LDDDJ4WBKB8Y","img_art/16.jpg","3","","","","","","","","","","","","","","","","","","","","","","","","",""
"null","","html-keyboard-response","202","898873","0.0-201.0","A2LDDDJ4WBKB8Y","<p style=""font-size: 48px;"">+</p>","","","","","null","allTrialResponses","1500","1","22","img_art/16.jpg","-28","disturbing and like a mix of the macabre with the childlike","Brianna,Megan,Courtney,Mikayla,Sydney,Cassidy","It is interesting to say the least,0,20,20","Ugly, broken up and mismatched,-50,200,20","Hmm i don't know what going on here.,1,280,20","The teddy bear is scary as hell.,-44,300,20","This piece is unusual but unique.,5,320,20","I don't know why, I just don't like it,-28,140,20","Megan","Ugly, broken up and mismatched,-50,200,20","Sydney","This piece is unusual but unique.,5,320,20","Mikayla","The teddy bear is scary as hell.,-44,300,20","2"
"21630","","survey-text","203","920523","0.0-202.0-0.0","A2LDDDJ4WBKB8Y","","","","{""Q0"":""holy and glowing all at once""}","","","","","","","","","","","","","","","","","","","","","","",""
"2880.9000000059605","","image-slider-response","204","923407","0.0-203.0","A2LDDDJ4WBKB8Y","","","","","19","","","","","","","","","","","","","","","","","","","","","",""
"2728","","image-button-response","205","928415","0.0-204.0","A2LDDDJ4WBKB8Y","img_art/25.jpg","1","","","","","","","","","","","","","","","","","","","","","","","","",""
"375","","image-button-response","206","928793","0.0-205.0","A2LDDDJ4WBKB8Y","img_art/25.jpg","1","","","","","","","","","","","","","","","","","","","","","","","","",""
"3876","","image-button-response","207","932672","0.0-206.0-0.0","A2LDDDJ4WBKB8Y","img_art/25.jpg","4","","","","","","","","","","","","","","","","","","","","","","","","",""
"1503","","image-button-response","208","934180","0.0-207.0-0.0","A2LDDDJ4WBKB8Y","img_art/25.jpg","5","","","","","","","","","","","","","","","","","","","","","","","","",""
"null","","html-keyboard-response","209","935686","0.0-208.0","A2LDDDJ4WBKB8Y","<p style=""font-size: 48px;"">+</p>","","","","","null","allTrialResponses","1500","1","23","img_art/25.jpg","19","holy and glowing all at once","Melissa,Megan,Christina,Mikayla,Sydney,Jessica","do not like that color of green,-11,240,20","Beautiful color with an interesting otherworldly figure,29,200,20","nice colors and it looks like a native work,32,240,20","I LOVE fhe scary skeleton.,28,300,20","This piece gives me a lot of questions which I kind of like.,10,320,20","I really like how the lines form this piece.,8,400,20","Megan","Beautiful color with an interesting otherworldly figure,29,200,20","Sydney","This piece gives me a lot of questions which I kind of like.,10,320,20","Jessica","I really like how the lines form this piece.,8,400,20","2"
"12197","","survey-text","210","947903","0.0-209.0-0.0","A2LDDDJ4WBKB8Y","","","","{""Q0"":""sort of cold looking, like a knight emerging from snow""}","","","","","","","","","","","","","","","","","","","","","","",""
"2593.7999999970198","","image-slider-response","211","950500","0.0-210.0","A2LDDDJ4WBKB8Y","","","","","-22","","","","","","","","","","","","","","","","","","","","","",""
"4515","","image-button-response","212","955509","0.0-211.0","A2LDDDJ4WBKB8Y","img_art/18.jpg","0","","","","","","","","","","","","","","","","","","","","","","","","",""
"553","","image-button-response","213","956066","0.0-212.0","A2LDDDJ4WBKB8Y","img_art/18.jpg","0","","","","","","","","","","","","","","","","","","","","","","","","",""
"2217","","image-button-response","214","958285","0.0-213.0-0.0","A2LDDDJ4WBKB8Y","img_art/18.jpg","0","","","","","","","","","","","","","","","","","","","","","","","","",""
"3392","","image-button-response","215","964537","0.0-213.1-0.1","A2LDDDJ4WBKB8Y","img_art/18.jpg","3","","","","","","","","","","","","","","","","","","","","","","","","",""
"908","","image-button-response","216","965450","0.0-214.0-0.0","A2LDDDJ4WBKB8Y","img_art/18.jpg","4","","","","","","","","","","","","","","","","","","","","","","","","",""
"null","","html-keyboard-response","217","966954","0.0-215.0","A2LDDDJ4WBKB8Y","<p style=""font-size: 48px;"">+</p>","","","","","null","allTrialResponses","1500","1","24","img_art/18.jpg","-22","sort of cold looking, like a knight emerging from snow","Alexis,Megan,Taylor,Hannah,Sydney,Jessica","Crusade-feel, but a little too abstract for my taste,23,100,20","Nice palette with complexity becoming nice at the center,34,200,20","Another ominous painting,-10,340,20","Looks like ghost figures on a boat. It's okay.,7,240,20","I like the colors being used, but I don't like the chaos in the middle of it.,20,320,20","I think this looks pretty cool, I can see what's kind of going on here.,22,400,20","Alexis","Crusade-feel, but a little too abstract for my taste,23,100,20","Hannah","Looks like ghost figures on a boat. It's okay.,7,240,20","Sydney","I like the colors being used, but I don't like the chaos in the middle of it.,20,320,20","4"
"8861","","survey-text","218","975836","0.0-216.0-0.0","A2LDDDJ4WBKB8Y","","","","{""Q0"":""looks watery, as though viewed through tears""}","","","","","","","","","","","","","","","","","","","","","","",""
"2087.3999999910593","","image-slider-response","219","977926","0.0-217.0","A2LDDDJ4WBKB8Y","","","","","17","","","","","","","","","","","","","","","","","","","","","",""
"null","","image-button-response","220","982932","0.0-218.0","A2LDDDJ4WBKB8Y","img_art/19.jpg","null","","","","","","","","","","","","","","","","","","","","","","","","",""
"6016","","image-button-response","221","988951","0.0-219.0","A2LDDDJ4WBKB8Y","img_art/19.jpg","4","","","","","","","","","","","","","","","","","","","","","","","","",""
"1985","","image-button-response","222","990942","0.0-220.0-0.0","A2LDDDJ4WBKB8Y","img_art/19.jpg","5","","","","","","","","","","","","","","","","","","","","","","","","",""
"2084","","image-button-response","223","993031","0.0-221.0-0.0","A2LDDDJ4WBKB8Y","img_art/19.jpg","2","","","","","","","","","","","","","","","","","","","","","","","","",""
"null","","html-keyboard-response","224","994039","0.0-222.0","A2LDDDJ4WBKB8Y","<p style=""font-size: 48px;"">+</p>","","","","","null","allTrialResponses","1000","1","25","img_art/19.jpg","17","looks watery, as though viewed through tears","Alexis,Sophia,Caroline,Hannah,Sydney,Grace","Not a fan of the blobbiness,-22,100,20","This looks like a child's piece. I appreciate the artistic value, but not for me.,-20,280,20","Chaotic. Too much going on in the picture,14,100,20","Just don't like this one.,-9,240,20","I like the color and the mix of sketches along with paint.,30,320,20","Looks like a child's rendering of a city street but not too sure.,0,180,20","Sydney","I like the color and the mix of sketches along with paint.,30,320,20","Grace","Looks like a child's rendering of a city street but not too sure.,0,180,20","Caroline","Chaotic. Too much going on in the picture,14,100,20","4"
"4007","","survey-text","225","998081","0.0-223.0-0.0","A2LDDDJ4WBKB8Y","","","","{""Q0"":""table""}","","","","","","","","","","","","","","","","","","","","","","",""
"13041","","survey-text","226","1011124","0.0-224.0-0.0","A2LDDDJ4WBKB8Y","","","","{""Q0"":""looks almost moldy in its attempt at verdency""}","","","","","","","","","","","","","","","","","","","","","","",""
"2562.5","","image-slider-response","227","1013689","0.0-225.0","A2LDDDJ4WBKB8Y","","","","","-22","","","","","","","","","","","","","","","","","","","","","",""
"3986","","image-button-response","228","1018695","0.0-226.0","A2LDDDJ4WBKB8Y","img_art/2.jpg","2","","","","","","","","","","","","","","","","","","","","","","","","",""
"1011","","image-button-response","229","1019710","0.0-227.0","A2LDDDJ4WBKB8Y","img_art/2.jpg","2","","","","","","","","","","","","","","","","","","","","","","","","",""
"3346","","image-button-response","230","1023059","0.0-228.0-0.0","A2LDDDJ4WBKB8Y","img_art/2.jpg","3","","","","","","","","","","","","","","","","","","","","","","","","",""
"1926","","image-button-response","231","1024991","0.0-229.0-0.0","A2LDDDJ4WBKB8Y","img_art/2.jpg","5","","","","","","","","","","","","","","","","","","","","","","","","",""
"null","","html-keyboard-response","232","1026495","0.0-230.0","A2LDDDJ4WBKB8Y","<p style=""font-size: 48px;"">+</p>","","","","","null","allTrialResponses","1500","1","26","img_art/2.jpg","-22","looks almost moldy in its attempt at verdency","Erin,Diana,Caroline,Caitlin,Sydney,Grace","There is an odd face here that is creepy,-4,120,20","I think I see people sitting in lawn chairs in a circle watching an event. Not really sure so I rated it lower.,-35,380,20","Colors are drab and cause a sense of blandness,-28,100,20","Have now advanced from kindergarten to the first grade.,-5,80,20","I like the color, but I feel like I see a creepy face which I dislike.,-5,320,20","Like the colors but reminds me of a kids show done in cubism.,0,180,20","Caroline","Colors are drab and cause a sense of blandness,-28,100,20","Caitlin","Have now advanced from kindergarten to the first grade.,-5,80,20","Grace","Like the colors but reminds me of a kids show done in cubism.,0,180,20","4"
"8042","","survey-text","233","1034558","0.0-231.0-0.0","A2LDDDJ4WBKB8Y","","","","{""Q0"":""I love the ways the blues are used so nice and dark""}","","","","","","","","","","","","","","","","","","","","","","",""
"3344.2000000029802","","image-slider-response","234","1037906","0.0-232.0","A2LDDDJ4WBKB8Y","","","","","20","","","","","","","","","","","","","","","","","","","","","",""
"4474","","image-button-response","235","1042912","0.0-233.0","A2LDDDJ4WBKB8Y","img_art/20.jpg","1","","","","","","","","","","","","","","","","","","","","","","","","",""
"786","","image-button-response","236","1043703","0.0-234.0","A2LDDDJ4WBKB8Y","img_art/20.jpg","1","","","","","","","","","","","","","","","","","","","","","","","","",""
"3706","","image-button-response","237","1047414","0.0-235.0-0.0","A2LDDDJ4WBKB8Y","img_art/20.jpg","4","","","","","","","","","","","","","","","","","","","","","","","","",""
"826","","image-button-response","238","1048245","0.0-236.0-0.0","A2LDDDJ4WBKB8Y","img_art/20.jpg","5","","","","","","","","","","","","","","","","","","","","","","","","",""
"null","","html-keyboard-response","239","1048752","0.0-237.0","A2LDDDJ4WBKB8Y","<p style=""font-size: 48px;"">+</p>","","","","","null","allTrialResponses","500","1","27","img_art/20.jpg","20","I love the ways the blues are used so nice and dark","Kaylee,Angela,Caroline,Caitlin,Ashley,Grace","i can see a car crash,13,200,20","I like the blues, and the sense of foreboding it makes me feel.,20,260,20","Makes me feel weary,21,100,20","Not bad for all the southwestern people.,15,80,20","Painting within a painting, abstract.,32,320,20","Reminds me of Georgia O'Keefe.,11,180,20","Angela","I like the blues, and the sense of foreboding it makes me feel.,20,260,20","Ashley","Painting within a painting, abstract.,32,320,20","Grace","Reminds me of Georgia O'Keefe.,11,180,20","4"
"8089","","survey-text","240","1056861","0.0-238.0-0.0","A2LDDDJ4WBKB8Y","","","","{""Q0"":""just scribbles; I don't like it""}","","","","","","","","","","","","","","","","","","","","","","",""
"4574.300000011921","","image-slider-response","241","1061439","0.0-239.0","A2LDDDJ4WBKB8Y","","","","","-18","","","","","","","","","","","","","","","","","","","","","",""
"3184","","image-button-response","242","1066446","0.0-240.0","A2LDDDJ4WBKB8Y","img_art/3.jpg","0","","","","","","","","","","","","","","","","","","","","","","","","",""
"106","","image-button-response","243","1066555","0.0-241.0","A2LDDDJ4WBKB8Y","img_art/3.jpg","0","","","","","","","","","","","","","","","","","","","","","","","","",""
"665","","image-button-response","244","1067224","0.0-242.0-0.0","A2LDDDJ4WBKB8Y","img_art/3.jpg","0","","","","","","","","","","","","","","","","","","","","","","","","",""
"737","","image-button-response","245","1071672","0.0-242.1-0.1","A2LDDDJ4WBKB8Y","img_art/3.jpg","3","","","","","","","","","","","","","","","","","","","","","","","","",""
"1962","","image-button-response","246","1073639","0.0-243.0-0.0","A2LDDDJ4WBKB8Y","img_art/3.jpg","5","","","","","","","","","","","","","","","","","","","","","","","","",""
"null","","html-keyboard-response","247","1074142","0.0-244.0","A2LDDDJ4WBKB8Y","<p style=""font-size: 48px;"">+</p>","","","","","null","allTrialResponses","500","1","28","img_art/3.jpg","-18","just scribbles; I don't like it","Laura,Angela,Crystal,Kelsey,Ashley,Grace","wild scribbling, freedom, expression,40,320,20","Like the colors and energy of this work.,10,260,20","I like the abstract flowing lines. It lacks hard rigid marks and flow nicely into a piece of calamity.,32,300,20","just scribbles, not pleasing,-30,240,20","Reminds of John Lenonn's art a bit.,27,320,20","Just no. I love red but this looks like blood splatter on a wall from a horrific killing.,-45,180,20","Laura","wild scribbling, freedom, expression,40,320,20","Kelsey","just scribbles, not pleasing,-30,240,20","Grace","Just no. I love red but this looks like blood splatter on a wall from a horrific killing.,-45,180,20","6"
"9342","","survey-text","248","1083508","0.0-245.0-0.0","A2LDDDJ4WBKB8Y","","","","{""Q0"":""almost like inverted colors of a rosebush""}","","","","","","","","","","","","","","","","","","","","","","",""
"1865.2000000029802","","image-slider-response","249","1085376","0.0-246.0","A2LDDDJ4WBKB8Y","","","","","-19","","","","","","","","","","","","","","","","","","","","","",""
"4595","","image-button-response","250","1090386","0.0-247.0","A2LDDDJ4WBKB8Y","img_art/15.jpg","0","","","","","","","","","","","","","","","","","","","","","","","","",""
"862","","image-button-response","251","1091252","0.0-248.0","A2LDDDJ4WBKB8Y","img_art/15.jpg","0","","","","","","","","","","","","","","","","","","","","","","","","",""
"2109","","image-button-response","252","1093365","0.0-249.0-0.0","A2LDDDJ4WBKB8Y","img_art/15.jpg","4","","","","","","","","","","","","","","","","","","","","","","","","",""
"892","","image-button-response","253","1094263","0.0-250.0-0.0","A2LDDDJ4WBKB8Y","img_art/15.jpg","5","","","","","","","","","","","","","","","","","","","","","","","","",""
"null","","html-keyboard-response","254","1095268","0.0-251.0","A2LDDDJ4WBKB8Y","<p style=""font-size: 48px;"">+</p>","","","","","null","allTrialResponses","1000","1","29","img_art/15.jpg","-19","almost like inverted colors of a rosebush","Laura,Paige,Stephanie,Kelsey,Miranda,Grace","abrasive, rough, uneven,-31,320,20","I feel nothing when looking at this,1,60,20","This piece is too dark,-42,300,20","i kinda like this one but wouldnt buy it for myself,17,240,20","This gives a skin crawling feeling. Like something that you could see under a mircoscope,10,320,20","Interesting. Reminds me of a biopsy slide.,21,180,20","Laura","abrasive, rough, uneven,-31,320,20","Miranda","This gives a skin crawling feeling. Like something that you could see under a mircoscope,10,320,20","Grace","Interesting. Reminds me of a biopsy slide.,21,180,20","6"
"7214","","survey-text","255","1102506","0.0-252.0-0.0","A2LDDDJ4WBKB8Y","","","","{""Q0"":""the colors in this are beautiful and dreamy""}","","","","","","","","","","","","","","","","","","","","","","",""
"3310.1000000089407","","image-slider-response","256","1105819","0.0-253.0","A2LDDDJ4WBKB8Y","","","","","40","","","","","","","","","","","","","","","","","","","","","",""
"null","","image-button-response","257","1111537","0.0-254.0","A2LDDDJ4WBKB8Y","img_art/21.jpg","null","","","","","","","","","","","","","","","","","","","","","","","","",""
"20026","","image-button-response","258","1131566","0.0-255.0","A2LDDDJ4WBKB8Y","img_art/21.jpg","5","","","","","","","","","","","","","","","","","","","","","","","","",""
"2695","","image-button-response","259","1134266","0.0-256.0-0.0","A2LDDDJ4WBKB8Y","img_art/21.jpg","3","","","","","","","","","","","","","","","","","","","","","","","","",""
"1162","","image-button-response","260","1135434","0.0-257.0-0.0","A2LDDDJ4WBKB8Y","img_art/21.jpg","0","","","","","","","","","","","","","","","","","","","","","","","","",""
"null","","html-keyboard-response","261","1136437","0.0-258.0","A2LDDDJ4WBKB8Y","<p style=""font-size: 48px;"">+</p>","","","","","null","allTrialResponses","1000","1","30","img_art/21.jpg","40","the colors in this are beautiful and dreamy","Laura,Mackenzie,Gabriela,Alexandria,Miranda,Grace","a serene, calm and eloquent storm,9,320,20","The shapes and colors are very interesting to look at.,41,20,20","It makes me feel mellow or ""chill"". It makes me have a positive and calm mood,42,140,20","the vast colors make me happy,15,80,20","This looks very interesting because something is happening but I can't tell what.,28,320,20","Like the colors, the cloudy, airy effects. Nice.,46,180,20","Grace","Like the colors, the cloudy, airy effects. Nice.,46,180,20","Alexandria","the vast colors make me happy,15,80,20","Laura","a serene, calm and eloquent storm,9,320,20","6"
"2082","","image-button-response_instructions","262","1138542","0.0-259.0","A2LDDDJ4WBKB8Y","","0","instructions","","","","","","","","","","","","","","","","","","","","","","","",""
"1446","","image-button-response","263","1140011","0.0-260.0","A2LDDDJ4WBKB8Y","","0","","","","","","","","","","","","","","","","","","","","","","","","",""
