"rt","url","trial_type","trial_index","time_elapsed","internal_node_id","participant_id","stimulus","button_pressed","Name","responses","response","key_press","variableName","fixationTime","condition","trial","photo","subjectRating","subjectResponse","agentsNames","agent_1_Response","agent_2_Response","agent_3_Response","agent_4_Response","agent_5_Response","agent_6_Response","kept_1_name","kept_1_response","kept_2_name","kept_2_response","kept_3_name","kept_3_response","errorCounter"
"39403","external_page_harvard.html","external-html","0","39487","0.0-0.0","A2LKGF193ZR5JP","","","","","","","","","","","","","","","","","","","","","","","","","","",""
"3110","","image-button-response","1","42598","0.0-1.0","A2LKGF193ZR5JP","","0","","","","","","","","","","","","","","","","","","","","","","","","",""
"2505","","image-button-response","2","45109","0.0-2.0-0.0","A2LKGF193ZR5JP","","1","phone","","","","","","","","","","","","","","","","","","","","","","","",""
"8918","","survey-text","3","54029","0.0-3.0-0.0","A2LKGF193ZR5JP","","","","{""Q0"":""A2LKGF193ZR5JP""}","","","","","","","","","","","","","","","","","","","","","","",""
"9040","","image-button-response_instructions","4","63071","0.0-4.0","A2LKGF193ZR5JP","","0","instructions","","","","","","","","","","","","","","","","","","","","","","","",""
"25634","","image-button-response_instructions","5","88708","0.0-5.0","A2LKGF193ZR5JP","img_art/ins/popularity/ins1.png","0","instructions","","","","","","","","","","","","","","","","","","","","","","","",""
"5653","","image-button-response_instructions","6","94363","0.0-6.0","A2LKGF193ZR5JP","img_art/ins/popularity/ins2.png","0","instructions","","","","","","","","","","","","","","","","","","","","","","","",""
"6552","","image-button-response_instructions","7","100916","0.0-7.0","A2LKGF193ZR5JP","img_art/ins/popularity/ins2Extreme.png","0","instructions","","","","","","","","","","","","","","","","","","","","","","","",""
"7245","","image-button-response_instructions","8","108163","0.0-8.0","A2LKGF193ZR5JP","img_art/ins/popularity/ins3KEEPpop.PNG","0","instructions","","","","","","","","","","","","","","","","","","","","","","","",""
"6033","","image-button-response_instructions","9","114196","0.0-9.0","A2LKGF193ZR5JP","img_art/ins/popularity/ins3ANamepop.PNG","0","instructions","","","","","","","","","","","","","","","","","","","","","","","",""
"5275","","image-button-response_instructions","10","119474","0.0-10.0","A2LKGF193ZR5JP","img_art/ins/popularity/ins3ARatingpop.png","0","instructions","","","","","","","","","","","","","","","","","","","","","","","",""
"7272","","image-button-response_instructions","11","126747","0.0-11.0","A2LKGF193ZR5JP","img_art/ins/popularity/ins3ATextpop.png","0","instructions","","","","","","","","","","","","","","","","","","","","","","","",""
"7936","","image-button-response_instructions","12","134683","0.0-12.0","A2LKGF193ZR5JP","img_art/ins/popularity/ins3ALikespop.png","0","instructions","","","","","","","","","","","","","","","","","","","","","","","",""
"16443","","image-button-response_instructions","13","151127","0.0-13.0","A2LKGF193ZR5JP","img_art/ins/popularity/ins3KEEPpop.PNG","0","instructions","","","","","","","","","","","","","","","","","","","","","","","",""
"382234","","image-button-response_instructions","14","533366","0.0-14.0","A2LKGF193ZR5JP","img_art/ins/popularity/ins3_5RED.png","0","instructions","","","","","","","","","","","","","","","","","","","","","","","",""
"7235","","image-button-response_instructions","15","540603","0.0-15.0","A2LKGF193ZR5JP","img_art/ins/popularity/ins3KEEPpop.PNG","0","instructions","","","","","","","","","","","","","","","","","","","","","","","",""
"14581","","image-button-response_instructions","16","555186","0.0-16.0","A2LKGF193ZR5JP","img_art/ins/popularity/ins4KEEPpop.PNG","0","instructions","","","","","","","","","","","","","","","","","","","","","","","",""
"5510","","image-button-response_instructions","17","560697","0.0-17.0","A2LKGF193ZR5JP","img_art/ins/popularity/ins5KEEPpop.PNG","0","instructions","","","","","","","","","","","","","","","","","","","","","","","",""
"2396","","image-button-response_instructions","18","563095","0.0-18.0","A2LKGF193ZR5JP","","0","instructions","","","","","","","","","","","","","","","","","","","","","","","",""
"6232","","survey-text","19","569369","0.0-19.0-0.0","A2LKGF193ZR5JP","","","","{""Q0"":""but""}","","","","","","","","","","","","","","","","","","","","","","",""
"24625","","survey-text","20","593996","0.0-20.0-0.0","A2LKGF193ZR5JP","","","","{""Q0"":""It seems to be a field but I don't like the colors""}","","","","","","","","","","","","","","","","","","","","","","",""
"6374.599999904633","","image-slider-response","21","600376","0.0-21.0","A2LKGF193ZR5JP","","","","","-24","","","","","","","","","","","","","","","","","","","","","",""
"null","","image-button-response","22","605379","0.0-22.0","A2LKGF193ZR5JP","img_art/ins/1.jpg","null","","","","","","","","","","","","","","","","","","","","","","","","",""
"5919","","image-button-response","23","611302","0.0-23.0","A2LKGF193ZR5JP","img_art/ins/1.jpg","2","","","","","","","","","","","","","","","","","","","","","","","","",""
"7049","","image-button-response","24","618356","0.0-24.0-0.0","A2LKGF193ZR5JP","img_art/ins/1.jpg","0","","","","","","","","","","","","","","","","","","","","","","","","",""
"9883","","image-button-response","25","628243","0.0-25.0-0.0","A2LKGF193ZR5JP","img_art/ins/1.jpg","1","","","","","","","","","","","","","","","","","","","","","","","","",""
"null","","html-keyboard-response","26","629251","0.0-26.0","A2LKGF193ZR5JP","<p style=""font-size: 48px;"">+</p>","","","","","null","allTrialResponses","1000","1","-2","img_art/ins/1.jpg","-24","It seems to be a field but I don't like the colors","Adam,Alex,Ben,Carl,Daniel,Jack","Seems like doodles,-20,20,20","very creative work.,36,40,20","This color reminds me of poo,-46,60,20","very calming artwork,42,80,20","It looks like a murder scene.,-48,100,20","I like the sophisticated brushwork,40,120,20","Ben","This color reminds me of poo,-46,60,20","Adam","Seems like doodles,-20,20,20","Alex","very creative work.,36,40,20","0"
"32395","","survey-text","27","661650","0.0-27.0-0.0","A2LKGF193ZR5JP","","","","{""Q0"":""Looks like a funeral, I don't like the brushstrokes""}","","","","","","","","","","","","","","","","","","","","","","",""
"3965.899999976158","","image-slider-response","28","665617","0.0-28.0","A2LKGF193ZR5JP","","","","","-21","","","","","","","","","","","","","","","","","","","","","",""
"null","","image-button-response","29","670621","0.0-29.0","A2LKGF193ZR5JP","img_art/ins/2.jpg","null","","","","","","","","","","","","","","","","","","","","","","","","",""
"4784","","image-button-response","30","675406","0.0-30.0","A2LKGF193ZR5JP","img_art/ins/2.jpg","5","","","","","","","","","","","","","","","","","","","","","","","","",""
"1404","","image-button-response","31","676812","0.0-31.0-0.0","A2LKGF193ZR5JP","img_art/ins/2.jpg","3","","","","","","","","","","","","","","","","","","","","","","","","",""
"1784","","image-button-response","32","678598","0.0-32.0-0.0","A2LKGF193ZR5JP","img_art/ins/2.jpg","2","","","","","","","","","","","","","","","","","","","","","","","","",""
"null","","html-keyboard-response","33","680099","0.0-33.0","A2LKGF193ZR5JP","<p style=""font-size: 48px;"">+</p>","","","","","null","allTrialResponses","1500","1","-1","img_art/ins/2.jpg","-21","Looks like a funeral, I don't like the brushstrokes","Adam,Alex,Ben,James,John,Kyle","too much color,-18,20,20","I like the blocks of color arrangements,30,40,20","meaningless painting,-45,60,20","looks too angry,-50,140,20","love the texture of paint,48,160,20","Idk, it is just annoying,-32,180,20","Kyle","Idk, it is just annoying,-32,180,20","James","looks too angry,-50,140,20","Ben","meaningless painting,-45,60,20","0"
"16114","","survey-text","34","696222","0.0-34.0-0.0","A2LKGF193ZR5JP","","","","{""Q0"":""I like the blue colors, its calming""}","","","","","","","","","","","","","","","","","","","","","","",""
"3286","","image-slider-response","35","699509","0.0-35.0","A2LKGF193ZR5JP","","","","","22","","","","","","","","","","","","","","","","","","","","","",""
"4177","","image-button-response","36","704512","0.0-36.0","A2LKGF193ZR5JP","img_art/ins/3.jpg","0","","","","","","","","","","","","","","","","","","","","","","","","",""
"2504","","image-button-response","37","707019","0.0-37.0","A2LKGF193ZR5JP","img_art/ins/3.jpg","0","","","","","","","","","","","","","","","","","","","","","","","","",""
"698","","image-button-response","38","707723","0.0-38.0-0.0","A2LKGF193ZR5JP","img_art/ins/3.jpg","1","","","","","","","","","","","","","","","","","","","","","","","","",""
"6680","","image-button-response","39","714407","0.0-39.0-0.0","A2LKGF193ZR5JP","img_art/ins/3.jpg","5","","","","","","","","","","","","","","","","","","","","","","","","",""
"null","","html-keyboard-response","40","715912","0.0-40.0","A2LKGF193ZR5JP","<p style=""font-size: 48px;"">+</p>","","","","","null","allTrialResponses","1500","1","0","img_art/ins/3.jpg","22","I like the blue colors, its calming","Sam,Mike,Ben,James,Ron,Kyle","I can feel a rainy day from this painting,18,240,20","enjoy the different shades of blue,22,200,20","This thing gives me anxiety,-41,60,20","My worst nightmare,-42,140,20","It looks depressing,-26,220,20","It looks like a playground for bats,-36,180,20","Sam","I can feel a rainy day from this painting,18,240,20","Mike","enjoy the different shades of blue,22,200,20","Kyle","It looks like a playground for bats,-36,180,20","0"
"8570","","image-button-response_instructions","41","724488","0.0-41.0","A2LKGF193ZR5JP","","0","instructions","","","","","","","","","","","","","","","","","","","","","","","",""
"10342","","survey-likert","42","734831","0.0-42.0-0.0","A2LKGF193ZR5JP","","","","{""Q0"":"""",""Q1"":0,""Q2"":1}","","","","","","","","","","","","","","","","","","","","","","",""
"6101","","survey-text","43","740935","0.0-43.0-0.0","A2LKGF193ZR5JP","","","","{""Q0"":""rock""}","","","","","","","","","","","","","","","","","","","","","","",""
"43626","","survey-text","44","784562","0.0-44.0-0.0","A2LKGF193ZR5JP","","","","{""Q0"":""It seems to portray a walk down the lane, I like the trees""}","","","","","","","","","","","","","","","","","","","","","","",""
"3696.7999999523163","","image-slider-response","45","788261","0.0-45.0","A2LKGF193ZR5JP","","","","","15","","","","","","","","","","","","","","","","","","","","","",""
"null","","image-button-response","46","793295","0.0-46.0","A2LKGF193ZR5JP","img_art/26.jpg","null","","","","","","","","","","","","","","","","","","","","","","","","",""
"735","","image-button-response","47","794031","0.0-47.0","A2LKGF193ZR5JP","img_art/26.jpg","2","","","","","","","","","","","","","","","","","","","","","","","","",""
"4170","","image-button-response","48","798203","0.0-48.0-0.0","A2LKGF193ZR5JP","img_art/26.jpg","4","","","","","","","","","","","","","","","","","","","","","","","","",""
"964","","image-button-response","49","799168","0.0-49.0-0.0","A2LKGF193ZR5JP","img_art/26.jpg","3","","","","","","","","","","","","","","","","","","","","","","","","",""
"null","","html-keyboard-response","50","799671","0.0-50.0","A2LKGF193ZR5JP","<p style=""font-size: 48px;"">+</p>","","","","","null","allTrialResponses","500","1","1","img_art/26.jpg","15","It seems to portray a walk down the lane, I like the trees","Chase,Hunter,Noah,Scott,Jared,Brian","I don't really see the point in this painting.,-16,120,20","feels incomplete,-50,240,20","fairly neutral, really,8,260,20","nothing really special, quite bland,1,20,20","soothing and subtle,1,400,20","I'm not really into landscapes unless I have a personal connection to them,-21,380,20","Noah","fairly neutral, really,8,260,20","Jared","soothing and subtle,1,400,20","Scott","nothing really special, quite bland,1,20,20","0"
"27061","","survey-text","51","826735","0.0-51.0-0.0","A2LKGF193ZR5JP","","","","{""Q0"":""Not a fan of this type of art but seems nicely done""}","","","","","","","","","","","","","","","","","","","","","","",""
"3596.600000023842","","image-slider-response","52","830333","0.0-52.0","A2LKGF193ZR5JP","","","","","6","","","","","","","","","","","","","","","","","","","","","",""
"null","","image-button-response","53","835335","0.0-53.0","A2LKGF193ZR5JP","img_art/8.jpg","null","","","","","","","","","","","","","","","","","","","","","","","","",""
"3942","","image-button-response","54","839277","0.0-54.0","A2LKGF193ZR5JP","img_art/8.jpg","2","","","","","","","","","","","","","","","","","","","","","","","","",""
"8653","","image-button-response","55","847931","0.0-55.0-0.0","A2LKGF193ZR5JP","img_art/8.jpg","0","","","","","","","","","","","","","","","","","","","","","","","","",""
"1998","","image-button-response","56","849934","0.0-56.0-0.0","A2LKGF193ZR5JP","img_art/8.jpg","1","","","","","","","","","","","","","","","","","","","","","","","","",""
"null","","html-keyboard-response","57","851437","0.0-57.0","A2LKGF193ZR5JP","<p style=""font-size: 48px;"">+</p>","","","","","null","allTrialResponses","1500","1","2","img_art/8.jpg","6","Not a fan of this type of art but seems nicely done","Alexander,Nathan,Noah,Scott,Jared,David","Falling into a city's heart.,10,120,20","Enjoy this, it looks like a rushing water pool, surrounded by mountains and buildings, hiding details such as faces.,30,200,20","not sure what to make of this - just neutral again,-1,260,20","the face is creepy,-49,20,20","i love the colors, the church and the face,42,400,20","I like how the piece is showcasing emotion in relation to something.,25,340,20","Noah","not sure what to make of this - just neutral again,-1,260,20","Alexander","Falling into a city's heart.,10,120,20","Nathan","Enjoy this, it looks like a rushing water pool, surrounded by mountains and buildings, hiding details such as faces.,30,200,20","0"
"33856","","survey-text","58","885295","0.0-58.0-0.0","A2LKGF193ZR5JP","","","","{""Q0"":""I don't get what this is supposed to be, kind of pointless""}","","","","","","","","","","","","","","","","","","","","","","",""
"2870.899999976158","","image-slider-response","59","888167","0.0-59.0","A2LKGF193ZR5JP","","","","","-12","","","","","","","","","","","","","","","","","","","","","",""
"null","","image-button-response","60","893169","0.0-60.0","A2LKGF193ZR5JP","img_art/5.jpg","null","","","","","","","","","","","","","","","","","","","","","","","","",""
"5163","","image-button-response","61","898338","0.0-61.0","A2LKGF193ZR5JP","img_art/5.jpg","3","","","","","","","","","","","","","","","","","","","","","","","","",""
"3093","","image-button-response","62","901434","0.0-62.0-0.0","A2LKGF193ZR5JP","img_art/5.jpg","4","","","","","","","","","","","","","","","","","","","","","","","","",""
"4770","","image-button-response","63","906208","0.0-63.0-0.0","A2LKGF193ZR5JP","img_art/5.jpg","2","","","","","","","","","","","","","","","","","","","","","","","","",""
"null","","html-keyboard-response","64","907710","0.0-64.0","A2LKGF193ZR5JP","<p style=""font-size: 48px;"">+</p>","","","","","null","allTrialResponses","1500","1","3","img_art/5.jpg","-12","I don't get what this is supposed to be, kind of pointless","Alexander,Nathan,Noah,Zachary,Caleb,Kevin","Dull pyramid that says nothing.,7,120,20","Not a fan of the themes,-30,200,20","this feels like something I should like, but I'm not feeling the execution,-10,260,20","Not sure what to make of this one.,-1,400,20","Boring and appears low effort,-41,40,20","A rabbits head.,4,320,20","Zachary","Not sure what to make of this one.,-1,400,20","Caleb","Boring and appears low effort,-41,40,20","Noah","this feels like something I should like, but I'm not feeling the execution,-10,260,20","0"
"35129","","survey-text","65","942841","0.0-65.0-0.0","A2LKGF193ZR5JP","","","","{""Q0"":""I get the feeling of a ceremonial funeral, I really like the green""}","","","","","","","","","","","","","","","","","","","","","","",""
"3045.2000000476837","","image-slider-response","66","945888","0.0-66.0","A2LKGF193ZR5JP","","","","","17","","","","","","","","","","","","","","","","","","","","","",""
"null","","image-button-response","67","950890","0.0-67.0","A2LKGF193ZR5JP","img_art/25.jpg","null","","","","","","","","","","","","","","","","","","","","","","","","",""
"580","","image-button-response","68","951471","0.0-68.0","A2LKGF193ZR5JP","img_art/25.jpg","1","","","","","","","","","","","","","","","","","","","","","","","","",""
"10381","","image-button-response","69","961854","0.0-69.0-0.0","A2LKGF193ZR5JP","img_art/25.jpg","5","","","","","","","","","","","","","","","","","","","","","","","","",""
"6235","","image-button-response","70","968090","0.0-70.0-0.0","A2LKGF193ZR5JP","img_art/25.jpg","0","","","","","","","","","","","","","","","","","","","","","","","","",""
"null","","html-keyboard-response","71","968592","0.0-71.0","A2LKGF193ZR5JP","<p style=""font-size: 48px;"">+</p>","","","","","null","allTrialResponses","500","1","4","img_art/25.jpg","17","I get the feeling of a ceremonial funeral, I really like the green","Garrett,Luke,Noah,Zachary,Caleb,Corey","I like the way the persons clothes look, there could be more color though.,10,180,20","the contrasting colors are very interesting,24,20,20","I find it enjoyable - mainly because it is not art I ever expected to see,16,260,20","I like the green color, but the combination of green and a person with a long neck reminds me of aliens,-27,400,20","Very cool color, very clear message!,50,40,20","love the color and the contrast of the black on teal,50,260,20","Luke","the contrasting colors are very interesting,24,20,20","Corey","love the color and the contrast of the black on teal,50,260,20","Garrett","I like the way the persons clothes look, there could be more color though.,10,180,20","0"
"66732","","survey-text","72","1035327","0.0-72.0-0.0","A2LKGF193ZR5JP","","","","{""Q0"":""I understand it is a hand, but the long fingers are a little unsettling ""}","","","","","","","","","","","","","","","","","","","","","","",""
"3604.100000023842","","image-slider-response","73","1038932","0.0-73.0","A2LKGF193ZR5JP","","","","","-27","","","","","","","","","","","","","","","","","","","","","",""
"null","","image-button-response","74","1043940","0.0-74.0","A2LKGF193ZR5JP","img_art/4.jpg","null","","","","","","","","","","","","","","","","","","","","","","","","",""
"6505","","image-button-response","75","1050446","0.0-75.0","A2LKGF193ZR5JP","img_art/4.jpg","4","","","","","","","","","","","","","","","","","","","","","","","","",""
"3501","","image-button-response","76","1053948","0.0-76.0-0.0","A2LKGF193ZR5JP","img_art/4.jpg","3","","","","","","","","","","","","","","","","","","","","","","","","",""
"5365","","image-button-response","77","1059316","0.0-77.0-0.0","A2LKGF193ZR5JP","img_art/4.jpg","0","","","","","","","","","","","","","","","","","","","","","","","","",""
"null","","html-keyboard-response","78","1060320","0.0-78.0","A2LKGF193ZR5JP","<p style=""font-size: 48px;"">+</p>","","","","","null","allTrialResponses","1000","1","5","img_art/4.jpg","-27","I understand it is a hand, but the long fingers are a little unsettling ","Garrett,Luke,Christopher,Evan,Anthony,Corey","I think that this picture is too boring in terms of color and it looks ugly.,-41,180,20","it looks like a simple finger painting, yet i liked the color choices,-12,20,20","too many red/yellow shades, its impact without a reason,-27,160,20","I'm disappointed that such a simple piece, with very little effort spent, could be grouped with other detailed pieces,-31,140,20","Ugly and bland compared to the other pieces.,-33,200,20","doesn't do anything for me,-4,260,20","Anthony","Ugly and bland compared to the other pieces.,-33,200,20","Evan","I'm disappointed that such a simple piece, with very little effort spent, could be grouped with other detailed pieces,-31,140,20","Garrett","I think that this picture is too boring in terms of color and it looks ugly.,-41,180,20","0"
"4838","","survey-text","79","1065170","0.0-79.0-0.0","A2LKGF193ZR5JP","","","","{""Q0"":""sky""}","","","","","","","","","","","","","","","","","","","","","","",""
"40710","","survey-text","80","1105881","0.0-80.0-0.0","A2LKGF193ZR5JP","","","","{""Q0"":""I really like the color and combinations, seems to tell a story""}","","","","","","","","","","","","","","","","","","","","","","",""
"4102.799999952316","","image-slider-response","81","1109984","0.0-81.0","A2LKGF193ZR5JP","","","","","21","","","","","","","","","","","","","","","","","","","","","",""
"null","","image-button-response","82","1114986","0.0-82.0","A2LKGF193ZR5JP","img_art/21.jpg","null","","","","","","","","","","","","","","","","","","","","","","","","",""
"4441","","image-button-response","83","1119427","0.0-83.0","A2LKGF193ZR5JP","img_art/21.jpg","2","","","","","","","","","","","","","","","","","","","","","","","","",""
"8491","","image-button-response","84","1127920","0.0-84.0-0.0","A2LKGF193ZR5JP","img_art/21.jpg","1","","","","","","","","","","","","","","","","","","","","","","","","",""
"670","","image-button-response","85","1128597","0.0-85.0-0.0","A2LKGF193ZR5JP","img_art/21.jpg","0","","","","","","","","","","","","","","","","","","","","","","","","",""
"null","","html-keyboard-response","86","1129099","0.0-86.0","A2LKGF193ZR5JP","<p style=""font-size: 48px;"">+</p>","","","","","null","allTrialResponses","500","1","6","img_art/21.jpg","21","I really like the color and combinations, seems to tell a story","Garrett,Malik,Gabriel,Evan,Anthony,Tyler","I like the sky a little bit the way the colors look for the sky, the cliff side looks a little weird though.,10,180,20","Indistinct, but beautiful hues,10,40,20","i like watercolor,22,160,20","I feel confused,-18,140,20","Bland, this painting is my least favorite,-20,200,20","War! But then, what? And then, what of it? Intention seems incomplete, or not fully committed to.,-19,320,20","Gabriel","i like watercolor,22,160,20","Malik","Indistinct, but beautiful hues,10,40,20","Garrett","I like the sky a little bit the way the colors look for the sky, the cliff side looks a little weird though.,10,180,20","0"
"77785","","survey-text","87","1206887","0.0-87.0-0.0","A2LKGF193ZR5JP","","","","{""Q0"":""I love the dotted background but don-t understand if the white is supposed to be letters""}","","","","","","","","","","","","","","","","","","","","","","",""
"5020.399999976158","","image-slider-response","88","1211911","0.0-88.0","A2LKGF193ZR5JP","","","","","7","","","","","","","","","","","","","","","","","","","","","",""
"null","","image-button-response","89","1216913","0.0-89.0","A2LKGF193ZR5JP","img_art/23.jpg","null","","","","","","","","","","","","","","","","","","","","","","","","",""
"165","","image-button-response","90","1217081","0.0-90.0","A2LKGF193ZR5JP","img_art/23.jpg","0","","","","","","","","","","","","","","","","","","","","","","","","",""
"4421","","image-button-response","91","1221506","0.0-91.0-0.0","A2LKGF193ZR5JP","img_art/23.jpg","3","","","","","","","","","","","","","","","","","","","","","","","","",""
"8208","","image-button-response","92","1229719","0.0-92.0-0.0","A2LKGF193ZR5JP","img_art/23.jpg","1","","","","","","","","","","","","","","","","","","","","","","","","",""
"null","","html-keyboard-response","93","1230221","0.0-93.0","A2LKGF193ZR5JP","<p style=""font-size: 48px;"">+</p>","","","","","null","allTrialResponses","500","1","7","img_art/23.jpg","7","I love the dotted background but don-t understand if the white is supposed to be letters","Garrett,Malik,Gabriel,Thomas,Jesse,Peter","I really like the way all the colors look, I think this is a pretty picture.,40,180,20","Very intense and unique,3,40,20","i think this ones okay,10,160,20","Beautiful. Very detailed and colorful. I enjoy looking at it.,50,220,20","Makes me want to stare at it for hours. Like there is something deeper to find.,37,80,20","Reminds me of disco/70's, not my favorite design,-12,320,20","Garrett","I really like the way all the colors look, I think this is a pretty picture.,40,180,20","Thomas","Beautiful. Very detailed and colorful. I enjoy looking at it.,50,220,20","Malik","Very intense and unique,3,40,20","0"
"36551","","survey-text","94","1266784","0.0-94.0-0.0","A2LKGF193ZR5JP","","","","{""Q0"":""A city by the sea, watercolors really help bring that feeling""}","","","","","","","","","","","","","","","","","","","","","","",""
"3167","","image-slider-response","95","1269952","0.0-95.0","A2LKGF193ZR5JP","","","","","17","","","","","","","","","","","","","","","","","","","","","",""
"4106","","image-button-response","96","1274955","0.0-96.0","A2LKGF193ZR5JP","img_art/19.jpg","1","","","","","","","","","","","","","","","","","","","","","","","","",""
"1270","","image-button-response","97","1276226","0.0-97.0","A2LKGF193ZR5JP","img_art/19.jpg","1","","","","","","","","","","","","","","","","","","","","","","","","",""
"5160","","image-button-response","98","1281388","0.0-98.0-0.0","A2LKGF193ZR5JP","img_art/19.jpg","5","","","","","","","","","","","","","","","","","","","","","","","","",""
"2715","","image-button-response","99","1284105","0.0-99.0-0.0","A2LKGF193ZR5JP","img_art/19.jpg","2","","","","","","","","","","","","","","","","","","","","","","","","",""
"null","","html-keyboard-response","100","1285606","0.0-100.0","A2LKGF193ZR5JP","<p style=""font-size: 48px;"">+</p>","","","","","null","allTrialResponses","1500","1","8","img_art/19.jpg","17","A city by the sea, watercolors really help bring that feeling","Garrett,Malik,Nicholas,Thomas,Miguel,Charles","This looks like a bunch of weird blobs and the colors don't go great together.,-10,180,20","Very dreamlike,26,40,20","Intersting but not for me,21,240,20","I like this as a whole, but the longer I look at it, the less it pleases me,-10,220,20","Messy and kid like.,-36,160,20","The blue makes it look like it has depth,11,100,20","Malik","Very dreamlike,26,40,20","Charles","The blue makes it look like it has depth,11,100,20","Nicholas","Intersting but not for me,21,240,20","0"
"33141","","survey-text","101","1318752","0.0-101.0-0.0","A2LKGF193ZR5JP","","","","{""Q0"":""Interesting concept for a tree, like its growing""}","","","","","","","","","","","","","","","","","","","","","","",""
"4315.200000047684","","image-slider-response","102","1323070","0.0-102.0","A2LKGF193ZR5JP","","","","","19","","","","","","","","","","","","","","","","","","","","","",""
"null","","image-button-response","103","1328072","0.0-103.0","A2LKGF193ZR5JP","img_art/14.jpg","null","","","","","","","","","","","","","","","","","","","","","","","","",""
"1408","","image-button-response","104","1329484","0.0-104.0","A2LKGF193ZR5JP","img_art/14.jpg","2","","","","","","","","","","","","","","","","","","","","","","","","",""
"7181","","image-button-response","105","1336666","0.0-105.0-0.0","A2LKGF193ZR5JP","img_art/14.jpg","0","","","","","","","","","","","","","","","","","","","","","","","","",""
"544","","image-button-response","106","1337212","0.0-106.0-0.0","A2LKGF193ZR5JP","img_art/14.jpg","1","","","","","","","","","","","","","","","","","","","","","","","","",""
"null","","html-keyboard-response","107","1338214","0.0-107.0","A2LKGF193ZR5JP","<p style=""font-size: 48px;"">+</p>","","","","","null","allTrialResponses","1000","1","9","img_art/14.jpg","19","Interesting concept for a tree, like its growing","Stephen,Malik,Nicholas,Taylor,Connor,Charles","I'm a fan of the background.,13,140,20","It's alright, something I'd see in a guest bedroom,10,40,20","I love the feeling of the tree and people. Makes me happy,50,240,20","Are they blowing up a tree?,-5,200,20","Looks childish and basic,-42,240,20","In some ways it looks natural, but I'm just not feeling it,0,100,20","Nicholas","I love the feeling of the tree and people. Makes me happy,50,240,20","Stephen","I'm a fan of the background.,13,140,20","Malik","It's alright, something I'd see in a guest bedroom,10,40,20","0"
"39874","","survey-text","108","1378092","0.0-108.0-0.0","A2LKGF193ZR5JP","","","","{""Q0"":""Like a childs painting, not getting the message""}","","","","","","","","","","","","","","","","","","","","","","",""
"4100.100000023842","","image-slider-response","109","1382196","0.0-109.0","A2LKGF193ZR5JP","","","","","-14","","","","","","","","","","","","","","","","","","","","","",""
"null","","image-button-response","110","1387200","0.0-110.0","A2LKGF193ZR5JP","img_art/2.jpg","null","","","","","","","","","","","","","","","","","","","","","","","","",""
"4112","","image-button-response","111","1391315","0.0-111.0","A2LKGF193ZR5JP","img_art/2.jpg","5","","","","","","","","","","","","","","","","","","","","","","","","",""
"3197","","image-button-response","112","1394515","0.0-112.0-0.0","A2LKGF193ZR5JP","img_art/2.jpg","4","","","","","","","","","","","","","","","","","","","","","","","","",""
"3207","","image-button-response","113","1397725","0.0-113.0-0.0","A2LKGF193ZR5JP","img_art/2.jpg","1","","","","","","","","","","","","","","","","","","","","","","","","",""
"null","","html-keyboard-response","114","1398730","0.0-114.0","A2LKGF193ZR5JP","<p style=""font-size: 48px;"">+</p>","","","","","null","allTrialResponses","1000","1","10","img_art/2.jpg","-14","Like a childs painting, not getting the message","Stephen,Malik,Nicholas,Shane,Mason,Daniel","Colors mix nicely.,5,140,20","Indistinct and too bright,-21,40,20","Cute and happy,22,240,20","Feels like a playground or park vibe,27,80,20","retro, amateurish, not a fan of the colors together.,-10,100,20","Colors and space work but the top scribbled killed it.,11,320,20","Daniel","Colors and space work but the top scribbled killed it.,11,320,20","Mason","retro, amateurish, not a fan of the colors together.,-10,100,20","Malik","Indistinct and too bright,-21,40,20","0"
"4501","","survey-text","115","1403238","0.0-115.0-0.0","A2LKGF193ZR5JP","","","","{""Q0"":""our""}","","","","","","","","","","","","","","","","","","","","","","",""
"44385","","survey-text","116","1447626","0.0-116.0-0.0","A2LKGF193ZR5JP","","","","{""Q0"":""I cant find a shape, very simple""}","","","","","","","","","","","","","","","","","","","","","","",""
"3700.4000000953674","","image-slider-response","117","1451328","0.0-117.0","A2LKGF193ZR5JP","","","","","-14","","","","","","","","","","","","","","","","","","","","","",""
"null","","image-button-response","118","1456331","0.0-118.0","A2LKGF193ZR5JP","img_art/6.jpg","null","","","","","","","","","","","","","","","","","","","","","","","","",""
"5850","","image-button-response","119","1462186","0.0-119.0","A2LKGF193ZR5JP","img_art/6.jpg","0","","","","","","","","","","","","","","","","","","","","","","","","",""
"2064","","image-button-response","120","1464251","0.0-120.0-0.0","A2LKGF193ZR5JP","img_art/6.jpg","4","","","","","","","","","","","","","","","","","","","","","","","","",""
"2049","","image-button-response","121","1466302","0.0-121.0-0.0","A2LKGF193ZR5JP","img_art/6.jpg","2","","","","","","","","","","","","","","","","","","","","","","","","",""
"null","","html-keyboard-response","122","1467303","0.0-122.0","A2LKGF193ZR5JP","<p style=""font-size: 48px;"">+</p>","","","","","null","allTrialResponses","1000","1","11","img_art/6.jpg","-14","I cant find a shape, very simple","Bryce,Malik,Ian,Sean,Mason,Daniel","Not very exciting.,-34,20,20","Lonesome in nature,13,40,20","It's slightly unnerving to look at, it looks a little creepy/eerie,-16,260,20","reminds me a giant peach,19,40,20","kids book cover, uninteresting.,-10,100,20","Odd desert, nice sand color with headless bird,11,320,20","Bryce","Not very exciting.,-34,20,20","Mason","kids book cover, uninteresting.,-10,100,20","Ian","It's slightly unnerving to look at, it looks a little creepy/eerie,-16,260,20","0"
"40154","","survey-text","123","1507462","0.0-123.0-0.0","A2LKGF193ZR5JP","","","","{""Q0"":""Giving me the feeling of a dirty windshield""}","","","","","","","","","","","","","","","","","","","","","","",""
"4005.2000000476837","","image-slider-response","124","1511468","0.0-124.0","A2LKGF193ZR5JP","","","","","-14","","","","","","","","","","","","","","","","","","","","","",""
"null","","image-button-response","125","1516471","0.0-125.0","A2LKGF193ZR5JP","img_art/13.jpg","null","","","","","","","","","","","","","","","","","","","","","","","","",""
"175","","image-button-response","126","1516650","0.0-126.0","A2LKGF193ZR5JP","img_art/13.jpg","1","","","","","","","","","","","","","","","","","","","","","","","","",""
"1913","","image-button-response","127","1518563","0.0-127.0-0.0","A2LKGF193ZR5JP","img_art/13.jpg","2","","","","","","","","","","","","","","","","","","","","","","","","",""
"20515","","image-button-response","128","1539080","0.0-128.0-0.0","A2LKGF193ZR5JP","img_art/13.jpg","5","","","","","","","","","","","","","","","","","","","","","","","","",""
"null","","html-keyboard-response","129","1540084","0.0-129.0","A2LKGF193ZR5JP","<p style=""font-size: 48px;"">+</p>","","","","","null","allTrialResponses","1000","1","12","img_art/13.jpg","-14","Giving me the feeling of a dirty windshield","Bryce,Adrian,Ian,Jonathan,Mason,Bryan","My favorite!,47,20,20","I find this oddly pleasant, but I object to this style. It's just a background with splatters. How is that art?,-5,60,20","This looks like something that could be made off of windows paint, not a huge fan.,-30,260,20","It's pretty basic but it makes me feel like I'm looking at the ocean,30,140,20","meh, 80's. retro,-9,100,20","Love the colors, love the abstractness, love this Jackson Pollock type painting.,48,400,20","Adrian","I find this oddly pleasant, but I object to this style. It's just a background with splatters. How is that art?,-5,60,20","Ian","This looks like something that could be made off of windows paint, not a huge fan.,-30,260,20","Bryan","Love the colors, love the abstractness, love this Jackson Pollock type painting.,48,400,20","0"
"39912","","survey-text","130","1580001","0.0-130.0-0.0","A2LKGF193ZR5JP","","","","{""Q0"":""A polluted city with so many stories, like it""}","","","","","","","","","","","","","","","","","","","","","","",""
"3382.899999976158","","image-slider-response","131","1583388","0.0-131.0","A2LKGF193ZR5JP","","","","","18","","","","","","","","","","","","","","","","","","","","","",""
"4419","","image-button-response","132","1588390","0.0-132.0","A2LKGF193ZR5JP","img_art/11.jpg","2","","","","","","","","","","","","","","","","","","","","","","","","",""
"785","","image-button-response","133","1589177","0.0-133.0","A2LKGF193ZR5JP","img_art/11.jpg","2","","","","","","","","","","","","","","","","","","","","","","","","",""
"3960","","image-button-response","134","1593140","0.0-134.0-0.0","A2LKGF193ZR5JP","img_art/11.jpg","3","","","","","","","","","","","","","","","","","","","","","","","","",""
"1869","","image-button-response","135","1595016","0.0-135.0-0.0","A2LKGF193ZR5JP","img_art/11.jpg","5","","","","","","","","","","","","","","","","","","","","","","","","",""
"null","","html-keyboard-response","136","1595519","0.0-136.0","A2LKGF193ZR5JP","<p style=""font-size: 48px;"">+</p>","","","","","null","allTrialResponses","500","1","13","img_art/11.jpg","18","A polluted city with so many stories, like it","Spencer,Adrian,Ian,John,Brett,Bryan","Even with the colors, it is dreary to me,-32,120,20","Not a fan of the colors but it looks interesting.,-31,60,20","This one is a little erie, gives me post-apocalyptic feeling,27,260,20","Its interesting.,20,120,20","This looks like a busy highway system along a suburban background,40,360,20","Rainy asian city scape.,31,400,20","Ian","This one is a little erie, gives me post-apocalyptic feeling,27,260,20","John","Its interesting.,20,120,20","Bryan","Rainy asian city scape.,31,400,20","0"
"31566","","survey-text","137","1627099","0.0-137.0-0.0","A2LKGF193ZR5JP","","","","{""Q0"":""Lovely, colors so rich and vibrant""}","","","","","","","","","","","","","","","","","","","","","","",""
"3003.2000000476837","","image-slider-response","138","1630105","0.0-138.0","A2LKGF193ZR5JP","","","","","29","","","","","","","","","","","","","","","","","","","","","",""
"null","","image-button-response","139","1635108","0.0-139.0","A2LKGF193ZR5JP","img_art/24.jpg","null","","","","","","","","","","","","","","","","","","","","","","","","",""
"1376","","image-button-response","140","1636487","0.0-140.0","A2LKGF193ZR5JP","img_art/24.jpg","2","","","","","","","","","","","","","","","","","","","","","","","","",""
"4695","","image-button-response","141","1641182","0.0-141.0-0.0","A2LKGF193ZR5JP","img_art/24.jpg","3","","","","","","","","","","","","","","","","","","","","","","","","",""
"4058","","image-button-response","142","1645242","0.0-142.0-0.0","A2LKGF193ZR5JP","img_art/24.jpg","1","","","","","","","","","","","","","","","","","","","","","","","","",""
"null","","html-keyboard-response","143","1646246","0.0-143.0","A2LKGF193ZR5JP","<p style=""font-size: 48px;"">+</p>","","","","","null","allTrialResponses","1000","1","14","img_art/24.jpg","29","Lovely, colors so rich and vibrant","Christian,Luis,Ian,John,Grant,Bryan","organized mess at first glance, would love to inspect this in closer proximity,39,140,20","Love the natural vibe,50,400,20","I find the colors work really well. It's very pretty but I have no idea as what it is.,34,260,20","Beautiful.Nice use of colors and invokes feelings of serene and peace,40,120,20","The colors look nice, but the painting bores me.,-20,200,20","Abstract falls & nature.,41,400,20","Ian","I find the colors work really well. It's very pretty but I have no idea as what it is.,34,260,20","John","Beautiful.Nice use of colors and invokes feelings of serene and peace,40,120,20","Luis","Love the natural vibe,50,400,20","0"
"67594","","survey-text","144","1713848","0.0-144.0-0.0","A2LKGF193ZR5JP","","","","{""Q0"":""Like aboriginal paintings, not getting the story""}","","","","","","","","","","","","","","","","","","","","","","",""
"2515.899999976158","","image-slider-response","145","1716366","0.0-145.0","A2LKGF193ZR5JP","","","","","-13","","","","","","","","","","","","","","","","","","","","","",""
"null","","image-button-response","146","1721369","0.0-146.0","A2LKGF193ZR5JP","img_art/27.jpg","null","","","","","","","","","","","","","","","","","","","","","","","","",""
"2539","","image-button-response","147","1723911","0.0-147.0","A2LKGF193ZR5JP","img_art/27.jpg","3","","","","","","","","","","","","","","","","","","","","","","","","",""
"2461","","image-button-response","148","1726373","0.0-148.0-0.0","A2LKGF193ZR5JP","img_art/27.jpg","2","","","","","","","","","","","","","","","","","","","","","","","","",""
"2830","","image-button-response","149","1729205","0.0-149.0-0.0","A2LKGF193ZR5JP","img_art/27.jpg","4","","","","","","","","","","","","","","","","","","","","","","","","",""
"null","","html-keyboard-response","150","1730707","0.0-150.0","A2LKGF193ZR5JP","<p style=""font-size: 48px;"">+</p>","","","","","null","allTrialResponses","1500","1","15","img_art/27.jpg","-13","Like aboriginal paintings, not getting the story","Shawn,Luis,Ian,John,Devin,Blake","Like the movement of the lines and dripping paint.,30,100,20","Love the representation of home,22,400,20","I'm not a fan. It looks like something my nephews (1 and 2) would make,-8,260,20","Looks as if a toddler painted it,-20,120,20","Looks like the green bits were added on later,-1,380,20","fruity and sweet. warm and juicy,10,280,20","John","Looks as if a toddler painted it,-20,120,20","Ian","I'm not a fan. It looks like something my nephews (1 and 2) would make,-8,260,20","Devin","Looks like the green bits were added on later,-1,380,20","0"
"5058","","survey-text","151","1735780","0.0-151.0-0.0","A2LKGF193ZR5JP","","","","{""Q0"":""course""}","","","","","","","","","","","","","","","","","","","","","","",""
"44412","","survey-text","152","1780192","0.0-152.0-0.0","A2LKGF193ZR5JP","","","","{""Q0"":""It makes want to look at it more, it has a space theme""}","","","","","","","","","","","","","","","","","","","","","","",""
"2729.899999976158","","image-slider-response","153","1782923","0.0-153.0","A2LKGF193ZR5JP","","","","","15","","","","","","","","","","","","","","","","","","","","","",""
"null","","image-button-response","154","1787925","0.0-154.0","A2LKGF193ZR5JP","img_art/18.jpg","null","","","","","","","","","","","","","","","","","","","","","","","","",""
"733","","image-button-response","155","1788659","0.0-155.0","A2LKGF193ZR5JP","img_art/18.jpg","2","","","","","","","","","","","","","","","","","","","","","","","","",""
"4182","","image-button-response","156","1792843","0.0-156.0-0.0","A2LKGF193ZR5JP","img_art/18.jpg","3","","","","","","","","","","","","","","","","","","","","","","","","",""
"2018","","image-button-response","157","1794866","0.0-157.0-0.0","A2LKGF193ZR5JP","img_art/18.jpg","1","","","","","","","","","","","","","","","","","","","","","","","","",""
"null","","html-keyboard-response","158","1795368","0.0-158.0","A2LKGF193ZR5JP","<p style=""font-size: 48px;"">+</p>","","","","","null","allTrialResponses","500","1","16","img_art/18.jpg","15","It makes want to look at it more, it has a space theme","Bradley,Austin,Ian,John,Devin,Angel","This one is very dark and apocalyptic indeed!,-30,300,20","Nice abstract art,50,240,20","This one raises some questions, there could be some sort of fight or battle going on.,11,260,20","There are alot of elements to this painting and a good mix of colors,32,120,20","Good concept but then scribbled on a bit?,15,380,20","Like riding into battle. A sense of confidence, but also trepidation for what's coming. Could be a personification of death.,-10,180,20","Ian","This one raises some questions, there could be some sort of fight or battle going on.,11,260,20","John","There are alot of elements to this painting and a good mix of colors,32,120,20","Austin","Nice abstract art,50,240,20","0"
"27866","","survey-text","159","1823238","0.0-159.0-0.0","A2LKGF193ZR5JP","","","","{""Q0"":""A car crash and one is melting, interesting but nothing special""}","","","","","","","","","","","","","","","","","","","","","","",""
"4193","","image-slider-response","160","1827432","0.0-160.0","A2LKGF193ZR5JP","","","","","1","","","","","","","","","","","","","","","","","","","","","",""
"null","","image-button-response","161","1832435","0.0-161.0","A2LKGF193ZR5JP","img_art/20.jpg","null","","","","","","","","","","","","","","","","","","","","","","","","",""
"1448","","image-button-response","162","1833884","0.0-162.0","A2LKGF193ZR5JP","img_art/20.jpg","2","","","","","","","","","","","","","","","","","","","","","","","","",""
"8359","","image-button-response","163","1842250","0.0-163.0-0.0","A2LKGF193ZR5JP","img_art/20.jpg","4","","","","","","","","","","","","","","","","","","","","","","","","",""
"1159","","image-button-response","164","1843416","0.0-164.0-0.0","A2LKGF193ZR5JP","img_art/20.jpg","5","","","","","","","","","","","","","","","","","","","","","","","","",""
"null","","html-keyboard-response","165","1844918","0.0-165.0","A2LKGF193ZR5JP","<p style=""font-size: 48px;"">+</p>","","","","","null","allTrialResponses","1500","1","17","img_art/20.jpg","1","A car crash and one is melting, interesting but nothing special","Patrick,Austin,Ian,John,Dalton,James","Looks calm but a bit dark,21,280,20","This painting would make a great display art,50,240,20","A painting within a painting, the inner painting looks like a car crash with a semi truck.,21,260,20","Its interesting.It almost seems like a painting of a landscape,14,120,20","make me feel like its a little country maybe a tractor and a skull head of a bull,1,300,20","It looks like a motorcycle and I like cars and motorcycles,30,380,20","Ian","A painting within a painting, the inner painting looks like a car crash with a semi truck.,21,260,20","Dalton","make me feel like its a little country maybe a tractor and a skull head of a bull,1,300,20","James","It looks like a motorcycle and I like cars and motorcycles,30,380,20","0"
"44736","","survey-text","166","1889658","0.0-166.0-0.0","A2LKGF193ZR5JP","","","","{""Q0"":""A very emotional painting, not something I would have on display""}","","","","","","","","","","","","","","","","","","","","","","",""
"3310.5","","image-slider-response","167","1892970","0.0-167.0","A2LKGF193ZR5JP","","","","","-14","","","","","","","","","","","","","","","","","","","","","",""
"null","","image-button-response","168","1897976","0.0-168.0","A2LKGF193ZR5JP","img_art/3.jpg","null","","","","","","","","","","","","","","","","","","","","","","","","",""
"1509","","image-button-response","169","1899487","0.0-169.0","A2LKGF193ZR5JP","img_art/3.jpg","2","","","","","","","","","","","","","","","","","","","","","","","","",""
"2426","","image-button-response","170","1901916","0.0-170.0-0.0","A2LKGF193ZR5JP","img_art/3.jpg","5","","","","","","","","","","","","","","","","","","","","","","","","",""
"2913","","image-button-response","171","1904835","0.0-171.0-0.0","A2LKGF193ZR5JP","img_art/3.jpg","0","","","","","","","","","","","","","","","","","","","","","","","","",""
"null","","html-keyboard-response","172","1905837","0.0-172.0","A2LKGF193ZR5JP","<p style=""font-size: 48px;"">+</p>","","","","","null","allTrialResponses","1000","1","18","img_art/3.jpg","-14","A very emotional painting, not something I would have on display","Colton,Jesus,Ian,Isaac,Dalton,James","looks like a kid scribbled with crayon,-35,220,20","I like the simplicity of it.,20,100,20","It just makes me think of blood splattered everywhere.,-31,260,20","It looks like scribbles.,-40,280,20","Blood splatter and one black spot.,1,300,20","It's very plain,-20,380,20","Ian","It just makes me think of blood splattered everywhere.,-31,260,20","James","It's very plain,-20,380,20","Colton","looks like a kid scribbled with crayon,-35,220,20","0"
"45902","","survey-text","173","1951743","0.0-173.0-0.0","A2LKGF193ZR5JP","","","","{""Q0"":""Colors are rather sad, looks like a bar scene""}","","","","","","","","","","","","","","","","","","","","","","",""
"3723.1999999284744","","image-slider-response","174","1955473","0.0-174.0","A2LKGF193ZR5JP","","","","","-8","","","","","","","","","","","","","","","","","","","","","",""
"null","","image-button-response","175","1960477","0.0-175.0","A2LKGF193ZR5JP","img_art/28.jpg","null","","","","","","","","","","","","","","","","","","","","","","","","",""
"464","","image-button-response","176","1960943","0.0-176.0","A2LKGF193ZR5JP","img_art/28.jpg","0","","","","","","","","","","","","","","","","","","","","","","","","",""
"6922","","image-button-response","177","1967868","0.0-177.0-0.0","A2LKGF193ZR5JP","img_art/28.jpg","4","","","","","","","","","","","","","","","","","","","","","","","","",""
"2099","","image-button-response","178","1969969","0.0-178.0-0.0","A2LKGF193ZR5JP","img_art/28.jpg","2","","","","","","","","","","","","","","","","","","","","","","","","",""
"null","","html-keyboard-response","179","1970972","0.0-179.0","A2LKGF193ZR5JP","<p style=""font-size: 48px;"">+</p>","","","","","null","allTrialResponses","1000","1","19","img_art/28.jpg","-8","Colors are rather sad, looks like a bar scene","Colton,Logan,Ian,Kyle,Timothy,James","not a fan of the colors or strokes used,-27,220,20","I wish I knew why I liked it, maybes its the pinky tones,36,360,20","This one looks very dark and seems like it has a lot of depth to it.,31,260,20","Colors too dull for me,-10,340,20","This one gives me an uneasy feeling,-10,240,20","My grandparents would like this, maybe my great grandparents. It's not my style.,-30,380,20","Colton","not a fan of the colors or strokes used,-27,220,20","Timothy","This one gives me an uneasy feeling,-10,240,20","Ian","This one looks very dark and seems like it has a lot of depth to it.,31,260,20","0"
"71572","","survey-text","180","2042549","0.0-180.0-0.0","A2LKGF193ZR5JP","","","","{""Q0"":""Its like the painting was rejected, the artist does not like it anymore""}","","","","","","","","","","","","","","","","","","","","","","",""
"3599.5","","image-slider-response","181","2046150","0.0-181.0","A2LKGF193ZR5JP","","","","","-9","","","","","","","","","","","","","","","","","","","","","",""
"null","","image-button-response","182","2051156","0.0-182.0","A2LKGF193ZR5JP","img_art/29.jpg","null","","","","","","","","","","","","","","","","","","","","","","","","",""
"1641","","image-button-response","183","2052799","0.0-183.0","A2LKGF193ZR5JP","img_art/29.jpg","2","","","","","","","","","","","","","","","","","","","","","","","","",""
"4980","","image-button-response","184","2057782","0.0-184.0-0.0","A2LKGF193ZR5JP","img_art/29.jpg","5","","","","","","","","","","","","","","","","","","","","","","","","",""
"7270","","image-button-response","185","2065058","0.0-185.0-0.0","A2LKGF193ZR5JP","img_art/29.jpg","1","","","","","","","","","","","","","","","","","","","","","","","","",""
"null","","html-keyboard-response","186","2066562","0.0-186.0","A2LKGF193ZR5JP","<p style=""font-size: 48px;"">+</p>","","","","","null","allTrialResponses","1500","1","20","img_art/29.jpg","-9","Its like the painting was rejected, the artist does not like it anymore","Colton,Kenneth,Ian,Brandon,Timothy,Jeremy","interesting, but I wouldn't put it on my wall,8,220,20","Too much going on, and I don't like the colors. It looks like a crime scene.,-50,300,20","This feels chaotic and I like the energy that it gives off.,21,260,20","The black color is great, but I'm really not a fan of this hectic style,-40,320,20","Doesnt say much for me,0,240,20","unhappy. Looking at this all the time would depress me.,-11,60,20","Ian","This feels chaotic and I like the energy that it gives off.,21,260,20","Jeremy","unhappy. Looking at this all the time would depress me.,-11,60,20","Kenneth","Too much going on, and I don't like the colors. It looks like a crime scene.,-50,300,20","0"
"3590","","survey-text","187","2070186","0.0-187.0-0.0","A2LKGF193ZR5JP","","","","{""Q0"":""we""}","","","","","","","","","","","","","","","","","","","","","","",""
"24368","","survey-text","188","2094556","0.0-188.0-0.0","A2LKGF193ZR5JP","","","","{""Q0"":""Like a puzzle to be solved, I can appreciate that""}","","","","","","","","","","","","","","","","","","","","","","",""
"6391.899999976158","","image-slider-response","189","2100950","0.0-189.0","A2LKGF193ZR5JP","","","","","16","","","","","","","","","","","","","","","","","","","","","",""
"null","","image-button-response","190","2105953","0.0-190.0","A2LKGF193ZR5JP","img_art/12.jpg","null","","","","","","","","","","","","","","","","","","","","","","","","",""
"560","","image-button-response","191","2106514","0.0-191.0","A2LKGF193ZR5JP","img_art/12.jpg","1","","","","","","","","","","","","","","","","","","","","","","","","",""
"5432","","image-button-response","192","2111950","0.0-192.0-0.0","A2LKGF193ZR5JP","img_art/12.jpg","4","","","","","","","","","","","","","","","","","","","","","","","","",""
"3093","","image-button-response","193","2115045","0.0-193.0-0.0","A2LKGF193ZR5JP","img_art/12.jpg","0","","","","","","","","","","","","","","","","","","","","","","","","",""
"null","","html-keyboard-response","194","2115549","0.0-194.0","A2LKGF193ZR5JP","<p style=""font-size: 48px;"">+</p>","","","","","null","allTrialResponses","500","1","21","img_art/12.jpg","16","Like a puzzle to be solved, I can appreciate that","Joseph,Kenneth,Ian,Eric,Alexis,Jeremy","Yay! Lots of people, lots of lives.,25,220,20","It's pretty, I find it interesting to look at.,10,300,20","This is like going to a really old mcdoanlds in a tiny town and it's never been renovated so it's breaking down,-31,260,20","I don't like the dark black with the bright colors, but this as a whole is nice.,25,100,20","In my opinion, this photo has an old school vibe,22,140,20","do not like it. Seems too busy,-10,60,20","Kenneth","It's pretty, I find it interesting to look at.,10,300,20","Alexis","In my opinion, this photo has an old school vibe,22,140,20","Joseph","Yay! Lots of people, lots of lives.,25,220,20","0"
"44610","","survey-text","195","2160165","0.0-195.0-0.0","A2LKGF193ZR5JP","","","","{""Q0"":""I can see some keys but don't understand much else""}","","","","","","","","","","","","","","","","","","","","","","",""
"7810.800000071526","","image-slider-response","196","2167978","0.0-196.0","A2LKGF193ZR5JP","","","","","-10","","","","","","","","","","","","","","","","","","","","","",""
"null","","image-button-response","197","2172981","0.0-197.0","A2LKGF193ZR5JP","img_art/22.jpg","null","","","","","","","","","","","","","","","","","","","","","","","","",""
"5640","","image-button-response","198","2178625","0.0-198.0","A2LKGF193ZR5JP","img_art/22.jpg","3","","","","","","","","","","","","","","","","","","","","","","","","",""
"3970","","image-button-response","199","2182599","0.0-199.0-0.0","A2LKGF193ZR5JP","img_art/22.jpg","4","","","","","","","","","","","","","","","","","","","","","","","","",""
"5884","","image-button-response","200","2188488","0.0-200.0-0.0","A2LKGF193ZR5JP","img_art/22.jpg","2","","","","","","","","","","","","","","","","","","","","","","","","",""
"null","","html-keyboard-response","201","2189489","0.0-201.0","A2LKGF193ZR5JP","<p style=""font-size: 48px;"">+</p>","","","","","null","allTrialResponses","1000","1","22","img_art/22.jpg","-10","I can see some keys but don't understand much else","Joseph,Kenneth,Edward,Ethan,Alexis,Antonio","I don't like that it looks like a person is there upside down.,-16,220,20","I really enjoy the blended colors.,20,300,20","I like the use of primary colors in an interesting way,29,60,20","I do not like the color combo. This piece is too much the same throughout.,-1,120,20","Neither like nor dislike it. The red, yellow and blue colors are bright but I don't know what it's meant to be.,1,140,20","Felt blah. Bunch of nothingness,-42,220,20","Ethan","I do not like the color combo. This piece is too much the same throughout.,-1,120,20","Alexis","Neither like nor dislike it. The red, yellow and blue colors are bright but I don't know what it's meant to be.,1,140,20","Edward","I like the use of primary colors in an interesting way,29,60,20","0"
"34194","","survey-text","202","2223704","0.0-202.0-0.0","A2LKGF193ZR5JP","","","","{""Q0"":""A broken instrument, a sad thing""}","","","","","","","","","","","","","","","","","","","","","","",""
"3769.100000023842","","image-slider-response","203","2227475","0.0-203.0","A2LKGF193ZR5JP","","","","","11","","","","","","","","","","","","","","","","","","","","","",""
"4900","","image-button-response","204","2232478","0.0-204.0","A2LKGF193ZR5JP","img_art/10.jpg","1","","","","","","","","","","","","","","","","","","","","","","","","",""
"1211","","image-button-response","205","2233692","0.0-205.0","A2LKGF193ZR5JP","img_art/10.jpg","1","","","","","","","","","","","","","","","","","","","","","","","","",""
"6506","","image-button-response","206","2240203","0.0-206.0-0.0","A2LKGF193ZR5JP","img_art/10.jpg","2","","","","","","","","","","","","","","","","","","","","","","","","",""
"1569","","image-button-response","207","2241775","0.0-207.0-0.0","A2LKGF193ZR5JP","img_art/10.jpg","5","","","","","","","","","","","","","","","","","","","","","","","","",""
"null","","html-keyboard-response","208","2243278","0.0-208.0","A2LKGF193ZR5JP","<p style=""font-size: 48px;"">+</p>","","","","","null","allTrialResponses","1500","1","23","img_art/10.jpg","11","A broken instrument, a sad thing","Cole,Justin,Edward,Ethan,Alexis,Alex","It confuses me. I dont know whats going on,14,200,20","The design is dynamic and interesting.,14,280,20","It looks like it's sinking but it could also be a view from above,40,60,20","The flow of lines is off. There are curvy and straight angry lines. It's not flattering at all.,-27,120,20","It looks like a sea monster overtaking a ship,21,140,20","This could be a guitar, or it could be a completely random shape.,-3,100,20","Justin","The design is dynamic and interesting.,14,280,20","Edward","It looks like it's sinking but it could also be a view from above,40,60,20","Alex","This could be a guitar, or it could be a completely random shape.,-3,100,20","0"
"39095","","survey-text","209","2282378","0.0-209.0-0.0","A2LKGF193ZR5JP","","","","{""Q0"":""A bush with blue butterflies, lovely""}","","","","","","","","","","","","","","","","","","","","","","",""
"2906.0999999046326","","image-slider-response","210","2285285","0.0-210.0","A2LKGF193ZR5JP","","","","","22","","","","","","","","","","","","","","","","","","","","","",""
"3326","","image-button-response","211","2290287","0.0-211.0","A2LKGF193ZR5JP","img_art/15.jpg","0","","","","","","","","","","","","","","","","","","","","","","","","",""
"1247","","image-button-response","212","2291535","0.0-212.0","A2LKGF193ZR5JP","img_art/15.jpg","0","","","","","","","","","","","","","","","","","","","","","","","","",""
"5426","","image-button-response","213","2296963","0.0-213.0-0.0","A2LKGF193ZR5JP","img_art/15.jpg","2","","","","","","","","","","","","","","","","","","","","","","","","",""
"4700","","image-button-response","214","2301665","0.0-214.0-0.0","A2LKGF193ZR5JP","img_art/15.jpg","3","","","","","","","","","","","","","","","","","","","","","","","","",""
"null","","html-keyboard-response","215","2303166","0.0-215.0","A2LKGF193ZR5JP","<p style=""font-size: 48px;"">+</p>","","","","","null","allTrialResponses","1500","1","24","img_art/15.jpg","22","A bush with blue butterflies, lovely","Carlos,Justin,Edward,Vincent,Samuel,Alex","It is visually appealing, stark and simple but natural.,41,80,20","Color scheme and design are rather boring.,-10,280,20","Reminds me of lilacs,26,60,20","I like the colors and the different style This brings,7,360,20","Black reminds me of darkness,-18,400,20","Interesting to look at but I don't appreciate the abstraction,2,100,20","Carlos","It is visually appealing, stark and simple but natural.,41,80,20","Edward","Reminds me of lilacs,26,60,20","Vincent","I like the colors and the different style This brings,7,360,20","0"
"50063","","survey-text","216","2353234","0.0-216.0-0.0","A2LKGF193ZR5JP","","","","{""Q0"":""A tragedy took place it seems, like dead animal at the side""}","","","","","","","","","","","","","","","","","","","","","","",""
"3435.5999999046326","","image-slider-response","217","2356671","0.0-217.0","A2LKGF193ZR5JP","","","","","-11","","","","","","","","","","","","","","","","","","","","","",""
"null","","image-button-response","218","2361673","0.0-218.0","A2LKGF193ZR5JP","img_art/16.jpg","null","","","","","","","","","","","","","","","","","","","","","","","","",""
"3727","","image-button-response","219","2365401","0.0-219.0","A2LKGF193ZR5JP","img_art/16.jpg","4","","","","","","","","","","","","","","","","","","","","","","","","",""
"1819","","image-button-response","220","2367221","0.0-220.0-0.0","A2LKGF193ZR5JP","img_art/16.jpg","0","","","","","","","","","","","","","","","","","","","","","","","","",""
"3993","","image-button-response","221","2371215","0.0-221.0-0.0","A2LKGF193ZR5JP","img_art/16.jpg","2","","","","","","","","","","","","","","","","","","","","","","","","",""
"null","","html-keyboard-response","222","2371717","0.0-222.0","A2LKGF193ZR5JP","<p style=""font-size: 48px;"">+</p>","","","","","null","allTrialResponses","500","1","25","img_art/16.jpg","-11","A tragedy took place it seems, like dead animal at the side","Carlos,Aaron,Edward,Vincent,Steven,Ryan","Why is that bear there? It looks like it would be gross to touch. The texture bothers me.,-20,80,20","It's edgy but cool,10,20,20","It feels lazily done,-9,60,20","Toys toys toys. Happy playful free spirit,30,360,20","Not interested at all,-15,160,20","Very modern, reminds me of bansky,43,380,20","Steven","Not interested at all,-15,160,20","Carlos","Why is that bear there? It looks like it would be gross to touch. The texture bothers me.,-20,80,20","Edward","It feels lazily done,-9,60,20","0"
"4931","","survey-text","223","2376656","0.0-223.0-0.0","A2LKGF193ZR5JP","","","","{""Q0"":""table""}","","","","","","","","","","","","","","","","","","","","","","",""
"20684","","survey-text","224","2397342","0.0-224.0-0.0","A2LKGF193ZR5JP","","","","{""Q0"":""Don't like this texture, looks gross""}","","","","","","","","","","","","","","","","","","","","","","",""
"2358","","image-slider-response","225","2399702","0.0-225.0","A2LKGF193ZR5JP","","","","","-26","","","","","","","","","","","","","","","","","","","","","",""
"null","","image-button-response","226","2404704","0.0-226.0","A2LKGF193ZR5JP","img_art/7.jpg","null","","","","","","","","","","","","","","","","","","","","","","","","",""
"1616","","image-button-response","227","2406322","0.0-227.0","A2LKGF193ZR5JP","img_art/7.jpg","0","","","","","","","","","","","","","","","","","","","","","","","","",""
"3389","","image-button-response","228","2409713","0.0-228.0-0.0","A2LKGF193ZR5JP","img_art/7.jpg","5","","","","","","","","","","","","","","","","","","","","","","","","",""
"4776","","image-button-response","229","2414490","0.0-229.0-0.0","A2LKGF193ZR5JP","img_art/7.jpg","1","","","","","","","","","","","","","","","","","","","","","","","","",""
"null","","html-keyboard-response","230","2415993","0.0-230.0","A2LKGF193ZR5JP","<p style=""font-size: 48px;"">+</p>","","","","","null","allTrialResponses","1500","1","26","img_art/7.jpg","-26","Don't like this texture, looks gross","Carlos,Nathaniel,Edward,Jack,Steven,Dakota","The dried bottom of a puddle in July.,-41,80,20","It gives off an alien-like vastness of space vibe which I like,9,220,20","It looks like maybe some seeds?,14,60,20","reminds me of a desert from far above,23,320,20","looks like the surface of the moon.,1,160,20","I feel thirsty - reminds me of desert sand,11,280,20","Carlos","The dried bottom of a puddle in July.,-41,80,20","Dakota","I feel thirsty - reminds me of desert sand,11,280,20","Nathaniel","It gives off an alien-like vastness of space vibe which I like,9,220,20","0"
"30347","","survey-text","231","2446344","0.0-231.0-0.0","A2LKGF193ZR5JP","","","","{""Q0"":""Like made in a rush, not finding a shape or emotion in it""}","","","","","","","","","","","","","","","","","","","","","","",""
"6983.200000047684","","image-slider-response","232","2453329","0.0-232.0","A2LKGF193ZR5JP","","","","","0","","","","","","","","","","","","","","","","","","","","","",""
"4714","","image-button-response","233","2458352","0.0-233.0","A2LKGF193ZR5JP","img_art/30.jpg","0","","","","","","","","","","","","","","","","","","","","","","","","",""
"1395","","image-button-response","234","2459752","0.0-234.0","A2LKGF193ZR5JP","img_art/30.jpg","0","","","","","","","","","","","","","","","","","","","","","","","","",""
"4003","","image-button-response","235","2463758","0.0-235.0-0.0","A2LKGF193ZR5JP","img_art/30.jpg","2","","","","","","","","","","","","","","","","","","","","","","","","",""
"5761","","image-button-response","236","2469521","0.0-236.0-0.0","A2LKGF193ZR5JP","img_art/30.jpg","5","","","","","","","","","","","","","","","","","","","","","","","","",""
"null","","html-keyboard-response","237","2470022","0.0-237.0","A2LKGF193ZR5JP","<p style=""font-size: 48px;"">+</p>","","","","","null","allTrialResponses","500","1","27","img_art/30.jpg","0","Like made in a rush, not finding a shape or emotion in it","Carlos,Nathaniel,Tristan,Richard,Devon,Dakota","It just feels hasty and not well composed. Has an angsty teen feel,-31,80,20","No my favorite, but I do like the long strokes of color,11,220,20","Too much abstraction for me, leaving my focus mainly on color. I like the texture.,-20,300,20","looks very childish, like your kid did it,-33,340,20","the different roads to take in life,10,400,20","sloppy, unintentional,-20,280,20","Carlos","It just feels hasty and not well composed. Has an angsty teen feel,-31,80,20","Tristan","Too much abstraction for me, leaving my focus mainly on color. I like the texture.,-20,300,20","Dakota","sloppy, unintentional,-20,280,20","0"
"44136","","survey-text","238","2514164","0.0-238.0-0.0","A2LKGF193ZR5JP","","","","{""Q0"":""A woman in a peacock cage, lovely colors""}","","","","","","","","","","","","","","","","","","","","","","",""
"2801","","image-slider-response","239","2516968","0.0-239.0","A2LKGF193ZR5JP","","","","","22","","","","","","","","","","","","","","","","","","","","","",""
"3563","","image-button-response","240","2521972","0.0-240.0","A2LKGF193ZR5JP","img_art/9.jpg","0","","","","","","","","","","","","","","","","","","","","","","","","",""
"923","","image-button-response","241","2522896","0.0-241.0","A2LKGF193ZR5JP","img_art/9.jpg","0","","","","","","","","","","","","","","","","","","","","","","","","",""
"572","","image-button-response","242","2523469","0.0-242.0-0.0","A2LKGF193ZR5JP","img_art/9.jpg","1","","","","","","","","","","","","","","","","","","","","","","","","",""
"10520","","image-button-response","243","2533991","0.0-243.0-0.0","A2LKGF193ZR5JP","img_art/9.jpg","2","","","","","","","","","","","","","","","","","","","","","","","","",""
"null","","html-keyboard-response","244","2535492","0.0-244.0","A2LKGF193ZR5JP","<p style=""font-size: 48px;"">+</p>","","","","","null","allTrialResponses","1500","1","28","img_art/9.jpg","22","A woman in a peacock cage, lovely colors","Carlos,Mark,Tristan,Jordan,Joshua,Dakota","Pleasant in all ways.,27,80,20","Sleeping woman in a cave. Makes me feel safe.,20,80,20","The busyness and harsh nature of the lines in this painting  mute my emotional response.,-10,300,20","Reminds me of a cave in a scary movie,-21,160,20","Someone lying in bed?  Don't care for it.,-14,240,20","autopsy, morgue, dead corpses - don't like the flesh tones,-43,280,20","Carlos","Pleasant in all ways.,27,80,20","Mark","Sleeping woman in a cave. Makes me feel safe.,20,80,20","Tristan","The busyness and harsh nature of the lines in this painting  mute my emotional response.,-10,300,20","0"
"59134","","survey-text","245","2594644","0.0-245.0-0.0","A2LKGF193ZR5JP","","","","{""Q0"":""the warm colors are lovely, like a forest in autumn season""}","","","","","","","","","","","","","","","","","","","","","","",""
"3965.5","","image-slider-response","246","2598610","0.0-246.0","A2LKGF193ZR5JP","","","","","16","","","","","","","","","","","","","","","","","","","","","",""
"null","","image-button-response","247","2603612","0.0-247.0","A2LKGF193ZR5JP","img_art/1.jpg","null","","","","","","","","","","","","","","","","","","","","","","","","",""
"535","","image-button-response","248","2604149","0.0-248.0","A2LKGF193ZR5JP","img_art/1.jpg","3","","","","","","","","","","","","","","","","","","","","","","","","",""
"1463","","image-button-response","249","2605616","0.0-249.0-0.0","A2LKGF193ZR5JP","img_art/1.jpg","4","","","","","","","","","","","","","","","","","","","","","","","","",""
"2511","","image-button-response","250","2608129","0.0-250.0-0.0","A2LKGF193ZR5JP","img_art/1.jpg","0","","","","","","","","","","","","","","","","","","","","","","","","",""
"null","","html-keyboard-response","251","2609632","0.0-251.0","A2LKGF193ZR5JP","<p style=""font-size: 48px;"">+</p>","","","","","null","allTrialResponses","1500","1","29","img_art/1.jpg","16","the warm colors are lovely, like a forest in autumn season","Carlos,Mark,Tristan,Jorge,Tanner,Dustin","Colors are pleasant, but feels incredibly generic.,9,80,20","It just doesn't speak to me.,0,80,20","Unpleasing palette. I see a figure but it seems incongrous to the highly abstract background.,-20,300,20","fishing on the lake surrounded by trees,42,180,20","river, fall, cozy, warm,12,180,20","Too messy. Just looks like a mess of dark colors.,-20,20,20","Jorge","fishing on the lake surrounded by trees,42,180,20","Tanner","river, fall, cozy, warm,12,180,20","Carlos","Colors are pleasant, but feels incredibly generic.,9,80,20","0"
"49604","","survey-text","252","2659242","0.0-252.0-0.0","A2LKGF193ZR5JP","","","","{""Q0"":""A secret to uncover, the lines are very well made""}","","","","","","","","","","","","","","","","","","","","","","",""
"3258.5","","image-slider-response","253","2662501","0.0-253.0","A2LKGF193ZR5JP","","","","","12","","","","","","","","","","","","","","","","","","","","","",""
"4844","","image-button-response","254","2667504","0.0-254.0","A2LKGF193ZR5JP","img_art/17.jpg","0","","","","","","","","","","","","","","","","","","","","","","","","",""
"503","","image-button-response","255","2668009","0.0-255.0","A2LKGF193ZR5JP","img_art/17.jpg","1","","","","","","","","","","","","","","","","","","","","","","","","",""
"737","","image-button-response","256","2668749","0.0-256.0-0.0","A2LKGF193ZR5JP","img_art/17.jpg","2","","","","","","","","","","","","","","","","","","","","","","","","",""
"1286","","image-button-response","257","2670037","0.0-257.0-0.0","A2LKGF193ZR5JP","img_art/17.jpg","0","","","","","","","","","","","","","","","","","","","","","","","","",""
"null","","html-keyboard-response","258","2671041","0.0-258.0","A2LKGF193ZR5JP","<p style=""font-size: 48px;"">+</p>","","","","","null","allTrialResponses","1000","1","30","img_art/17.jpg","12","A secret to uncover, the lines are very well made","Carlos,Cameron,Cody,Jorge,Tanner,Derek","It feels like nature overtaking civilization.,21,80,20","doorways and trees are pleasant,30,60,20","Love the colors and the movement,46,180,20","battle between nature and man,31,180,20","calm, tranquil, happy,50,180,20","The colors are beautiful and the painting itself is magnificent,50,360,20","Cameron","doorways and trees are pleasant,30,60,20","Cody","Love the colors and the movement,46,180,20","Carlos","It feels like nature overtaking civilization.,21,80,20","0"
"3408","","image-button-response_instructions","259","2674455","0.0-259.0","A2LKGF193ZR5JP","","0","instructions","","","","","","","","","","","","","","","","","","","","","","","",""
"1928","","image-button-response","260","2676387","0.0-260.0","A2LKGF193ZR5JP","","0","","","","","","","","","","","","","","","","","","","","","","","","",""
