"rt","url","trial_type","trial_index","time_elapsed","internal_node_id","participant_id","stimulus","button_pressed","Name","responses","response","key_press","variableName","fixationTime","condition","trial","photo","subjectRating","subjectResponse","agentsNames","agent_1_Response","agent_2_Response","agent_3_Response","agent_4_Response","agent_5_Response","agent_6_Response","kept_1_name","kept_1_response","kept_2_name","kept_2_response","kept_3_name","kept_3_response","errorCounter"
"55623","external_page_harvard.html","external-html","0","55782","0.0-0.0","A2LQ1YUW7WUOCO","","","","","","","","","","","","","","","","","","","","","","","","","","",""
"6447","","image-button-response","1","62230","0.0-1.0","A2LQ1YUW7WUOCO","","1","","","","","","","","","","","","","","","","","","","","","","","","",""
"1509","","image-button-response","2","63744","0.0-2.0-0.0","A2LQ1YUW7WUOCO","","1","phone","","","","","","","","","","","","","","","","","","","","","","","",""
"7217","","survey-text","3","70963","0.0-3.0-0.0","A2LQ1YUW7WUOCO","","","","{""Q0"":""A2LQ1YUW7WUOCO""}","","","","","","","","","","","","","","","","","","","","","","",""
"2470","","image-button-response_instructions","4","73435","0.0-4.0","A2LQ1YUW7WUOCO","","0","instructions","","","","","","","","","","","","","","","","","","","","","","","",""
"9110","","image-button-response_instructions","5","82546","0.0-5.0","A2LQ1YUW7WUOCO","img_art/ins/popularity/ins1.png","0","instructions","","","","","","","","","","","","","","","","","","","","","","","",""
"2972","","image-button-response_instructions","6","85521","0.0-6.0","A2LQ1YUW7WUOCO","img_art/ins/popularity/ins2.png","0","instructions","","","","","","","","","","","","","","","","","","","","","","","",""
"3142","","image-button-response_instructions","7","88664","0.0-7.0","A2LQ1YUW7WUOCO","img_art/ins/popularity/ins2Extreme.png","0","instructions","","","","","","","","","","","","","","","","","","","","","","","",""
"11177","","image-button-response_instructions","8","99842","0.0-8.0","A2LQ1YUW7WUOCO","img_art/ins/popularity/ins3KEEPpop.PNG","0","instructions","","","","","","","","","","","","","","","","","","","","","","","",""
"1952","","image-button-response_instructions","9","101795","0.0-9.0","A2LQ1YUW7WUOCO","img_art/ins/popularity/ins3ANamepop.PNG","0","instructions","","","","","","","","","","","","","","","","","","","","","","","",""
"1852","","image-button-response_instructions","10","103648","0.0-10.0","A2LQ1YUW7WUOCO","img_art/ins/popularity/ins3ARatingpop.png","0","instructions","","","","","","","","","","","","","","","","","","","","","","","",""
"6245","","image-button-response_instructions","11","109894","0.0-11.0","A2LQ1YUW7WUOCO","img_art/ins/popularity/ins3ATextpop.png","0","instructions","","","","","","","","","","","","","","","","","","","","","","","",""
"4449","","image-button-response_instructions","12","114344","0.0-12.0","A2LQ1YUW7WUOCO","img_art/ins/popularity/ins3ALikespop.png","0","instructions","","","","","","","","","","","","","","","","","","","","","","","",""
"5521","","image-button-response_instructions","13","119867","0.0-13.0","A2LQ1YUW7WUOCO","img_art/ins/popularity/ins3KEEPpop.PNG","0","instructions","","","","","","","","","","","","","","","","","","","","","","","",""
"6944","","image-button-response_instructions","14","126813","0.0-14.0","A2LQ1YUW7WUOCO","img_art/ins/popularity/ins3_5RED.png","0","instructions","","","","","","","","","","","","","","","","","","","","","","","",""
"2156","","image-button-response_instructions","15","128969","0.0-15.0","A2LQ1YUW7WUOCO","img_art/ins/popularity/ins3KEEPpop.PNG","0","instructions","","","","","","","","","","","","","","","","","","","","","","","",""
"7420","","image-button-response_instructions","16","136391","0.0-16.0","A2LQ1YUW7WUOCO","img_art/ins/popularity/ins4KEEPpop.PNG","0","instructions","","","","","","","","","","","","","","","","","","","","","","","",""
"4429","","image-button-response_instructions","17","140820","0.0-17.0","A2LQ1YUW7WUOCO","img_art/ins/popularity/ins5KEEPpop.PNG","0","instructions","","","","","","","","","","","","","","","","","","","","","","","",""
"2766","","image-button-response_instructions","18","143588","0.0-18.0","A2LQ1YUW7WUOCO","","0","instructions","","","","","","","","","","","","","","","","","","","","","","","",""
"6510","","survey-text","19","150131","0.0-19.0-0.0","A2LQ1YUW7WUOCO","","","","{""Q0"":""but""}","","","","","","","","","","","","","","","","","","","","","","",""
"10401","","survey-text","20","160534","0.0-20.0-0.0","A2LQ1YUW7WUOCO","","","","{""Q0"":""Very colorful, makes me happy.""}","","","","","","","","","","","","","","","","","","","","","","",""
"3309","","image-slider-response","21","163847","0.0-21.0","A2LQ1YUW7WUOCO","","","","","30","","","","","","","","","","","","","","","","","","","","","",""
"null","","image-button-response","22","168852","0.0-22.0","A2LQ1YUW7WUOCO","img_art/ins/1.jpg","null","","","","","","","","","","","","","","","","","","","","","","","","",""
"1140","","image-button-response","23","169994","0.0-23.0","A2LQ1YUW7WUOCO","img_art/ins/1.jpg","3","","","","","","","","","","","","","","","","","","","","","","","","",""
"3042","","image-button-response","24","173039","0.0-24.0-0.0","A2LQ1YUW7WUOCO","img_art/ins/1.jpg","5","","","","","","","","","","","","","","","","","","","","","","","","",""
"2347","","image-button-response","25","175390","0.0-25.0-0.0","A2LQ1YUW7WUOCO","img_art/ins/1.jpg","0","","","","","","","","","","","","","","","","","","","","","","","","",""
"null","","html-keyboard-response","26","176893","0.0-26.0","A2LQ1YUW7WUOCO","<p style=""font-size: 48px;"">+</p>","","","","","null","allTrialResponses","1500","1","-2","img_art/ins/1.jpg","30","Very colorful, makes me happy.","Allison,Ashley,Beth,Dora,Erika,Jen","looks like a lot of things going on in the mist,20,20,20","I just don't get why these type of art would be popular,-32,40,20","This color reminds me of poo,-46,60,20","looks like what my niece in 3rd grade did this afternoon,-50,80,20","I like the sophisticated brushwork,40,100,20","It reminds me of a candy land dream I had,36,120,20","Dora","looks like what my niece in 3rd grade did this afternoon,-50,80,20","Jen","It reminds me of a candy land dream I had,36,120,20","Allison","looks like a lot of things going on in the mist,20,20,20","0"
"12290","","survey-text","27","189192","0.0-27.0-0.0","A2LQ1YUW7WUOCO","","","","{""Q0"":""Very red, a little dark and depressing.""}","","","","","","","","","","","","","","","","","","","","","","",""
"3649","","image-slider-response","28","192842","0.0-28.0","A2LQ1YUW7WUOCO","","","","","-16","","","","","","","","","","","","","","","","","","","","","",""
"null","","image-button-response","29","197846","0.0-29.0","A2LQ1YUW7WUOCO","img_art/ins/2.jpg","null","","","","","","","","","","","","","","","","","","","","","","","","",""
"7677","","image-button-response","30","205525","0.0-30.0","A2LQ1YUW7WUOCO","img_art/ins/2.jpg","3","","","","","","","","","","","","","","","","","","","","","","","","",""
"5088","","image-button-response","31","210616","0.0-31.0-0.0","A2LQ1YUW7WUOCO","img_art/ins/2.jpg","0","","","","","","","","","","","","","","","","","","","","","","","","",""
"3633","","image-button-response","32","214251","0.0-32.0-0.0","A2LQ1YUW7WUOCO","img_art/ins/2.jpg","4","","","","","","","","","","","","","","","","","","","","","","","","",""
"null","","html-keyboard-response","33","215253","0.0-33.0","A2LQ1YUW7WUOCO","<p style=""font-size: 48px;"">+</p>","","","","","null","allTrialResponses","1000","1","-1","img_art/ins/2.jpg","-16","Very red, a little dark and depressing.","Allison,Jenna,Katie,Dora,Kara,Jen","I don't have strong feelings about this,10,20,20","One of my pet peevs,-48,140,20","too much color!,-28,180,20","looks too angry,-50,80,20","I like the blocks of color arrangements,30,160,20","It reminds me of a fireplace,36,120,20","Dora","looks too angry,-50,80,20","Allison","I don't have strong feelings about this,10,20,20","Kara","I like the blocks of color arrangements,30,160,20","0"
"14083","","survey-text","34","229344","0.0-34.0-0.0","A2LQ1YUW7WUOCO","","","","{""Q0"":""Too much blue, Looks cold""}","","","","","","","","","","","","","","","","","","","","","","",""
"5346","","image-slider-response","35","234691","0.0-35.0","A2LQ1YUW7WUOCO","","","","","-7","","","","","","","","","","","","","","","","","","","","","",""
"null","","image-button-response","36","239695","0.0-36.0","A2LQ1YUW7WUOCO","img_art/ins/3.jpg","null","","","","","","","","","","","","","","","","","","","","","","","","",""
"2900","","image-button-response","37","242597","0.0-37.0","A2LQ1YUW7WUOCO","img_art/ins/3.jpg","1","","","","","","","","","","","","","","","","","","","","","","","","",""
"688","","image-button-response","38","243286","0.0-38.0-0.0","A2LQ1YUW7WUOCO","img_art/ins/3.jpg","0","","","","","","","","","","","","","","","","","","","","","","","","",""
"1015","","image-button-response","39","244303","0.0-39.0-0.0","A2LQ1YUW7WUOCO","img_art/ins/3.jpg","3","","","","","","","","","","","","","","","","","","","","","","","","",""
"null","","html-keyboard-response","40","245806","0.0-40.0","A2LQ1YUW7WUOCO","<p style=""font-size: 48px;"">+</p>","","","","","null","allTrialResponses","1500","1","0","img_art/ins/3.jpg","-7","Too much blue, Looks cold","Allison,Leslie,Mary,Dora,Kara,Rose","enjoy the different shades of blue,22,20,20","It's an alright work,15,200,20","I like the overlapping of brushes,41,220,20","My worst nightmare,-42,80,20","calming blue is very nice,36,160,20","My daily routine, it's depressing,-20,240,20","Leslie","It's an alright work,15,200,20","Allison","enjoy the different shades of blue,22,20,20","Dora","My worst nightmare,-42,80,20","0"
"2798","","image-button-response_instructions","41","248613","0.0-41.0","A2LQ1YUW7WUOCO","","0","instructions","","","","","","","","","","","","","","","","","","","","","","","",""
"10601","","survey-likert","42","259217","0.0-42.0-0.0","A2LQ1YUW7WUOCO","","","","{""Q0"":"""",""Q1"":0,""Q2"":1}","","","","","","","","","","","","","","","","","","","","","","",""
"4842","","survey-text","43","264069","0.0-43.0-0.0","A2LQ1YUW7WUOCO","","","","{""Q0"":""rock""}","","","","","","","","","","","","","","","","","","","","","","",""
"18476","","survey-text","44","282547","0.0-44.0-0.0","A2LQ1YUW7WUOCO","","","","{""Q0"":""looks like a skeleton, kind of reminds me of death.""}","","","","","","","","","","","","","","","","","","","","","","",""
"3694","","image-slider-response","45","286244","0.0-45.0","A2LQ1YUW7WUOCO","","","","","-14","","","","","","","","","","","","","","","","","","","","","",""
"4936","","image-button-response","46","291280","0.0-46.0","A2LQ1YUW7WUOCO","img_art/25.jpg","3","","","","","","","","","","","","","","","","","","","","","","","","",""
"1836","","image-button-response","47","293118","0.0-47.0","A2LQ1YUW7WUOCO","img_art/25.jpg","3","","","","","","","","","","","","","","","","","","","","","","","","",""
"4369","","image-button-response","48","297489","0.0-48.0-0.0","A2LQ1YUW7WUOCO","img_art/25.jpg","2","","","","","","","","","","","","","","","","","","","","","","","","",""
"3320","","image-button-response","49","300810","0.0-49.0-0.0","A2LQ1YUW7WUOCO","img_art/25.jpg","5","","","","","","","","","","","","","","","","","","","","","","","","",""
"null","","html-keyboard-response","50","301313","0.0-50.0","A2LQ1YUW7WUOCO","<p style=""font-size: 48px;"">+</p>","","","","","null","allTrialResponses","500","1","1","img_art/25.jpg","-14","looks like a skeleton, kind of reminds me of death.","Emma,Mackenzie,Monica,Katelyn,Katie,Jacqueline","Like the colors and the figure,30,60,20","Very nice color contrast and design.,40,20,20","The skeletal figure is a bit scary,-12,360,20","Creates a bit of fear in me for some reason,-26,100,20","Reminds me of ancient civilization art. I like the aqua color; soothing to me.,1,160,20","Not particularly interesting for me. The green color is strange mixed with this.,-11,300,20","Katelyn","Creates a bit of fear in me for some reason,-26,100,20","Monica","The skeletal figure is a bit scary,-12,360,20","Jacqueline","Not particularly interesting for me. The green color is strange mixed with this.,-11,300,20","0"
"16033","","survey-text","51","317354","0.0-51.0-0.0","A2LQ1YUW7WUOCO","","","","{""Q0"":""reminds me of music bars ""}","","","","","","","","","","","","","","","","","","","","","","",""
"3371","","image-slider-response","52","320727","0.0-52.0","A2LQ1YUW7WUOCO","","","","","8","","","","","","","","","","","","","","","","","","","","","",""
"3621","","image-button-response","53","325731","0.0-53.0","A2LQ1YUW7WUOCO","img_art/10.jpg","3","","","","","","","","","","","","","","","","","","","","","","","","",""
"1115","","image-button-response","54","326847","0.0-54.0","A2LQ1YUW7WUOCO","img_art/10.jpg","3","","","","","","","","","","","","","","","","","","","","","","","","",""
"4327","","image-button-response","55","331176","0.0-55.0-0.0","A2LQ1YUW7WUOCO","img_art/10.jpg","5","","","","","","","","","","","","","","","","","","","","","","","","",""
"2477","","image-button-response","56","333654","0.0-56.0-0.0","A2LQ1YUW7WUOCO","img_art/10.jpg","4","","","","","","","","","","","","","","","","","","","","","","","","",""
"null","","html-keyboard-response","57","335157","0.0-57.0","A2LQ1YUW7WUOCO","<p style=""font-size: 48px;"">+</p>","","","","","null","allTrialResponses","1500","1","2","img_art/10.jpg","8","reminds me of music bars ","Megan,Kaitlyn,Monica,Katelyn,Hailey,Jacqueline","Music visualized with subtle color,17,200,20","Picture looks smudged,-7,80,20","It doesn't look pleasing to the eye, it kind of looks like an animal but a dirty one,-38,360,20","It makes me think of music and i love the reflective aspect,29,100,20","a fast racetrack. go, go, go,5,200,20","Seems more harmonic with the strokes and colors.,31,300,20","Katelyn","It makes me think of music and i love the reflective aspect,29,100,20","Jacqueline","Seems more harmonic with the strokes and colors.,31,300,20","Hailey","a fast racetrack. go, go, go,5,200,20","0"
"13193","","survey-text","58","348357","0.0-58.0-0.0","A2LQ1YUW7WUOCO","","","","{""Q0"":""looks like something in a grunge bar.""}","","","","","","","","","","","","","","","","","","","","","","",""
"5298","","image-slider-response","59","353657","0.0-59.0","A2LQ1YUW7WUOCO","","","","","3","","","","","","","","","","","","","","","","","","","","","",""
"null","","image-button-response","60","358660","0.0-60.0","A2LQ1YUW7WUOCO","img_art/13.jpg","null","","","","","","","","","","","","","","","","","","","","","","","","",""
"1412","","image-button-response","61","360075","0.0-61.0","A2LQ1YUW7WUOCO","img_art/13.jpg","5","","","","","","","","","","","","","","","","","","","","","","","","",""
"1055","","image-button-response","62","361132","0.0-62.0-0.0","A2LQ1YUW7WUOCO","img_art/13.jpg","3","","","","","","","","","","","","","","","","","","","","","","","","",""
"4768","","image-button-response","63","365902","0.0-63.0-0.0","A2LQ1YUW7WUOCO","img_art/13.jpg","4","","","","","","","","","","","","","","","","","","","","","","","","",""
"null","","html-keyboard-response","64","366904","0.0-64.0","A2LQ1YUW7WUOCO","<p style=""font-size: 48px;"">+</p>","","","","","null","allTrialResponses","1000","1","3","img_art/13.jpg","3","looks like something in a grunge bar.","Mikayla,Sara,Erin,Katelyn,Hailey,Jacqueline","My favorite!,47,300,20","I love the different blue shades,31,160,20","Color palette is complementary,40,120,20","Really like this. Its like looking out a window into a beautiful storm,39,100,20","warm splash of salt water from ocean,16,200,20","Seems a little cold but I like the neuron looking splatters.,10,300,20","Jacqueline","Seems a little cold but I like the neuron looking splatters.,10,300,20","Katelyn","Really like this. Its like looking out a window into a beautiful storm,39,100,20","Hailey","warm splash of salt water from ocean,16,200,20","0"
"16224","","survey-text","65","383133","0.0-65.0-0.0","A2LQ1YUW7WUOCO","","","","{""Q0"":""Looks like an abstract busy city landscape.""}","","","","","","","","","","","","","","","","","","","","","","",""
"2670","","image-slider-response","66","385805","0.0-66.0","A2LQ1YUW7WUOCO","","","","","10","","","","","","","","","","","","","","","","","","","","","",""
"null","","image-button-response","67","390807","0.0-67.0","A2LQ1YUW7WUOCO","img_art/11.jpg","null","","","","","","","","","","","","","","","","","","","","","","","","",""
"1057","","image-button-response","68","391865","0.0-68.0","A2LQ1YUW7WUOCO","img_art/11.jpg","2","","","","","","","","","","","","","","","","","","","","","","","","",""
"4465","","image-button-response","69","396332","0.0-69.0-0.0","A2LQ1YUW7WUOCO","img_art/11.jpg","3","","","","","","","","","","","","","","","","","","","","","","","","",""
"1664","","image-button-response","70","397999","0.0-70.0-0.0","A2LQ1YUW7WUOCO","img_art/11.jpg","0","","","","","","","","","","","","","","","","","","","","","","","","",""
"null","","html-keyboard-response","71","399501","0.0-71.0","A2LQ1YUW7WUOCO","<p style=""font-size: 48px;"">+</p>","","","","","null","allTrialResponses","1500","1","4","img_art/11.jpg","10","Looks like an abstract busy city landscape.","Madison,Kimberly,Caroline,Katelyn,Hailey,Jacqueline","Rainy day at an urban sea port. Portugal?,30,60,20","It's cables in a city,21,260,20","Makes me think of far away places and traveling. Makes me feel like wandering,20,100,20","I like the dark lines and it interests me,13,100,20","a train going around the country,14,200,20","It's too dark and dingy.,-30,300,20","Caroline","Makes me think of far away places and traveling. Makes me feel like wandering,20,100,20","Katelyn","I like the dark lines and it interests me,13,100,20","Madison","Rainy day at an urban sea port. Portugal?,30,60,20","0"
"12085","","survey-text","72","411593","0.0-72.0-0.0","A2LQ1YUW7WUOCO","","","","{""Q0"":""A tree growing on the beach""}","","","","","","","","","","","","","","","","","","","","","","",""
"4713","","image-slider-response","73","416308","0.0-73.0","A2LQ1YUW7WUOCO","","","","","20","","","","","","","","","","","","","","","","","","","","","",""
"4576","","image-button-response","74","421312","0.0-74.0","A2LQ1YUW7WUOCO","img_art/14.jpg","2","","","","","","","","","","","","","","","","","","","","","","","","",""
"919","","image-button-response","75","422233","0.0-75.0","A2LQ1YUW7WUOCO","img_art/14.jpg","0","","","","","","","","","","","","","","","","","","","","","","","","",""
"863","","image-button-response","76","423098","0.0-76.0-0.0","A2LQ1YUW7WUOCO","img_art/14.jpg","2","","","","","","","","","","","","","","","","","","","","","","","","",""
"6414","","image-button-response","77","429514","0.0-77.0-0.0","A2LQ1YUW7WUOCO","img_art/14.jpg","3","","","","","","","","","","","","","","","","","","","","","","","","",""
"null","","html-keyboard-response","78","430516","0.0-78.0","A2LQ1YUW7WUOCO","<p style=""font-size: 48px;"">+</p>","","","","","null","allTrialResponses","1000","1","5","img_art/14.jpg","20","A tree growing on the beach","Madison,Chloe,Caroline,Katelyn,Erika,Andrea","No strong feelings either direction.,-4,60,20","Like the brushstrokes but not the composition,9,220,20","Makes me think of trees and spring. A good feeling,26,100,20","Its cute. Not striking but i would keep it in my home.,10,100,20","It's alright, something I'd see in a guest bedroom,10,100,20","Cute little plant.,15,240,20","Madison","No strong feelings either direction.,-4,60,20","Caroline","Makes me think of trees and spring. A good feeling,26,100,20","Katelyn","Its cute. Not striking but i would keep it in my home.,10,100,20","0"
"3571","","survey-text","79","434100","0.0-79.0-0.0","A2LQ1YUW7WUOCO","","","","{""Q0"":""sky""}","","","","","","","","","","","","","","","","","","","","","","",""
"15134","","survey-text","80","449237","0.0-80.0-0.0","A2LQ1YUW7WUOCO","","","","{""Q0"":""This reminds me of a crime scene.""}","","","","","","","","","","","","","","","","","","","","","","",""
"2298","","image-slider-response","81","451537","0.0-81.0","A2LQ1YUW7WUOCO","","","","","-13","","","","","","","","","","","","","","","","","","","","","",""
"null","","image-button-response","82","456540","0.0-82.0","A2LQ1YUW7WUOCO","img_art/29.jpg","null","","","","","","","","","","","","","","","","","","","","","","","","",""
"1420","","image-button-response","83","457961","0.0-83.0","A2LQ1YUW7WUOCO","img_art/29.jpg","4","","","","","","","","","","","","","","","","","","","","","","","","",""
"1008","","image-button-response","84","458970","0.0-84.0-0.0","A2LQ1YUW7WUOCO","img_art/29.jpg","5","","","","","","","","","","","","","","","","","","","","","","","","",""
"2926","","image-button-response","85","461899","0.0-85.0-0.0","A2LQ1YUW7WUOCO","img_art/29.jpg","1","","","","","","","","","","","","","","","","","","","","","","","","",""
"null","","html-keyboard-response","86","462902","0.0-86.0","A2LQ1YUW7WUOCO","<p style=""font-size: 48px;"">+</p>","","","","","null","allTrialResponses","1000","1","6","img_art/29.jpg","-13","This reminds me of a crime scene.","Madison,Destiny,Caroline,Katelyn,Caitlin,Stephanie","Well if the artist themself is crossing it out, why should I pay any mind?,-30,60,20","is this supposed to be edgy,-21,360,20","Depressing and with that big red x on it just makes me not like it.,-33,100,20","Grabs interest but then confuses me,6,100,20","I would give up and give it a red X too.,-5,80,20","Looks like a murder,-50,300,20","Caitlin","I would give up and give it a red X too.,-5,80,20","Stephanie","Looks like a murder,-50,300,20","Destiny","is this supposed to be edgy,-21,360,20","0"
"10296","","survey-text","87","473208","0.0-87.0-0.0","A2LQ1YUW7WUOCO","","","","{""Q0"":""Something in a 80's hotel room""}","","","","","","","","","","","","","","","","","","","","","","",""
"3565.999999999942","","image-slider-response","88","476777","0.0-88.0","A2LQ1YUW7WUOCO","","","","","-28","","","","","","","","","","","","","","","","","","","","","",""
"null","","image-button-response","89","481781","0.0-89.0","A2LQ1YUW7WUOCO","img_art/12.jpg","null","","","","","","","","","","","","","","","","","","","","","","","","",""
"1528","","image-button-response","90","483310","0.0-90.0","A2LQ1YUW7WUOCO","img_art/12.jpg","0","","","","","","","","","","","","","","","","","","","","","","","","",""
"1357","","image-button-response","91","484669","0.0-91.0-0.0","A2LQ1YUW7WUOCO","img_art/12.jpg","1","","","","","","","","","","","","","","","","","","","","","","","","",""
"1408","","image-button-response","92","486079","0.0-92.0-0.0","A2LQ1YUW7WUOCO","img_art/12.jpg","4","","","","","","","","","","","","","","","","","","","","","","","","",""
"null","","html-keyboard-response","93","487082","0.0-93.0","A2LQ1YUW7WUOCO","<p style=""font-size: 48px;"">+</p>","","","","","null","allTrialResponses","1000","1","7","img_art/12.jpg","-28","Something in a 80's hotel room","Makayla,Destiny,Paige,Amy,Caitlin,Stephanie","Reminds me Early 2000's decor, don't favor it,-10,80,20","giving me major endless summer vibes,26,360,20","do not like it. Seems too busy,-10,60,20","Quite lovely with depth and possibility.,21,220,20","Just wish it was more colorful.,20,80,20","I like the pattern to it.,31,300,20","Makayla","Reminds me Early 2000's decor, don't favor it,-10,80,20","Destiny","giving me major endless summer vibes,26,360,20","Caitlin","Just wish it was more colorful.,20,80,20","0"
"23247","","survey-text","94","510338","0.0-94.0-0.0","A2LQ1YUW7WUOCO","","","","{""Q0"":""I could see this in a restaurant. I would never put in my house though.""}","","","","","","","","","","","","","","","","","","","","","","",""
"2502","","image-slider-response","95","512842","0.0-95.0","A2LQ1YUW7WUOCO","","","","","-15","","","","","","","","","","","","","","","","","","","","","",""
"2137","","image-button-response","96","517845","0.0-96.0","A2LQ1YUW7WUOCO","img_art/8.jpg","4","","","","","","","","","","","","","","","","","","","","","","","","",""
"4616","","image-button-response","97","522462","0.0-97.0","A2LQ1YUW7WUOCO","img_art/8.jpg","0","","","","","","","","","","","","","","","","","","","","","","","","",""
"1257","","image-button-response","98","523720","0.0-98.0-0.0","A2LQ1YUW7WUOCO","img_art/8.jpg","4","","","","","","","","","","","","","","","","","","","","","","","","",""
"7489","","image-button-response","99","531212","0.0-99.0-0.0","A2LQ1YUW7WUOCO","img_art/8.jpg","1","","","","","","","","","","","","","","","","","","","","","","","","",""
"null","","html-keyboard-response","100","532716","0.0-100.0","A2LQ1YUW7WUOCO","<p style=""font-size: 48px;"">+</p>","","","","","null","allTrialResponses","1500","1","8","img_art/8.jpg","-15","I could see this in a restaurant. I would never put in my house though.","Makayla,Destiny,Jenna,Danielle,Caitlin,Melissa","I see water and structures that resemble Ancient Rome,15,80,20","a cute little cute with some protectors,25,360,20","beautiful colors & details. love the surrealism & strange angle. the faces are interesting.,50,360,20","Enjoy this, it looks like a rushing water pool, surrounded by mountains and buildings, hiding details such as faces.,30,340,20","And I'll huff and I'll puff and I'll blow your town down!!,20,80,20","crisp shapes, find more things the longer you look,17,240,20","Makayla","I see water and structures that resemble Ancient Rome,15,80,20","Caitlin","And I'll huff and I'll puff and I'll blow your town down!!,20,80,20","Destiny","a cute little cute with some protectors,25,360,20","0"
"19465","","survey-text","101","552190","0.0-101.0-0.0","A2LQ1YUW7WUOCO","","","","{""Q0"":""It's a bit haunting. looks like a melting/burning city""}","","","","","","","","","","","","","","","","","","","","","","",""
"3175","","image-slider-response","102","555367","0.0-102.0","A2LQ1YUW7WUOCO","","","","","5","","","","","","","","","","","","","","","","","","","","","",""
"3558","","image-button-response","103","560371","0.0-103.0","A2LQ1YUW7WUOCO","img_art/20.jpg","2","","","","","","","","","","","","","","","","","","","","","","","","",""
"2553","","image-button-response","104","562926","0.0-104.0","A2LQ1YUW7WUOCO","img_art/20.jpg","2","","","","","","","","","","","","","","","","","","","","","","","","",""
"1108","","image-button-response","105","564036","0.0-105.0-0.0","A2LQ1YUW7WUOCO","img_art/20.jpg","0","","","","","","","","","","","","","","","","","","","","","","","","",""
"1240","","image-button-response","106","565278","0.0-106.0-0.0","A2LQ1YUW7WUOCO","img_art/20.jpg","3","","","","","","","","","","","","","","","","","","","","","","","","",""
"null","","html-keyboard-response","107","565781","0.0-107.0","A2LQ1YUW7WUOCO","<p style=""font-size: 48px;"">+</p>","","","","","null","allTrialResponses","500","1","9","img_art/20.jpg","5","It's a bit haunting. looks like a melting/burning city","Makayla,Destiny,Isabella,Autumn,Caitlin,Victoria","Little picturesque town that I would like to visit,19,80,20","truck? train? dead cow? plane?,10,360,20","Feels like a town destroyed,-19,280,20","It's ok. Very abstract.,18,340,20","Not bad for all the southwestern people.,15,80,20","like the colors and desert feel,7,400,20","Isabella","Feels like a town destroyed,-19,280,20","Makayla","Little picturesque town that I would like to visit,19,80,20","Autumn","It's ok. Very abstract.,18,340,20","0"
"12942","","survey-text","108","578730","0.0-108.0-0.0","A2LQ1YUW7WUOCO","","","","{""Q0"":""My kid did something similar at preschool yesterday.""}","","","","","","","","","","","","","","","","","","","","","","",""
"2637.0000000001164","","image-slider-response","109","581369","0.0-109.0","A2LQ1YUW7WUOCO","","","","","-14","","","","","","","","","","","","","","","","","","","","","",""
"2854","","image-button-response","110","586372","0.0-110.0","A2LQ1YUW7WUOCO","img_art/2.jpg","0","","","","","","","","","","","","","","","","","","","","","","","","",""
"849","","image-button-response","111","587222","0.0-111.0","A2LQ1YUW7WUOCO","img_art/2.jpg","0","","","","","","","","","","","","","","","","","","","","","","","","",""
"1765","","image-button-response","112","588989","0.0-112.0-0.0","A2LQ1YUW7WUOCO","img_art/2.jpg","2","","","","","","","","","","","","","","","","","","","","","","","","",""
"3474","","image-button-response","113","592466","0.0-113.0-0.0","A2LQ1YUW7WUOCO","img_art/2.jpg","5","","","","","","","","","","","","","","","","","","","","","","","","",""
"null","","html-keyboard-response","114","593469","0.0-114.0","A2LQ1YUW7WUOCO","<p style=""font-size: 48px;"">+</p>","","","","","null","allTrialResponses","1000","1","10","img_art/2.jpg","-14","My kid did something similar at preschool yesterday.","Makayla,Alyssa,Isabella,Autumn,Jasmine,Ashley","I don't feel indifferent,4,80,20","Its meh. Doesnt illicit any strong feelings in me,1,160,20","Feels like a playground or park vibe,27,280,20","7 year old painted?,-35,340,20","Color picks are a bad mesh with each other,-17,340,20","I think I can make out a face in there.,25,320,20","Makayla","I don't feel indifferent,4,80,20","Isabella","Feels like a playground or park vibe,27,280,20","Ashley","I think I can make out a face in there.,25,320,20","0"
"3073","","survey-text","115","596557","0.0-115.0-0.0","A2LQ1YUW7WUOCO","","","","{""Q0"":""our""}","","","","","","","","","","","","","","","","","","","","","","",""
"18107","","survey-text","116","614665","0.0-116.0-0.0","A2LQ1YUW7WUOCO","","","","{""Q0"":""Boring. don't really feel anything about it.""}","","","","","","","","","","","","","","","","","","","","","","",""
"7801","","image-slider-response","117","622468","0.0-117.0","A2LQ1YUW7WUOCO","","","","","1","","","","","","","","","","","","","","","","","","","","","",""
"4442","","image-button-response","118","627477","0.0-118.0","A2LQ1YUW7WUOCO","img_art/5.jpg","3","","","","","","","","","","","","","","","","","","","","","","","","",""
"3009","","image-button-response","119","630488","0.0-119.0","A2LQ1YUW7WUOCO","img_art/5.jpg","3","","","","","","","","","","","","","","","","","","","","","","","","",""
"1015","","image-button-response","120","631505","0.0-120.0-0.0","A2LQ1YUW7WUOCO","img_art/5.jpg","0","","","","","","","","","","","","","","","","","","","","","","","","",""
"1247","","image-button-response","121","632755","0.0-121.0-0.0","A2LQ1YUW7WUOCO","img_art/5.jpg","2","","","","","","","","","","","","","","","","","","","","","","","","",""
"null","","html-keyboard-response","122","633757","0.0-122.0","A2LQ1YUW7WUOCO","<p style=""font-size: 48px;"">+</p>","","","","","null","allTrialResponses","1000","1","11","img_art/5.jpg","1","Boring. don't really feel anything about it.","Makayla,Allison,Isabella,Jordan,Claire,Ashley","Bright and sunny,19,80,20","Too loud. Dislike the bright yellow.,-5,140,20","Seems clean and neat,11,280,20","I dont really get anything from this,-25,20,20","I like the strokes and colors used,20,260,20","I like the simple shapes and colors.,23,320,20","Jordan","I dont really get anything from this,-25,20,20","Makayla","Bright and sunny,19,80,20","Isabella","Seems clean and neat,11,280,20","0"
"10821","","survey-text","123","644586","0.0-123.0-0.0","A2LQ1YUW7WUOCO","","","","{""Q0"":""looks like an abstract Italy ""}","","","","","","","","","","","","","","","","","","","","","","",""
"4048","","image-slider-response","124","648637","0.0-124.0","A2LQ1YUW7WUOCO","","","","","6","","","","","","","","","","","","","","","","","","","","","",""
"3603","","image-button-response","125","653645","0.0-125.0","A2LQ1YUW7WUOCO","img_art/19.jpg","0","","","","","","","","","","","","","","","","","","","","","","","","",""
"2084","","image-button-response","126","655730","0.0-126.0","A2LQ1YUW7WUOCO","img_art/19.jpg","0","","","","","","","","","","","","","","","","","","","","","","","","",""
"5098","","image-button-response","127","660830","0.0-127.0-0.0","A2LQ1YUW7WUOCO","img_art/19.jpg","5","","","","","","","","","","","","","","","","","","","","","","","","",""
"3190","","image-button-response","128","664023","0.0-128.0-0.0","A2LQ1YUW7WUOCO","img_art/19.jpg","1","","","","","","","","","","","","","","","","","","","","","","","","",""
"null","","html-keyboard-response","129","665026","0.0-129.0","A2LQ1YUW7WUOCO","<p style=""font-size: 48px;"">+</p>","","","","","null","allTrialResponses","1000","1","12","img_art/19.jpg","6","looks like an abstract Italy ","Makayla,Brittany,Isabella,Jordan,Alexandria,Brianna","Looks like hustle and bustle ,,3,80,20","It looks too much of a rough sketch. Don't really enjoy looking at it.,-9,40,20","A day in a small city,45,280,20","I like it, I see someone walking his dog in the early morning time,23,20,20","it draws my eye and my mind fills in the spaces,14,80,20","I don't know what's going on, and I realise that I don't like it,-21,20,20","Makayla","Looks like hustle and bustle ,,3,80,20","Brianna","I don't know what's going on, and I realise that I don't like it,-21,20,20","Brittany","It looks too much of a rough sketch. Don't really enjoy looking at it.,-9,40,20","0"
"5357","","survey-text","130","670391","0.0-130.0-0.0","A2LQ1YUW7WUOCO","","","","{""Q0"":""Crow.""}","","","","","","","","","","","","","","","","","","","","","","",""
"5157","","survey-text","131","677182","0.0-130.1-0.1","A2LQ1YUW7WUOCO","","","","{""Q0"":""Looks like a Crow.""}","","","","","","","","","","","","","","","","","","","","","","",""
"4214","","image-slider-response","132","681400","0.0-131.0","A2LQ1YUW7WUOCO","","","","","5","","","","","","","","","","","","","","","","","","","","","",""
"null","","image-button-response","133","686408","0.0-132.0","A2LQ1YUW7WUOCO","img_art/6.jpg","null","","","","","","","","","","","","","","","","","","","","","","","","",""
"134","","image-button-response","134","686544","0.0-133.0","A2LQ1YUW7WUOCO","img_art/6.jpg","3","","","","","","","","","","","","","","","","","","","","","","","","",""
"5066","","image-button-response","135","691612","0.0-134.0-0.0","A2LQ1YUW7WUOCO","img_art/6.jpg","2","","","","","","","","","","","","","","","","","","","","","","","","",""
"4397","","image-button-response","136","696011","0.0-135.0-0.0","A2LQ1YUW7WUOCO","img_art/6.jpg","1","","","","","","","","","","","","","","","","","","","","","","","","",""
"null","","html-keyboard-response","137","697014","0.0-136.0","A2LQ1YUW7WUOCO","<p style=""font-size: 48px;"">+</p>","","","","","null","allTrialResponses","1000","1","13","img_art/6.jpg","5","Looks like a Crow.","Makayla,Brittany,Michelle,Heather,Kathryn,Brianna","Don't like the black space,2,80,20","It's alright. I imagined the peach from James and the Giant Peach.,1,40,20","Definitely belongs at a doctor's office, I think it's a crow or a tree?,-3,280,20","it looks like a stick holding a wig on a cliff,21,260,20","This piece feels hopeful, like an oasis in the desert.,20,140,20","Nice desert scene,10,20,20","Heather","it looks like a stick holding a wig on a cliff,21,260,20","Michelle","Definitely belongs at a doctor's office, I think it's a crow or a tree?,-3,280,20","Brittany","It's alright. I imagined the peach from James and the Giant Peach.,1,40,20","0"
"12658","","survey-text","138","709683","0.0-137.0-0.0","A2LQ1YUW7WUOCO","","","","{""Q0"":""This is confusing. RIP bear.""}","","","","","","","","","","","","","","","","","","","","","","",""
"3222","","image-slider-response","139","712908","0.0-138.0","A2LQ1YUW7WUOCO","","","","","-21","","","","","","","","","","","","","","","","","","","","","",""
"3901","","image-button-response","140","717913","0.0-139.0","A2LQ1YUW7WUOCO","img_art/16.jpg","0","","","","","","","","","","","","","","","","","","","","","","","","",""
"2916","","image-button-response","141","720831","0.0-140.0","A2LQ1YUW7WUOCO","img_art/16.jpg","0","","","","","","","","","","","","","","","","","","","","","","","","",""
"1819","","image-button-response","142","722652","0.0-141.0-0.0","A2LQ1YUW7WUOCO","img_art/16.jpg","3","","","","","","","","","","","","","","","","","","","","","","","","",""
"1798","","image-button-response","143","724452","0.0-142.0-0.0","A2LQ1YUW7WUOCO","img_art/16.jpg","5","","","","","","","","","","","","","","","","","","","","","","","","",""
"null","","html-keyboard-response","144","725456","0.0-143.0","A2LQ1YUW7WUOCO","<p style=""font-size: 48px;"">+</p>","","","","","null","allTrialResponses","1000","1","14","img_art/16.jpg","-21","This is confusing. RIP bear.","Olivia,Brittany,Michelle,Heather,Dominique,Maria","childhood horror,3,40,20","Kind of dull, colors and drawings are not really interesting.,0,40,20","I'm a fan of collage and of reminiscing about childhood so this was nice,10,280,20","lol i dont know how i feel about this.,1,260,20","Toys toys toys. Happy playful free spirit,30,400,20","feel a little creeped out,-20,120,20","Olivia","childhood horror,3,40,20","Heather","lol i dont know how i feel about this.,1,260,20","Maria","feel a little creeped out,-20,120,20","0"
"15374","","survey-text","145","740840","0.0-144.0-0.0","A2LQ1YUW7WUOCO","","","","{""Q0"":""it looks gross. I don't like it.""}","","","","","","","","","","","","","","","","","","","","","","",""
"3984.0000000001164","","image-slider-response","146","744826","0.0-145.0","A2LQ1YUW7WUOCO","","","","","-31","","","","","","","","","","","","","","","","","","","","","",""
"4523","","image-button-response","147","749834","0.0-146.0","A2LQ1YUW7WUOCO","img_art/4.jpg","2","","","","","","","","","","","","","","","","","","","","","","","","",""
"2515","","image-button-response","148","752350","0.0-147.0","A2LQ1YUW7WUOCO","img_art/4.jpg","2","","","","","","","","","","","","","","","","","","","","","","","","",""
"1742","","image-button-response","149","754094","0.0-148.0-0.0","A2LQ1YUW7WUOCO","img_art/4.jpg","0","","","","","","","","","","","","","","","","","","","","","","","","",""
"1957","","image-button-response","150","756053","0.0-149.0-0.0","A2LQ1YUW7WUOCO","img_art/4.jpg","3","","","","","","","","","","","","","","","","","","","","","","","","",""
"null","","html-keyboard-response","151","757557","0.0-150.0","A2LQ1YUW7WUOCO","<p style=""font-size: 48px;"">+</p>","","","","","null","allTrialResponses","1500","1","15","img_art/4.jpg","-31","it looks gross. I don't like it.","Olivia,Gabrielle,Kelly,Heather,Abigail,Maria","The muted tones,-11,40,20","too childish, not really art in my world,-50,160,20","The longer I stare at this the less I like it.,-19,220,20","looks like an award from an award show.,22,260,20","A hand reaching for something it cannot obtain,-9,20,20","no strong feelings about this one,2,120,20","Kelly","The longer I stare at this the less I like it.,-19,220,20","Olivia","The muted tones,-11,40,20","Heather","looks like an award from an award show.,22,260,20","0"
"3104","","survey-text","152","760676","0.0-151.0-0.0","A2LQ1YUW7WUOCO","","","","{""Q0"":""course""}","","","","","","","","","","","","","","","","","","","","","","",""
"23834","","survey-text","153","784511","0.0-152.0-0.0","A2LQ1YUW7WUOCO","","","","{""Q0"":""I wish it was a little brighter, but overall pleasant.""}","","","","","","","","","","","","","","","","","","","","","","",""
"8753","","image-slider-response","154","793267","0.0-153.0","A2LQ1YUW7WUOCO","","","","","16","","","","","","","","","","","","","","","","","","","","","",""
"null","","image-button-response","155","798269","0.0-154.0","A2LQ1YUW7WUOCO","img_art/26.jpg","null","","","","","","","","","","","","","","","","","","","","","","","","",""
"1563","","image-button-response","156","799832","0.0-155.0","A2LQ1YUW7WUOCO","img_art/26.jpg","2","","","","","","","","","","","","","","","","","","","","","","","","",""
"2555","","image-button-response","157","802388","0.0-156.0-0.0","A2LQ1YUW7WUOCO","img_art/26.jpg","3","","","","","","","","","","","","","","","","","","","","","","","","",""
"1430","","image-button-response","158","803820","0.0-157.0-0.0","A2LQ1YUW7WUOCO","img_art/26.jpg","1","","","","","","","","","","","","","","","","","","","","","","","","",""
"null","","html-keyboard-response","159","804824","0.0-158.0","A2LQ1YUW7WUOCO","<p style=""font-size: 48px;"">+</p>","","","","","null","allTrialResponses","1000","1","16","img_art/26.jpg","16","I wish it was a little brighter, but overall pleasant.","Olivia,Cassandra,Kelly,Heather,Christina,Sierra","reminds me of a hometown,7,40,20","Neutral...nothing to say.,3,120,20","Very subdued, but wouldn't give it a 2nd notice.,4,220,20","neighborhood and trees. i wonder if this is water paint.,1,260,20","looks like a little kids painting,-17,240,20","soothing and subtle,1,260,20","Kelly","Very subdued, but wouldn't give it a 2nd notice.,4,220,20","Heather","neighborhood and trees. i wonder if this is water paint.,1,260,20","Cassandra","Neutral...nothing to say.,3,120,20","0"
"22137","","survey-text","160","826972","0.0-159.0-0.0","A2LQ1YUW7WUOCO","","","","{""Q0"":""a bit plain. don't feel anything strong.""}","","","","","","","","","","","","","","","","","","","","","","",""
"4024","","image-slider-response","161","830999","0.0-160.0","A2LQ1YUW7WUOCO","","","","","2","","","","","","","","","","","","","","","","","","","","","",""
"null","","image-button-response","162","836002","0.0-161.0","A2LQ1YUW7WUOCO","img_art/30.jpg","null","","","","","","","","","","","","","","","","","","","","","","","","",""
"213","","image-button-response","163","836216","0.0-162.0","A2LQ1YUW7WUOCO","img_art/30.jpg","0","","","","","","","","","","","","","","","","","","","","","","","","",""
"5487","","image-button-response","164","841705","0.0-163.0-0.0","A2LQ1YUW7WUOCO","img_art/30.jpg","1","","","","","","","","","","","","","","","","","","","","","","","","",""
"4351","","image-button-response","165","846058","0.0-164.0-0.0","A2LQ1YUW7WUOCO","img_art/30.jpg","3","","","","","","","","","","","","","","","","","","","","","","","","",""
"null","","html-keyboard-response","166","847060","0.0-165.0","A2LQ1YUW7WUOCO","<p style=""font-size: 48px;"">+</p>","","","","","null","allTrialResponses","1000","1","17","img_art/30.jpg","2","a bit plain. don't feel anything strong.","Grace,Cassandra,Kelly,Heather,Lauren,Kayla","A little too dull. Would've liked brighter colors. Also looks washed out.,1,180,20","I didn't like this...it looks like someone just finger painted it.,-10,120,20","The red helps it to pop.,13,220,20","beautiful paint brush strokes,1,260,20","I like how the strokes invokes a sense of fluidity.,20,340,20","It's soothing- the page is full, but there aren't too many things happening.,23,180,20","Grace","A little too dull. Would've liked brighter colors. Also looks washed out.,1,180,20","Cassandra","I didn't like this...it looks like someone just finger painted it.,-10,120,20","Heather","beautiful paint brush strokes,1,260,20","0"
"13706","","survey-text","167","860772","0.0-166.0-0.0","A2LQ1YUW7WUOCO","","","","{""Q0"":""too much red.""}","","","","","","","","","","","","","","","","","","","","","","",""
"2877.0000000001164","","image-slider-response","168","863652","0.0-167.0","A2LQ1YUW7WUOCO","","","","","-6","","","","","","","","","","","","","","","","","","","","","",""
"3119","","image-button-response","169","868655","0.0-168.0","A2LQ1YUW7WUOCO","img_art/3.jpg","0","","","","","","","","","","","","","","","","","","","","","","","","",""
"904","","image-button-response","170","869561","0.0-169.0","A2LQ1YUW7WUOCO","img_art/3.jpg","1","","","","","","","","","","","","","","","","","","","","","","","","",""
"4671","","image-button-response","171","874233","0.0-170.0-0.0","A2LQ1YUW7WUOCO","img_art/3.jpg","3","","","","","","","","","","","","","","","","","","","","","","","","",""
"5904","","image-button-response","172","880139","0.0-171.0-0.0","A2LQ1YUW7WUOCO","img_art/3.jpg","0","","","","","","","","","","","","","","","","","","","","","","","","",""
"null","","html-keyboard-response","173","881642","0.0-172.0","A2LQ1YUW7WUOCO","<p style=""font-size: 48px;"">+</p>","","","","","null","allTrialResponses","1500","1","18","img_art/3.jpg","-6","too much red.","Grace,Cassandra,Cheyenne,Heather,Amber,Rebecca","Just no. I love red but this looks like blood splatter on a wall from a horrific killing.,-45,180,20","I hate this...just a scribble of red.,-50,120,20","Don't see what the purpose is.,-31,200,20","Blood splatter and one black spot.,1,260,20","seems to be a lot of angry scribble.,-20,200,20","sorry do not understand,-26,100,20","Cassandra","I hate this...just a scribble of red.,-50,120,20","Heather","Blood splatter and one black spot.,1,260,20","Grace","Just no. I love red but this looks like blood splatter on a wall from a horrific killing.,-45,180,20","0"
"13529","","survey-text","174","895179","0.0-173.0-0.0","A2LQ1YUW7WUOCO","","","","{""Q0"":""a bit drab. ""}","","","","","","","","","","","","","","","","","","","","","","",""
"4603.000000000116","","image-slider-response","175","899782","0.0-174.0","A2LQ1YUW7WUOCO","","","","","-22","","","","","","","","","","","","","","","","","","","","","",""
"3181","","image-button-response","176","904786","0.0-175.0","A2LQ1YUW7WUOCO","img_art/28.jpg","1","","","","","","","","","","","","","","","","","","","","","","","","",""
"610","","image-button-response","177","905398","0.0-176.0","A2LQ1YUW7WUOCO","img_art/28.jpg","1","","","","","","","","","","","","","","","","","","","","","","","","",""
"3520","","image-button-response","178","908920","0.0-177.0-0.0","A2LQ1YUW7WUOCO","img_art/28.jpg","4","","","","","","","","","","","","","","","","","","","","","","","","",""
"7420","","image-button-response","179","916342","0.0-178.0-0.0","A2LQ1YUW7WUOCO","img_art/28.jpg","2","","","","","","","","","","","","","","","","","","","","","","","","",""
"null","","html-keyboard-response","180","916844","0.0-179.0","A2LQ1YUW7WUOCO","<p style=""font-size: 48px;"">+</p>","","","","","null","allTrialResponses","500","1","19","img_art/28.jpg","-22","a bit drab. ","Grace,Cassandra,Morgan,Heather,Erica,Shannon","A meeting in Old Jerusalem.,11,180,20","Hate it...brown and drab,-37,120,20","Apartment throw up.,-5,380,20","not sure what i feel but it makes me feel uncomfortable,1,260,20","Nothing calls my attention,15,80,20","I don't like the way the colors look; I think very disgusting colors were used.,-20,220,20","Cassandra","Hate it...brown and drab,-37,120,20","Erica","Nothing calls my attention,15,80,20","Morgan","Apartment throw up.,-5,380,20","0"
"15109","","survey-text","181","931963","0.0-180.0-0.0","A2LQ1YUW7WUOCO","","","","{""Q0"":""very colorful. not much to look at.""}","","","","","","","","","","","","","","","","","","","","","","",""
"3175","","image-slider-response","182","935139","0.0-181.0","A2LQ1YUW7WUOCO","","","","","7","","","","","","","","","","","","","","","","","","","","","",""
"null","","image-button-response","183","940143","0.0-182.0","A2LQ1YUW7WUOCO","img_art/1.jpg","null","","","","","","","","","","","","","","","","","","","","","","","","",""
"5357","","image-button-response","184","945501","0.0-183.0","A2LQ1YUW7WUOCO","img_art/1.jpg","0","","","","","","","","","","","","","","","","","","","","","","","","",""
"1697","","image-button-response","185","947200","0.0-184.0-0.0","A2LQ1YUW7WUOCO","img_art/1.jpg","1","","","","","","","","","","","","","","","","","","","","","","","","",""
"4730","","image-button-response","186","951932","0.0-185.0-0.0","A2LQ1YUW7WUOCO","img_art/1.jpg","2","","","","","","","","","","","","","","","","","","","","","","","","",""
"null","","html-keyboard-response","187","953434","0.0-186.0","A2LQ1YUW7WUOCO","<p style=""font-size: 48px;"">+</p>","","","","","null","allTrialResponses","1500","1","20","img_art/1.jpg","7","very colorful. not much to look at.","Courtney,Cassandra,Morgan,Elizabeth,Erica,Kaitlin","I cant make anything of this one.,-7,280,20","I didn't like this too much...I didn't like the red and the jaggedness to it.,-29,120,20","Flat colors with no flavor.,5,380,20","Absolutely love this painting,50,20,20","Makes me warm and relaxed,38,80,20","I see happiness from different aspects of life,31,60,20","Courtney","I cant make anything of this one.,-7,280,20","Cassandra","I didn't like this too much...I didn't like the red and the jaggedness to it.,-29,120,20","Morgan","Flat colors with no flavor.,5,380,20","0"
"2664","","survey-text","188","956111","0.0-187.0-0.0","A2LQ1YUW7WUOCO","","","","{""Q0"":""we""}","","","","","","","","","","","","","","","","","","","","","","",""
"10661","","survey-text","189","966773","0.0-188.0-0.0","A2LQ1YUW7WUOCO","","","","{""Q0"":""looks like diseased skin""}","","","","","","","","","","","","","","","","","","","","","","",""
"74851.99999999988","","image-slider-response","190","1041667","0.0-189.0","A2LQ1YUW7WUOCO","","","","","-16","","","","","","","","","","","","","","","","","","","","","",""
"null","","image-button-response","191","1046669","0.0-190.0","A2LQ1YUW7WUOCO","img_art/7.jpg","null","","","","","","","","","","","","","","","","","","","","","","","","",""
"1062","","image-button-response","192","1047733","0.0-191.0","A2LQ1YUW7WUOCO","img_art/7.jpg","5","","","","","","","","","","","","","","","","","","","","","","","","",""
"2840","","image-button-response","193","1050573","0.0-192.0-0.0","A2LQ1YUW7WUOCO","img_art/7.jpg","1","","","","","","","","","","","","","","","","","","","","","","","","",""
"1834","","image-button-response","194","1052408","0.0-193.0-0.0","A2LQ1YUW7WUOCO","img_art/7.jpg","2","","","","","","","","","","","","","","","","","","","","","","","","",""
"null","","html-keyboard-response","195","1053411","0.0-194.0","A2LQ1YUW7WUOCO","<p style=""font-size: 48px;"">+</p>","","","","","null","allTrialResponses","1000","1","21","img_art/7.jpg","-16","looks like diseased skin","Courtney,Cassandra,Morgan,Angela,Jennifer,Natalie","That a desert floor,16,280,20","Just neutral...looks like sand at the beach.,3,120,20","Dead bugs on an insect battleground.,-10,380,20","Looks like vomit, or chunky feces,-42,260,20","Very, very dull compared to the other paintings,-36,380,20","does not look good,-42,400,20","Natalie","does not look good,-42,400,20","Cassandra","Just neutral...looks like sand at the beach.,3,120,20","Morgan","Dead bugs on an insect battleground.,-10,380,20","0"
"19705","","survey-text","196","1073123","0.0-195.0-0.0","A2LQ1YUW7WUOCO","","","","{""Q0"":""It looks like a kid got to it with marker and drew on a painting.""}","","","","","","","","","","","","","","","","","","","","","","",""
"2983.000000000233","","image-slider-response","197","1076108","0.0-196.0","A2LQ1YUW7WUOCO","","","","","-25","","","","","","","","","","","","","","","","","","","","","",""
"null","","image-button-response","198","1081111","0.0-197.0","A2LQ1YUW7WUOCO","img_art/27.jpg","null","","","","","","","","","","","","","","","","","","","","","","","","",""
"430","","image-button-response","199","1081542","0.0-198.0","A2LQ1YUW7WUOCO","img_art/27.jpg","3","","","","","","","","","","","","","","","","","","","","","","","","",""
"6687","","image-button-response","200","1088232","0.0-199.0-0.0","A2LQ1YUW7WUOCO","img_art/27.jpg","1","","","","","","","","","","","","","","","","","","","","","","","","",""
"5536","","image-button-response","201","1093770","0.0-200.0-0.0","A2LQ1YUW7WUOCO","img_art/27.jpg","2","","","","","","","","","","","","","","","","","","","","","","","","",""
"null","","html-keyboard-response","202","1095273","0.0-201.0","A2LQ1YUW7WUOCO","<p style=""font-size: 48px;"">+</p>","","","","","null","allTrialResponses","1500","1","22","img_art/27.jpg","-25","It looks like a kid got to it with marker and drew on a painting.","Kylie,Cassandra,Morgan,Samantha,Vanessa,Natalie","Soothing in the middle of some confusion,40,300,20","I don't like any of it...just scibbles.,-37,120,20","Messy field of various plants.,-5,380,20","I like all it has going but i wouldnt put it in my house unless my child did it,25,140,20","Colors make me think of fall, but I don't like how the picture was done or the weird lines across the background,6,380,20","also gives me anxiety,-21,400,20","Samantha","I like all it has going but i wouldnt put it in my house unless my child did it,25,140,20","Cassandra","I don't like any of it...just scibbles.,-37,120,20","Morgan","Messy field of various plants.,-5,380,20","0"
"8941","","survey-text","203","1104223","0.0-202.0-0.0","A2LQ1YUW7WUOCO","","","","{""Q0"":""busy painting.""}","","","","","","","","","","","","","","","","","","","","","","",""
"6920","","image-slider-response","204","1111146","0.0-203.0","A2LQ1YUW7WUOCO","","","","","-4","","","","","","","","","","","","","","","","","","","","","",""
"null","","image-button-response","205","1116147","0.0-204.0","A2LQ1YUW7WUOCO","img_art/18.jpg","null","","","","","","","","","","","","","","","","","","","","","","","","",""
"5904","","image-button-response","206","1122053","0.0-205.0","A2LQ1YUW7WUOCO","img_art/18.jpg","5","","","","","","","","","","","","","","","","","","","","","","","","",""
"5770","","image-button-response","207","1127824","0.0-206.0-0.0","A2LQ1YUW7WUOCO","img_art/18.jpg","1","","","","","","","","","","","","","","","","","","","","","","","","",""
"2135","","image-button-response","208","1129961","0.0-207.0-0.0","A2LQ1YUW7WUOCO","img_art/18.jpg","2","","","","","","","","","","","","","","","","","","","","","","","","",""
"null","","html-keyboard-response","209","1130963","0.0-208.0","A2LQ1YUW7WUOCO","<p style=""font-size: 48px;"">+</p>","","","","","null","allTrialResponses","1000","1","23","img_art/18.jpg","-4","busy painting.","Gabriela,Cassandra,Morgan,Samantha,Mary,Madeline","It's possibly of a mermaid luring in a ship,15,140,20","I don't know...kind of a dissatified feeling inside.,-6,120,20","Ghostly sea adventure.,20,380,20","Id love to see this piece closer. So much extra details hidden it it.,50,140,20","I like the expression of this piece. The colors are very outdated though.,-5,180,20","Good concept but then scribbled on a bit?,15,40,20","Madeline","Good concept but then scribbled on a bit?,15,40,20","Cassandra","I don't know...kind of a dissatified feeling inside.,-6,120,20","Morgan","Ghostly sea adventure.,20,380,20","0"
"7163","","survey-text","210","1138136","0.0-209.0-0.0","A2LQ1YUW7WUOCO","","","","{""Q0"":""A Waterfall""}","","","","","","","","","","","","","","","","","","","","","","",""
"3896","","image-slider-response","211","1142034","0.0-210.0","A2LQ1YUW7WUOCO","","","","","16","","","","","","","","","","","","","","","","","","","","","",""
"null","","image-button-response","212","1147038","0.0-211.0","A2LQ1YUW7WUOCO","img_art/24.jpg","null","","","","","","","","","","","","","","","","","","","","","","","","",""
"10793","","image-button-response","213","1157832","0.0-212.0","A2LQ1YUW7WUOCO","img_art/24.jpg","1","","","","","","","","","","","","","","","","","","","","","","","","",""
"4180","","image-button-response","214","1162014","0.0-213.0-0.0","A2LQ1YUW7WUOCO","img_art/24.jpg","5","","","","","","","","","","","","","","","","","","","","","","","","",""
"1464","","image-button-response","215","1163480","0.0-214.0-0.0","A2LQ1YUW7WUOCO","img_art/24.jpg","3","","","","","","","","","","","","","","","","","","","","","","","","",""
"null","","html-keyboard-response","216","1164982","0.0-215.0","A2LQ1YUW7WUOCO","<p style=""font-size: 48px;"">+</p>","","","","","null","allTrialResponses","1500","1","24","img_art/24.jpg","16","A Waterfall","Laura,Cassandra,Morgan,Alexis,Anna,Madeline","chunky fresh color,27,320,20","I like it...looks like a waterfall.,11,120,20","Water through the fruit.,15,380,20","Simple. Not too abstract. Love the different flower colors.,20,100,20","I like how it evokes the feeling of being in a forest. The colors are pretty,31,300,20","colors are good but the style is iffy,12,40,20","Cassandra","I like it...looks like a waterfall.,11,120,20","Madeline","colors are good but the style is iffy,12,40,20","Alexis","Simple. Not too abstract. Love the different flower colors.,20,100,20","0"
"12711","","survey-text","217","1177702","0.0-216.0-0.0","A2LQ1YUW7WUOCO","","","","{""Q0"":""Probably my favorite so far.""}","","","","","","","","","","","","","","","","","","","","","","",""
"5474.000000000233","","image-slider-response","218","1183178","0.0-217.0","A2LQ1YUW7WUOCO","","","","","28","","","","","","","","","","","","","","","","","","","","","",""
"null","","image-button-response","219","1188186","0.0-218.0","A2LQ1YUW7WUOCO","img_art/17.jpg","null","","","","","","","","","","","","","","","","","","","","","","","","",""
"4181","","image-button-response","220","1192369","0.0-219.0","A2LQ1YUW7WUOCO","img_art/17.jpg","1","","","","","","","","","","","","","","","","","","","","","","","","",""
"2954","","image-button-response","221","1195325","0.0-220.0-0.0","A2LQ1YUW7WUOCO","img_art/17.jpg","4","","","","","","","","","","","","","","","","","","","","","","","","",""
"1196","","image-button-response","222","1196523","0.0-221.0-0.0","A2LQ1YUW7WUOCO","img_art/17.jpg","0","","","","","","","","","","","","","","","","","","","","","","","","",""
"null","","html-keyboard-response","223","1198025","0.0-222.0","A2LQ1YUW7WUOCO","<p style=""font-size: 48px;"">+</p>","","","","","null","allTrialResponses","1500","1","25","img_art/17.jpg","28","Probably my favorite so far.","Leah,Cassandra,Sabrina,Alexis,Shelby,Madeline","Love the colors, the flow, like a strange storm or tree off the balcony,50,360,20","Very pretty...the colors and good and flow well.,33,120,20","Messy shadow of loss and love,50,120,20","Love the color and nature motif,36,100,20","This feels like creativity and limitlessness,30,240,20","So expressive and wonderful wow!,17,40,20","Cassandra","Very pretty...the colors and good and flow well.,33,120,20","Shelby","This feels like creativity and limitlessness,30,240,20","Leah","Love the colors, the flow, like a strange storm or tree off the balcony,50,360,20","0"
"3460","","survey-text","224","1201496","0.0-223.0-0.0","A2LQ1YUW7WUOCO","","","","{""Q0"":""table""}","","","","","","","","","","","","","","","","","","","","","","",""
"12209","","survey-text","225","1213707","0.0-224.0-0.0","A2LQ1YUW7WUOCO","","","","{""Q0"":""It creeps me out. looks like bugs.""}","","","","","","","","","","","","","","","","","","","","","","",""
"2786.999999999767","","image-slider-response","226","1216495","0.0-225.0","A2LQ1YUW7WUOCO","","","","","-17","","","","","","","","","","","","","","","","","","","","","",""
"3337","","image-button-response","227","1221498","0.0-226.0","A2LQ1YUW7WUOCO","img_art/15.jpg","1","","","","","","","","","","","","","","","","","","","","","","","","",""
"2369","","image-button-response","228","1223869","0.0-227.0","A2LQ1YUW7WUOCO","img_art/15.jpg","5","","","","","","","","","","","","","","","","","","","","","","","","",""
"2533","","image-button-response","229","1226403","0.0-228.0-0.0","A2LQ1YUW7WUOCO","img_art/15.jpg","2","","","","","","","","","","","","","","","","","","","","","","","","",""
"1916","","image-button-response","230","1228321","0.0-229.0-0.0","A2LQ1YUW7WUOCO","img_art/15.jpg","0","","","","","","","","","","","","","","","","","","","","","","","","",""
"null","","html-keyboard-response","231","1229323","0.0-230.0","A2LQ1YUW7WUOCO","<p style=""font-size: 48px;"">+</p>","","","","","null","allTrialResponses","1000","1","26","img_art/15.jpg","-17","It creeps me out. looks like bugs.","Leah,Cassandra,Katherine,Meghan,Shelby,Miranda","Pretty, like in a field of poppies,19,360,20","Hate it...black dots.,-47,120,20","black dots too ant-like,-25,120,20","I like the pattern of it,11,220,20","This painting gives a calm vibe but no stronger emotions than that,10,240,20","This gives a skin crawling feeling. Like something that you could see under a mircoscope,10,320,20","Miranda","This gives a skin crawling feeling. Like something that you could see under a mircoscope,10,320,20","Katherine","black dots too ant-like,-25,120,20","Leah","Pretty, like in a field of poppies,19,360,20","0"
"13825","","survey-text","232","1243157","0.0-231.0-0.0","A2LQ1YUW7WUOCO","","","","{""Q0"":""I don't really feel anything about this.""}","","","","","","","","","","","","","","","","","","","","","","",""
"2788","","image-slider-response","233","1245949","0.0-232.0","A2LQ1YUW7WUOCO","","","","","2","","","","","","","","","","","","","","","","","","","","","",""
"null","","image-button-response","234","1250953","0.0-233.0","A2LQ1YUW7WUOCO","img_art/22.jpg","null","","","","","","","","","","","","","","","","","","","","","","","","",""
"5187","","image-button-response","235","1256141","0.0-234.0","A2LQ1YUW7WUOCO","img_art/22.jpg","4","","","","","","","","","","","","","","","","","","","","","","","","",""
"2254","","image-button-response","236","1258398","0.0-235.0-0.0","A2LQ1YUW7WUOCO","img_art/22.jpg","0","","","","","","","","","","","","","","","","","","","","","","","","",""
"1248","","image-button-response","237","1259648","0.0-236.0-0.0","A2LQ1YUW7WUOCO","img_art/22.jpg","2","","","","","","","","","","","","","","","","","","","","","","","","",""
"null","","html-keyboard-response","238","1260651","0.0-237.0","A2LQ1YUW7WUOCO","<p style=""font-size: 48px;"">+</p>","","","","","null","allTrialResponses","1000","1","27","img_art/22.jpg","2","I don't really feel anything about this.","Leah,Leslie,Katherine,Breanna,Michaela,Miranda","Pretty colors but too blocky for me,-19,360,20","The way the colors seem to be reflected is a bit mesmerizing.,10,380,20","Cool squares but what's the circle?,38,120,20","Makes me feel a bit anxious,6,380,20","I like the use of primary colors in an interesting way,29,260,20","Its very warm, it reminds of someone not liking their painting so they destoryed it,26,320,20","Michaela","I like the use of primary colors in an interesting way,29,260,20","Leah","Pretty colors but too blocky for me,-19,360,20","Katherine","Cool squares but what's the circle?,38,120,20","0"
"19442","","survey-text","239","1280105","0.0-238.0-0.0","A2LQ1YUW7WUOCO","","","","{""Q0"":""I like the blue, pretty abstract. ""}","","","","","","","","","","","","","","","","","","","","","","",""
"13223","","image-slider-response","240","1293330","0.0-239.0","A2LQ1YUW7WUOCO","","","","","-8","","","","","","","","","","","","","","","","","","","","","",""
"null","","image-button-response","241","1298332","0.0-240.0","A2LQ1YUW7WUOCO","img_art/21.jpg","null","","","","","","","","","","","","","","","","","","","","","","","","",""
"5526","","image-button-response","242","1303865","0.0-241.0","A2LQ1YUW7WUOCO","img_art/21.jpg","2","","","","","","","","","","","","","","","","","","","","","","","","",""
"1874","","image-button-response","243","1305741","0.0-242.0-0.0","A2LQ1YUW7WUOCO","img_art/21.jpg","3","","","","","","","","","","","","","","","","","","","","","","","","",""
"1166","","image-button-response","244","1306909","0.0-243.0-0.0","A2LQ1YUW7WUOCO","img_art/21.jpg","5","","","","","","","","","","","","","","","","","","","","","","","","",""
"null","","html-keyboard-response","245","1307411","0.0-244.0","A2LQ1YUW7WUOCO","<p style=""font-size: 48px;"">+</p>","","","","","null","allTrialResponses","500","1","28","img_art/21.jpg","-8","I like the blue, pretty abstract. ","Leah,Bailey,Katherine,Briana,Michaela,Sydney","Love the colors, uplifting and stormy at the same time,32,360,20","Looks like two ships on fire. Cool image.,12,360,20","I can't explain why this struck me as absolutely gorgeous. Like the clashing between 2 different worlds,43,120,20","Unfinished. Confusing to look at,-12,400,20","I love how vague it is but how you can imagine a story anyway, like clouds,45,260,20","I love everything about this piece.,50,320,20","Katherine","I can't explain why this struck me as absolutely gorgeous. Like the clashing between 2 different worlds,43,120,20","Briana","Unfinished. Confusing to look at,-12,400,20","Sydney","I love everything about this piece.,50,320,20","0"
"13631","","survey-text","246","1321050","0.0-245.0-0.0","A2LQ1YUW7WUOCO","","","","{""Q0"":""A bit too scribbly for me""}","","","","","","","","","","","","","","","","","","","","","","",""
"51296","","image-slider-response","247","1372349","0.0-246.0","A2LQ1YUW7WUOCO","","","","","2","","","","","","","","","","","","","","","","","","","","","",""
"4053","","image-button-response","248","1377352","0.0-247.0","A2LQ1YUW7WUOCO","img_art/9.jpg","2","","","","","","","","","","","","","","","","","","","","","","","","",""
"788","","image-button-response","249","1378141","0.0-248.0","A2LQ1YUW7WUOCO","img_art/9.jpg","2","","","","","","","","","","","","","","","","","","","","","","","","",""
"1392","","image-button-response","250","1379535","0.0-249.0-0.0","A2LQ1YUW7WUOCO","img_art/9.jpg","4","","","","","","","","","","","","","","","","","","","","","","","","",""
"843","","image-button-response","251","1380381","0.0-250.0-0.0","A2LQ1YUW7WUOCO","img_art/9.jpg","3","","","","","","","","","","","","","","","","","","","","","","","","",""
"null","","html-keyboard-response","252","1381883","0.0-251.0","A2LQ1YUW7WUOCO","<p style=""font-size: 48px;"">+</p>","","","","","null","allTrialResponses","1500","1","29","img_art/9.jpg","2","A bit too scribbly for me","Lindsey,Mariah,Katherine,Briana,Emily,Sydney","Looks like my niece's doodles.,-50,400,20","Pleasant in all ways.,27,140,20","Idk what is in the middle but the blurry image makes it seem like the subject is of the painters interest,22,120,20","I see a foot. Idk colors are pleasant,12,400,20","Looks like a young child drew it.,-45,40,20","I see some of my favorite colors which I like, but I don't like what's portrayed.,35,320,20","Katherine","Idk what is in the middle but the blurry image makes it seem like the subject is of the painters interest,22,120,20","Emily","Looks like a young child drew it.,-45,40,20","Briana","I see a foot. Idk colors are pleasant,12,400,20","0"
"6500","","survey-text","253","1388394","0.0-252.0-0.0","A2LQ1YUW7WUOCO","","","","{""Q0"":""looks like a worm""}","","","","","","","","","","","","","","","","","","","","","","",""
"5930.999999999767","","image-slider-response","254","1394328","0.0-253.0","A2LQ1YUW7WUOCO","","","","","-3","","","","","","","","","","","","","","","","","","","","","",""
"null","","image-button-response","255","1399331","0.0-254.0","A2LQ1YUW7WUOCO","img_art/23.jpg","null","","","","","","","","","","","","","","","","","","","","","","","","",""
"27454","","image-button-response","256","1426787","0.0-255.0","A2LQ1YUW7WUOCO","img_art/23.jpg","3","","","","","","","","","","","","","","","","","","","","","","","","",""
"989","","image-button-response","257","1427780","0.0-256.0-0.0","A2LQ1YUW7WUOCO","img_art/23.jpg","5","","","","","","","","","","","","","","","","","","","","","","","","",""
"1022","","image-button-response","258","1428806","0.0-257.0-0.0","A2LQ1YUW7WUOCO","img_art/23.jpg","1","","","","","","","","","","","","","","","","","","","","","","","","",""
"null","","html-keyboard-response","259","1429308","0.0-258.0","A2LQ1YUW7WUOCO","<p style=""font-size: 48px;"">+</p>","","","","","null","allTrialResponses","500","1","30","img_art/23.jpg","-3","looks like a worm","Rachel,Amanda,Katherine,Briana,Emily,Jamie","Vivid colors and the white in the middle looks like people dancing.,31,80,20","One of my favorites, love the colors and how the white looks like humans,50,180,20","This one is awesome, kinda looks like a cake with sprinkles but in a different universe,50,120,20","White in the middle look like people dancing naked,19,400,20","I don't get it.,-40,40,20","Reminds me of outer space and the stars,30,320,20","Briana","White in the middle look like people dancing naked,19,400,20","Jamie","Reminds me of outer space and the stars,30,320,20","Amanda","One of my favorites, love the colors and how the white looks like humans,50,180,20","0"
"1978","","image-button-response_instructions","260","1431294","0.0-259.0","A2LQ1YUW7WUOCO","","0","instructions","","","","","","","","","","","","","","","","","","","","","","","",""
"1192","","image-button-response","261","1432495","0.0-260.0","A2LQ1YUW7WUOCO","","0","","","","","","","","","","","","","","","","","","","","","","","","",""
