"rt","url","trial_type","trial_index","time_elapsed","internal_node_id","participant_id","stimulus","button_pressed","Name","responses","response","key_press","variableName","fixationTime","condition","trial","photo","subjectRating","subjectResponse","agentsNames","agent_1_Response","agent_2_Response","agent_3_Response","agent_4_Response","agent_5_Response","agent_6_Response","kept_1_name","kept_1_response","kept_2_name","kept_2_response","kept_3_name","kept_3_response","errorCounter"
"44711","external_page_harvard.html","external-html","0","44828","0.0-0.0","A2M2WHA77ACWTX","","","","","","","","","","","","","","","","","","","","","","","","","","",""
"2357","","image-button-response","1","47190","0.0-1.0","A2M2WHA77ACWTX","","1","","","","","","","","","","","","","","","","","","","","","","","","",""
"2717","","image-button-response","2","49917","0.0-2.0-0.0","A2M2WHA77ACWTX","","1","phone","","","","","","","","","","","","","","","","","","","","","","","",""
"17796","","survey-text","3","67715","0.0-3.0-0.0","A2M2WHA77ACWTX","","","","{""Q0"":""A2M2WHA77ACWTX""}","","","","","","","","","","","","","","","","","","","","","","",""
"12895","","image-button-response_instructions","4","80614","0.0-4.0","A2M2WHA77ACWTX","","0","instructions","","","","","","","","","","","","","","","","","","","","","","","",""
"19522","","image-button-response_instructions","5","100139","0.0-5.0","A2M2WHA77ACWTX","img_art/ins/popularity/ins1.png","0","instructions","","","","","","","","","","","","","","","","","","","","","","","",""
"12548","","image-button-response_instructions","6","112690","0.0-6.0","A2M2WHA77ACWTX","img_art/ins/popularity/ins2.png","0","instructions","","","","","","","","","","","","","","","","","","","","","","","",""
"7864","","image-button-response_instructions","7","120557","0.0-7.0","A2M2WHA77ACWTX","img_art/ins/popularity/ins2Extreme.png","0","instructions","","","","","","","","","","","","","","","","","","","","","","","",""
"18275","","image-button-response_instructions","8","138835","0.0-8.0","A2M2WHA77ACWTX","img_art/ins/popularity/ins3KEEPpop.PNG","0","instructions","","","","","","","","","","","","","","","","","","","","","","","",""
"10972","","image-button-response_instructions","9","149808","0.0-9.0","A2M2WHA77ACWTX","img_art/ins/popularity/ins3ANamepop.PNG","0","instructions","","","","","","","","","","","","","","","","","","","","","","","",""
"7463","","image-button-response_instructions","10","157272","0.0-10.0","A2M2WHA77ACWTX","img_art/ins/popularity/ins3ARatingpop.png","0","instructions","","","","","","","","","","","","","","","","","","","","","","","",""
"6998","","image-button-response_instructions","11","164274","0.0-11.0","A2M2WHA77ACWTX","img_art/ins/popularity/ins3ATextpop.png","0","instructions","","","","","","","","","","","","","","","","","","","","","","","",""
"11961","","image-button-response_instructions","12","176238","0.0-12.0","A2M2WHA77ACWTX","img_art/ins/popularity/ins3ALikespop.png","0","instructions","","","","","","","","","","","","","","","","","","","","","","","",""
"47681","","image-button-response_instructions","13","223920","0.0-13.0","A2M2WHA77ACWTX","img_art/ins/popularity/ins3KEEPpop.PNG","0","instructions","","","","","","","","","","","","","","","","","","","","","","","",""
"28905","","image-button-response_instructions","14","252827","0.0-14.0","A2M2WHA77ACWTX","img_art/ins/popularity/ins3_5RED.png","0","instructions","","","","","","","","","","","","","","","","","","","","","","","",""
"9145","","image-button-response_instructions","15","261975","0.0-15.0","A2M2WHA77ACWTX","img_art/ins/popularity/ins3KEEPpop.PNG","0","instructions","","","","","","","","","","","","","","","","","","","","","","","",""
"20816","","image-button-response_instructions","16","282792","0.0-16.0","A2M2WHA77ACWTX","img_art/ins/popularity/ins4KEEPpop.PNG","0","instructions","","","","","","","","","","","","","","","","","","","","","","","",""
"7247","","image-button-response_instructions","17","290042","0.0-17.0","A2M2WHA77ACWTX","img_art/ins/popularity/ins5KEEPpop.PNG","0","instructions","","","","","","","","","","","","","","","","","","","","","","","",""
"5467","","image-button-response_instructions","18","295511","0.0-18.0","A2M2WHA77ACWTX","","0","instructions","","","","","","","","","","","","","","","","","","","","","","","",""
"12519","","survey-text","19","308055","0.0-19.0-0.0","A2M2WHA77ACWTX","","","","{""Q0"":""but""}","","","","","","","","","","","","","","","","","","","","","","",""
"35121","","survey-text","20","343178","0.0-20.0-0.0","A2M2WHA77ACWTX","","","","{""Q0"":""A lot of falling movement.""}","","","","","","","","","","","","","","","","","","","","","","",""
"9340.100000023842","","image-slider-response","21","352524","0.0-21.0","A2M2WHA77ACWTX","","","","","6","","","","","","","","","","","","","","","","","","","","","",""
"null","","image-button-response","22","357543","0.0-22.0","A2M2WHA77ACWTX","img_art/ins/1.jpg","null","","","","","","","","","","","","","","","","","","","","","","","","",""
"1565","","image-button-response","23","359110","0.0-23.0","A2M2WHA77ACWTX","img_art/ins/1.jpg","0","","","","","","","","","","","","","","","","","","","","","","","","",""
"5079","","image-button-response","24","364194","0.0-24.0-0.0","A2M2WHA77ACWTX","img_art/ins/1.jpg","5","","","","","","","","","","","","","","","","","","","","","","","","",""
"7893","","image-button-response","25","372093","0.0-25.0-0.0","A2M2WHA77ACWTX","img_art/ins/1.jpg","0","","","","","","","","","","","","","","","","","","","","","","","","",""
"1185","","image-button-response","26","384864","0.0-25.1-0.1","A2M2WHA77ACWTX","img_art/ins/1.jpg","4","","","","","","","","","","","","","","","","","","","","","","","","",""
"null","","html-keyboard-response","27","386378","0.0-26.0","A2M2WHA77ACWTX","<p style=""font-size: 48px;"">+</p>","","","","","null","allTrialResponses","1500","1","-2","img_art/ins/1.jpg","6","A lot of falling movement.","Allison,Ashley,Beth,Dora,Erika,Jen","looks like a lot of things going on in the mist,20,20,20","I just don't get why these type of art would be popular,-32,40,20","This color reminds me of poo,-46,60,20","looks like what my niece in 3rd grade did this afternoon,-50,80,20","I like the sophisticated brushwork,40,100,20","It reminds me of a candy land dream I had,36,120,20","Allison","looks like a lot of things going on in the mist,20,20,20","Jen","It reminds me of a candy land dream I had,36,120,20","Erika","I like the sophisticated brushwork,40,100,20","2"
"33541","","survey-text","28","419925","0.0-27.0-0.0","A2M2WHA77ACWTX","","","","{""Q0"":""Feels like a forest fire""}","","","","","","","","","","","","","","","","","","","","","","",""
"6931.700000047684","","image-slider-response","29","426858","0.0-28.0","A2M2WHA77ACWTX","","","","","6","","","","","","","","","","","","","","","","","","","","","",""
"null","","image-button-response","30","431862","0.0-29.0","A2M2WHA77ACWTX","img_art/ins/2.jpg","null","","","","","","","","","","","","","","","","","","","","","","","","",""
"6844","","image-button-response","31","438709","0.0-30.0","A2M2WHA77ACWTX","img_art/ins/2.jpg","5","","","","","","","","","","","","","","","","","","","","","","","","",""
"18852","","image-button-response","32","457564","0.0-31.0-0.0","A2M2WHA77ACWTX","img_art/ins/2.jpg","1","","","","","","","","","","","","","","","","","","","","","","","","",""
"3827","","image-button-response","33","461397","0.0-32.0-0.0","A2M2WHA77ACWTX","img_art/ins/2.jpg","0","","","","","","","","","","","","","","","","","","","","","","","","",""
"null","","html-keyboard-response","34","462405","0.0-33.0","A2M2WHA77ACWTX","<p style=""font-size: 48px;"">+</p>","","","","","null","allTrialResponses","1000","1","-1","img_art/ins/2.jpg","6","Feels like a forest fire","Allison,Kara,Katie,Jenna,Erika,Jen","I don't have strong feelings about this,10,20,20","I like the blocks of color arrangements,30,160,20","too much color!,-28,180,20","One of my pet peevs,-48,140,20","I would never be able to compose a sophisticated pallete like this,48,100,20","It reminds me of a fireplace,36,120,20","Jen","It reminds me of a fireplace,36,120,20","Kara","I like the blocks of color arrangements,30,160,20","Allison","I don't have strong feelings about this,10,20,20","2"
"41087","","survey-text","35","503499","0.0-34.0-0.0","A2M2WHA77ACWTX","","","","{""Q0"":""A lot of slashing movement.  Scratches laid on top are interesting.""}","","","","","","","","","","","","","","","","","","","","","","",""
"7673.799999952316","","image-slider-response","36","511181","0.0-35.0","A2M2WHA77ACWTX","","","","","9","","","","","","","","","","","","","","","","","","","","","",""
"null","","image-button-response","37","516193","0.0-36.0","A2M2WHA77ACWTX","img_art/ins/3.jpg","null","","","","","","","","","","","","","","","","","","","","","","","","",""
"11265","","image-button-response","38","527461","0.0-37.0","A2M2WHA77ACWTX","img_art/ins/3.jpg","5","","","","","","","","","","","","","","","","","","","","","","","","",""
"4619","","image-button-response","39","532083","0.0-38.0-0.0","A2M2WHA77ACWTX","img_art/ins/3.jpg","0","","","","","","","","","","","","","","","","","","","","","","","","",""
"4672","","image-button-response","40","536760","0.0-39.0-0.0","A2M2WHA77ACWTX","img_art/ins/3.jpg","4","","","","","","","","","","","","","","","","","","","","","","","","",""
"null","","html-keyboard-response","41","537764","0.0-40.0","A2M2WHA77ACWTX","<p style=""font-size: 48px;"">+</p>","","","","","null","allTrialResponses","1000","1","0","img_art/ins/3.jpg","9","A lot of slashing movement.  Scratches laid on top are interesting.","Allison,Kara,Rose,Leslie,Mary,Jen","enjoy the different shades of blue,22,20,20","calming blue is very nice,36,160,20","My daily routine, it's depressing,-20,240,20","It's an alright work,15,200,20","I like the overlapping of brushes,41,220,20","I can feel a rainy day from this painting,18,120,20","Jen","I can feel a rainy day from this painting,18,120,20","Allison","enjoy the different shades of blue,22,20,20","Mary","I like the overlapping of brushes,41,220,20","2"
"10858","","image-button-response_instructions","42","548626","0.0-41.0","A2M2WHA77ACWTX","","0","instructions","","","","","","","","","","","","","","","","","","","","","","","",""
"16392","","survey-likert","43","565020","0.0-42.0-0.0","A2M2WHA77ACWTX","","","","{""Q0"":"""",""Q1"":0,""Q2"":1}","","","","","","","","","","","","","","","","","","","","","","",""
"6323","","survey-text","44","571347","0.0-43.0-0.0","A2M2WHA77ACWTX","","","","{""Q0"":""rock""}","","","","","","","","","","","","","","","","","","","","","","",""
"27546","","survey-text","45","598901","0.0-44.0-0.0","A2M2WHA77ACWTX","","","","{""Q0"":""Looks like an explosion""}","","","","","","","","","","","","","","","","","","","","","","",""
"6023.300000071526","","image-slider-response","46","604931","0.0-45.0","A2M2WHA77ACWTX","","","","","5","","","","","","","","","","","","","","","","","","","","","",""
"null","","image-button-response","47","609973","0.0-46.0","A2M2WHA77ACWTX","img_art/4.jpg","null","","","","","","","","","","","","","","","","","","","","","","","","",""
"14010","","image-button-response","48","623985","0.0-47.0","A2M2WHA77ACWTX","img_art/4.jpg","4","","","","","","","","","","","","","","","","","","","","","","","","",""
"16542","","image-button-response","49","640528","0.0-48.0-0.0","A2M2WHA77ACWTX","img_art/4.jpg","2","","","","","","","","","","","","","","","","","","","","","","","","",""
"4834","","image-button-response","50","645365","0.0-49.0-0.0","A2M2WHA77ACWTX","img_art/4.jpg","3","","","","","","","","","","","","","","","","","","","","","","","","",""
"null","","html-keyboard-response","51","646878","0.0-50.0","A2M2WHA77ACWTX","<p style=""font-size: 48px;"">+</p>","","","","","null","allTrialResponses","1500","1","1","img_art/4.jpg","5","Looks like an explosion","Megan,Leah,Anna,Jennifer,Sarah,Crystal","Better version of a 7 year old who got lucky,-23,200,20","To me just looking at paint scrawls,-41,360,20","It doesn't make me feel anything it just looks like a kid did it.,-30,300,20","Ugly and bland compared to the other pieces.,-33,380,20","too many red/yellow shades, its impact without a reason,-27,180,20","Looks like finger nails from the Guinness world record book.,-30,300,20","Sarah","too many red/yellow shades, its impact without a reason,-27,180,20","Anna","It doesn't make me feel anything it just looks like a kid did it.,-30,300,20","Jennifer","Ugly and bland compared to the other pieces.,-33,380,20","2"
"68120","","survey-text","52","715004","0.0-51.0-0.0","A2M2WHA77ACWTX","","","","{""Q0"":""A calm walk looking at leaves.  I like the diagonal lines contrasting the movement of the dots.""}","","","","","","","","","","","","","","","","","","","","","","",""
"2613","","image-slider-response","53","717620","0.0-52.0","A2M2WHA77ACWTX","","","","","16","","","","","","","","","","","","","","","","","","","","","",""
"null","","image-button-response","54","722632","0.0-53.0","A2M2WHA77ACWTX","img_art/15.jpg","null","","","","","","","","","","","","","","","","","","","","","","","","",""
"7331","","image-button-response","55","729967","0.0-54.0","A2M2WHA77ACWTX","img_art/15.jpg","2","","","","","","","","","","","","","","","","","","","","","","","","",""
"16814","","image-button-response","56","746787","0.0-55.0-0.0","A2M2WHA77ACWTX","img_art/15.jpg","1","","","","","","","","","","","","","","","","","","","","","","","","",""
"7128","","image-button-response","57","753923","0.0-56.0-0.0","A2M2WHA77ACWTX","img_art/15.jpg","4","","","","","","","","","","","","","","","","","","","","","","","","",""
"null","","html-keyboard-response","58","755434","0.0-57.0","A2M2WHA77ACWTX","<p style=""font-size: 48px;"">+</p>","","","","","null","allTrialResponses","1500","1","2","img_art/15.jpg","16","A calm walk looking at leaves.  I like the diagonal lines contrasting the movement of the dots.","Cassidy,Andrea,Anna,Jennifer,Sarah,Shannon","I like the random blue dabs to break up the black, but it looks unfinished.,4,140,20","Chameleons on reeds. Nice but doesn't really make me feel anything.,11,240,20","I like how it's simple but beautiful.,40,300,20","This piece isn't particularly attractive, but it's not ugly either.,1,380,20","this is really pretty! i like the pops of blue in all the black,26,180,20","Not enough colors to make it interesting and doesn't look like anything is happening.,-20,220,20","Anna","I like how it's simple but beautiful.,40,300,20","Andrea","Chameleons on reeds. Nice but doesn't really make me feel anything.,11,240,20","Sarah","this is really pretty! i like the pops of blue in all the black,26,180,20","2"
"36342","","survey-text","59","791783","0.0-58.0-0.0","A2M2WHA77ACWTX","","","","{""Q0"":""An urban scene coming into and out of focus.""}","","","","","","","","","","","","","","","","","","","","","","",""
"4010.899999976158","","image-slider-response","60","795798","0.0-59.0","A2M2WHA77ACWTX","","","","","6","","","","","","","","","","","","","","","","","","","","","",""
"null","","image-button-response","61","800809","0.0-60.0","A2M2WHA77ACWTX","img_art/22.jpg","null","","","","","","","","","","","","","","","","","","","","","","","","",""
"7928","","image-button-response","62","808739","0.0-61.0","A2M2WHA77ACWTX","img_art/22.jpg","0","","","","","","","","","","","","","","","","","","","","","","","","",""
"4227","","image-button-response","63","812972","0.0-62.0-0.0","A2M2WHA77ACWTX","img_art/22.jpg","0","","","","","","","","","","","","","","","","","","","","","","","","",""
"1948","","image-button-response","64","817851","0.0-62.1-0.1","A2M2WHA77ACWTX","img_art/22.jpg","5","","","","","","","","","","","","","","","","","","","","","","","","",""
"7401","","image-button-response","65","825254","0.0-63.0-0.0","A2M2WHA77ACWTX","img_art/22.jpg","1","","","","","","","","","","","","","","","","","","","","","","","","",""
"null","","html-keyboard-response","66","825772","0.0-64.0","A2M2WHA77ACWTX","<p style=""font-size: 48px;"">+</p>","","","","","null","allTrialResponses","500","1","3","img_art/22.jpg","6","An urban scene coming into and out of focus.","Elizabeth,Andrea,Anna,Catherine,Sarah,Sierra","Great color palette,29,20,20","I don't feel much of anything.,0,240,20","Boring, typical abstract art,-30,300,20","Scary monsters lurking causing confusion.,-40,160,20","boring, too many red and yellow tones for my taste,-15,180,20","colorful. but not much happening,1,260,20","Elizabeth","Great color palette,29,20,20","Sierra","colorful. but not much happening,1,260,20","Andrea","I don't feel much of anything.,0,240,20","4"
"47506","","survey-text","67","873284","0.0-65.0-0.0","A2M2WHA77ACWTX","","","","{""Q0"":""A pleasing child like urban watercolor""}","","","","","","","","","","","","","","","","","","","","","","",""
"3666.2000000476837","","image-slider-response","68","876954","0.0-66.0","A2M2WHA77ACWTX","","","","","14","","","","","","","","","","","","","","","","","","","","","",""
"2854","","image-button-response","69","881967","0.0-67.0","A2M2WHA77ACWTX","img_art/26.jpg","0","","","","","","","","","","","","","","","","","","","","","","","","",""
"469","","image-button-response","70","882440","0.0-68.0","A2M2WHA77ACWTX","img_art/26.jpg","1","","","","","","","","","","","","","","","","","","","","","","","","",""
"3414","","image-button-response","71","885857","0.0-69.0-0.0","A2M2WHA77ACWTX","img_art/26.jpg","5","","","","","","","","","","","","","","","","","","","","","","","","",""
"12727","","image-button-response","72","898588","0.0-70.0-0.0","A2M2WHA77ACWTX","img_art/26.jpg","0","","","","","","","","","","","","","","","","","","","","","","","","",""
"null","","html-keyboard-response","73","899095","0.0-71.0","A2M2WHA77ACWTX","<p style=""font-size: 48px;"">+</p>","","","","","null","allTrialResponses","500","1","4","img_art/26.jpg","14","A pleasing child like urban watercolor","Elizabeth,Andrea,Michelle,Amber,Breanna,Sierra","Like the soft blend of colors,26,20,20","I get the feeling of a small old world street.,24,240,20","I can make out a street view and I am a fan of watercolors but still too boring,15,280,20","The colors are muted.,1,200,20","Splash of paint in an ordered way,7,380,20","soothing and subtle,1,260,20","Andrea","I get the feeling of a small old world street.,24,240,20","Sierra","soothing and subtle,1,260,20","Elizabeth","Like the soft blend of colors,26,20,20","4"
"58525","","survey-text","74","957626","0.0-72.0-0.0","A2M2WHA77ACWTX","","","","{""Q0"":""Has a primitive feel to the composition and colors""}","","","","","","","","","","","","","","","","","","","","","","",""
"6477.299999952316","","image-slider-response","75","964108","0.0-73.0","A2M2WHA77ACWTX","","","","","-5","","","","","","","","","","","","","","","","","","","","","",""
"null","","image-button-response","76","969120","0.0-74.0","A2M2WHA77ACWTX","img_art/2.jpg","null","","","","","","","","","","","","","","","","","","","","","","","","",""
"8587","","image-button-response","77","977711","0.0-75.0","A2M2WHA77ACWTX","img_art/2.jpg","3","","","","","","","","","","","","","","","","","","","","","","","","",""
"7114","","image-button-response","78","984828","0.0-76.0-0.0","A2M2WHA77ACWTX","img_art/2.jpg","5","","","","","","","","","","","","","","","","","","","","","","","","",""
"593","","image-button-response","79","985425","0.0-77.0-0.0","A2M2WHA77ACWTX","img_art/2.jpg","4","","","","","","","","","","","","","","","","","","","","","","","","",""
"null","","html-keyboard-response","80","986929","0.0-78.0","A2M2WHA77ACWTX","<p style=""font-size: 48px;"">+</p>","","","","","null","allTrialResponses","1500","1","5","img_art/2.jpg","-5","Has a primitive feel to the composition and colors","Elizabeth,Andrea,Mary,Bailey,Chelsea,Sierra","Good color pallette,12,20,20","It feels like a party and Moulin Rouge.,20,240,20","This looks like a professional abstract drawing. I like the shapes.,7,180,20","Too gloopy and unfocused,-38,360,20","Not sure what is happening. I'm not a big fan of the colors but they don't bother me either.,1,180,20","looks like a happy child,15,260,20","Bailey","Too gloopy and unfocused,-38,360,20","Sierra","looks like a happy child,15,260,20","Chelsea","Not sure what is happening. I'm not a big fan of the colors but they don't bother me either.,1,180,20","4"
"6322","","survey-text","81","993260","0.0-79.0-0.0","A2M2WHA77ACWTX","","","","{""Q0"":""sky""}","","","","","","","","","","","","","","","","","","","","","","",""
"38545","","survey-text","82","1031810","0.0-80.0-0.0","A2M2WHA77ACWTX","","","","{""Q0"":""Love the color and energy""}","","","","","","","","","","","","","","","","","","","","","","",""
"5138.199999928474","","image-slider-response","83","1036953","0.0-81.0","A2M2WHA77ACWTX","","","","","27","","","","","","","","","","","","","","","","","","","","","",""
"null","","image-button-response","84","1041963","0.0-82.0","A2M2WHA77ACWTX","img_art/3.jpg","null","","","","","","","","","","","","","","","","","","","","","","","","",""
"15178","","image-button-response","85","1057145","0.0-83.0","A2M2WHA77ACWTX","img_art/3.jpg","2","","","","","","","","","","","","","","","","","","","","","","","","",""
"18828","","image-button-response","86","1075977","0.0-84.0-0.0","A2M2WHA77ACWTX","img_art/3.jpg","0","","","","","","","","","","","","","","","","","","","","","","","","",""
"6894","","image-button-response","87","1082878","0.0-85.0-0.0","A2M2WHA77ACWTX","img_art/3.jpg","5","","","","","","","","","","","","","","","","","","","","","","","","",""
"null","","html-keyboard-response","88","1084386","0.0-86.0","A2M2WHA77ACWTX","<p style=""font-size: 48px;"">+</p>","","","","","null","allTrialResponses","1500","1","6","img_art/3.jpg","27","Love the color and energy","Jessica,Danielle,Morgan,Bailey,Chelsea,Sierra","Don't get the scribbles.,-13,400,20","Looks like it was painted with blood, which I'm aware is an art style, but it just looks messy.,-20,340,20","Somewhere between a child's art and a poorly drawn battle map.,8,380,20","Just scribbles. People buy that?,-47,360,20","It looks like scribbles.,-40,180,20","scattered and angry,-26,260,20","Morgan","Somewhere between a child's art and a poorly drawn battle map.,8,380,20","Jessica","Don't get the scribbles.,-13,400,20","Sierra","scattered and angry,-26,260,20","4"
"23733","","survey-text","89","1108126","0.0-87.0-0.0","A2M2WHA77ACWTX","","","","{""Q0"":""Looks like a chorus line against the cosmos""}","","","","","","","","","","","","","","","","","","","","","","",""
"7058.299999952316","","image-slider-response","90","1115190","0.0-88.0","A2M2WHA77ACWTX","","","","","-4","","","","","","","","","","","","","","","","","","","","","",""
"null","","image-button-response","91","1120206","0.0-89.0","A2M2WHA77ACWTX","img_art/23.jpg","null","","","","","","","","","","","","","","","","","","","","","","","","",""
"6933","","image-button-response","92","1127142","0.0-90.0","A2M2WHA77ACWTX","img_art/23.jpg","4","","","","","","","","","","","","","","","","","","","","","","","","",""
"7548","","image-button-response","93","1134694","0.0-91.0-0.0","A2M2WHA77ACWTX","img_art/23.jpg","5","","","","","","","","","","","","","","","","","","","","","","","","",""
"5577","","image-button-response","94","1140278","0.0-92.0-0.0","A2M2WHA77ACWTX","img_art/23.jpg","1","","","","","","","","","","","","","","","","","","","","","","","","",""
"null","","html-keyboard-response","95","1141286","0.0-93.0","A2M2WHA77ACWTX","<p style=""font-size: 48px;"">+</p>","","","","","null","allTrialResponses","1000","1","7","img_art/23.jpg","-4","Looks like a chorus line against the cosmos","Jessica,Kathryn,Morgan,Kaitlin,Leslie,Sierra","This is very cool!,24,400,20","I feel positive community and comfort. Singing along at a concert, united with a bunch of strangers through shared joy.,20,140,20","Unicorns flying through a colorful space.,25,380,20","i cannot breath in this,-10,60,20","It reminds me of being in a crowded place.,-10,380,20","it makes me aggitated,-21,260,20","Leslie","It reminds me of being in a crowded place.,-10,380,20","Sierra","it makes me aggitated,-21,260,20","Kathryn","I feel positive community and comfort. Singing along at a concert, united with a bunch of strangers through shared joy.,20,140,20","4"
"21452","","survey-text","96","1162744","0.0-94.0-0.0","A2M2WHA77ACWTX","","","","{""Q0"":""An ordered but fractured world""}","","","","","","","","","","","","","","","","","","","","","","",""
"3810.7000000476837","","image-slider-response","97","1166563","0.0-95.0","A2M2WHA77ACWTX","","","","","26","","","","","","","","","","","","","","","","","","","","","",""
"null","","image-button-response","98","1171577","0.0-96.0","A2M2WHA77ACWTX","img_art/12.jpg","null","","","","","","","","","","","","","","","","","","","","","","","","",""
"3748","","image-button-response","99","1175329","0.0-97.0","A2M2WHA77ACWTX","img_art/12.jpg","1","","","","","","","","","","","","","","","","","","","","","","","","",""
"8125","","image-button-response","100","1183458","0.0-98.0-0.0","A2M2WHA77ACWTX","img_art/12.jpg","2","","","","","","","","","","","","","","","","","","","","","","","","",""
"5147","","image-button-response","101","1188606","0.0-99.0-0.0","A2M2WHA77ACWTX","img_art/12.jpg","0","","","","","","","","","","","","","","","","","","","","","","","","",""
"null","","html-keyboard-response","102","1190117","0.0-100.0","A2M2WHA77ACWTX","<p style=""font-size: 48px;"">+</p>","","","","","null","allTrialResponses","1500","1","8","img_art/12.jpg","26","An ordered but fractured world","Nicole,Kathryn,Jamie,Rachel,Leslie,Sierra","I like all the squares and the colors but it feels too cluttered to me,20,20,20","This feels cosmopolitan. Like looking at a high rise apartment at night and seeing into everyone's windows.,20,140,20","Black and white contrast with color looks nice,15,320,20","I like how it's split into tiny squares, but otherwise, not very intriguing.,-18,80,20","This elicits no reaction in me.,0,380,20","i dont see the point.,-19,260,20","Kathryn","This feels cosmopolitan. Like looking at a high rise apartment at night and seeing into everyone's windows.,20,140,20","Jamie","Black and white contrast with color looks nice,15,320,20","Nicole","I like all the squares and the colors but it feels too cluttered to me,20,20,20","4"
"19990","","survey-text","103","1210114","0.0-101.0-0.0","A2M2WHA77ACWTX","","","","{""Q0"":""An angry mess""}","","","","","","","","","","","","","","","","","","","","","","",""
"2158.399999976158","","image-slider-response","104","1212278","0.0-102.0","A2M2WHA77ACWTX","","","","","-8","","","","","","","","","","","","","","","","","","","","","",""
"null","","image-button-response","105","1217293","0.0-103.0","A2M2WHA77ACWTX","img_art/9.jpg","null","","","","","","","","","","","","","","","","","","","","","","","","",""
"4233","","image-button-response","106","1221530","0.0-104.0","A2M2WHA77ACWTX","img_art/9.jpg","2","","","","","","","","","","","","","","","","","","","","","","","","",""
"4144","","image-button-response","107","1225679","0.0-105.0-0.0","A2M2WHA77ACWTX","img_art/9.jpg","4","","","","","","","","","","","","","","","","","","","","","","","","",""
"2207","","image-button-response","108","1227892","0.0-106.0-0.0","A2M2WHA77ACWTX","img_art/9.jpg","5","","","","","","","","","","","","","","","","","","","","","","","","",""
"null","","html-keyboard-response","109","1228895","0.0-107.0","A2M2WHA77ACWTX","<p style=""font-size: 48px;"">+</p>","","","","","null","allTrialResponses","1000","1","9","img_art/9.jpg","-8","An angry mess","Nicole,Kathryn,Jamie,Madeline,Kelly,Natalie","It's peaceful and relaxing,24,20,20","This feels dreamy. Like I'm seeing inside someone's head while they're sleeping.,20,140,20","Mash up of colors and designs don't really go together,-5,320,20","I really like the colors and details.,8,40,20","It looks like a child drew it.,-28,220,20","Gives me anxiety,-23,400,20","Jamie","Mash up of colors and designs don't really go together,-5,320,20","Kelly","It looks like a child drew it.,-28,220,20","Natalie","Gives me anxiety,-23,400,20","4"
"24428","","survey-text","110","1253331","0.0-108.0-0.0","A2M2WHA77ACWTX","","","","{""Q0"":""Fluid movement ""}","","","","","","","","","","","","","","","","","","","","","","",""
"3044","","image-slider-response","111","1256382","0.0-109.0","A2M2WHA77ACWTX","","","","","4","","","","","","","","","","","","","","","","","","","","","",""
"2643","","image-button-response","112","1261386","0.0-110.0","A2M2WHA77ACWTX","img_art/11.jpg","0","","","","","","","","","","","","","","","","","","","","","","","","",""
"3725","","image-button-response","113","1265115","0.0-111.0","A2M2WHA77ACWTX","img_art/11.jpg","1","","","","","","","","","","","","","","","","","","","","","","","","",""
"3579","","image-button-response","114","1268696","0.0-112.0-0.0","A2M2WHA77ACWTX","img_art/11.jpg","2","","","","","","","","","","","","","","","","","","","","","","","","",""
"4699","","image-button-response","115","1273398","0.0-113.0-0.0","A2M2WHA77ACWTX","img_art/11.jpg","3","","","","","","","","","","","","","","","","","","","","","","","","",""
"null","","html-keyboard-response","116","1274413","0.0-114.0","A2M2WHA77ACWTX","<p style=""font-size: 48px;"">+</p>","","","","","null","allTrialResponses","1000","1","10","img_art/11.jpg","4","Fluid movement ","Victoria,Maria,Jamie,Cassandra,Kelly,Natalie","reminds me of a rainy day in the city,32,400,20","I enjoy the kandinsky-like general vibe, but the grey brings me down a bit,27,120,20","Looks like a cityscape,25,320,20","I liked it it looked like an roller coasters at an amusment park.,16,120,20","Its a little psychedelic.,10,220,20","pic looks alright,8,400,20","Maria","I enjoy the kandinsky-like general vibe, but the grey brings me down a bit,27,120,20","Jamie","Looks like a cityscape,25,320,20","Cassandra","I liked it it looked like an roller coasters at an amusment park.,16,120,20","4"
"4341","","survey-text","117","1278764","0.0-115.0-0.0","A2M2WHA77ACWTX","","","","{""Q0"":""our""}","","","","","","","","","","","","","","","","","","","","","","",""
"30880","","survey-text","118","1309652","0.0-116.0-0.0","A2M2WHA77ACWTX","","","","{""Q0"":""Like the richness of the marks.  A lot of variety in this piece.""}","","","","","","","","","","","","","","","","","","","","","","",""
"2540.5","","image-slider-response","119","1312199","0.0-117.0","A2M2WHA77ACWTX","","","","","26","","","","","","","","","","","","","","","","","","","","","",""
"null","","image-button-response","120","1317211","0.0-118.0","A2M2WHA77ACWTX","img_art/18.jpg","null","","","","","","","","","","","","","","","","","","","","","","","","",""
"654","","image-button-response","121","1317867","0.0-119.0","A2M2WHA77ACWTX","img_art/18.jpg","1","","","","","","","","","","","","","","","","","","","","","","","","",""
"14959","","image-button-response","122","1332829","0.0-120.0-0.0","A2M2WHA77ACWTX","img_art/18.jpg","2","","","","","","","","","","","","","","","","","","","","","","","","",""
"15498","","image-button-response","123","1348330","0.0-121.0-0.0","A2M2WHA77ACWTX","img_art/18.jpg","3","","","","","","","","","","","","","","","","","","","","","","","","",""
"null","","html-keyboard-response","124","1349336","0.0-122.0","A2M2WHA77ACWTX","<p style=""font-size: 48px;"">+</p>","","","","","null","allTrialResponses","1000","1","11","img_art/18.jpg","26","Like the richness of the marks.  A lot of variety in this piece.","Paige,Maria,Jamie,Cassandra,Cheyenne,Mikayla","Unhappy. Makes me thing of evil,-10,60,20","enjoy the juxtaposition of abstract with tangible elements & the use of color,10,120,20","Mash up of colors and don't see a grander picture,-10,320,20","I don't know...kind of a dissatified feeling inside.,-6,120,20","Too abstract to me,-30,200,20","Kinda boring. Not my favorite,-34,300,20","Maria","enjoy the juxtaposition of abstract with tangible elements & the use of color,10,120,20","Jamie","Mash up of colors and don't see a grander picture,-10,320,20","Cassandra","I don't know...kind of a dissatified feeling inside.,-6,120,20","4"
"36973","","survey-text","125","1386317","0.0-123.0-0.0","A2M2WHA77ACWTX","","","","{""Q0"":""A little too static in composition and color""}","","","","","","","","","","","","","","","","","","","","","","",""
"4158.600000023842","","image-slider-response","126","1390479","0.0-124.0","A2M2WHA77ACWTX","","","","","3","","","","","","","","","","","","","","","","","","","","","",""
"3551","","image-button-response","127","1395503","0.0-125.0","A2M2WHA77ACWTX","img_art/14.jpg","0","","","","","","","","","","","","","","","","","","","","","","","","",""
"2258","","image-button-response","128","1397763","0.0-126.0","A2M2WHA77ACWTX","img_art/14.jpg","1","","","","","","","","","","","","","","","","","","","","","","","","",""
"10368","","image-button-response","129","1408133","0.0-127.0-0.0","A2M2WHA77ACWTX","img_art/14.jpg","3","","","","","","","","","","","","","","","","","","","","","","","","",""
"6665","","image-button-response","130","1414801","0.0-128.0-0.0","A2M2WHA77ACWTX","img_art/14.jpg","0","","","","","","","","","","","","","","","","","","","","","","","","",""
"null","","html-keyboard-response","131","1415320","0.0-129.0","A2M2WHA77ACWTX","<p style=""font-size: 48px;"">+</p>","","","","","null","allTrialResponses","500","1","12","img_art/14.jpg","3","A little too static in composition and color","Claire,Maria,Jamie,Cassandra,Taylor,Madison","mythical and nature like,37,260,20","I enjoy what comes across as a playful take on nature themes,26,120,20","Not as cool as other tree looking paintings,-5,320,20","I kind of like it...I like the white back ground,11,120,20","Makes me think of my plants growing,11,340,20","No strong feelings either direction.,-4,60,20","Maria","I enjoy what comes across as a playful take on nature themes,26,120,20","Cassandra","I kind of like it...I like the white back ground,11,120,20","Claire","mythical and nature like,37,260,20","4"
"42958","","survey-text","132","1458285","0.0-130.0-0.0","A2M2WHA77ACWTX","","","","{""Q0"":""Need a story to go with this image.  ""}","","","","","","","","","","","","","","","","","","","","","","",""
"4190","","image-slider-response","133","1462481","0.0-131.0","A2M2WHA77ACWTX","","","","","-2","","","","","","","","","","","","","","","","","","","","","",""
"null","","image-button-response","134","1467491","0.0-132.0","A2M2WHA77ACWTX","img_art/25.jpg","null","","","","","","","","","","","","","","","","","","","","","","","","",""
"4325","","image-button-response","135","1471816","0.0-133.0","A2M2WHA77ACWTX","img_art/25.jpg","2","","","","","","","","","","","","","","","","","","","","","","","","",""
"4216","","image-button-response","136","1476034","0.0-134.0-0.0","A2M2WHA77ACWTX","img_art/25.jpg","4","","","","","","","","","","","","","","","","","","","","","","","","",""
"2160","","image-button-response","137","1478198","0.0-135.0-0.0","A2M2WHA77ACWTX","img_art/25.jpg","5","","","","","","","","","","","","","","","","","","","","","","","","",""
"null","","html-keyboard-response","138","1479702","0.0-136.0","A2M2WHA77ACWTX","<p style=""font-size: 48px;"">+</p>","","","","","null","allTrialResponses","1500","1","13","img_art/25.jpg","-2","Need a story to go with this image.  ","Claire,Maria,Jacqueline,Cassandra,Makayla,Kaylee","the colors are pretty,11,260,20","I find it enjoyable - mainly because it is not art I ever expected to see,16,120,20","Not particularly interesting for me. The green color is strange mixed with this.,-11,300,20","I hate the colors and the scene,-46,120,20","It's very mystical.,5,80,20","is this an ancient woman?,-16,200,20","Jacqueline","Not particularly interesting for me. The green color is strange mixed with this.,-11,300,20","Makayla","It's very mystical.,5,80,20","Kaylee","is this an ancient woman?,-16,200,20","4"
"33912","","survey-text","139","1513623","0.0-137.0-0.0","A2M2WHA77ACWTX","","","","{""Q0"":""A headless crow on the land?""}","","","","","","","","","","","","","","","","","","","","","","",""
"4921.5","","image-slider-response","140","1518550","0.0-138.0","A2M2WHA77ACWTX","","","","","9","","","","","","","","","","","","","","","","","","","","","",""
"3749","","image-button-response","141","1523560","0.0-139.0","A2M2WHA77ACWTX","img_art/6.jpg","1","","","","","","","","","","","","","","","","","","","","","","","","",""
"2037","","image-button-response","142","1525600","0.0-140.0","A2M2WHA77ACWTX","img_art/6.jpg","2","","","","","","","","","","","","","","","","","","","","","","","","",""
"6082","","image-button-response","143","1531686","0.0-141.0-0.0","A2M2WHA77ACWTX","img_art/6.jpg","1","","","","","","","","","","","","","","","","","","","","","","","","",""
"4045","","image-button-response","144","1535734","0.0-142.0-0.0","A2M2WHA77ACWTX","img_art/6.jpg","0","","","","","","","","","","","","","","","","","","","","","","","","",""
"null","","html-keyboard-response","145","1536740","0.0-143.0","A2M2WHA77ACWTX","<p style=""font-size: 48px;"">+</p>","","","","","null","allTrialResponses","1000","1","14","img_art/6.jpg","9","A headless crow on the land?","Chloe,Lauren,Jacqueline,Alexa,Makayla,Kaylee","Cute and evocative,11,220,20","I like the simplicity of the piece.,10,340,20","It's a bit bland, but looks like a bird standing.,11,300,20","Too basic for me,-20,40,20","Don't like the black space,2,80,20","just an another tree on a desert?,9,200,20","Jacqueline","It's a bit bland, but looks like a bird standing.,11,300,20","Lauren","I like the simplicity of the piece.,10,340,20","Chloe","Cute and evocative,11,220,20","4"
"53661","","survey-text","146","1590406","0.0-144.0-0.0","A2M2WHA77ACWTX","","","","{""Q0"":""Colors are too muddy and the off white does nothing for the piece""}","","","","","","","","","","","","","","","","","","","","","","",""
"2853.600000023842","","image-slider-response","147","1593266","0.0-145.0","A2M2WHA77ACWTX","","","","","-4","","","","","","","","","","","","","","","","","","","","","",""
"3420","","image-button-response","148","1598268","0.0-146.0","A2M2WHA77ACWTX","img_art/27.jpg","0","","","","","","","","","","","","","","","","","","","","","","","","",""
"5998","","image-button-response","149","1604272","0.0-147.0","A2M2WHA77ACWTX","img_art/27.jpg","3","","","","","","","","","","","","","","","","","","","","","","","","",""
"3629","","image-button-response","150","1607907","0.0-148.0-0.0","A2M2WHA77ACWTX","img_art/27.jpg","4","","","","","","","","","","","","","","","","","","","","","","","","",""
"4061","","image-button-response","151","1611972","0.0-149.0-0.0","A2M2WHA77ACWTX","img_art/27.jpg","5","","","","","","","","","","","","","","","","","","","","","","","","",""
"null","","html-keyboard-response","152","1612484","0.0-150.0","A2M2WHA77ACWTX","<p style=""font-size: 48px;"">+</p>","","","","","null","allTrialResponses","500","1","15","img_art/27.jpg","-4","Colors are too muddy and the off white does nothing for the piece","Chloe,Lauren,Jacqueline,Cynthia,Savannah,Angelica","Like the movement of the lines and dripping paint.,30,220,20","Not a fan of the green; gives off the impression that someone else drew on it.,-20,340,20","I don't really see anything to this art.,-5,300,20","dirty and misunderstood,-47,320,20","An abstract piece with such lifeless colors.,-26,200,20","This looks like a poor copy of Cy Twombly's style.,-3,280,20","Cynthia","dirty and misunderstood,-47,320,20","Savannah","An abstract piece with such lifeless colors.,-26,200,20","Angelica","This looks like a poor copy of Cy Twombly's style.,-3,280,20","4"
"5441","","survey-text","153","1617939","0.0-151.0-0.0","A2M2WHA77ACWTX","","","","{""Q0"":""course""}","","","","","","","","","","","","","","","","","","","","","","",""
"58560","","survey-text","154","1676507","0.0-152.0-0.0","A2M2WHA77ACWTX","","","","{""Q0"":""Don't care for the mucked up gray, but like the dialogue between foreground figures""}","","","","","","","","","","","","","","","","","","","","","","",""
"3471.899999976158","","image-slider-response","155","1679985","0.0-153.0","A2M2WHA77ACWTX","","","","","7","","","","","","","","","","","","","","","","","","","","","",""
"null","","image-button-response","156","1684992","0.0-154.0","A2M2WHA77ACWTX","img_art/28.jpg","null","","","","","","","","","","","","","","","","","","","","","","","","",""
"108","","image-button-response","157","1685104","0.0-155.0","A2M2WHA77ACWTX","img_art/28.jpg","0","","","","","","","","","","","","","","","","","","","","","","","","",""
"9949","","image-button-response","158","1695058","0.0-156.0-0.0","A2M2WHA77ACWTX","img_art/28.jpg","3","","","","","","","","","","","","","","","","","","","","","","","","",""
"8344","","image-button-response","159","1703408","0.0-157.0-0.0","A2M2WHA77ACWTX","img_art/28.jpg","4","","","","","","","","","","","","","","","","","","","","","","","","",""
"null","","html-keyboard-response","160","1704420","0.0-158.0","A2M2WHA77ACWTX","<p style=""font-size: 48px;"">+</p>","","","","","null","allTrialResponses","1000","1","16","img_art/28.jpg","7","Don't care for the mucked up gray, but like the dialogue between foreground figures","Gabriela,Kimberly,Erica,Cynthia,Savannah,Angelica","The brown and green colors used look dull and unappealing,-30,140,20","The thing on the right is kind of weird/fetus-y,-12,260,20","Nothing calls my attention,15,80,20","nostalgic from a memory,11,320,20","White and dark balance is way off- Seems dull.,-33,200,20","This is very ugly with poor colors.,-23,280,20","Gabriela","The brown and green colors used look dull and unappealing,-30,140,20","Cynthia","nostalgic from a memory,11,320,20","Savannah","White and dark balance is way off- Seems dull.,-33,200,20","4"
"38587","","survey-text","161","1743012","0.0-159.0-0.0","A2M2WHA77ACWTX","","","","{""Q0"":""Lots of contrasting lines: curved and straight.  But no center of interest""}","","","","","","","","","","","","","","","","","","","","","","",""
"3802.1999999284744","","image-slider-response","162","1746821","0.0-160.0","A2M2WHA77ACWTX","","","","","4","","","","","","","","","","","","","","","","","","","","","",""
"null","","image-button-response","163","1751834","0.0-161.0","A2M2WHA77ACWTX","img_art/17.jpg","null","","","","","","","","","","","","","","","","","","","","","","","","",""
"4763","","image-button-response","164","1756600","0.0-162.0","A2M2WHA77ACWTX","img_art/17.jpg","3","","","","","","","","","","","","","","","","","","","","","","","","",""
"15140","","image-button-response","165","1771742","0.0-163.0-0.0","A2M2WHA77ACWTX","img_art/17.jpg","0","","","","","","","","","","","","","","","","","","","","","","","","",""
"2132","","image-button-response","166","1773877","0.0-164.0-0.0","A2M2WHA77ACWTX","img_art/17.jpg","2","","","","","","","","","","","","","","","","","","","","","","","","",""
"null","","html-keyboard-response","167","1775383","0.0-165.0","A2M2WHA77ACWTX","<p style=""font-size: 48px;"">+</p>","","","","","null","allTrialResponses","1500","1","17","img_art/17.jpg","4","Lots of contrasting lines: curved and straight.  But no center of interest","Gabriela,Alyssa,Haley,Cynthia,Savannah,Caroline","This makes me feel inspired and happy. I love everything about this portrait,45,140,20","It gorgeous and i love how the tree is almost 3 dimensional.So many elements to it.,50,160,20","Colors and composition are beautiful. I would hang this in my home.,50,220,20","battle between nature and man,31,320,20","Not even abstract to me, very clear meaning.,44,200,20","Beautiful colors. Made me feel soft and feminine,50,100,20","Cynthia","battle between nature and man,31,320,20","Gabriela","This makes me feel inspired and happy. I love everything about this portrait,45,140,20","Haley","Colors and composition are beautiful. I would hang this in my home.,50,220,20","4"
"27119","","survey-text","168","1802512","0.0-166.0-0.0","A2M2WHA77ACWTX","","","","{""Q0"":""Messy and without focus.  Nice colors though.""}","","","","","","","","","","","","","","","","","","","","","","",""
"3160.600000023842","","image-slider-response","169","1805677","0.0-167.0","A2M2WHA77ACWTX","","","","","-3","","","","","","","","","","","","","","","","","","","","","",""
"3844","","image-button-response","170","1810687","0.0-168.0","A2M2WHA77ACWTX","img_art/1.jpg","0","","","","","","","","","","","","","","","","","","","","","","","","",""
"7686","","image-button-response","171","1818376","0.0-169.0","A2M2WHA77ACWTX","img_art/1.jpg","2","","","","","","","","","","","","","","","","","","","","","","","","",""
"8843","","image-button-response","172","1827223","0.0-170.0-0.0","A2M2WHA77ACWTX","img_art/1.jpg","5","","","","","","","","","","","","","","","","","","","","","","","","",""
"4767","","image-button-response","173","1831994","0.0-171.0-0.0","A2M2WHA77ACWTX","img_art/1.jpg","4","","","","","","","","","","","","","","","","","","","","","","","","",""
"null","","html-keyboard-response","174","1832505","0.0-172.0","A2M2WHA77ACWTX","<p style=""font-size: 48px;"">+</p>","","","","","null","allTrialResponses","500","1","18","img_art/1.jpg","-3","Messy and without focus.  Nice colors though.","Gabriela,Michaela,Haley,Cynthia,Jenna,Sophia","This photo reminds me of a fall afternoon, serene,11,140,20","That one piece in the middle gives it depth and it's really neat,21,260,20","Pleasant, but a tad too monochromatic in some areas for my taste,7,220,20","fishing on the lake surrounded by trees,42,320,20","beautiful colors and brush strokes,47,360,20","This is a great piece that has a lot more going on the longer you look at it. I like it!,30,280,20","Haley","Pleasant, but a tad too monochromatic in some areas for my taste,7,220,20","Sophia","This is a great piece that has a lot more going on the longer you look at it. I like it!,30,280,20","Jenna","beautiful colors and brush strokes,47,360,20","4"
"34795","","survey-text","175","1867306","0.0-173.0-0.0","A2M2WHA77ACWTX","","","","{""Q0"":""Looks like deChirico and Guston have met.""}","","","","","","","","","","","","","","","","","","","","","","",""
"3797.600000023842","","image-slider-response","176","1871106","0.0-174.0","A2M2WHA77ACWTX","","","","","14","","","","","","","","","","","","","","","","","","","","","",""
"null","","image-button-response","177","1876131","0.0-175.0","A2M2WHA77ACWTX","img_art/20.jpg","null","","","","","","","","","","","","","","","","","","","","","","","","",""
"1860","","image-button-response","178","1877994","0.0-176.0","A2M2WHA77ACWTX","img_art/20.jpg","2","","","","","","","","","","","","","","","","","","","","","","","","",""
"5561","","image-button-response","179","1883557","0.0-177.0-0.0","A2M2WHA77ACWTX","img_art/20.jpg","4","","","","","","","","","","","","","","","","","","","","","","","","",""
"8129","","image-button-response","180","1891690","0.0-178.0-0.0","A2M2WHA77ACWTX","img_art/20.jpg","0","","","","","","","","","","","","","","","","","","","","","","","","",""
"null","","html-keyboard-response","181","1892198","0.0-179.0","A2M2WHA77ACWTX","<p style=""font-size: 48px;"">+</p>","","","","","null","allTrialResponses","500","1","19","img_art/20.jpg","14","Looks like deChirico and Guston have met.","Mackenzie,Brooke,Haley,Christina,Jenna,Sophia","Shapes are fun to interpret,21,20,20","Dinosaur skill and some dark shadow above,-30,60,20","I really enjoy the contrast of colors (blue/red/orange),30,220,20","it looks like a piccasso knock off,-23,240,20","could look for hours. love the brush work. color choices look like a desert.,50,360,20","A truck rolled over?  I do like the pictures and the technique though.,25,280,20","Haley","I really enjoy the contrast of colors (blue/red/orange),30,220,20","Jenna","could look for hours. love the brush work. color choices look like a desert.,50,360,20","Mackenzie","Shapes are fun to interpret,21,20,20","4"
"78847","","survey-text","182","1971050","0.0-180.0-0.0","A2M2WHA77ACWTX","","","","{""Q0"":""Needs better relationship between water and land.  I know it's water, but it's too fuzzy.""}","","","","","","","","","","","","","","","","","","","","","","",""
"3955.5","","image-slider-response","183","1975011","0.0-181.0","A2M2WHA77ACWTX","","","","","-6","","","","","","","","","","","","","","","","","","","","","",""
"3899","","image-button-response","184","1980027","0.0-182.0","A2M2WHA77ACWTX","img_art/24.jpg","0","","","","","","","","","","","","","","","","","","","","","","","","",""
"14663","","image-button-response","185","1994692","0.0-183.0","A2M2WHA77ACWTX","img_art/24.jpg","2","","","","","","","","","","","","","","","","","","","","","","","","",""
"4220","","image-button-response","186","1998915","0.0-184.0-0.0","A2M2WHA77ACWTX","img_art/24.jpg","5","","","","","","","","","","","","","","","","","","","","","","","","",""
"3342","","image-button-response","187","2002262","0.0-185.0-0.0","A2M2WHA77ACWTX","img_art/24.jpg","1","","","","","","","","","","","","","","","","","","","","","","","","",""
"null","","html-keyboard-response","188","2003770","0.0-186.0","A2M2WHA77ACWTX","<p style=""font-size: 48px;"">+</p>","","","","","null","allTrialResponses","1500","1","20","img_art/24.jpg","-6","Needs better relationship between water and land.  I know it's water, but it's too fuzzy.","Mackenzie,Hannah,Haley,Brianna,Jenna,Erika","I like the vivid colors and different textures,32,20,20","It's okay but don't love it.,7,240,20","Beautiful colors and texture,20,220,20","The waterfall looks peaceful,11,20,20","colors are a bit cramped together. really unique take on a waterfall though.,32,360,20","Very nice textures and subject,38,100,20","Haley","Beautiful colors and texture,20,220,20","Erika","Very nice textures and subject,38,100,20","Hannah","It's okay but don't love it.,7,240,20","4"
"6584","","survey-text","189","2010365","0.0-187.0-0.0","A2M2WHA77ACWTX","","","","{""Q0"":""we""}","","","","","","","","","","","","","","","","","","","","","","",""
"20477","","survey-text","190","2030843","0.0-188.0-0.0","A2M2WHA77ACWTX","","","","{""Q0"":""An unformed art work""}","","","","","","","","","","","","","","","","","","","","","","",""
"2951.600000023842","","image-slider-response","191","2033799","0.0-189.0","A2M2WHA77ACWTX","","","","","-17","","","","","","","","","","","","","","","","","","","","","",""
"4493","","image-button-response","192","2038805","0.0-190.0","A2M2WHA77ACWTX","img_art/7.jpg","1","","","","","","","","","","","","","","","","","","","","","","","","",""
"5792","","image-button-response","193","2044601","0.0-191.0","A2M2WHA77ACWTX","img_art/7.jpg","4","","","","","","","","","","","","","","","","","","","","","","","","",""
"3306","","image-button-response","194","2047910","0.0-192.0-0.0","A2M2WHA77ACWTX","img_art/7.jpg","5","","","","","","","","","","","","","","","","","","","","","","","","",""
"3385","","image-button-response","195","2051300","0.0-193.0-0.0","A2M2WHA77ACWTX","img_art/7.jpg","1","","","","","","","","","","","","","","","","","","","","","","","","",""
"null","","html-keyboard-response","196","2052803","0.0-194.0","A2M2WHA77ACWTX","<p style=""font-size: 48px;"">+</p>","","","","","null","allTrialResponses","1500","1","21","img_art/7.jpg","-17","An unformed art work","Destiny,Hannah,Haley,Meghan,Tiffany,Erika","mars also crunchy leaves maybe a beehive,32,360,20","Looks almost like a photograph of nature.,11,240,20","Confusion, mild aversion,-36,220,20","I don't like the texture,-49,220,20","I feel relaxed and a little nostalgic, like I'm exploring the wall of a very old building.,18,360,20","Detail oriented, like cracked paint wall,15,100,20","Tiffany","I feel relaxed and a little nostalgic, like I'm exploring the wall of a very old building.,18,360,20","Erika","Detail oriented, like cracked paint wall,15,100,20","Hannah","Looks almost like a photograph of nature.,11,240,20","4"
"21188","","survey-text","197","2073999","0.0-195.0-0.0","A2M2WHA77ACWTX","","","","{""Q0"":""Someone giving up on painting?""}","","","","","","","","","","","","","","","","","","","","","","",""
"2843","","image-slider-response","198","2076848","0.0-196.0","A2M2WHA77ACWTX","","","","","-27","","","","","","","","","","","","","","","","","","","","","",""
"null","","image-button-response","199","2081854","0.0-197.0","A2M2WHA77ACWTX","img_art/29.jpg","null","","","","","","","","","","","","","","","","","","","","","","","","",""
"1007","","image-button-response","200","2082862","0.0-198.0","A2M2WHA77ACWTX","img_art/29.jpg","1","","","","","","","","","","","","","","","","","","","","","","","","",""
"2767","","image-button-response","201","2085633","0.0-199.0-0.0","A2M2WHA77ACWTX","img_art/29.jpg","2","","","","","","","","","","","","","","","","","","","","","","","","",""
"8274","","image-button-response","202","2093913","0.0-200.0-0.0","A2M2WHA77ACWTX","img_art/29.jpg","5","","","","","","","","","","","","","","","","","","","","","","","","",""
"null","","html-keyboard-response","203","2094917","0.0-201.0","A2M2WHA77ACWTX","<p style=""font-size: 48px;"">+</p>","","","","","null","allTrialResponses","1000","1","22","img_art/29.jpg","-27","Someone giving up on painting?","Gabrielle,Hannah,Alexandra,Hailey,Tiffany,Erika","it's OK, no clue to what's going on but good use of light and dark,4,160,20","I don't like the red X through it.,-20,240,20","I don't like this. It is ugly and dark,-29,60,20","a hot fireplace with things to burn. warm,12,200,20","I feel a little disgust. There is something off-putting about the smooth shapes and dark colors.,-43,360,20","Feels like an abandoned dream,13,100,20","Hannah","I don't like the red X through it.,-20,240,20","Alexandra","I don't like this. It is ugly and dark,-29,60,20","Erika","Feels like an abandoned dream,13,100,20","4"
"16943","","survey-text","204","2111865","0.0-202.0-0.0","A2M2WHA77ACWTX","","","","{""Q0"":""Dreamy and atmospheric""}","","","","","","","","","","","","","","","","","","","","","","",""
"3041.2000000476837","","image-slider-response","205","2114912","0.0-203.0","A2M2WHA77ACWTX","","","","","30","","","","","","","","","","","","","","","","","","","","","",""
"null","","image-button-response","206","2119928","0.0-204.0","A2M2WHA77ACWTX","img_art/21.jpg","null","","","","","","","","","","","","","","","","","","","","","","","","",""
"3135","","image-button-response","207","2123066","0.0-205.0","A2M2WHA77ACWTX","img_art/21.jpg","2","","","","","","","","","","","","","","","","","","","","","","","","",""
"943","","image-button-response","208","2124013","0.0-206.0-0.0","A2M2WHA77ACWTX","img_art/21.jpg","0","","","","","","","","","","","","","","","","","","","","","","","","",""
"6699","","image-button-response","209","2130719","0.0-207.0-0.0","A2M2WHA77ACWTX","img_art/21.jpg","5","","","","","","","","","","","","","","","","","","","","","","","","",""
"null","","html-keyboard-response","210","2132237","0.0-208.0","A2M2WHA77ACWTX","<p style=""font-size: 48px;"">+</p>","","","","","null","allTrialResponses","1500","1","23","img_art/21.jpg","30","Dreamy and atmospheric","Alicia,Hannah,Alexandra,Jasmine,Katelyn,Erika","Don't know why I like it, cant describe, maybe many landscapes?,47,120,20","Boring colors and look. Too much 1980s.,-20,240,20","This one is nice, it reminds me of the sky,42,60,20","The blues make me feel sadder as my mood is already not the best right now,-10,340,20","I dont like how nothing is defined and the colors dont work for me,-5,100,20","Indistinct, but beautiful hues,10,100,20","Alexandra","This one is nice, it reminds me of the sky,42,60,20","Alicia","Don't know why I like it, cant describe, maybe many landscapes?,47,120,20","Erika","Indistinct, but beautiful hues,10,100,20","4"
"52726","","survey-text","211","2184971","0.0-209.0-0.0","A2M2WHA77ACWTX","","","","{""Q0"":""Seems too random in the spatter marks.  Don't care for the way they float above background.""}","","","","","","","","","","","","","","","","","","","","","","",""
"3059.1999999284744","","image-slider-response","212","2188036","0.0-210.0","A2M2WHA77ACWTX","","","","","-10","","","","","","","","","","","","","","","","","","","","","",""
"null","","image-button-response","213","2193041","0.0-211.0","A2M2WHA77ACWTX","img_art/13.jpg","null","","","","","","","","","","","","","","","","","","","","","","","","",""
"4708","","image-button-response","214","2197752","0.0-212.0","A2M2WHA77ACWTX","img_art/13.jpg","3","","","","","","","","","","","","","","","","","","","","","","","","",""
"9860","","image-button-response","215","2207617","0.0-213.0-0.0","A2M2WHA77ACWTX","img_art/13.jpg","0","","","","","","","","","","","","","","","","","","","","","","","","",""
"3441","","image-button-response","216","2211064","0.0-214.0-0.0","A2M2WHA77ACWTX","img_art/13.jpg","1","","","","","","","","","","","","","","","","","","","","","","","","",""
"null","","html-keyboard-response","217","2212574","0.0-215.0","A2M2WHA77ACWTX","<p style=""font-size: 48px;"">+</p>","","","","","null","allTrialResponses","1500","1","24","img_art/13.jpg","-10","Seems too random in the spatter marks.  Don't care for the way they float above background.","Alicia,Kristen,Alexandra,Margaret,Courtney,Erika","meh, 80's. retro,-9,120,20","happy, serenity,30,280,20","I do like the blue colors in this.,12,60,20","i like the splatters and the colors,21,100,20","Debree on top of a calm pond.,18,280,20","Gorgeous contrast and color choice, very pleasing,50,100,20","Margaret","i like the splatters and the colors,21,100,20","Alicia","meh, 80's. retro,-9,120,20","Kristen","happy, serenity,30,280,20","4"
"24102","","survey-text","218","2236684","0.0-216.0-0.0","A2M2WHA77ACWTX","","","","{""Q0"":""Teddy bear has a nightmare?""}","","","","","","","","","","","","","","","","","","","","","","",""
"5340.300000071526","","image-slider-response","219","2242031","0.0-217.0","A2M2WHA77ACWTX","","","","","19","","","","","","","","","","","","","","","","","","","","","",""
"null","","image-button-response","220","2247033","0.0-218.0","A2M2WHA77ACWTX","img_art/16.jpg","null","","","","","","","","","","","","","","","","","","","","","","","","",""
"4363","","image-button-response","221","2251400","0.0-219.0","A2M2WHA77ACWTX","img_art/16.jpg","2","","","","","","","","","","","","","","","","","","","","","","","","",""
"4466","","image-button-response","222","2255871","0.0-220.0-0.0","A2M2WHA77ACWTX","img_art/16.jpg","3","","","","","","","","","","","","","","","","","","","","","","","","",""
"2893","","image-button-response","223","2258769","0.0-221.0-0.0","A2M2WHA77ACWTX","img_art/16.jpg","4","","","","","","","","","","","","","","","","","","","","","","","","",""
"null","","html-keyboard-response","224","2259284","0.0-222.0","A2M2WHA77ACWTX","<p style=""font-size: 48px;"">+</p>","","","","","null","allTrialResponses","500","1","25","img_art/16.jpg","19","Teddy bear has a nightmare?","Alicia,Kristen,Grace,Margaret,Amy,Katie","Don't get it. Hate it. ugly.,-44,120,20","sad. desth of childhood,-5,280,20","Something terrible happened. Either the figure on the right is the victim or another shredded toy.,-49,180,20","i like how it incorporates mixed visual art with the photo of the bear and the drawings,30,100,20","visceral and a little disturbing.,10,220,20","Upsetting and disturbing. Random bear and indistinguishable objects. None of it goes together. Too chaotic and random,-50,160,20","Grace","Something terrible happened. Either the figure on the right is the victim or another shredded toy.,-49,180,20","Margaret","i like how it incorporates mixed visual art with the photo of the bear and the drawings,30,100,20","Amy","visceral and a little disturbing.,10,220,20","4"
"4891","","survey-text","225","2264188","0.0-223.0-0.0","A2M2WHA77ACWTX","","","","{""Q0"":""table""}","","","","","","","","","","","","","","","","","","","","","","",""
"44293","","survey-text","226","2308487","0.0-224.0-0.0","A2M2WHA77ACWTX","","","","{""Q0"":""Interesting to look at, even if it doesn't resolve into anything recognizable""}","","","","","","","","","","","","","","","","","","","","","","",""
"2808.600000023842","","image-slider-response","227","2311302","0.0-225.0","A2M2WHA77ACWTX","","","","","31","","","","","","","","","","","","","","","","","","","","","",""
"null","","image-button-response","228","2316318","0.0-226.0","A2M2WHA77ACWTX","img_art/10.jpg","null","","","","","","","","","","","","","","","","","","","","","","","","",""
"11947","","image-button-response","229","2328267","0.0-227.0","A2M2WHA77ACWTX","img_art/10.jpg","4","","","","","","","","","","","","","","","","","","","","","","","","",""
"4715","","image-button-response","230","2332984","0.0-228.0-0.0","A2M2WHA77ACWTX","img_art/10.jpg","5","","","","","","","","","","","","","","","","","","","","","","","","",""
"11297","","image-button-response","231","2344282","0.0-229.0-0.0","A2M2WHA77ACWTX","img_art/10.jpg","2","","","","","","","","","","","","","","","","","","","","","","","","",""
"null","","html-keyboard-response","232","2345788","0.0-230.0","A2M2WHA77ACWTX","<p style=""font-size: 48px;"">+</p>","","","","","null","allTrialResponses","1500","1","26","img_art/10.jpg","31","Interesting to look at, even if it doesn't resolve into anything recognizable","Emily,Jordan,Grace,Margaret,Amy,Katherine","Ugly and low skill. I wouldn't want it.,-50,40,20","I dont like it, there is too much going on,-19,20,20","First impression was musical instrument then, because of the gray colors, death.,5,180,20","I think this was going to be a guitar but then the artist got mad and gave up,-4,100,20","Highly abstract and yet the shapes and colors provide an emotional accessibility for me.,20,220,20","This is pretty rad. The outline looks like a music staff,15,120,20","Amy","Highly abstract and yet the shapes and colors provide an emotional accessibility for me.,20,220,20","Katherine","This is pretty rad. The outline looks like a music staff,15,120,20","Grace","First impression was musical instrument then, because of the gray colors, death.,5,180,20","4"
"20644","","survey-text","233","2366441","0.0-231.0-0.0","A2M2WHA77ACWTX","","","","{""Q0"":""Can't identify with the shapes or colors""}","","","","","","","","","","","","","","","","","","","","","","",""
"2927.899999976158","","image-slider-response","234","2369372","0.0-232.0","A2M2WHA77ACWTX","","","","","-12","","","","","","","","","","","","","","","","","","","","","",""
"null","","image-button-response","235","2374388","0.0-233.0","A2M2WHA77ACWTX","img_art/5.jpg","null","","","","","","","","","","","","","","","","","","","","","","","","",""
"11599","","image-button-response","236","2385991","0.0-234.0","A2M2WHA77ACWTX","img_art/5.jpg","3","","","","","","","","","","","","","","","","","","","","","","","","",""
"7123","","image-button-response","237","2393117","0.0-235.0-0.0","A2M2WHA77ACWTX","img_art/5.jpg","5","","","","","","","","","","","","","","","","","","","","","","","","",""
"8985","","image-button-response","238","2402106","0.0-236.0-0.0","A2M2WHA77ACWTX","img_art/5.jpg","4","","","","","","","","","","","","","","","","","","","","","","","","",""
"null","","html-keyboard-response","239","2403621","0.0-237.0","A2M2WHA77ACWTX","<p style=""font-size: 48px;"">+</p>","","","","","null","allTrialResponses","1500","1","27","img_art/5.jpg","-12","Can't identify with the shapes or colors","Briana,Sabrina,Grace,Dominique,Amy,Katherine","It looks like a poorly drawn pear,17,400,20","Very messy and not a lot of thought,-29,120,20","Looks like a yellow plastic trash bag.,-42,180,20","It speaks volumes to some. It's also a conversational piece. And very different ideas,34,400,20","Nearly white background gives a lack of context. Questionable skills,-45,220,20","Don't love don't hate,8,120,20","Dominique","It speaks volumes to some. It's also a conversational piece. And very different ideas,34,400,20","Katherine","Don't love don't hate,8,120,20","Amy","Nearly white background gives a lack of context. Questionable skills,-45,220,20","4"
"56299","","survey-text","240","2459928","0.0-238.0-0.0","A2M2WHA77ACWTX","","","","{""Q0"":""A lot of fluid, thick paint.  But definitely not a deKooning""}","","","","","","","","","","","","","","","","","","","","","","",""
"3076","","image-slider-response","241","2463006","0.0-239.0","A2M2WHA77ACWTX","","","","","-30","","","","","","","","","","","","","","","","","","","","","",""
"null","","image-button-response","242","2468013","0.0-240.0","A2M2WHA77ACWTX","img_art/30.jpg","null","","","","","","","","","","","","","","","","","","","","","","","","",""
"15258","","image-button-response","243","2483273","0.0-241.0","A2M2WHA77ACWTX","img_art/30.jpg","5","","","","","","","","","","","","","","","","","","","","","","","","",""
"8948","","image-button-response","244","2492224","0.0-242.0-0.0","A2M2WHA77ACWTX","img_art/30.jpg","0","","","","","","","","","","","","","","","","","","","","","","","","",""
"6078","","image-button-response","245","2498308","0.0-243.0-0.0","A2M2WHA77ACWTX","img_art/30.jpg","4","","","","","","","","","","","","","","","","","","","","","","","","",""
"null","","html-keyboard-response","246","2498826","0.0-244.0","A2M2WHA77ACWTX","<p style=""font-size: 48px;"">+</p>","","","","","null","allTrialResponses","500","1","28","img_art/30.jpg","-30","A lot of fluid, thick paint.  But definitely not a deKooning","Molly,Vanessa,Isabella,Dominique,Amy,Katherine","I like the way the artist has painted his work.,40,340,20","I like the red against the blue, but otherwise, it's not really my taste,4,380,20","I like the back but the red lines in the front distress me,-7,280,20","Personal , calming conservative signature business ideal.,32,400,20","Too much abstraction for me, leaving my focus mainly on color. I like the texture.,-20,220,20","For some reason I like the red in this one. Maybe it's the style of lines/blurs,46,120,20","Katherine","For some reason I like the red in this one. Maybe it's the style of lines/blurs,46,120,20","Molly","I like the way the artist has painted his work.,40,340,20","Amy","Too much abstraction for me, leaving my focus mainly on color. I like the texture.,-20,220,20","4"
"57222","","survey-text","247","2556057","0.0-245.0-0.0","A2M2WHA77ACWTX","","","","{""Q0"":""Some artists try to return to the freedom of the child painting.  This has a charming child like quality""}","","","","","","","","","","","","","","","","","","","","","","",""
"3707.600000023842","","image-slider-response","248","2559771","0.0-246.0","A2M2WHA77ACWTX","","","","","31","","","","","","","","","","","","","","","","","","","","","",""
"null","","image-button-response","249","2564774","0.0-247.0","A2M2WHA77ACWTX","img_art/19.jpg","null","","","","","","","","","","","","","","","","","","","","","","","","",""
"1864","","image-button-response","250","2566641","0.0-248.0","A2M2WHA77ACWTX","img_art/19.jpg","2","","","","","","","","","","","","","","","","","","","","","","","","",""
"5408","","image-button-response","251","2572054","0.0-249.0-0.0","A2M2WHA77ACWTX","img_art/19.jpg","4","","","","","","","","","","","","","","","","","","","","","","","","",""
"9084","","image-button-response","252","2581140","0.0-250.0-0.0","A2M2WHA77ACWTX","img_art/19.jpg","5","","","","","","","","","","","","","","","","","","","","","","","","",""
"null","","html-keyboard-response","253","2581649","0.0-251.0","A2M2WHA77ACWTX","<p style=""font-size: 48px;"">+</p>","","","","","null","allTrialResponses","500","1","29","img_art/19.jpg","31","Some artists try to return to the freedom of the child painting.  This has a charming child like quality","Molly,Amanda,Melissa,Heather,Amy,Katherine","I can see kind of beach and sea full of people and buildings.,25,340,20","Its just a nice painting, nothing too special but nothing negative,25,180,20","feels free and loose,3,240,20","love the images I can pick out of this art,1,260,20","Though provoking. Adventurous.,10,220,20","I dig the not being able to tell what anything is but knowing everything is supposed to be something,46,120,20","Melissa","feels free and loose,3,240,20","Amy","Though provoking. Adventurous.,10,220,20","Katherine","I dig the not being able to tell what anything is but knowing everything is supposed to be something,46,120,20","4"
"61306","","survey-text","254","2642960","0.0-252.0-0.0","A2M2WHA77ACWTX","","","","{""Q0"":""A return to cubism.  And because it's on a diagonal, the composition is very dynamic""}","","","","","","","","","","","","","","","","","","","","","","",""
"2808.100000023842","","image-slider-response","255","2645774","0.0-253.0","A2M2WHA77ACWTX","","","","","17","","","","","","","","","","","","","","","","","","","","","",""
"null","","image-button-response","256","2650799","0.0-254.0","A2M2WHA77ACWTX","img_art/8.jpg","null","","","","","","","","","","","","","","","","","","","","","","","","",""
"826","","image-button-response","257","2651627","0.0-255.0","A2M2WHA77ACWTX","img_art/8.jpg","1","","","","","","","","","","","","","","","","","","","","","","","","",""
"4159","","image-button-response","258","2655791","0.0-256.0-0.0","A2M2WHA77ACWTX","img_art/8.jpg","2","","","","","","","","","","","","","","","","","","","","","","","","",""
"16351","","image-button-response","259","2672146","0.0-257.0-0.0","A2M2WHA77ACWTX","img_art/8.jpg","0","","","","","","","","","","","","","","","","","","","","","","","","",""
"null","","html-keyboard-response","260","2673157","0.0-258.0","A2M2WHA77ACWTX","<p style=""font-size: 48px;"">+</p>","","","","","null","allTrialResponses","1000","1","30","img_art/8.jpg","17","A return to cubism.  And because it's on a diagonal, the composition is very dynamic","Kylie,Miranda,Melissa,Julia,Amy,Katherine","Very abstract and seems symbolic,45,300,20","I like this, the longer I look at in the more details I see.,41,320,20","crisp shapes, find more things the longer you look,17,240,20","it's a little too classical for my tastes,-25,40,20","The definition and the colors give make this painting accessible and thought provoking.,30,220,20","This is really cool, I love the fragments of faces,38,120,20","Miranda","I like this, the longer I look at in the more details I see.,41,320,20","Melissa","crisp shapes, find more things the longer you look,17,240,20","Kylie","Very abstract and seems symbolic,45,300,20","4"
"6613","","image-button-response_instructions","261","2679778","0.0-259.0","A2M2WHA77ACWTX","","0","instructions","","","","","","","","","","","","","","","","","","","","","","","",""
"1879","","image-button-response","262","2681672","0.0-260.0","A2M2WHA77ACWTX","","0","","","","","","","","","","","","","","","","","","","","","","","","",""
