"rt","url","trial_type","trial_index","time_elapsed","internal_node_id","participant_id","stimulus","button_pressed","Name","responses","response","key_press","variableName","fixationTime","condition","trial","photo","subjectRating","subjectResponse","agentsNames","agent_1_Response","agent_2_Response","agent_3_Response","agent_4_Response","agent_5_Response","agent_6_Response","kept_1_name","kept_1_response","kept_2_name","kept_2_response","kept_3_name","kept_3_response","errorCounter"
"17705","external_page_harvard.html","external-html","0","17785","0.0-0.0","A2MQMMCVZJTFL2","","","","","","","","","","","","","","","","","","","","","","","","","","",""
"1369","","image-button-response","1","19156","0.0-1.0","A2MQMMCVZJTFL2","","1","","","","","","","","","","","","","","","","","","","","","","","","",""
"1778","","image-button-response","2","20940","0.0-2.0-0.0","A2MQMMCVZJTFL2","","1","phone","","","","","","","","","","","","","","","","","","","","","","","",""
"6879","","survey-text","3","27820","0.0-3.0-0.0","A2MQMMCVZJTFL2","","","","{""Q0"":""A2MQMMCVZJTFL2""}","","","","","","","","","","","","","","","","","","","","","","",""
"5312","","image-button-response_instructions","4","33135","0.0-4.0","A2MQMMCVZJTFL2","","0","instructions","","","","","","","","","","","","","","","","","","","","","","","",""
"18369","","image-button-response_instructions","5","51505","0.0-5.0","A2MQMMCVZJTFL2","img_art/ins/popularity/ins1.png","0","instructions","","","","","","","","","","","","","","","","","","","","","","","",""
"4649","","image-button-response_instructions","6","56155","0.0-6.0","A2MQMMCVZJTFL2","img_art/ins/popularity/ins2.png","0","instructions","","","","","","","","","","","","","","","","","","","","","","","",""
"9769","","image-button-response_instructions","7","65925","0.0-7.0","A2MQMMCVZJTFL2","img_art/ins/popularity/ins2Extreme.png","0","instructions","","","","","","","","","","","","","","","","","","","","","","","",""
"3306","","image-button-response_instructions","8","69233","0.0-8.0","A2MQMMCVZJTFL2","img_art/ins/popularity/ins3KEEPpop.PNG","0","instructions","","","","","","","","","","","","","","","","","","","","","","","",""
"547","","image-button-response_instructions","9","69781","0.0-9.0","A2MQMMCVZJTFL2","img_art/ins/popularity/ins3ANamepop.PNG","0","instructions","","","","","","","","","","","","","","","","","","","","","","","",""
"675","","image-button-response_instructions","10","70457","0.0-10.0","A2MQMMCVZJTFL2","img_art/ins/popularity/ins3ARatingpop.png","0","instructions","","","","","","","","","","","","","","","","","","","","","","","",""
"829","","image-button-response_instructions","11","71287","0.0-11.0","A2MQMMCVZJTFL2","img_art/ins/popularity/ins3ATextpop.png","0","instructions","","","","","","","","","","","","","","","","","","","","","","","",""
"3627","","image-button-response_instructions","12","74915","0.0-12.0","A2MQMMCVZJTFL2","img_art/ins/popularity/ins3ALikespop.png","0","instructions","","","","","","","","","","","","","","","","","","","","","","","",""
"10194","","image-button-response_instructions","13","85110","0.0-13.0","A2MQMMCVZJTFL2","img_art/ins/popularity/ins3KEEPpop.PNG","0","instructions","","","","","","","","","","","","","","","","","","","","","","","",""
"3368","","image-button-response_instructions","14","88478","0.0-14.0","A2MQMMCVZJTFL2","img_art/ins/popularity/ins3_5RED.png","0","instructions","","","","","","","","","","","","","","","","","","","","","","","",""
"2641","","image-button-response_instructions","15","91121","0.0-15.0","A2MQMMCVZJTFL2","img_art/ins/popularity/ins3KEEPpop.PNG","0","instructions","","","","","","","","","","","","","","","","","","","","","","","",""
"4581","","image-button-response_instructions","16","95703","0.0-16.0","A2MQMMCVZJTFL2","img_art/ins/popularity/ins4KEEPpop.PNG","0","instructions","","","","","","","","","","","","","","","","","","","","","","","",""
"5081","","image-button-response_instructions","17","100785","0.0-17.0","A2MQMMCVZJTFL2","img_art/ins/popularity/ins5KEEPpop.PNG","0","instructions","","","","","","","","","","","","","","","","","","","","","","","",""
"939","","image-button-response_instructions","18","101725","0.0-18.0","A2MQMMCVZJTFL2","","0","instructions","","","","","","","","","","","","","","","","","","","","","","","",""
"6441","","survey-text","19","108190","0.0-19.0-0.0","A2MQMMCVZJTFL2","","","","{""Q0"":""but""}","","","","","","","","","","","","","","","","","","","","","","",""
"6943","","survey-text","20","115136","0.0-20.0-0.0","A2MQMMCVZJTFL2","","","","{""Q0"":""It is pretty, I like the colors.""}","","","","","","","","","","","","","","","","","","","","","","",""
"3766.7999999523163","","image-slider-response","21","118905","0.0-21.0","A2MQMMCVZJTFL2","","","","","13","","","","","","","","","","","","","","","","","","","","","",""
"null","","image-button-response","22","123913","0.0-22.0","A2MQMMCVZJTFL2","img_art/ins/1.jpg","null","","","","","","","","","","","","","","","","","","","","","","","","",""
"2540","","image-button-response","23","126457","0.0-23.0","A2MQMMCVZJTFL2","img_art/ins/1.jpg","4","","","","","","","","","","","","","","","","","","","","","","","","",""
"1055","","image-button-response","24","127514","0.0-24.0-0.0","A2MQMMCVZJTFL2","img_art/ins/1.jpg","0","","","","","","","","","","","","","","","","","","","","","","","","",""
"1234","","image-button-response","25","128749","0.0-25.0-0.0","A2MQMMCVZJTFL2","img_art/ins/1.jpg","5","","","","","","","","","","","","","","","","","","","","","","","","",""
"null","","html-keyboard-response","26","130253","0.0-26.0","A2MQMMCVZJTFL2","<p style=""font-size: 48px;"">+</p>","","","","","null","allTrialResponses","1500","1","-2","img_art/ins/1.jpg","13","It is pretty, I like the colors.","Allison,Ashley,Beth,Dora,Erika,Jen","looks like a lot of things going on in the mist,20,20,20","I just don't get why these type of art would be popular,-32,40,20","This color reminds me of poo,-46,60,20","looks like what my niece in 3rd grade did this afternoon,-50,80,20","I like the sophisticated brushwork,40,100,20","It reminds me of a candy land dream I had,36,120,20","Erika","I like the sophisticated brushwork,40,100,20","Allison","looks like a lot of things going on in the mist,20,20,20","Jen","It reminds me of a candy land dream I had,36,120,20","0"
"7289","","survey-text","27","137552","0.0-27.0-0.0","A2MQMMCVZJTFL2","","","","{""Q0"":""Too dark and strange for my tastes.""}","","","","","","","","","","","","","","","","","","","","","","",""
"2825.699999809265","","image-slider-response","28","140379","0.0-28.0","A2MQMMCVZJTFL2","","","","","-21","","","","","","","","","","","","","","","","","","","","","",""
"3728","","image-button-response","29","145382","0.0-29.0","A2MQMMCVZJTFL2","img_art/ins/2.jpg","3","","","","","","","","","","","","","","","","","","","","","","","","",""
"221","","image-button-response","30","145607","0.0-30.0","A2MQMMCVZJTFL2","img_art/ins/2.jpg","0","","","","","","","","","","","","","","","","","","","","","","","","",""
"2025","","image-button-response","31","147633","0.0-31.0-0.0","A2MQMMCVZJTFL2","img_art/ins/2.jpg","2","","","","","","","","","","","","","","","","","","","","","","","","",""
"1837","","image-button-response","32","149471","0.0-32.0-0.0","A2MQMMCVZJTFL2","img_art/ins/2.jpg","0","","","","","","","","","","","","","","","","","","","","","","","","",""
"1728","","image-button-response","33","154009","0.0-32.1-0.1","A2MQMMCVZJTFL2","img_art/ins/2.jpg","5","","","","","","","","","","","","","","","","","","","","","","","","",""
"null","","html-keyboard-response","34","155517","0.0-33.0","A2MQMMCVZJTFL2","<p style=""font-size: 48px;"">+</p>","","","","","null","allTrialResponses","1500","1","-1","img_art/ins/2.jpg","-21","Too dark and strange for my tastes.","Allison,Kara,Katie,Jenna,Erika,Jen","I don't have strong feelings about this,10,20,20","I like the blocks of color arrangements,30,160,20","too much color!,-28,180,20","One of my pet peevs,-48,140,20","I would never be able to compose a sophisticated pallete like this,48,100,20","It reminds me of a fireplace,36,120,20","Allison","I don't have strong feelings about this,10,20,20","Katie","too much color!,-28,180,20","Jen","It reminds me of a fireplace,36,120,20","2"
"12360","","survey-text","35","167887","0.0-34.0-0.0","A2MQMMCVZJTFL2","","","","{""Q0"":""I find this one interesting, I like the shades of blue""}","","","","","","","","","","","","","","","","","","","","","","",""
"3109.7000000476837","","image-slider-response","36","170998","0.0-35.0","A2MQMMCVZJTFL2","","","","","14","","","","","","","","","","","","","","","","","","","","","",""
"1997","","image-button-response","37","176010","0.0-36.0","A2MQMMCVZJTFL2","img_art/ins/3.jpg","0","","","","","","","","","","","","","","","","","","","","","","","","",""
"1005","","image-button-response","38","177019","0.0-37.0","A2MQMMCVZJTFL2","img_art/ins/3.jpg","3","","","","","","","","","","","","","","","","","","","","","","","","",""
"2052","","image-button-response","39","179073","0.0-38.0-0.0","A2MQMMCVZJTFL2","img_art/ins/3.jpg","0","","","","","","","","","","","","","","","","","","","","","","","","",""
"1520","","image-button-response","40","180595","0.0-39.0-0.0","A2MQMMCVZJTFL2","img_art/ins/3.jpg","4","","","","","","","","","","","","","","","","","","","","","","","","",""
"null","","html-keyboard-response","41","181097","0.0-40.0","A2MQMMCVZJTFL2","<p style=""font-size: 48px;"">+</p>","","","","","null","allTrialResponses","500","1","0","img_art/ins/3.jpg","14","I find this one interesting, I like the shades of blue","Allison,Rose,Katie,Leslie,Mary,Jen","enjoy the different shades of blue,22,20,20","My daily routine, it's depressing,-20,240,20","It looks depressing,-26,180,20","It's an alright work,15,200,20","I like the overlapping of brushes,41,220,20","I can feel a rainy day from this painting,18,120,20","Leslie","It's an alright work,15,200,20","Allison","enjoy the different shades of blue,22,20,20","Mary","I like the overlapping of brushes,41,220,20","2"
"3125","","image-button-response_instructions","42","184233","0.0-41.0","A2MQMMCVZJTFL2","","0","instructions","","","","","","","","","","","","","","","","","","","","","","","",""
"8233","","survey-likert","43","192467","0.0-42.0-0.0","A2MQMMCVZJTFL2","","","","{""Q0"":"""",""Q1"":1,""Q2"":1}","","","","","","","","","","","","","","","","","","","","","","",""
"4037","","survey-likert","44","200953","0.0-42.1-0.1","A2MQMMCVZJTFL2","","","","{""Q0"":"""",""Q1"":0,""Q2"":1}","","","","","","","","","","","","","","","","","","","","","","",""
"2289","","survey-text","45","203246","0.0-43.0-0.0","A2MQMMCVZJTFL2","","","","{""Q0"":""rock""}","","","","","","","","","","","","","","","","","","","","","","",""
"10688","","survey-text","46","213935","0.0-44.0-0.0","A2MQMMCVZJTFL2","","","","{""Q0"":""very strange, I don't like this ""}","","","","","","","","","","","","","","","","","","","","","","",""
"2545.899999856949","","image-slider-response","47","216482","0.0-45.0","A2MQMMCVZJTFL2","","","","","-37","","","","","","","","","","","","","","","","","","","","","",""
"4708","","image-button-response","48","221517","0.0-46.0","A2MQMMCVZJTFL2","img_art/16.jpg","0","","","","","","","","","","","","","","","","","","","","","","","","",""
"423","","image-button-response","49","221943","0.0-47.0","A2MQMMCVZJTFL2","img_art/16.jpg","0","","","","","","","","","","","","","","","","","","","","","","","","",""
"1508","","image-button-response","50","223453","0.0-48.0-0.0","A2MQMMCVZJTFL2","img_art/16.jpg","1","","","","","","","","","","","","","","","","","","","","","","","","",""
"4855","","image-button-response","51","228311","0.0-49.0-0.0","A2MQMMCVZJTFL2","img_art/16.jpg","4","","","","","","","","","","","","","","","","","","","","","","","","",""
"null","","html-keyboard-response","52","228813","0.0-50.0","A2MQMMCVZJTFL2","<p style=""font-size: 48px;"">+</p>","","","","","null","allTrialResponses","500","1","1","img_art/16.jpg","-37","very strange, I don't like this ","Kelsey,Kayla,Dominique,Brianna,Heather,Ashley","its disturbing! what the heck,-27,240,20","Looks upsetting. Like it's actually graphic violence but you can't tell.,-24,180,20","Toys toys toys. Happy playful free spirit,30,400,20","It is interesting to say the least,0,20,20","lol i dont know how i feel about this.,1,260,20","A lot fo these could abstract or childrens work.,23,320,20","Kelsey","its disturbing! what the heck,-27,240,20","Kayla","Looks upsetting. Like it's actually graphic violence but you can't tell.,-24,180,20","Heather","lol i dont know how i feel about this.,1,260,20","3"
"10464","","survey-text","53","239295","0.0-51.0-0.0","A2MQMMCVZJTFL2","","","","{""Q0"":""Meh, not one of my favorites.""}","","","","","","","","","","","","","","","","","","","","","","",""
"3367.0999999046326","","image-slider-response","54","242664","0.0-52.0","A2MQMMCVZJTFL2","","","","","-27","","","","","","","","","","","","","","","","","","","","","",""
"3633","","image-button-response","55","247667","0.0-53.0","A2MQMMCVZJTFL2","img_art/12.jpg","0","","","","","","","","","","","","","","","","","","","","","","","","",""
"253","","image-button-response","56","247922","0.0-54.0","A2MQMMCVZJTFL2","img_art/12.jpg","0","","","","","","","","","","","","","","","","","","","","","","","","",""
"3578","","image-button-response","57","251503","0.0-55.0-0.0","A2MQMMCVZJTFL2","img_art/12.jpg","5","","","","","","","","","","","","","","","","","","","","","","","","",""
"2794","","image-button-response","58","254298","0.0-56.0-0.0","A2MQMMCVZJTFL2","img_art/12.jpg","2","","","","","","","","","","","","","","","","","","","","","","","","",""
"null","","html-keyboard-response","59","255303","0.0-57.0","A2MQMMCVZJTFL2","<p style=""font-size: 48px;"">+</p>","","","","","null","allTrialResponses","1000","1","2","img_art/12.jpg","-27","Meh, not one of my favorites.","Kelsey,Kayla,Kylie,Sabrina,Heather,Christina","dont like the squares,-16,240,20","Yay! Lots of people, lots of lives.,25,180,20","Night and day, light and dark,35,300,20","I like the fact it shares both light and edgy,32,120,20","beautiful also reminds me of a quilt,1,260,20","way too 90s/80s for me,-9,240,20","Kelsey","dont like the squares,-16,240,20","Christina","way too 90s/80s for me,-9,240,20","Kylie","Night and day, light and dark,35,300,20","3"
"13667","","survey-text","60","268974","0.0-58.0-0.0","A2MQMMCVZJTFL2","","","","{""Q0"":""Looks like  bird perched on a tree limb""}","","","","","","","","","","","","","","","","","","","","","","",""
"6434.400000095367","","image-slider-response","61","275410","0.0-59.0","A2MQMMCVZJTFL2","","","","","5","","","","","","","","","","","","","","","","","","","","","",""
"4703","","image-button-response","62","280415","0.0-60.0","A2MQMMCVZJTFL2","img_art/6.jpg","3","","","","","","","","","","","","","","","","","","","","","","","","",""
"258","","image-button-response","63","280676","0.0-61.0","A2MQMMCVZJTFL2","img_art/6.jpg","4","","","","","","","","","","","","","","","","","","","","","","","","",""
"743","","image-button-response","64","281420","0.0-62.0-0.0","A2MQMMCVZJTFL2","img_art/6.jpg","5","","","","","","","","","","","","","","","","","","","","","","","","",""
"876","","image-button-response","65","282298","0.0-63.0-0.0","A2MQMMCVZJTFL2","img_art/6.jpg","0","","","","","","","","","","","","","","","","","","","","","","","","",""
"null","","html-keyboard-response","66","283300","0.0-64.0","A2MQMMCVZJTFL2","<p style=""font-size: 48px;"">+</p>","","","","","null","allTrialResponses","1000","1","3","img_art/6.jpg","5","Looks like  bird perched on a tree limb","Kelsey,Makayla,Kylie,Taylor,Michaela,Christina","its like a jalapeno,-28,240,20","Don't like the black space,2,80,20","Reminds me of feeling incomplete,1,300,20","Reminds me of my friend's bird,21,340,20","It looks like a bird looking away,32,260,20","i like the simplicity of the tree and the colors,50,240,20","Michaela","It looks like a bird looking away,32,260,20","Christina","i like the simplicity of the tree and the colors,50,240,20","Kelsey","its like a jalapeno,-28,240,20","3"
"7286","","survey-text","67","290590","0.0-65.0-0.0","A2MQMMCVZJTFL2","","","","{""Q0"":""I see a smiling face in there""}","","","","","","","","","","","","","","","","","","","","","","",""
"2638.899999856949","","image-slider-response","68","293230","0.0-66.0","A2MQMMCVZJTFL2","","","","","14","","","","","","","","","","","","","","","","","","","","","",""
"4082","","image-button-response","69","298234","0.0-67.0","A2MQMMCVZJTFL2","img_art/2.jpg","2","","","","","","","","","","","","","","","","","","","","","","","","",""
"264","","image-button-response","70","298501","0.0-68.0","A2MQMMCVZJTFL2","img_art/2.jpg","2","","","","","","","","","","","","","","","","","","","","","","","","",""
"1068","","image-button-response","71","299571","0.0-69.0-0.0","A2MQMMCVZJTFL2","img_art/2.jpg","5","","","","","","","","","","","","","","","","","","","","","","","","",""
"599","","image-button-response","72","300173","0.0-70.0-0.0","A2MQMMCVZJTFL2","img_art/2.jpg","4","","","","","","","","","","","","","","","","","","","","","","","","",""
"null","","html-keyboard-response","73","300675","0.0-71.0","A2MQMMCVZJTFL2","<p style=""font-size: 48px;"">+</p>","","","","","null","allTrialResponses","500","1","4","img_art/2.jpg","14","I see a smiling face in there","Kelsey,Bailey,Julia,Jasmine,Michaela,Christina","i dont like it, no thank you,-28,240,20","Too gloopy and unfocused,-38,360,20","I like how it looks like a cute smiling face,43,40,20","Color picks are a bad mesh with each other,-17,340,20","My immediate reaction was it looked like a class but then I saw a smile in the middle,11,260,20","It looks like a little kids primary color picture,3,240,20","Julia","I like how it looks like a cute smiling face,43,40,20","Christina","It looks like a little kids primary color picture,3,240,20","Michaela","My immediate reaction was it looked like a class but then I saw a smile in the middle,11,260,20","3"
"6930","","survey-text","74","307615","0.0-72.0-0.0","A2MQMMCVZJTFL2","","","","{""Q0"":""I don't like this one, too dark""}","","","","","","","","","","","","","","","","","","","","","","",""
"2490.5","","image-slider-response","75","310107","0.0-73.0","A2MQMMCVZJTFL2","","","","","-23","","","","","","","","","","","","","","","","","","","","","",""
"4771","","image-button-response","76","315118","0.0-74.0","A2MQMMCVZJTFL2","img_art/15.jpg","2","","","","","","","","","","","","","","","","","","","","","","","","",""
"1075","","image-button-response","77","316195","0.0-75.0","A2MQMMCVZJTFL2","img_art/15.jpg","2","","","","","","","","","","","","","","","","","","","","","","","","",""
"1050","","image-button-response","78","317246","0.0-76.0-0.0","A2MQMMCVZJTFL2","img_art/15.jpg","1","","","","","","","","","","","","","","","","","","","","","","","","",""
"464","","image-button-response","79","317712","0.0-77.0-0.0","A2MQMMCVZJTFL2","img_art/15.jpg","0","","","","","","","","","","","","","","","","","","","","","","","","",""
"null","","html-keyboard-response","80","319214","0.0-78.0","A2MQMMCVZJTFL2","<p style=""font-size: 48px;"">+</p>","","","","","null","allTrialResponses","1500","1","5","img_art/15.jpg","-23","I don't like this one, too dark","Sydney,Katie,Julia,Alexis,Michaela,Christina","This picture is too confusing for me. I wouldn't want to stare at it to figure it out.,-10,320,20","Too much black. I see weeds or dead/dying flowers.,-40,160,20","This is simply too ""old-school"",-27,40,20","Not a fan of abstract, but the black is very striking,10,100,20","Reminds me of lilacs,26,260,20","I really like the colors,14,240,20","Julia","This is simply too ""old-school"",-27,40,20","Katie","Too much black. I see weeds or dead/dying flowers.,-40,160,20","Sydney","This picture is too confusing for me. I wouldn't want to stare at it to figure it out.,-10,320,20","3"
"2189","","survey-text","81","321423","0.0-79.0-0.0","A2MQMMCVZJTFL2","","","","{""Q0"":""sky""}","","","","","","","","","","","","","","","","","","","","","","",""
"5407","","survey-text","82","326831","0.0-80.0-0.0","A2MQMMCVZJTFL2","","","","{""Q0"":""I don't like the colors""}","","","","","","","","","","","","","","","","","","","","","","",""
"2968.0999999046326","","image-slider-response","83","329801","0.0-81.0","A2MQMMCVZJTFL2","","","","","-37","","","","","","","","","","","","","","","","","","","","","",""
"1462","","image-button-response","84","334805","0.0-82.0","A2MQMMCVZJTFL2","img_art/23.jpg","0","","","","","","","","","","","","","","","","","","","","","","","","",""
"1095","","image-button-response","85","335905","0.0-83.0","A2MQMMCVZJTFL2","img_art/23.jpg","0","","","","","","","","","","","","","","","","","","","","","","","","",""
"646","","image-button-response","86","336553","0.0-84.0-0.0","A2MQMMCVZJTFL2","img_art/23.jpg","1","","","","","","","","","","","","","","","","","","","","","","","","",""
"530","","image-button-response","87","337085","0.0-85.0-0.0","A2MQMMCVZJTFL2","img_art/23.jpg","2","","","","","","","","","","","","","","","","","","","","","","","","",""
"null","","html-keyboard-response","88","337586","0.0-86.0","A2MQMMCVZJTFL2","<p style=""font-size: 48px;"">+</p>","","","","","null","allTrialResponses","500","1","6","img_art/23.jpg","-37","I don't like the colors","Sydney,Katie,Julia,Lauren,Katelyn,Rachel","The piece seems chaotic, and I dislike the random pop of white within so many colors.,-10,320,20","I don't get it! the white in the middle of the speckled rainbow is confusing.,-10,160,20","this looks like a pop rock album cover,-10,40,20","I like the symmetrical design and how it portrays the liveliness of a musical environment.,30,340,20","Makes me want to stare at it for hours. Like there is something deeper to find.,37,100,20","Vivid colors and the white in the middle looks like people dancing.,31,80,20","Sydney","The piece seems chaotic, and I dislike the random pop of white within so many colors.,-10,320,20","Katie","I don't get it! the white in the middle of the speckled rainbow is confusing.,-10,160,20","Julia","this looks like a pop rock album cover,-10,40,20","3"
"6036","","survey-text","89","343632","0.0-87.0-0.0","A2MQMMCVZJTFL2","","","","{""Q0"":""This one makes no sense to me""}","","","","","","","","","","","","","","","","","","","","","","",""
"2731.2000000476837","","image-slider-response","90","346365","0.0-88.0","A2MQMMCVZJTFL2","","","","","-35","","","","","","","","","","","","","","","","","","","","","",""
"4904","","image-button-response","91","351368","0.0-89.0","A2MQMMCVZJTFL2","img_art/5.jpg","0","","","","","","","","","","","","","","","","","","","","","","","","",""
"813","","image-button-response","92","352183","0.0-90.0","A2MQMMCVZJTFL2","img_art/5.jpg","0","","","","","","","","","","","","","","","","","","","","","","","","",""
"742","","image-button-response","93","352927","0.0-91.0-0.0","A2MQMMCVZJTFL2","img_art/5.jpg","1","","","","","","","","","","","","","","","","","","","","","","","","",""
"1228","","image-button-response","94","354157","0.0-92.0-0.0","A2MQMMCVZJTFL2","img_art/5.jpg","4","","","","","","","","","","","","","","","","","","","","","","","","",""
"null","","html-keyboard-response","95","354659","0.0-93.0","A2MQMMCVZJTFL2","<p style=""font-size: 48px;"">+</p>","","","","","null","allTrialResponses","500","1","7","img_art/5.jpg","-35","This one makes no sense to me","Sydney,Katie,Julia,Samantha,Meghan,Mariah","I'm reminded of a volcano with weird colors.,-5,320,20","I don't get it at all. But, maybe it is the top portion of a piece of fruit.,-50,160,20","I like this one but wish it had more context around it,18,40,20","I cant explain why i like this so much but it really calls out to me,50,140,20","I like it but I don't know why,15,220,20","It feels very strong and open.,31,140,20","Sydney","I'm reminded of a volcano with weird colors.,-5,320,20","Katie","I don't get it at all. But, maybe it is the top portion of a piece of fruit.,-50,160,20","Meghan","I like it but I don't know why,15,220,20","3"
"16662","","survey-text","96","371327","0.0-94.0-0.0","A2MQMMCVZJTFL2","","","","{""Q0"":""I like this one, reminds me an impressionist""}","","","","","","","","","","","","","","","","","","","","","","",""
"3237.399999856949","","image-slider-response","97","374566","0.0-95.0","A2MQMMCVZJTFL2","","","","","16","","","","","","","","","","","","","","","","","","","","","",""
"4628","","image-button-response","98","379584","0.0-96.0","A2MQMMCVZJTFL2","img_art/19.jpg","0","","","","","","","","","","","","","","","","","","","","","","","","",""
"537","","image-button-response","99","380125","0.0-97.0","A2MQMMCVZJTFL2","img_art/19.jpg","0","","","","","","","","","","","","","","","","","","","","","","","","",""
"990","","image-button-response","100","381117","0.0-98.0-0.0","A2MQMMCVZJTFL2","img_art/19.jpg","4","","","","","","","","","","","","","","","","","","","","","","","","",""
"772","","image-button-response","101","381890","0.0-99.0-0.0","A2MQMMCVZJTFL2","img_art/19.jpg","5","","","","","","","","","","","","","","","","","","","","","","","","",""
"null","","html-keyboard-response","102","382894","0.0-100.0","A2MQMMCVZJTFL2","<p style=""font-size: 48px;"">+</p>","","","","","null","allTrialResponses","1000","1","8","img_art/19.jpg","16","I like this one, reminds me an impressionist","Sydney,Katie,Kristen,Kaitlyn,Meghan,Savannah","I like the color and the mix of sketches along with paint.,30,320,20","Too busy, makes me anxious and frustrated. Lots of movement in the brush strokes.,-9,160,20","city, stress of urbanism, slightly panicked,2,280,20","The picture contains a lot of brown and weird drips,-4,80,20","looks like a shopping center,20,220,20","Watercolor abstract? Strange.,1,200,20","Sydney","I like the color and the mix of sketches along with paint.,30,320,20","Meghan","looks like a shopping center,20,220,20","Savannah","Watercolor abstract? Strange.,1,200,20","3"
"10953","","survey-text","103","393856","0.0-101.0-0.0","A2MQMMCVZJTFL2","","","","{""Q0"":""Looks like fossils, it's boringq""}","","","","","","","","","","","","","","","","","","","","","","",""
"3033.5","","image-slider-response","104","396891","0.0-102.0","A2MQMMCVZJTFL2","","","","","-5","","","","","","","","","","","","","","","","","","","","","",""
"3532","","image-button-response","105","401896","0.0-103.0","A2MQMMCVZJTFL2","img_art/7.jpg","1","","","","","","","","","","","","","","","","","","","","","","","","",""
"514","","image-button-response","106","402417","0.0-104.0","A2MQMMCVZJTFL2","img_art/7.jpg","1","","","","","","","","","","","","","","","","","","","","","","","","",""
"2295","","image-button-response","107","404714","0.0-105.0-0.0","A2MQMMCVZJTFL2","img_art/7.jpg","3","","","","","","","","","","","","","","","","","","","","","","","","",""
"2592","","image-button-response","108","407307","0.0-106.0-0.0","A2MQMMCVZJTFL2","img_art/7.jpg","2","","","","","","","","","","","","","","","","","","","","","","","","",""
"null","","html-keyboard-response","109","407809","0.0-107.0","A2MQMMCVZJTFL2","<p style=""font-size: 48px;"">+</p>","","","","","null","allTrialResponses","500","1","9","img_art/7.jpg","-5","Looks like fossils, it's boringq","Sydney,Isabella,Angela,Melissa,Meghan,Savannah","This piece is really simple but the colors and texture work well together.,20,320,20","Dessert like almost like dry land,4,280,20","Looks like vomit, or chunky feces,-42,260,20","textures are engaging,8,240,20","I don't like the texture,-49,220,20","More saturated color, even more interpretations to have.,44,200,20","Isabella","Dessert like almost like dry land,4,280,20","Melissa","textures are engaging,8,240,20","Angela","Looks like vomit, or chunky feces,-42,260,20","3"
"10428","","survey-text","110","418240","0.0-108.0-0.0","A2MQMMCVZJTFL2","","","","{""Q0"":""I really dislike this piece, looks angry""}","","","","","","","","","","","","","","","","","","","","","","",""
"2981.199999809265","","image-slider-response","111","421223","0.0-109.0","A2MQMMCVZJTFL2","","","","","-39","","","","","","","","","","","","","","","","","","","","","",""
"3273","","image-button-response","112","426225","0.0-110.0","A2MQMMCVZJTFL2","img_art/3.jpg","0","","","","","","","","","","","","","","","","","","","","","","","","",""
"640","","image-button-response","113","426868","0.0-111.0","A2MQMMCVZJTFL2","img_art/3.jpg","0","","","","","","","","","","","","","","","","","","","","","","","","",""
"845","","image-button-response","114","427715","0.0-112.0-0.0","A2MQMMCVZJTFL2","img_art/3.jpg","1","","","","","","","","","","","","","","","","","","","","","","","","",""
"869","","image-button-response","115","428585","0.0-113.0-0.0","A2MQMMCVZJTFL2","img_art/3.jpg","4","","","","","","","","","","","","","","","","","","","","","","","","",""
"null","","html-keyboard-response","116","429087","0.0-114.0","A2MQMMCVZJTFL2","<p style=""font-size: 48px;"">+</p>","","","","","null","allTrialResponses","500","1","10","img_art/3.jpg","-39","I really dislike this piece, looks angry","Hannah,Isabella,Angela,Melissa,Cassidy,Madison","Looks like a Basquiat but just not my cup of tea.,-29,240,20","Too much red or blood,-28,280,20","Like the colors and energy of this work.,10,260,20","strong color, interesting negative shapes,21,240,20","Again, looks like a child's work. I don't get these types of pieces. Too simple,-47,140,20","This doesn't grab me. Perhaps the red is meant to be provocative; I find it gimmicky.,-9,60,20","Hannah","Looks like a Basquiat but just not my cup of tea.,-29,240,20","Isabella","Too much red or blood,-28,280,20","Cassidy","Again, looks like a child's work. I don't get these types of pieces. Too simple,-47,140,20","3"
"3277","","survey-text","117","432387","0.0-115.0-0.0","A2MQMMCVZJTFL2","","","","{""Q0"":""our""}","","","","","","","","","","","","","","","","","","","","","","",""
"9339","","survey-text","118","441727","0.0-116.0-0.0","A2MQMMCVZJTFL2","","","","{""Q0"":""Looks like a fishing boat, too dark ""}","","","","","","","","","","","","","","","","","","","","","","",""
"2488.2999999523163","","image-slider-response","119","444217","0.0-117.0","A2MQMMCVZJTFL2","","","","","-21","","","","","","","","","","","","","","","","","","","","","",""
"4543","","image-button-response","120","449219","0.0-118.0","A2MQMMCVZJTFL2","img_art/18.jpg","0","","","","","","","","","","","","","","","","","","","","","","","","",""
"511","","image-button-response","121","449731","0.0-119.0","A2MQMMCVZJTFL2","img_art/18.jpg","0","","","","","","","","","","","","","","","","","","","","","","","","",""
"1514","","image-button-response","122","451247","0.0-120.0-0.0","A2MQMMCVZJTFL2","img_art/18.jpg","2","","","","","","","","","","","","","","","","","","","","","","","","",""
"1440","","image-button-response","123","452689","0.0-121.0-0.0","A2MQMMCVZJTFL2","img_art/18.jpg","5","","","","","","","","","","","","","","","","","","","","","","","","",""
"null","","html-keyboard-response","124","453697","0.0-122.0","A2MQMMCVZJTFL2","<p style=""font-size: 48px;"">+</p>","","","","","null","allTrialResponses","1000","1","11","img_art/18.jpg","-21","Looks like a fishing boat, too dark ","Hannah,Isabella,Jennifer,Laura,Cassidy,Kaitlin","Looks like ghost figures on a boat. It's okay.,7,240,20","Feels like a story of ancient war of the gods,26,280,20","I have no strong feelings about this image,1,380,20","afraid and anxious,21,320,20","nice balance of color. The different sizes and types of strokes give a lot to look at,18,140,20","I really like this one - there seems to be a story behind it,32,60,20","Hannah","Looks like ghost figures on a boat. It's okay.,7,240,20","Jennifer","I have no strong feelings about this image,1,380,20","Kaitlin","I really like this one - there seems to be a story behind it,32,60,20","3"
"9974","","survey-text","125","463681","0.0-123.0-0.0","A2MQMMCVZJTFL2","","","","{""Q0"":""Not sure what this is supposed to be""}","","","","","","","","","","","","","","","","","","","","","","",""
"2767.100000143051","","image-slider-response","126","466449","0.0-124.0","A2MQMMCVZJTFL2","","","","","-30","","","","","","","","","","","","","","","","","","","","","",""
"1532","","image-button-response","127","471461","0.0-125.0","A2MQMMCVZJTFL2","img_art/29.jpg","1","","","","","","","","","","","","","","","","","","","","","","","","",""
"456","","image-button-response","128","471919","0.0-126.0","A2MQMMCVZJTFL2","img_art/29.jpg","1","","","","","","","","","","","","","","","","","","","","","","","","",""
"1344","","image-button-response","129","473264","0.0-127.0-0.0","A2MQMMCVZJTFL2","img_art/29.jpg","4","","","","","","","","","","","","","","","","","","","","","","","","",""
"603","","image-button-response","130","473869","0.0-128.0-0.0","A2MQMMCVZJTFL2","img_art/29.jpg","3","","","","","","","","","","","","","","","","","","","","","","","","",""
"null","","html-keyboard-response","131","475372","0.0-129.0","A2MQMMCVZJTFL2","<p style=""font-size: 48px;"">+</p>","","","","","null","allTrialResponses","1500","1","12","img_art/29.jpg","-30","Not sure what this is supposed to be","Hannah,Madeline,Jennifer,Gabrielle,Maria,Kaitlin","I don't like the red X through it.,-20,240,20","Looks a bit messy,-13,40,20","Very interesting composition,41,380,20","it's OK, no clue to what's going on but good use of light and dark,4,160,20","the mixed medium / collage annoys me,-19,120,20","seems fun, looks like a battle zone,22,60,20","Madeline","Looks a bit messy,-13,40,20","Maria","the mixed medium / collage annoys me,-19,120,20","Gabrielle","it's OK, no clue to what's going on but good use of light and dark,4,160,20","3"
"8272","","survey-text","132","483647","0.0-130.0-0.0","A2MQMMCVZJTFL2","","","","{""Q0"":""I don't like how dark this one is""}","","","","","","","","","","","","","","","","","","","","","","",""
"2605.5","","image-slider-response","133","486254","0.0-131.0","A2MQMMCVZJTFL2","","","","","-29","","","","","","","","","","","","","","","","","","","","","",""
"null","","image-button-response","134","491596","0.0-132.0","A2MQMMCVZJTFL2","img_art/20.jpg","null","","","","","","","","","","","","","","","","","","","","","","","","",""
"1886","","image-button-response","135","493484","0.0-133.0","A2MQMMCVZJTFL2","img_art/20.jpg","1","","","","","","","","","","","","","","","","","","","","","","","","",""
"344","","image-button-response","136","493829","0.0-134.0-0.0","A2MQMMCVZJTFL2","img_art/20.jpg","0","","","","","","","","","","","","","","","","","","","","","","","","",""
"521","","image-button-response","137","494353","0.0-135.0-0.0","A2MQMMCVZJTFL2","img_art/20.jpg","2","","","","","","","","","","","","","","","","","","","","","","","","",""
"null","","html-keyboard-response","138","495855","0.0-136.0","A2MQMMCVZJTFL2","<p style=""font-size: 48px;"">+</p>","","","","","null","allTrialResponses","1500","1","13","img_art/20.jpg","-29","I don't like how dark this one is","Lindsey,Madeline,Olivia,Gabrielle,Maria,Autumn","Not sure what it is. The colors are pleasant; makes me want to figure it out. An animal skull in the desert?,10,400,20","Looks somewhat dark and emotional,-10,40,20","crash after traffic causing grief,-11,40,20","The white blob on the left seems out of place,-34,160,20","just feels generic,-18,120,20","It's ok. Very abstract.,18,340,20","Madeline","Looks somewhat dark and emotional,-10,40,20","Lindsey","Not sure what it is. The colors are pleasant; makes me want to figure it out. An animal skull in the desert?,10,400,20","Olivia","crash after traffic causing grief,-11,40,20","3"
"8509","","survey-text","139","504383","0.0-137.0-0.0","A2MQMMCVZJTFL2","","","","{""Q0"":""I don't like the mix of colors here""}","","","","","","","","","","","","","","","","","","","","","","",""
"2768.199999809265","","image-slider-response","140","507153","0.0-138.0","A2MQMMCVZJTFL2","","","","","-24","","","","","","","","","","","","","","","","","","","","","",""
"null","","image-button-response","141","512595","0.0-139.0","A2MQMMCVZJTFL2","img_art/9.jpg","null","","","","","","","","","","","","","","","","","","","","","","","","",""
"2762","","image-button-response","142","515359","0.0-140.0","A2MQMMCVZJTFL2","img_art/9.jpg","1","","","","","","","","","","","","","","","","","","","","","","","","",""
"498","","image-button-response","143","515859","0.0-141.0-0.0","A2MQMMCVZJTFL2","img_art/9.jpg","2","","","","","","","","","","","","","","","","","","","","","","","","",""
"1206","","image-button-response","144","517067","0.0-142.0-0.0","A2MQMMCVZJTFL2","img_art/9.jpg","0","","","","","","","","","","","","","","","","","","","","","","","","",""
"null","","html-keyboard-response","145","518584","0.0-143.0","A2MQMMCVZJTFL2","<p style=""font-size: 48px;"">+</p>","","","","","null","allTrialResponses","1500","1","14","img_art/9.jpg","-24","I don't like the mix of colors here","Lindsey,Madeline,Olivia,Catherine,Destiny,Alexa","Looks like my niece's doodles.,-50,400,20","I really like the colors and details.,8,40,20","what a wild ride,11,40,20","Cozy, In her own world. feminine .,30,160,20","is that sleeping beauty,33,360,20","It's wild and chaotic but also beautiful and has some kind of calming factor about it,20,40,20","Madeline","I really like the colors and details.,8,40,20","Olivia","what a wild ride,11,40,20","Lindsey","Looks like my niece's doodles.,-50,400,20","3"
"8185","","survey-text","146","526783","0.0-144.0-0.0","A2MQMMCVZJTFL2","","","","{""Q0"":""Looks like a waterfall.  It's ok I guess""}","","","","","","","","","","","","","","","","","","","","","","",""
"2980.5","","image-slider-response","147","529764","0.0-145.0","A2MQMMCVZJTFL2","","","","","7","","","","","","","","","","","","","","","","","","","","","",""
"null","","image-button-response","148","535596","0.0-146.0","A2MQMMCVZJTFL2","img_art/24.jpg","null","","","","","","","","","","","","","","","","","","","","","","","","",""
"21202","","image-button-response","149","556801","0.0-147.0","A2MQMMCVZJTFL2","img_art/24.jpg","4","","","","","","","","","","","","","","","","","","","","","","","","",""
"551","","image-button-response","150","557353","0.0-148.0-0.0","A2MQMMCVZJTFL2","img_art/24.jpg","5","","","","","","","","","","","","","","","","","","","","","","","","",""
"553","","image-button-response","151","557909","0.0-149.0-0.0","A2MQMMCVZJTFL2","img_art/24.jpg","3","","","","","","","","","","","","","","","","","","","","","","","","",""
"null","","html-keyboard-response","152","559412","0.0-150.0","A2MQMMCVZJTFL2","<p style=""font-size: 48px;"">+</p>","","","","","null","allTrialResponses","1500","1","15","img_art/24.jpg","7","Looks like a waterfall.  It's ok I guess","Lindsey,Madeline,Olivia,Katherine,Allison,Alexandria","I like the colors and see a stream in a wooded setting. Makes me feel calm and cheerful.,27,400,20","colors are good but the style is iffy,12,40,20","tranquility in the stream,34,40,20","The combination of nature / realism with abstract colors is unique.,39,120,20","I appreciate the earth tones. Soothing.,5,140,20","very colorful and intricate and makes me feel at peace,50,80,20","Allison","I appreciate the earth tones. Soothing.,5,140,20","Alexandria","very colorful and intricate and makes me feel at peace,50,80,20","Katherine","The combination of nature / realism with abstract colors is unique.,39,120,20","3"
"2773","","survey-text","153","562207","0.0-151.0-0.0","A2MQMMCVZJTFL2","","","","{""Q0"":""course""}","","","","","","","","","","","","","","","","","","","","","","",""
"4782","","survey-text","154","566990","0.0-152.0-0.0","A2MQMMCVZJTFL2","","","","{""Q0"":""pretty colors!""}","","","","","","","","","","","","","","","","","","","","","","",""
"2866.7000000476837","","image-slider-response","155","569859","0.0-153.0","A2MQMMCVZJTFL2","","","","","20","","","","","","","","","","","","","","","","","","","","","",""
"1174","","image-button-response","156","574868","0.0-154.0","A2MQMMCVZJTFL2","img_art/17.jpg","0","","","","","","","","","","","","","","","","","","","","","","","","",""
"432","","image-button-response","157","575302","0.0-155.0","A2MQMMCVZJTFL2","img_art/17.jpg","3","","","","","","","","","","","","","","","","","","","","","","","","",""
"721","","image-button-response","158","576025","0.0-156.0-0.0","A2MQMMCVZJTFL2","img_art/17.jpg","0","","","","","","","","","","","","","","","","","","","","","","","","",""
"772","","image-button-response","159","576799","0.0-157.0-0.0","A2MQMMCVZJTFL2","img_art/17.jpg","2","","","","","","","","","","","","","","","","","","","","","","","","",""
"null","","html-keyboard-response","160","578301","0.0-158.0","A2MQMMCVZJTFL2","<p style=""font-size: 48px;"">+</p>","","","","","null","allTrialResponses","1500","1","16","img_art/17.jpg","20","pretty colors!","Leah,Michelle,Jenna,Katherine,Allison,Alexandria","Love the colors, the flow, like a strange storm or tree off the balcony,50,360,20","I can tell there are tress and maybe some doors but I'm not a fan of the style,-2,280,20","stunning. makes me feel happy, hopeful, serene, and a little wistful.,50,360,20","Looks like a weird blurry heaven again! I dig,32,120,20","Very washed out.,-10,140,20","it looks very intricate and colorful,50,80,20","Katherine","Looks like a weird blurry heaven again! I dig,32,120,20","Leah","Love the colors, the flow, like a strange storm or tree off the balcony,50,360,20","Jenna","stunning. makes me feel happy, hopeful, serene, and a little wistful.,50,360,20","3"
"12791","","survey-text","161","591102","0.0-159.0-0.0","A2MQMMCVZJTFL2","","","","{""Q0"":""Interesting juxtaposition""}","","","","","","","","","","","","","","","","","","","","","","",""
"3580.5999999046326","","image-slider-response","162","594685","0.0-160.0","A2MQMMCVZJTFL2","","","","","-1","","","","","","","","","","","","","","","","","","","","","",""
"null","","image-button-response","163","600599","0.0-161.0","A2MQMMCVZJTFL2","img_art/10.jpg","null","","","","","","","","","","","","","","","","","","","","","","","","",""
"52757","","image-button-response","164","653358","0.0-162.0","A2MQMMCVZJTFL2","img_art/10.jpg","0","","","","","","","","","","","","","","","","","","","","","","","","",""
"425","","image-button-response","165","653784","0.0-163.0-0.0","A2MQMMCVZJTFL2","img_art/10.jpg","1","","","","","","","","","","","","","","","","","","","","","","","","",""
"395","","image-button-response","166","654181","0.0-164.0-0.0","A2MQMMCVZJTFL2","img_art/10.jpg","2","","","","","","","","","","","","","","","","","","","","","","","","",""
"null","","html-keyboard-response","167","655184","0.0-165.0","A2MQMMCVZJTFL2","<p style=""font-size: 48px;"">+</p>","","","","","null","allTrialResponses","1000","1","17","img_art/10.jpg","-1","Interesting juxtaposition","Leah,Kelly,Jenna,Katherine,Jordan,Chloe","Dark with no object, looks like experimentation, slightly like a storm on the ocean,-21,360,20","I cant tell what this is supposed to be, but I enjoy the simplicity of it.,28,220,20","this piece is okay. I wish it was more colorful, but it is certainly intriguing.,23,360,20","This is pretty rad. The outline looks like a music staff,15,120,20","I dont like it, there is too much going on,-19,20,20","Don't like the colorblock but the lines are nice,-20,220,20","Leah","Dark with no object, looks like experimentation, slightly like a storm on the ocean,-21,360,20","Kelly","I cant tell what this is supposed to be, but I enjoy the simplicity of it.,28,220,20","Jenna","this piece is okay. I wish it was more colorful, but it is certainly intriguing.,23,360,20","3"
"12459","","survey-text","168","667662","0.0-166.0-0.0","A2MQMMCVZJTFL2","","","","{""Q0"":""Reminds me of a skeleton.  Don't like it.""}","","","","","","","","","","","","","","","","","","","","","","",""
"2847.7999999523163","","image-slider-response","169","670512","0.0-167.0","A2MQMMCVZJTFL2","","","","","-27","","","","","","","","","","","","","","","","","","","","","",""
"null","","image-button-response","170","675590","0.0-168.0","A2MQMMCVZJTFL2","img_art/25.jpg","null","","","","","","","","","","","","","","","","","","","","","","","","",""
"34260","","image-button-response","171","709853","0.0-169.0","A2MQMMCVZJTFL2","img_art/25.jpg","0","","","","","","","","","","","","","","","","","","","","","","","","",""
"433","","image-button-response","172","710288","0.0-170.0-0.0","A2MQMMCVZJTFL2","img_art/25.jpg","1","","","","","","","","","","","","","","","","","","","","","","","","",""
"831","","image-button-response","173","711121","0.0-171.0-0.0","A2MQMMCVZJTFL2","img_art/25.jpg","2","","","","","","","","","","","","","","","","","","","","","","","","",""
"null","","html-keyboard-response","174","712123","0.0-172.0","A2MQMMCVZJTFL2","<p style=""font-size: 48px;"">+</p>","","","","","null","allTrialResponses","1000","1","18","img_art/25.jpg","-27","Reminds me of a skeleton.  Don't like it.","Leah,Kelly,Jenna,Kimberly,Victoria,Breanna","I really like it, very simple, very tribal,38,360,20","I love the color. I don't know what exactly is going on but I like it.,24,220,20","beautiful in a primitive way,10,360,20","Cult-like, which to me makes it kind of creepy,-21,260,20","makes me think of a scary movie,-20,400,20","Makes me feel intrigued,13,380,20","Leah","I really like it, very simple, very tribal,38,360,20","Kelly","I love the color. I don't know what exactly is going on but I like it.,24,220,20","Jenna","beautiful in a primitive way,10,360,20","3"
"7667","","survey-text","175","719808","0.0-173.0-0.0","A2MQMMCVZJTFL2","","","","{""Q0"":""Pretty, looks like flowers.""}","","","","","","","","","","","","","","","","","","","","","","",""
"2530.4000000953674","","image-slider-response","176","722339","0.0-174.0","A2MQMMCVZJTFL2","","","","","12","","","","","","","","","","","","","","","","","","","","","",""
"null","","image-button-response","177","727592","0.0-175.0","A2MQMMCVZJTFL2","img_art/14.jpg","null","","","","","","","","","","","","","","","","","","","","","","","","",""
"11607","","image-button-response","178","739203","0.0-176.0","A2MQMMCVZJTFL2","img_art/14.jpg","0","","","","","","","","","","","","","","","","","","","","","","","","",""
"514","","image-button-response","179","739719","0.0-177.0-0.0","A2MQMMCVZJTFL2","img_art/14.jpg","1","","","","","","","","","","","","","","","","","","","","","","","","",""
"562","","image-button-response","180","740283","0.0-178.0-0.0","A2MQMMCVZJTFL2","img_art/14.jpg","2","","","","","","","","","","","","","","","","","","","","","","","","",""
"null","","html-keyboard-response","181","741298","0.0-179.0","A2MQMMCVZJTFL2","<p style=""font-size: 48px;"">+</p>","","","","","null","allTrialResponses","1000","1","19","img_art/14.jpg","12","Pretty, looks like flowers.","Leah,Kelly,Jenna,Elizabeth,Erika,Monica","I like the simplicity along with the colors,27,360,20","Its cute, but not my favorite.,8,220,20","love the colors. despite their brightness it seems sad somehow.,41,360,20","Love the abstractness of this painting,39,20,20","It's alright, something I'd see in a guest bedroom,10,100,20","Just don't like it, maybe it's the bleeding colors on the left of the tree-looking thing in the center or the faded background,-10,360,20","Leah","I like the simplicity along with the colors,27,360,20","Kelly","Its cute, but not my favorite.,8,220,20","Jenna","love the colors. despite their brightness it seems sad somehow.,41,360,20","3"
"7371","","survey-text","182","748686","0.0-180.0-0.0","A2MQMMCVZJTFL2","","","","{""Q0"":""Wow, this one is very cool!""}","","","","","","","","","","","","","","","","","","","","","","",""
"2910.0999999046326","","image-slider-response","183","751598","0.0-181.0","A2MQMMCVZJTFL2","","","","","18","","","","","","","","","","","","","","","","","","","","","",""
"null","","image-button-response","184","757596","0.0-182.0","A2MQMMCVZJTFL2","img_art/8.jpg","null","","","","","","","","","","","","","","","","","","","","","","","","",""
"9734","","image-button-response","185","767332","0.0-183.0","A2MQMMCVZJTFL2","img_art/8.jpg","1","","","","","","","","","","","","","","","","","","","","","","","","",""
"628","","image-button-response","186","767963","0.0-184.0-0.0","A2MQMMCVZJTFL2","img_art/8.jpg","2","","","","","","","","","","","","","","","","","","","","","","","","",""
"1737","","image-button-response","187","769702","0.0-185.0-0.0","A2MQMMCVZJTFL2","img_art/8.jpg","4","","","","","","","","","","","","","","","","","","","","","","","","",""
"null","","html-keyboard-response","188","771205","0.0-186.0","A2MQMMCVZJTFL2","<p style=""font-size: 48px;"">+</p>","","","","","null","allTrialResponses","1500","1","20","img_art/8.jpg","18","Wow, this one is very cool!","Leah,Kelly,Jenna,Megan,Chelsea,Cassandra","Nice formats, I just don't like it much,-16,360,20","Interesting, i really like the face and the moon. Realy detailed and you see something new with each look.,11,220,20","beautiful colors & details. love the surrealism & strange angle. the faces are interesting.,50,360,20","Cortez's influence with fair color choices,10,200,20","It looks like it took a lot of time to complete.,34,180,20","I like the colors and the scene.,24,120,20","Kelly","Interesting, i really like the face and the moon. Realy detailed and you see something new with each look.,11,220,20","Jenna","beautiful colors & details. love the surrealism & strange angle. the faces are interesting.,50,360,20","Chelsea","It looks like it took a lot of time to complete.,34,180,20","3"
"1704","","survey-text","189","772943","0.0-187.0-0.0","A2MQMMCVZJTFL2","","","","{""Q0"":""we""}","","","","","","","","","","","","","","","","","","","","","","",""
"10575","","survey-text","190","783519","0.0-188.0-0.0","A2MQMMCVZJTFL2","","","","{""Q0"":""Not really something I like that much.""}","","","","","","","","","","","","","","","","","","","","","","",""
"2850.0999999046326","","image-slider-response","191","786370","0.0-189.0","A2MQMMCVZJTFL2","","","","","-30","","","","","","","","","","","","","","","","","","","","","",""
"null","","image-button-response","192","791605","0.0-190.0","A2MQMMCVZJTFL2","img_art/21.jpg","null","","","","","","","","","","","","","","","","","","","","","","","","",""
"35220","","image-button-response","193","826828","0.0-191.0","A2MQMMCVZJTFL2","img_art/21.jpg","0","","","","","","","","","","","","","","","","","","","","","","","","",""
"748","","image-button-response","194","827579","0.0-192.0-0.0","A2MQMMCVZJTFL2","img_art/21.jpg","1","","","","","","","","","","","","","","","","","","","","","","","","",""
"586","","image-button-response","195","828167","0.0-193.0-0.0","A2MQMMCVZJTFL2","img_art/21.jpg","2","","","","","","","","","","","","","","","","","","","","","","","","",""
"null","","html-keyboard-response","196","828668","0.0-194.0","A2MQMMCVZJTFL2","<p style=""font-size: 48px;"">+</p>","","","","","null","allTrialResponses","500","1","21","img_art/21.jpg","-30","Not really something I like that much.","Emily,Kelly,Jenna,Nicole,Chelsea,Leslie","What's the point?,-30,40,20","It actually reminded me of a place I've been to. So I had a positive reaction to it.,22,220,20","beautiful. reminds me of a storm brewing over sea. i love the white dots.,45,360,20","Makes me think of a natural disaster but I love how it looks. Makes you think,30,20,20","I like the colors. It looks dramatic.,5,180,20","The colors make me think of a perilous scene at sea, and are pretty interesting.,15,380,20","Emily","What's the point?,-30,40,20","Kelly","It actually reminded me of a place I've been to. So I had a positive reaction to it.,22,220,20","Jenna","beautiful. reminds me of a storm brewing over sea. i love the white dots.,45,360,20","3"
"6606","","survey-text","197","835279","0.0-195.0-0.0","A2MQMMCVZJTFL2","","","","{""Q0"":""Reminds me of a cotton gin""}","","","","","","","","","","","","","","","","","","","","","","",""
"3897","","image-slider-response","198","839177","0.0-196.0","A2MQMMCVZJTFL2","","","","","3","","","","","","","","","","","","","","","","","","","","","",""
"null","","image-button-response","199","844595","0.0-197.0","A2MQMMCVZJTFL2","img_art/27.jpg","null","","","","","","","","","","","","","","","","","","","","","","","","",""
"20193","","image-button-response","200","864791","0.0-198.0","A2MQMMCVZJTFL2","img_art/27.jpg","2","","","","","","","","","","","","","","","","","","","","","","","","",""
"339","","image-button-response","201","865133","0.0-199.0-0.0","A2MQMMCVZJTFL2","img_art/27.jpg","1","","","","","","","","","","","","","","","","","","","","","","","","",""
"809","","image-button-response","202","865943","0.0-200.0-0.0","A2MQMMCVZJTFL2","img_art/27.jpg","3","","","","","","","","","","","","","","","","","","","","","","","","",""
"null","","html-keyboard-response","203","866958","0.0-201.0","A2MQMMCVZJTFL2","<p style=""font-size: 48px;"">+</p>","","","","","null","allTrialResponses","1000","1","22","img_art/27.jpg","3","Reminds me of a cotton gin","Emily,Kelly,Jenna,Jessica,Jacqueline,Sophia","Anyone could do that.,-31,40,20","The green stick drawings or whatever they are ruin it for me.,-23,220,20","the green & white scribbles feel childlike. perhaps the quality of the photo, but the colors are gloomy.,-13,360,20","Don't get the point of this piece that much, but it doesn't bug me,1,400,20","I don't really see anything to this art.,-5,300,20","Yikes. I think I made this in kindergarten.,-20,280,20","Jenna","the green & white scribbles feel childlike. perhaps the quality of the photo, but the colors are gloomy.,-13,360,20","Kelly","The green stick drawings or whatever they are ruin it for me.,-23,220,20","Jessica","Don't get the point of this piece that much, but it doesn't bug me,1,400,20","3"
"11436","","survey-text","204","878415","0.0-202.0-0.0","A2MQMMCVZJTFL2","","","","{""Q0"":""Looks like a person talking to an elephant""}","","","","","","","","","","","","","","","","","","","","","","",""
"2802.7000000476837","","image-slider-response","205","881219","0.0-203.0","A2MQMMCVZJTFL2","","","","","-6","","","","","","","","","","","","","","","","","","","","","",""
"null","","image-button-response","206","886237","0.0-204.0","A2MQMMCVZJTFL2","img_art/28.jpg","null","","","","","","","","","","","","","","","","","","","","","","","","",""
"2803","","image-button-response","207","889043","0.0-205.0","A2MQMMCVZJTFL2","img_art/28.jpg","0","","","","","","","","","","","","","","","","","","","","","","","","",""
"583","","image-button-response","208","889627","0.0-206.0-0.0","A2MQMMCVZJTFL2","img_art/28.jpg","1","","","","","","","","","","","","","","","","","","","","","","","","",""
"658","","image-button-response","209","890287","0.0-207.0-0.0","A2MQMMCVZJTFL2","img_art/28.jpg","2","","","","","","","","","","","","","","","","","","","","","","","","",""
"null","","html-keyboard-response","210","892596","0.0-208.0","A2MQMMCVZJTFL2","<p style=""font-size: 48px;"">+</p>","","","","","null","allTrialResponses","1500","1","23","img_art/28.jpg","-6","Looks like a person talking to an elephant","Mikayla,Kelly,Jenna,Jessica,Vanessa,Mary","It gives me weird vibes.,-25,300,20","This one is too bleak, not a fan of the image or colors.,-28,220,20","looks like humanoid figures in distress. I like it, but makes me slightly uncomfortable,35,360,20","I can't tell what's going on but it looks a little bit more lively at least,7,400,20","It's such a blah piece and way too abstract.,-50,380,20","The colors are really ugly. They do not compliment each other well.,-45,180,20","Mikayla","It gives me weird vibes.,-25,300,20","Kelly","This one is too bleak, not a fan of the image or colors.,-28,220,20","Jenna","looks like humanoid figures in distress. I like it, but makes me slightly uncomfortable,35,360,20","3"
"23357","","survey-text","211","915966","0.0-209.0-0.0","A2MQMMCVZJTFL2","","","","{""Q0"":""Pointless.""}","","","","","","","","","","","","","","","","","","","","","","",""
"2856.600000143051","","image-slider-response","212","918824","0.0-210.0","A2MQMMCVZJTFL2","","","","","-48","","","","","","","","","","","","","","","","","","","","","",""
"null","","image-button-response","213","924605","0.0-211.0","A2MQMMCVZJTFL2","img_art/13.jpg","null","","","","","","","","","","","","","","","","","","","","","","","","",""
"10676","","image-button-response","214","935284","0.0-212.0","A2MQMMCVZJTFL2","img_art/13.jpg","3","","","","","","","","","","","","","","","","","","","","","","","","",""
"512","","image-button-response","215","935798","0.0-213.0-0.0","A2MQMMCVZJTFL2","img_art/13.jpg","4","","","","","","","","","","","","","","","","","","","","","","","","",""
"1022","","image-button-response","216","936823","0.0-214.0-0.0","A2MQMMCVZJTFL2","img_art/13.jpg","5","","","","","","","","","","","","","","","","","","","","","","","","",""
"null","","html-keyboard-response","217","938603","0.0-215.0","A2MQMMCVZJTFL2","<p style=""font-size: 48px;"">+</p>","","","","","null","allTrialResponses","1500","1","24","img_art/13.jpg","-48","Pointless.","Mikayla,Kelly,Jenna,Kaylee,Sierra,Cynthia","My favorite!,47,300,20","I would hang this photo in my room.,21,220,20","exciting & chaotic. love the colors.,50,360,20","its crazy to the point that i cant get it,-28,200,20","the blues are soothing but the splatters are too much,-3,260,20","It reminds me of rain,11,320,20","Kaylee","its crazy to the point that i cant get it,-28,200,20","Sierra","the blues are soothing but the splatters are too much,-3,260,20","Cynthia","It reminds me of rain,11,320,20","3"
"6731","","survey-text","218","945359","0.0-216.0-0.0","A2MQMMCVZJTFL2","","","","{""Q0"":""I don't like the blocking""}","","","","","","","","","","","","","","","","","","","","","","",""
"2698.2000000476837","","image-slider-response","219","948058","0.0-217.0","A2MQMMCVZJTFL2","","","","","-12","","","","","","","","","","","","","","","","","","","","","",""
"null","","image-button-response","220","953602","0.0-218.0","A2MQMMCVZJTFL2","img_art/22.jpg","null","","","","","","","","","","","","","","","","","","","","","","","","",""
"29695","","image-button-response","221","983300","0.0-219.0","A2MQMMCVZJTFL2","img_art/22.jpg","0","","","","","","","","","","","","","","","","","","","","","","","","",""
"603","","image-button-response","222","983904","0.0-220.0-0.0","A2MQMMCVZJTFL2","img_art/22.jpg","2","","","","","","","","","","","","","","","","","","","","","","","","",""
"813","","image-button-response","223","984718","0.0-221.0-0.0","A2MQMMCVZJTFL2","img_art/22.jpg","4","","","","","","","","","","","","","","","","","","","","","","","","",""
"null","","html-keyboard-response","224","986220","0.0-222.0","A2MQMMCVZJTFL2","<p style=""font-size: 48px;"">+</p>","","","","","null","allTrialResponses","1500","1","25","img_art/22.jpg","-12","I don't like the blocking","Caitlin,Stephanie,Diana,Kaylee,Sierra,Cynthia","Looks like the kind of art I would see at the doctor's office.,-5,80,20","I don't get much of a reaction.,11,300,20","I think the colors are beautiful they remind me of a sunset.,13,380,20","its just ugly for me,-50,200,20","colorful. but not much happening,1,260,20","A key to the unknown,15,320,20","Caitlin","Looks like the kind of art I would see at the doctor's office.,-5,80,20","Diana","I think the colors are beautiful they remind me of a sunset.,13,380,20","Sierra","colorful. but not much happening,1,260,20","3"
"4327","","survey-text","225","990589","0.0-223.0-0.0","A2MQMMCVZJTFL2","","","","{""Q0"":""table""}","","","","","","","","","","","","","","","","","","","","","","",""
"12224","","survey-text","226","1002814","0.0-224.0-0.0","A2MQMMCVZJTFL2","","","","{""Q0"":""I don't understand what this is supposed to be""}","","","","","","","","","","","","","","","","","","","","","","",""
"2981.100000143051","","image-slider-response","227","1005796","0.0-225.0","A2MQMMCVZJTFL2","","","","","-11","","","","","","","","","","","","","","","","","","","","","",""
"null","","image-button-response","228","1011593","0.0-226.0","A2MQMMCVZJTFL2","img_art/1.jpg","null","","","","","","","","","","","","","","","","","","","","","","","","",""
"6962","","image-button-response","229","1018559","0.0-227.0","A2MQMMCVZJTFL2","img_art/1.jpg","4","","","","","","","","","","","","","","","","","","","","","","","","",""
"804","","image-button-response","230","1019365","0.0-228.0-0.0","A2MQMMCVZJTFL2","img_art/1.jpg","1","","","","","","","","","","","","","","","","","","","","","","","","",""
"1532","","image-button-response","231","1020899","0.0-229.0-0.0","A2MQMMCVZJTFL2","img_art/1.jpg","2","","","","","","","","","","","","","","","","","","","","","","","","",""
"null","","html-keyboard-response","232","1022400","0.0-230.0","A2MQMMCVZJTFL2","<p style=""font-size: 48px;"">+</p>","","","","","null","allTrialResponses","1500","1","26","img_art/1.jpg","-11","I don't understand what this is supposed to be","Caitlin,Alicia,Diana,Erica,Sierra,Grace","Deja vu. Haven't I seen this one before? Not bad for those living in the backwoods.,10,80,20","just colors mixed together. not interesting.,5,120,20","Might be a person rowing their boat across the lake. Not sure if the background is trees or not.,12,380,20","Makes me warm and relaxed,38,80,20","there isnt anything clear to look at,-2,260,20","Again, like the colors & abstractness.,29,180,20","Sierra","there isnt anything clear to look at,-2,260,20","Alicia","just colors mixed together. not interesting.,5,120,20","Diana","Might be a person rowing their boat across the lake. Not sure if the background is trees or not.,12,380,20","3"
"10099","","survey-text","233","1032527","0.0-231.0-0.0","A2MQMMCVZJTFL2","","","","{""Q0"":""This looks like a fingerpainting a child would make""}","","","","","","","","","","","","","","","","","","","","","","",""
"2760.100000143051","","image-slider-response","234","1035289","0.0-232.0","A2MQMMCVZJTFL2","","","","","-9","","","","","","","","","","","","","","","","","","","","","",""
"null","","image-button-response","235","1040596","0.0-233.0","A2MQMMCVZJTFL2","img_art/30.jpg","null","","","","","","","","","","","","","","","","","","","","","","","","",""
"7140","","image-button-response","236","1047739","0.0-234.0","A2MQMMCVZJTFL2","img_art/30.jpg","1","","","","","","","","","","","","","","","","","","","","","","","","",""
"1162","","image-button-response","237","1048903","0.0-235.0-0.0","A2MQMMCVZJTFL2","img_art/30.jpg","3","","","","","","","","","","","","","","","","","","","","","","","","",""
"514","","image-button-response","238","1049419","0.0-236.0-0.0","A2MQMMCVZJTFL2","img_art/30.jpg","4","","","","","","","","","","","","","","","","","","","","","","","","",""
"null","","html-keyboard-response","239","1049921","0.0-237.0","A2MQMMCVZJTFL2","<p style=""font-size: 48px;"">+</p>","","","","","null","allTrialResponses","500","1","27","img_art/30.jpg","-9","This looks like a fingerpainting a child would make","Danielle,Alicia,Diana,Abigail,Sierra,Anna","It's okay. It should either have stuck to the grey-blue, or added more red. Seems unorganized (maybe that's the point?),-9,340,20","Neat, but simple, I could make this. not skilled.,9,120,20","I love the color contrast of the red against the blue.,9,380,20","Combination of colors arent good,-6,20,20","i dont like how the colors are mixed,-6,260,20","It looks like a pretty but unremarkable painting in a doctors office,15,300,20","Alicia","Neat, but simple, I could make this. not skilled.,9,120,20","Abigail","Combination of colors arent good,-6,20,20","Sierra","i dont like how the colors are mixed,-6,260,20","3"
"11095","","survey-text","240","1061055","0.0-238.0-0.0","A2MQMMCVZJTFL2","","","","{""Q0"":""Looks like a roller coaster at an amusement park""}","","","","","","","","","","","","","","","","","","","","","","",""
"3574.4000000953674","","image-slider-response","241","1064631","0.0-239.0","A2MQMMCVZJTFL2","","","","","2","","","","","","","","","","","","","","","","","","","","","",""
"null","","image-button-response","242","1070598","0.0-240.0","A2MQMMCVZJTFL2","img_art/11.jpg","null","","","","","","","","","","","","","","","","","","","","","","","","",""
"23589","","image-button-response","243","1094191","0.0-241.0","A2MQMMCVZJTFL2","img_art/11.jpg","4","","","","","","","","","","","","","","","","","","","","","","","","",""
"2572","","image-button-response","244","1096765","0.0-242.0-0.0","A2MQMMCVZJTFL2","img_art/11.jpg","0","","","","","","","","","","","","","","","","","","","","","","","","",""
"574","","image-button-response","245","1097341","0.0-243.0-0.0","A2MQMMCVZJTFL2","img_art/11.jpg","1","","","","","","","","","","","","","","","","","","","","","","","","",""
"null","","html-keyboard-response","246","1098843","0.0-244.0","A2MQMMCVZJTFL2","<p style=""font-size: 48px;"">+</p>","","","","","null","allTrialResponses","1500","1","28","img_art/11.jpg","2","Looks like a roller coaster at an amusement park","Cheyenne,Alicia,Alexandra,Abigail,Sierra,Courtney","Very good use of colors,44,200,20","dna, odd but nice.,25,120,20","I normally would not like this photo, but the design is nice.,21,60,20","Rainy highways in RI,20,20,20","i like the colors and patters and waves,5,260,20","Thats a creepy old rollercoasters abandoned,-2,280,20","Sierra","i like the colors and patters and waves,5,260,20","Cheyenne","Very good use of colors,44,200,20","Alicia","dna, odd but nice.,25,120,20","3"
"11405","","survey-text","247","1110271","0.0-245.0-0.0","A2MQMMCVZJTFL2","","","","{""Q0"":""Looks like a box of french fries from mcdonald's""}","","","","","","","","","","","","","","","","","","","","","","",""
"4121.799999952316","","image-slider-response","248","1114394","0.0-246.0","A2MQMMCVZJTFL2","","","","","2","","","","","","","","","","","","","","","","","","","","","",""
"null","","image-button-response","249","1119610","0.0-247.0","A2MQMMCVZJTFL2","img_art/4.jpg","null","","","","","","","","","","","","","","","","","","","","","","","","",""
"45641","","image-button-response","250","1165254","0.0-248.0","A2MQMMCVZJTFL2","img_art/4.jpg","3","","","","","","","","","","","","","","","","","","","","","","","","",""
"664","","image-button-response","251","1165920","0.0-249.0-0.0","A2MQMMCVZJTFL2","img_art/4.jpg","4","","","","","","","","","","","","","","","","","","","","","","","","",""
"634","","image-button-response","252","1166555","0.0-250.0-0.0","A2MQMMCVZJTFL2","img_art/4.jpg","5","","","","","","","","","","","","","","","","","","","","","","","","",""
"null","","html-keyboard-response","253","1167057","0.0-251.0","A2MQMMCVZJTFL2","<p style=""font-size: 48px;"">+</p>","","","","","null","allTrialResponses","500","1","29","img_art/4.jpg","2","Looks like a box of french fries from mcdonald's","Cheyenne,Alicia,Erin,Marissa,Sierra,Rebecca","Just doesn't look nice.,-40,200,20","ordinary, bland. unmoving.,-6,120,20","Seems simplistic,-8,120,20","I'm disappointed that such a simple piece, with very little effort spent, could be grouped with other detailed pieces,-31,160,20","it looks like a deformed hand,-9,260,20","no sorry i can't really understand,-18,100,20","Marissa","I'm disappointed that such a simple piece, with very little effort spent, could be grouped with other detailed pieces,-31,160,20","Sierra","it looks like a deformed hand,-9,260,20","Rebecca","no sorry i can't really understand,-18,100,20","3"
"11250","","survey-text","254","1178319","0.0-252.0-0.0","A2MQMMCVZJTFL2","","","","{""Q0"":""Pretty colors, looks like a big tree in a park""}","","","","","","","","","","","","","","","","","","","","","","",""
"2754.2000000476837","","image-slider-response","255","1181075","0.0-253.0","A2MQMMCVZJTFL2","","","","","14","","","","","","","","","","","","","","","","","","","","","",""
"null","","image-button-response","256","1186596","0.0-254.0","A2MQMMCVZJTFL2","img_art/26.jpg","null","","","","","","","","","","","","","","","","","","","","","","","","",""
"38465","","image-button-response","257","1225066","0.0-255.0","A2MQMMCVZJTFL2","img_art/26.jpg","1","","","","","","","","","","","","","","","","","","","","","","","","",""
"369","","image-button-response","258","1225438","0.0-256.0-0.0","A2MQMMCVZJTFL2","img_art/26.jpg","0","","","","","","","","","","","","","","","","","","","","","","","","",""
"521","","image-button-response","259","1225961","0.0-257.0-0.0","A2MQMMCVZJTFL2","img_art/26.jpg","2","","","","","","","","","","","","","","","","","","","","","","","","",""
"null","","html-keyboard-response","260","1227470","0.0-258.0","A2MQMMCVZJTFL2","<p style=""font-size: 48px;"">+</p>","","","","","null","allTrialResponses","1500","1","30","img_art/26.jpg","14","Pretty colors, looks like a big tree in a park","Gabriela,Caroline,Paige,Marissa,Sierra,Rebecca","it makes me feel normal and calm, I like the busy city street,10,140,20","Calming and relaxing,28,100,20","somewhat happy, like being outside on a nice day,30,60,20","It feels simple and pretty,12,160,20","soothing and subtle,1,260,20","love the ""lowkey"" vibrant colors that are colorful but at the same time greyscale,12,100,20","Caroline","Calming and relaxing,28,100,20","Gabriela","it makes me feel normal and calm, I like the busy city street,10,140,20","Paige","somewhat happy, like being outside on a nice day,30,60,20","3"
"4842","","image-button-response_instructions","261","1232329","0.0-259.0","A2MQMMCVZJTFL2","","0","instructions","","","","","","","","","","","","","","","","","","","","","","","",""
"1334","","image-button-response","262","1233668","0.0-260.0","A2MQMMCVZJTFL2","","0","","","","","","","","","","","","","","","","","","","","","","","","",""
