"rt","url","trial_type","trial_index","time_elapsed","internal_node_id","participant_id","stimulus","button_pressed","Name","responses","response","key_press","variableName","fixationTime","condition","trial","photo","subjectRating","subjectResponse","agentsNames","agent_1_Response","agent_2_Response","agent_3_Response","agent_4_Response","agent_5_Response","agent_6_Response","kept_1_name","kept_1_response","kept_2_name","kept_2_response","kept_3_name","kept_3_response","errorCounter"
"40604","external_page_harvard.html","external-html","0","40730","0.0-0.0","A2N4DD7IS7EI2D","","","","","","","","","","","","","","","","","","","","","","","","","","",""
"1616","","image-button-response","1","42348","0.0-1.0","A2N4DD7IS7EI2D","","0","","","","","","","","","","","","","","","","","","","","","","","","",""
"3476","","image-button-response","2","45831","0.0-2.0-0.0","A2N4DD7IS7EI2D","","1","phone","","","","","","","","","","","","","","","","","","","","","","","",""
"6250","","survey-text","3","52085","0.0-3.0-0.0","A2N4DD7IS7EI2D","","","","{""Q0"":""A2N4DD7IS7EI2D""}","","","","","","","","","","","","","","","","","","","","","","",""
"80880","","image-button-response_instructions","4","132967","0.0-4.0","A2N4DD7IS7EI2D","","0","instructions","","","","","","","","","","","","","","","","","","","","","","","",""
"45110","","image-button-response_instructions","5","178078","0.0-5.0","A2N4DD7IS7EI2D","img_art/ins/popularity/ins1.png","0","instructions","","","","","","","","","","","","","","","","","","","","","","","",""
"12055","","image-button-response_instructions","6","190134","0.0-6.0","A2N4DD7IS7EI2D","img_art/ins/popularity/ins2.png","0","instructions","","","","","","","","","","","","","","","","","","","","","","","",""
"62416","","image-button-response_instructions","7","252554","0.0-7.0","A2N4DD7IS7EI2D","img_art/ins/popularity/ins2Extreme.png","0","instructions","","","","","","","","","","","","","","","","","","","","","","","",""
"30154","","image-button-response_instructions","8","282711","0.0-8.0","A2N4DD7IS7EI2D","img_art/ins/popularity/ins3KEEPpop.PNG","0","instructions","","","","","","","","","","","","","","","","","","","","","","","",""
"5676","","image-button-response_instructions","9","288387","0.0-9.0","A2N4DD7IS7EI2D","img_art/ins/popularity/ins3ANamepop.PNG","0","instructions","","","","","","","","","","","","","","","","","","","","","","","",""
"245819","","image-button-response_instructions","10","534208","0.0-10.0","A2N4DD7IS7EI2D","img_art/ins/popularity/ins3ARatingpop.png","0","instructions","","","","","","","","","","","","","","","","","","","","","","","",""
"15494","","image-button-response_instructions","11","549704","0.0-11.0","A2N4DD7IS7EI2D","img_art/ins/popularity/ins3ATextpop.png","0","instructions","","","","","","","","","","","","","","","","","","","","","","","",""
"29464","","image-button-response_instructions","12","579170","0.0-12.0","A2N4DD7IS7EI2D","img_art/ins/popularity/ins3ALikespop.png","0","instructions","","","","","","","","","","","","","","","","","","","","","","","",""
"35931","","image-button-response_instructions","13","615104","0.0-13.0","A2N4DD7IS7EI2D","img_art/ins/popularity/ins3KEEPpop.PNG","0","instructions","","","","","","","","","","","","","","","","","","","","","","","",""
"13840","","image-button-response_instructions","14","628947","0.0-14.0","A2N4DD7IS7EI2D","img_art/ins/popularity/ins3_5RED.png","0","instructions","","","","","","","","","","","","","","","","","","","","","","","",""
"12286","","image-button-response_instructions","15","641236","0.0-15.0","A2N4DD7IS7EI2D","img_art/ins/popularity/ins3KEEPpop.PNG","0","instructions","","","","","","","","","","","","","","","","","","","","","","","",""
"17956","","image-button-response_instructions","16","659193","0.0-16.0","A2N4DD7IS7EI2D","img_art/ins/popularity/ins4KEEPpop.PNG","0","instructions","","","","","","","","","","","","","","","","","","","","","","","",""
"13959","","image-button-response_instructions","17","673153","0.0-17.0","A2N4DD7IS7EI2D","img_art/ins/popularity/ins5KEEPpop.PNG","0","instructions","","","","","","","","","","","","","","","","","","","","","","","",""
"3444","","image-button-response_instructions","18","676599","0.0-18.0","A2N4DD7IS7EI2D","","0","instructions","","","","","","","","","","","","","","","","","","","","","","","",""
"9929","","survey-text","19","686575","0.0-19.0-0.0","A2N4DD7IS7EI2D","","","","{""Q0"":""but""}","","","","","","","","","","","","","","","","","","","","","","",""
"11671","","survey-text","20","698249","0.0-20.0-0.0","A2N4DD7IS7EI2D","","","","{""Q0"":""Calming""}","","","","","","","","","","","","","","","","","","","","","","",""
"8643.199999988079","","image-slider-response","21","706895","0.0-21.0","A2N4DD7IS7EI2D","","","","","0","","","","","","","","","","","","","","","","","","","","","",""
"null","","image-button-response","22","711900","0.0-22.0","A2N4DD7IS7EI2D","img_art/ins/1.jpg","null","","","","","","","","","","","","","","","","","","","","","","","","",""
"6201","","image-button-response","23","718105","0.0-23.0","A2N4DD7IS7EI2D","img_art/ins/1.jpg","5","","","","","","","","","","","","","","","","","","","","","","","","",""
"1261","","image-button-response","24","719370","0.0-24.0-0.0","A2N4DD7IS7EI2D","img_art/ins/1.jpg","1","","","","","","","","","","","","","","","","","","","","","","","","",""
"1315","","image-button-response","25","720689","0.0-25.0-0.0","A2N4DD7IS7EI2D","img_art/ins/1.jpg","3","","","","","","","","","","","","","","","","","","","","","","","","",""
"null","","html-keyboard-response","26","721196","0.0-26.0","A2N4DD7IS7EI2D","<p style=""font-size: 48px;"">+</p>","","","","","null","allTrialResponses","500","1","-2","img_art/ins/1.jpg","0","Calming","Adam,Alex,Ben,Carl,Daniel,Jack","Seems like doodles,-20,20,20","very creative work.,36,40,20","This color reminds me of poo,-46,60,20","very calming artwork,42,80,20","It looks like a murder scene.,-48,100,20","I like the sophisticated brushwork,40,120,20","Jack","I like the sophisticated brushwork,40,120,20","Alex","very creative work.,36,40,20","Carl","very calming artwork,42,80,20","0"
"35592","","survey-text","27","756795","0.0-27.0-0.0","A2N4DD7IS7EI2D","","","","{""Q0"":""Intrigued ""}","","","","","","","","","","","","","","","","","","","","","","",""
"6417.799999952316","","image-slider-response","28","763216","0.0-28.0","A2N4DD7IS7EI2D","","","","","0","","","","","","","","","","","","","","","","","","","","","",""
"2046","","image-button-response","29","768219","0.0-29.0","A2N4DD7IS7EI2D","img_art/ins/2.jpg","5","","","","","","","","","","","","","","","","","","","","","","","","",""
"214","","image-button-response","30","768437","0.0-30.0","A2N4DD7IS7EI2D","img_art/ins/2.jpg","5","","","","","","","","","","","","","","","","","","","","","","","","",""
"909","","image-button-response","31","769348","0.0-31.0-0.0","A2N4DD7IS7EI2D","img_art/ins/2.jpg","4","","","","","","","","","","","","","","","","","","","","","","","","",""
"10203","","image-button-response","32","779554","0.0-32.0-0.0","A2N4DD7IS7EI2D","img_art/ins/2.jpg","1","","","","","","","","","","","","","","","","","","","","","","","","",""
"null","","html-keyboard-response","33","780564","0.0-33.0","A2N4DD7IS7EI2D","<p style=""font-size: 48px;"">+</p>","","","","","null","allTrialResponses","1000","1","-1","img_art/ins/2.jpg","0","Intrigued ","James,Alex,Kyle,Carl,John,Jack","looks too angry,-50,140,20","I like the blocks of color arrangements,30,40,20","Idk, it is just annoying,-32,180,20","I can feel the artist's passion in it,45,80,20","love the texture of paint,48,160,20","I would never be able to compose a sophisticated pallete like this,48,120,20","Jack","I would never be able to compose a sophisticated pallete like this,48,120,20","John","love the texture of paint,48,160,20","Alex","I like the blocks of color arrangements,30,40,20","0"
"49161","","survey-text","34","829731","0.0-34.0-0.0","A2N4DD7IS7EI2D","","","","{""Q0"":""I like the different blues used. Reminds me of Winter a lot.""}","","","","","","","","","","","","","","","","","","","","","","",""
"17318.799999952316","","image-slider-response","35","847052","0.0-35.0","A2N4DD7IS7EI2D","","","","","50","","","","","","","","","","","","","","","","","","","","","",""
"2140","","image-button-response","36","852056","0.0-36.0","A2N4DD7IS7EI2D","img_art/ins/3.jpg","1","","","","","","","","","","","","","","","","","","","","","","","","",""
"979","","image-button-response","37","853038","0.0-37.0","A2N4DD7IS7EI2D","img_art/ins/3.jpg","1","","","","","","","","","","","","","","","","","","","","","","","","",""
"1957","","image-button-response","38","854997","0.0-38.0-0.0","A2N4DD7IS7EI2D","img_art/ins/3.jpg","3","","","","","","","","","","","","","","","","","","","","","","","","",""
"3748","","image-button-response","39","858747","0.0-39.0-0.0","A2N4DD7IS7EI2D","img_art/ins/3.jpg","0","","","","","","","","","","","","","","","","","","","","","","","","",""
"null","","html-keyboard-response","40","859250","0.0-40.0","A2N4DD7IS7EI2D","<p style=""font-size: 48px;"">+</p>","","","","","null","allTrialResponses","500","1","0","img_art/ins/3.jpg","50","I like the different blues used. Reminds me of Winter a lot.","Sam,Alex,Ron,Mike,John,Jack","I can feel a rainy day from this painting,18,240,20","calming blue is very nice,36,40,20","It looks depressing,-26,220,20","enjoy the different shades of blue,22,200,20","I like the overlapping of brushes,41,160,20","I feel connected to the artist,40,120,20","Alex","calming blue is very nice,36,40,20","Mike","enjoy the different shades of blue,22,200,20","Sam","I can feel a rainy day from this painting,18,240,20","0"
"21055","","image-button-response_instructions","41","880311","0.0-41.0","A2N4DD7IS7EI2D","","0","instructions","","","","","","","","","","","","","","","","","","","","","","","",""
"35867","","survey-likert","42","916183","0.0-42.0-0.0","A2N4DD7IS7EI2D","","","","{""Q0"":"""",""Q1"":0,""Q2"":1}","","","","","","","","","","","","","","","","","","","","","","",""
"5439","","survey-text","43","921626","0.0-43.0-0.0","A2N4DD7IS7EI2D","","","","{""Q0"":""rock""}","","","","","","","","","","","","","","","","","","","","","","",""
"63157","","survey-text","44","984784","0.0-44.0-0.0","A2N4DD7IS7EI2D","","","","{""Q0"":""Really random. Especially with the Teddy Bear""}","","","","","","","","","","","","","","","","","","","","","","",""
"5748.300000011921","","image-slider-response","45","990535","0.0-45.0","A2N4DD7IS7EI2D","","","","","0","","","","","","","","","","","","","","","","","","","","","",""
"null","","image-button-response","46","995584","0.0-46.0","A2N4DD7IS7EI2D","img_art/16.jpg","null","","","","","","","","","","","","","","","","","","","","","","","","",""
"7725","","image-button-response","47","1003311","0.0-47.0","A2N4DD7IS7EI2D","img_art/16.jpg","5","","","","","","","","","","","","","","","","","","","","","","","","",""
"34024","","image-button-response","48","1037337","0.0-48.0-0.0","A2N4DD7IS7EI2D","img_art/16.jpg","1","","","","","","","","","","","","","","","","","","","","","","","","",""
"5394","","image-button-response","49","1042734","0.0-49.0-0.0","A2N4DD7IS7EI2D","img_art/16.jpg","2","","","","","","","","","","","","","","","","","","","","","","","","",""
"null","","html-keyboard-response","50","1043737","0.0-50.0","A2N4DD7IS7EI2D","<p style=""font-size: 48px;"">+</p>","","","","","null","allTrialResponses","1000","1","1","img_art/16.jpg","0","Really random. Especially with the Teddy Bear","Dustin,Alex,Paul,Jorge,Mason,Kevin","Upsetting and disturbing. Random bear and indistinguishable objects. None of it goes together. Too chaotic and random,-50,20,20","I'm a fan of collage and of reminiscing about childhood so this was nice,10,100,20","Don't know if there's a meaning but I like how seemingly random objects were stuck together and called art,20,300,20","Dreamy and chaotic,-9,180,20","Don't get it. Hate it. ugly.,-44,100,20","Hmm i don't know what going on here.,1,320,20","Kevin","Hmm i don't know what going on here.,1,320,20","Alex","I'm a fan of collage and of reminiscing about childhood so this was nice,10,100,20","Paul","Don't know if there's a meaning but I like how seemingly random objects were stuck together and called art,20,300,20","0"
"85335","","survey-text","51","1129100","0.0-51.0-0.0","A2N4DD7IS7EI2D","","","","{""Q0"":""Not sure what is going on, but I do enjoy the different styles going on on each half""}","","","","","","","","","","","","","","","","","","","","","","",""
"4287.5","","image-slider-response","52","1133389","0.0-52.0","A2N4DD7IS7EI2D","","","","","50","","","","","","","","","","","","","","","","","","","","","",""
"null","","image-button-response","53","1138395","0.0-53.0","A2N4DD7IS7EI2D","img_art/12.jpg","null","","","","","","","","","","","","","","","","","","","","","","","","",""
"1237","","image-button-response","54","1139636","0.0-54.0","A2N4DD7IS7EI2D","img_art/12.jpg","5","","","","","","","","","","","","","","","","","","","","","","","","",""
"3084","","image-button-response","55","1142722","0.0-55.0-0.0","A2N4DD7IS7EI2D","img_art/12.jpg","2","","","","","","","","","","","","","","","","","","","","","","","","",""
"6953","","image-button-response","56","1149677","0.0-56.0-0.0","A2N4DD7IS7EI2D","img_art/12.jpg","0","","","","","","","","","","","","","","","","","","","","","","","","",""
"null","","html-keyboard-response","57","1150180","0.0-57.0","A2N4DD7IS7EI2D","<p style=""font-size: 48px;"">+</p>","","","","","null","allTrialResponses","500","1","2","img_art/12.jpg","50","Not sure what is going on, but I do enjoy the different styles going on on each half","Eric,Alex,Paul,Travis,Nathaniel,Kevin","I don't like the dark black with the bright colors, but this as a whole is nice.,25,100,20","eww hate everything about this, looks like it belongs in a dentist's office,-14,100,20","Reminds me of collages we made in elementary school. I like the contrast of the colors from top to bottom,43,300,20","Neutral...just blocks.,3,260,20","Too many blocks. I can't see a purpose or a focal point,-44,220,20","That is a warn quilt grama made.,11,320,20","Kevin","That is a warn quilt grama made.,11,320,20","Paul","Reminds me of collages we made in elementary school. I like the contrast of the colors from top to bottom,43,300,20","Eric","I don't like the dark black with the bright colors, but this as a whole is nice.,25,100,20","0"
"111768","","survey-text","58","1261953","0.0-58.0-0.0","A2N4DD7IS7EI2D","","","","{""Q0"":""I see a small tree in the middle of the painting. I do like the different colors used.""}","","","","","","","","","","","","","","","","","","","","","","",""
"4378.600000023842","","image-slider-response","59","1266337","0.0-59.0","A2N4DD7IS7EI2D","","","","","50","","","","","","","","","","","","","","","","","","","","","",""
"null","","image-button-response","60","1271350","0.0-60.0","A2N4DD7IS7EI2D","img_art/14.jpg","null","","","","","","","","","","","","","","","","","","","","","","","","",""
"14763","","image-button-response","61","1286116","0.0-61.0","A2N4DD7IS7EI2D","img_art/14.jpg","5","","","","","","","","","","","","","","","","","","","","","","","","",""
"1568","","image-button-response","62","1287687","0.0-62.0-0.0","A2N4DD7IS7EI2D","img_art/14.jpg","1","","","","","","","","","","","","","","","","","","","","","","","","",""
"2391","","image-button-response","63","1290081","0.0-63.0-0.0","A2N4DD7IS7EI2D","img_art/14.jpg","3","","","","","","","","","","","","","","","","","","","","","","","","",""
"null","","html-keyboard-response","64","1290585","0.0-64.0","A2N4DD7IS7EI2D","<p style=""font-size: 48px;"">+</p>","","","","","null","allTrialResponses","500","1","3","img_art/14.jpg","50","I see a small tree in the middle of the painting. I do like the different colors used.","Eric,Richard,Paul,Lucas,Devin,Kevin","I'm imagining a flower bouquet with pretty colors which I like.,35,100,20","the colors are peaceful and nature colors, soft,37,340,20","Just don't like it, maybe it's the bleeding colors on the left of the tree-looking thing in the center or the faded background,-10,300,20","In my opinion it's spectacular.,35,380,20","It looks nice colorwise but detail is lacking,18,380,20","The pirates ship is sinking.,27,320,20","Kevin","The pirates ship is sinking.,27,320,20","Richard","the colors are peaceful and nature colors, soft,37,340,20","Lucas","In my opinion it's spectacular.,35,380,20","0"
"40651","","survey-text","65","1331248","0.0-65.0-0.0","A2N4DD7IS7EI2D","","","","{""Q0"":""Now this is an amazing piece of art. I like the blocks and the images they form, and the face on the top left looks real cool""}","","","","","","","","","","","","","","","","","","","","","","",""
"3168.800000011921","","image-slider-response","66","1334420","0.0-66.0","A2N4DD7IS7EI2D","","","","","50","","","","","","","","","","","","","","","","","","","","","",""
"null","","image-button-response","67","1339425","0.0-67.0","A2N4DD7IS7EI2D","img_art/8.jpg","null","","","","","","","","","","","","","","","","","","","","","","","","",""
"1704","","image-button-response","68","1341133","0.0-68.0","A2N4DD7IS7EI2D","img_art/8.jpg","5","","","","","","","","","","","","","","","","","","","","","","","","",""
"1865","","image-button-response","69","1343001","0.0-69.0-0.0","A2N4DD7IS7EI2D","img_art/8.jpg","1","","","","","","","","","","","","","","","","","","","","","","","","",""
"1738","","image-button-response","70","1344742","0.0-70.0-0.0","A2N4DD7IS7EI2D","img_art/8.jpg","3","","","","","","","","","","","","","","","","","","","","","","","","",""
"null","","html-keyboard-response","71","1345250","0.0-71.0","A2N4DD7IS7EI2D","<p style=""font-size: 48px;"">+</p>","","","","","null","allTrialResponses","500","1","4","img_art/8.jpg","50","Now this is an amazing piece of art. I like the blocks and the images they form, and the face on the top left looks real cool","Cody,Richard,Hunter,Lucas,Tanner,Kevin","Love the colors & block-style,50,180,20","lots going on with great use of lots of color and geometry,24,340,20","crisp shapes, find more things the longer you look,17,240,20","Different styles make this picture outstanding.,20,380,20","mothe nature/godess, watching over you,21,180,20","Now that one is wild. Looks like maybe mother nature isnt happy.,28,320,20","Kevin","Now that one is wild. Looks like maybe mother nature isnt happy.,28,320,20","Richard","lots going on with great use of lots of color and geometry,24,340,20","Lucas","Different styles make this picture outstanding.,20,380,20","0"
"41952","","survey-text","72","1387209","0.0-72.0-0.0","A2N4DD7IS7EI2D","","","","{""Q0"":""Not liking what is going on here. Just looks like random streaks of black lines, and random foot prints slapped together.""}","","","","","","","","","","","","","","","","","","","","","","",""
"4942","","image-slider-response","73","1392153","0.0-73.0","A2N4DD7IS7EI2D","","","","","-50","","","","","","","","","","","","","","","","","","","","","",""
"null","","image-button-response","74","1397158","0.0-74.0","A2N4DD7IS7EI2D","img_art/10.jpg","null","","","","","","","","","","","","","","","","","","","","","","","","",""
"969","","image-button-response","75","1398130","0.0-75.0","A2N4DD7IS7EI2D","img_art/10.jpg","4","","","","","","","","","","","","","","","","","","","","","","","","",""
"2461","","image-button-response","76","1400593","0.0-76.0-0.0","A2N4DD7IS7EI2D","img_art/10.jpg","1","","","","","","","","","","","","","","","","","","","","","","","","",""
"3527","","image-button-response","77","1404123","0.0-77.0-0.0","A2N4DD7IS7EI2D","img_art/10.jpg","5","","","","","","","","","","","","","","","","","","","","","","","","",""
"null","","html-keyboard-response","78","1404629","0.0-78.0","A2N4DD7IS7EI2D","<p style=""font-size: 48px;"">+</p>","","","","","null","allTrialResponses","500","1","5","img_art/10.jpg","-50","Not liking what is going on here. Just looks like random streaks of black lines, and random foot prints slapped together.","Stephen,Richard,Devon,Lucas,Jason,Kevin","Very nice painting, would like it more with different color choice.,6,140,20","interesting portrayal of a violin?,10,340,20","awww... this looks very nice,32,400,20","For me, it looks like a giant ship on the sea and it's astonishing.,30,380,20","Picture looks smudged,-7,20,20","Thats a horses head,10,320,20","Jason","Picture looks smudged,-7,20,20","Richard","interesting portrayal of a violin?,10,340,20","Kevin","Thats a horses head,10,320,20","0"
"6278","","survey-text","79","1410920","0.0-79.0-0.0","A2N4DD7IS7EI2D","","","","{""Q0"":""sky""}","","","","","","","","","","","","","","","","","","","","","","",""
"44291","","survey-text","80","1455213","0.0-80.0-0.0","A2N4DD7IS7EI2D","","","","{""Q0"":""Not liking this painting. Look like random squiggles . The colors used are good though.""}","","","","","","","","","","","","","","","","","","","","","","",""
"4312.5","","image-slider-response","81","1459528","0.0-81.0","A2N4DD7IS7EI2D","","","","","0","","","","","","","","","","","","","","","","","","","","","",""
"2513","","image-button-response","82","1464530","0.0-82.0","A2N4DD7IS7EI2D","img_art/4.jpg","4","","","","","","","","","","","","","","","","","","","","","","","","",""
"865","","image-button-response","83","1465399","0.0-83.0","A2N4DD7IS7EI2D","img_art/4.jpg","4","","","","","","","","","","","","","","","","","","","","","","","","",""
"2249","","image-button-response","84","1467651","0.0-84.0-0.0","A2N4DD7IS7EI2D","img_art/4.jpg","1","","","","","","","","","","","","","","","","","","","","","","","","",""
"4288","","image-button-response","85","1471944","0.0-85.0-0.0","A2N4DD7IS7EI2D","img_art/4.jpg","3","","","","","","","","","","","","","","","","","","","","","","","","",""
"null","","html-keyboard-response","86","1472455","0.0-86.0","A2N4DD7IS7EI2D","<p style=""font-size: 48px;"">+</p>","","","","","null","allTrialResponses","500","1","6","img_art/4.jpg","0","Not liking this painting. Look like random squiggles . The colors used are good though.","Gregory,Richard,Jeremy,Marcus,Jason,Kevin","Mustard yellow doesn't do it for me,-25,220,20","too childish, not really art in my world,-50,340,20","the colors are calming,31,60,20","Really like the colors, but don't like the object/squiggle in darker gold and black,4,60,20","I don't understand this at all,3,20,20","A leaning trophy,-9,320,20","Jason","I don't understand this at all,3,20,20","Richard","too childish, not really art in my world,-50,340,20","Marcus","Really like the colors, but don't like the object/squiggle in darker gold and black,4,60,20","0"
"61133","","survey-text","87","1533595","0.0-87.0-0.0","A2N4DD7IS7EI2D","","","","{""Q0"":""I do enjoy the look of the painting. Looks like water color paint""}","","","","","","","","","","","","","","","","","","","","","","",""
"3017.800000011921","","image-slider-response","88","1536615","0.0-88.0","A2N4DD7IS7EI2D","","","","","50","","","","","","","","","","","","","","","","","","","","","",""
"3482","","image-button-response","89","1541632","0.0-89.0","A2N4DD7IS7EI2D","img_art/21.jpg","5","","","","","","","","","","","","","","","","","","","","","","","","",""
"2560","","image-button-response","90","1544199","0.0-90.0","A2N4DD7IS7EI2D","img_art/21.jpg","5","","","","","","","","","","","","","","","","","","","","","","","","",""
"2942","","image-button-response","91","1547144","0.0-91.0-0.0","A2N4DD7IS7EI2D","img_art/21.jpg","3","","","","","","","","","","","","","","","","","","","","","","","","",""
"1742","","image-button-response","92","1548890","0.0-92.0-0.0","A2N4DD7IS7EI2D","img_art/21.jpg","0","","","","","","","","","","","","","","","","","","","","","","","","",""
"null","","html-keyboard-response","93","1549394","0.0-93.0","A2N4DD7IS7EI2D","<p style=""font-size: 48px;"">+</p>","","","","","null","allTrialResponses","500","1","7","img_art/21.jpg","50","I do enjoy the look of the painting. Looks like water color paint","Jordan,Richard,Joshua,Marcus,Jason,Peter","Beautiful colors, remind me of my yoga studio,50,160,20","setting sun sky? nice colors and blending,14,340,20","Boring colors and look. Too much 1980s.,-20,240,20","I feel like I'm looking at two different paintings mashed together in the middle.,20,60,20","The division in the picture is pleasing but the random white dots are distracting,12,20,20","I like the two sides meeting, like a movie scene,15,320,20","Peter","I like the two sides meeting, like a movie scene,15,320,20","Marcus","I feel like I'm looking at two different paintings mashed together in the middle.,20,60,20","Jordan","Beautiful colors, remind me of my yoga studio,50,160,20","0"
"41206","","survey-text","94","1590610","0.0-94.0-0.0","A2N4DD7IS7EI2D","","","","{""Q0"":""Not really liking the use of a lot of green. I would like to know the thoughts around the human sleeping in the middle.""}","","","","","","","","","","","","","","","","","","","","","","",""
"6186.100000023842","","image-slider-response","95","1596798","0.0-95.0","A2N4DD7IS7EI2D","","","","","0","","","","","","","","","","","","","","","","","","","","","",""
"3307","","image-button-response","96","1601810","0.0-96.0","A2N4DD7IS7EI2D","img_art/9.jpg","4","","","","","","","","","","","","","","","","","","","","","","","","",""
"231","","image-button-response","97","1602044","0.0-97.0","A2N4DD7IS7EI2D","img_art/9.jpg","4","","","","","","","","","","","","","","","","","","","","","","","","",""
"4885","","image-button-response","98","1606932","0.0-98.0-0.0","A2N4DD7IS7EI2D","img_art/9.jpg","1","","","","","","","","","","","","","","","","","","","","","","","","",""
"2044","","image-button-response","99","1608979","0.0-99.0-0.0","A2N4DD7IS7EI2D","img_art/9.jpg","1","","","","","","","","","","","","","","","","","","","","","","","","",""
"1763","","image-button-response","100","1614814","0.0-99.1-0.1","A2N4DD7IS7EI2D","img_art/9.jpg","1","","","","","","","","","","","","","","","","","","","","","","","","",""
"4208","","image-button-response","101","1621176","0.0-99.2-0.2","A2N4DD7IS7EI2D","img_art/9.jpg","3","","","","","","","","","","","","","","","","","","","","","","","","",""
"null","","html-keyboard-response","102","1622682","0.0-100.0","A2N4DD7IS7EI2D","<p style=""font-size: 48px;"">+</p>","","","","","null","allTrialResponses","1500","1","8","img_art/9.jpg","0","Not really liking the use of a lot of green. I would like to know the thoughts around the human sleeping in the middle.","Jordan,Jake,James,Marcus,Scott,Peter","Reminds me of a cave in a scary movie,-21,160,20","The colors and image is ugly.,-7,360,20","This has some of my favorite colors, and I like it,21,380,20","This painting feels too jumbled for me to like it.,-12,60,20","looks like someone resting,12,20,20","Looks like a monster's teeth , unsettling,-18,320,20","Scott","looks like someone resting,12,20,20","Jake","The colors and image is ugly.,-7,360,20","Marcus","This painting feels too jumbled for me to like it.,-12,60,20","4"
"42921","","survey-text","103","1665610","0.0-101.0-0.0","A2N4DD7IS7EI2D","","","","{""Q0"":""I hate the green used in this painting. There are also too many dark colors used in which I am not a fan of.""}","","","","","","","","","","","","","","","","","","","","","","",""
"3204.099999964237","","image-slider-response","104","1668817","0.0-102.0","A2N4DD7IS7EI2D","","","","","-50","","","","","","","","","","","","","","","","","","","","","",""
"1651","","image-button-response","105","1673819","0.0-103.0","A2N4DD7IS7EI2D","img_art/2.jpg","1","","","","","","","","","","","","","","","","","","","","","","","","",""
"1182","","image-button-response","106","1675004","0.0-104.0","A2N4DD7IS7EI2D","img_art/2.jpg","1","","","","","","","","","","","","","","","","","","","","","","","","",""
"4581","","image-button-response","107","1679587","0.0-105.0-0.0","A2N4DD7IS7EI2D","img_art/2.jpg","3","","","","","","","","","","","","","","","","","","","","","","","","",""
"5321","","image-button-response","108","1684910","0.0-106.0-0.0","A2N4DD7IS7EI2D","img_art/2.jpg","2","","","","","","","","","","","","","","","","","","","","","","","","",""
"null","","html-keyboard-response","109","1685913","0.0-107.0","A2N4DD7IS7EI2D","<p style=""font-size: 48px;"">+</p>","","","","","null","allTrialResponses","1000","1","9","img_art/2.jpg","-50","I hate the green used in this painting. There are also too many dark colors used in which I am not a fan of.","Luke,Jake,Adam,Marcus,Scott,Jack","too abstract and confusing,-19,20,20","These colors are ugly.,-40,360,20","Hate the vomit green.,-31,40,20","Only like the blues and teals in this. The rest is unappealing.,-15,60,20","looks like a child's artwork,-40,20,20","the colors are a bit odd, and the squiggly line at the top is distracting,0,320,20","Jake","These colors are ugly.,-40,360,20","Marcus","Only like the blues and teals in this. The rest is unappealing.,-15,60,20","Adam","Hate the vomit green.,-31,40,20","4"
"26977","","survey-text","110","1712895","0.0-108.0-0.0","A2N4DD7IS7EI2D","","","","{""Q0"":""I love the color tones used in this painting. I do also enjoy the paint splatters.""}","","","","","","","","","","","","","","","","","","","","","","",""
"3503.199999988079","","image-slider-response","111","1716401","0.0-109.0","A2N4DD7IS7EI2D","","","","","50","","","","","","","","","","","","","","","","","","","","","",""
"null","","image-button-response","112","1721416","0.0-110.0","A2N4DD7IS7EI2D","img_art/13.jpg","null","","","","","","","","","","","","","","","","","","","","","","","","",""
"3268","","image-button-response","113","1724690","0.0-111.0","A2N4DD7IS7EI2D","img_art/13.jpg","2","","","","","","","","","","","","","","","","","","","","","","","","",""
"1661","","image-button-response","114","1726353","0.0-112.0-0.0","A2N4DD7IS7EI2D","img_art/13.jpg","3","","","","","","","","","","","","","","","","","","","","","","","","",""
"1001","","image-button-response","115","1727357","0.0-113.0-0.0","A2N4DD7IS7EI2D","img_art/13.jpg","0","","","","","","","","","","","","","","","","","","","","","","","","",""
"null","","html-keyboard-response","116","1728874","0.0-114.0","A2N4DD7IS7EI2D","<p style=""font-size: 48px;"">+</p>","","","","","null","allTrialResponses","1500","1","10","img_art/13.jpg","50","I love the color tones used in this painting. I do also enjoy the paint splatters.","Timothy,Jake,Adam,Marcus,Michael,Brian","Doesnt really provoke an emotional responce,0,240,20","It's too violent looking and there's too much contrast between the white/black.,-21,360,20","Generic mix of colors. Cool and messy.,10,40,20","It's okay. Feels like a blander take on a Jackson Pollack,11,60,20","I don't car for it but it does seem organized and like it took considereably more skill that others.,9,140,20","I don't really care for splatter paintings; the spectral colors underneath are nice.,-18,380,20","Adam","Generic mix of colors. Cool and messy.,10,40,20","Marcus","It's okay. Feels like a blander take on a Jackson Pollack,11,60,20","Timothy","Doesnt really provoke an emotional responce,0,240,20","4"
"4705","","survey-text","117","1733591","0.0-115.0-0.0","A2N4DD7IS7EI2D","","","","{""Q0"":""our""}","","","","","","","","","","","","","","","","","","","","","","",""
"64435","","survey-text","118","1798028","0.0-116.0-0.0","A2N4DD7IS7EI2D","","","","{""Q0"":""This painting is amazing. It looks like a knight on a horse getting ready for battle""}","","","","","","","","","","","","","","","","","","","","","","",""
"3259.399999976158","","image-slider-response","119","1801290","0.0-117.0","A2N4DD7IS7EI2D","","","","","50","","","","","","","","","","","","","","","","","","","","","",""
"null","","image-button-response","120","1806298","0.0-118.0","A2N4DD7IS7EI2D","img_art/18.jpg","null","","","","","","","","","","","","","","","","","","","","","","","","",""
"2339","","image-button-response","121","1808640","0.0-119.0","A2N4DD7IS7EI2D","img_art/18.jpg","1","","","","","","","","","","","","","","","","","","","","","","","","",""
"1017","","image-button-response","122","1809659","0.0-120.0-0.0","A2N4DD7IS7EI2D","img_art/18.jpg","2","","","","","","","","","","","","","","","","","","","","","","","","",""
"6138","","image-button-response","123","1815800","0.0-121.0-0.0","A2N4DD7IS7EI2D","img_art/18.jpg","3","","","","","","","","","","","","","","","","","","","","","","","","",""
"null","","html-keyboard-response","124","1817309","0.0-122.0","A2N4DD7IS7EI2D","<p style=""font-size: 48px;"">+</p>","","","","","null","allTrialResponses","1500","1","11","img_art/18.jpg","50","This painting is amazing. It looks like a knight on a horse getting ready for battle","Timothy,Jesus,Adam,Marcus,Dakota,Corey","This gives a very ominous feeling,-30,240,20","The shapes are very fun to interpret,30,100,20","Colors are okay. Reminds me of cavalry.,10,40,20","like the grays and contrast of the yellow. This piece feels a bit angry,10,60,20","afraid and anxious,21,280,20","reminds me of dying at sea in the 1700s,-8,260,20","Jesus","The shapes are very fun to interpret,30,100,20","Adam","Colors are okay. Reminds me of cavalry.,10,40,20","Marcus","like the grays and contrast of the yellow. This piece feels a bit angry,10,60,20","4"
"37414","","survey-text","125","1854728","0.0-123.0-0.0","A2N4DD7IS7EI2D","","","","{""Q0"":""Not liking the amount of black used in this painting. I wish more colors were used.""}","","","","","","","","","","","","","","","","","","","","","","",""
"5186.699999988079","","image-slider-response","126","1859917","0.0-124.0","A2N4DD7IS7EI2D","","","","","0","","","","","","","","","","","","","","","","","","","","","",""
"null","","image-button-response","127","1864927","0.0-125.0","A2N4DD7IS7EI2D","img_art/15.jpg","null","","","","","","","","","","","","","","","","","","","","","","","","",""
"36408","","image-button-response","128","1901337","0.0-126.0","A2N4DD7IS7EI2D","img_art/15.jpg","0","","","","","","","","","","","","","","","","","","","","","","","","",""
"6124","","image-button-response","129","1907466","0.0-127.0-0.0","A2N4DD7IS7EI2D","img_art/15.jpg","4","","","","","","","","","","","","","","","","","","","","","","","","",""
"6455","","image-button-response","130","1913924","0.0-128.0-0.0","A2N4DD7IS7EI2D","img_art/15.jpg","1","","","","","","","","","","","","","","","","","","","","","","","","",""
"null","","html-keyboard-response","131","1915436","0.0-129.0","A2N4DD7IS7EI2D","<p style=""font-size: 48px;"">+</p>","","","","","null","allTrialResponses","1500","1","12","img_art/15.jpg","0","Not liking the amount of black used in this painting. I wish more colors were used.","Cameron,Jesus,Adam,Marcus,Nathan,William","This one reminds me of a postage stamp, but branches and leaves. Kind of fun.,15,60,20","I like the colors and textures.,32,100,20","Eyes hunt for the blue in the black.,5,40,20","Interesting, but don't really like it. Gloomy.,-10,60,20","This is pretty nice, reminds me of dark peacock feathers, or perhaps a bush with berries in it?,15,200,20","makes me feel calm,40,380,20","Cameron","This one reminds me of a postage stamp, but branches and leaves. Kind of fun.,15,60,20","Nathan","This is pretty nice, reminds me of dark peacock feathers, or perhaps a bush with berries in it?,15,200,20","Jesus","I like the colors and textures.,32,100,20","4"
"44638","","survey-text","132","1960082","0.0-130.0-0.0","A2N4DD7IS7EI2D","","","","{""Q0"":""I have no idea what the Artist is trying to convey here. I am also not liking the Yellow. The painting is also dirty with the smudges""}","","","","","","","","","","","","","","","","","","","","","","",""
"3164.5","","image-slider-response","133","1963249","0.0-131.0","A2N4DD7IS7EI2D","","","","","-50","","","","","","","","","","","","","","","","","","","","","",""
"4895","","image-button-response","134","1968263","0.0-132.0","A2N4DD7IS7EI2D","img_art/5.jpg","0","","","","","","","","","","","","","","","","","","","","","","","","",""
"634","","image-button-response","135","1968899","0.0-133.0","A2N4DD7IS7EI2D","img_art/5.jpg","0","","","","","","","","","","","","","","","","","","","","","","","","",""
"6335","","image-button-response","136","1975236","0.0-134.0-0.0","A2N4DD7IS7EI2D","img_art/5.jpg","1","","","","","","","","","","","","","","","","","","","","","","","","",""
"3712","","image-button-response","137","1978951","0.0-135.0-0.0","A2N4DD7IS7EI2D","img_art/5.jpg","3","","","","","","","","","","","","","","","","","","","","","","","","",""
"null","","html-keyboard-response","138","1979955","0.0-136.0","A2N4DD7IS7EI2D","<p style=""font-size: 48px;"">+</p>","","","","","null","allTrialResponses","1000","1","13","img_art/5.jpg","-50","I have no idea what the Artist is trying to convey here. I am also not liking the Yellow. The painting is also dirty with the smudges","Cameron,Jesus,Juan,Kyle,Nathan,Shawn","No. What even is this? A mop?,-35,60,20","Overpowering colors.,-26,100,20","The yellow is garish and the picture doesn't look liked anything.,-49,260,20","Not sure what to say about this piece honestly. It's okay I guess.,0,340,20","Not a fan of the themes,-30,200,20","Black stripe looks violent,-31,100,20","Cameron","No. What even is this? A mop?,-35,60,20","Jesus","Overpowering colors.,-26,100,20","Kyle","Not sure what to say about this piece honestly. It's okay I guess.,0,340,20","4"
"35792","","survey-text","139","2015753","0.0-137.0-0.0","A2N4DD7IS7EI2D","","","","{""Q0"":""I like the colors used in this painting. I also like the random brush strokes used and the Red standing out from the painting.""}","","","","","","","","","","","","","","","","","","","","","","",""
"3046.900000035763","","image-slider-response","140","2018803","0.0-138.0","A2N4DD7IS7EI2D","","","","","50","","","","","","","","","","","","","","","","","","","","","",""
"4279","","image-button-response","141","2023810","0.0-139.0","A2N4DD7IS7EI2D","img_art/30.jpg","5","","","","","","","","","","","","","","","","","","","","","","","","",""
"553","","image-button-response","142","2024365","0.0-140.0","A2N4DD7IS7EI2D","img_art/30.jpg","5","","","","","","","","","","","","","","","","","","","","","","","","",""
"1266","","image-button-response","143","2025635","0.0-141.0-0.0","A2N4DD7IS7EI2D","img_art/30.jpg","1","","","","","","","","","","","","","","","","","","","","","","","","",""
"1984","","image-button-response","144","2027622","0.0-142.0-0.0","A2N4DD7IS7EI2D","img_art/30.jpg","0","","","","","","","","","","","","","","","","","","","","","","","","",""
"null","","html-keyboard-response","145","2028625","0.0-143.0","A2N4DD7IS7EI2D","<p style=""font-size: 48px;"">+</p>","","","","","null","allTrialResponses","1000","1","14","img_art/30.jpg","50","I like the colors used in this painting. I also like the random brush strokes used and the Red standing out from the painting.","Cameron,Jesus,Bradley,Kyle,Jonathan,David","Like the color and style,31,60,20","I like the forefront design.,10,100,20","Hmmm. I think the artist is trying to direct me to a spreadsheet?  (s/s),-10,300,20","Pretty neutral about this one,0,340,20","I like the softness of this but it doesn't make me feel that nice,5,140,20","I like how the strokes invokes a sense of fluidity.,20,340,20","David","I like how the strokes invokes a sense of fluidity.,20,340,20","Jesus","I like the forefront design.,10,100,20","Cameron","Like the color and style,31,60,20","4"
"82463","","survey-text","146","2111100","0.0-144.0-0.0","A2N4DD7IS7EI2D","","","","{""Q0"":""This painting is beautiful. The only thing I do not like about it is the random red X in the middle of it.""}","","","","","","","","","","","","","","","","","","","","","","",""
"7793.899999976158","","image-slider-response","147","2118898","0.0-145.0","A2N4DD7IS7EI2D","","","","","34","","","","","","","","","","","","","","","","","","","","","",""
"2910","","image-button-response","148","2123901","0.0-146.0","A2N4DD7IS7EI2D","img_art/29.jpg","1","","","","","","","","","","","","","","","","","","","","","","","","",""
"997","","image-button-response","149","2124901","0.0-147.0","A2N4DD7IS7EI2D","img_art/29.jpg","1","","","","","","","","","","","","","","","","","","","","","","","","",""
"3384","","image-button-response","150","2128288","0.0-148.0-0.0","A2N4DD7IS7EI2D","img_art/29.jpg","2","","","","","","","","","","","","","","","","","","","","","","","","",""
"2837","","image-button-response","151","2131129","0.0-149.0-0.0","A2N4DD7IS7EI2D","img_art/29.jpg","0","","","","","","","","","","","","","","","","","","","","","","","","",""
"null","","html-keyboard-response","152","2132133","0.0-150.0","A2N4DD7IS7EI2D","<p style=""font-size: 48px;"">+</p>","","","","","null","allTrialResponses","1000","1","15","img_art/29.jpg","34","This painting is beautiful. The only thing I do not like about it is the random red X in the middle of it.","Cameron,Jesus,Grant,Samuel,Garrett,David","Lines and light are clean but subject doesn't interest me,0,60,20","The light source is confusing, but still interesting to look at,11,100,20","I can relate to the frustration this evokes.,20,200,20","too challenging to comprehend,-28,400,20","I think this image looks ugly and needs more colors so it looks nicer.,-30,180,20","Don't really like the red x. It gives the impression that this a discarded piece.,-10,340,20","Jesus","The light source is confusing, but still interesting to look at,11,100,20","Grant","I can relate to the frustration this evokes.,20,200,20","Cameron","Lines and light are clean but subject doesn't interest me,0,60,20","4"
"6869","","survey-text","153","2139016","0.0-151.0-0.0","A2N4DD7IS7EI2D","","","","{""Q0"":""course""}","","","","","","","","","","","","","","","","","","","","","","",""
"152134","","survey-text","154","2291151","0.0-152.0-0.0","A2N4DD7IS7EI2D","","","","{""Q0"":""I enjoy how the lines are branching off from each other.""}","","","","","","","","","","","","","","","","","","","","","","",""
"3895.600000023842","","image-slider-response","155","2295050","0.0-153.0","A2N4DD7IS7EI2D","","","","","22","","","","","","","","","","","","","","","","","","","","","",""
"4196","","image-button-response","156","2300062","0.0-154.0","A2N4DD7IS7EI2D","img_art/11.jpg","1","","","","","","","","","","","","","","","","","","","","","","","","",""
"1535","","image-button-response","157","2301599","0.0-155.0","A2N4DD7IS7EI2D","img_art/11.jpg","1","","","","","","","","","","","","","","","","","","","","","","","","",""
"1650","","image-button-response","158","2303252","0.0-156.0-0.0","A2N4DD7IS7EI2D","img_art/11.jpg","0","","","","","","","","","","","","","","","","","","","","","","","","",""
"5570","","image-button-response","159","2308826","0.0-157.0-0.0","A2N4DD7IS7EI2D","img_art/11.jpg","3","","","","","","","","","","","","","","","","","","","","","","","","",""
"null","","html-keyboard-response","160","2310328","0.0-158.0","A2N4DD7IS7EI2D","<p style=""font-size: 48px;"">+</p>","","","","","null","allTrialResponses","1500","1","16","img_art/11.jpg","22","I enjoy how the lines are branching off from each other.","Cameron,Jesus,Grant,Joseph,Carlos,Victor","futuristic arching railways,25,60,20","The different textures and colors make this pleasing to look at.,30,100,20","This elicits no reaction in me.,0,200,20","I like that it could be train tracks, or telephone wires, etc. It's always a means of getting from a to b.,15,220,20","The colors are lovely. February getting ready to yield to March.,41,80,20","Love the colors against the black and gray. The lines are calming.,22,340,20","Jesus","The different textures and colors make this pleasing to look at.,30,100,20","Cameron","futuristic arching railways,25,60,20","Joseph","I like that it could be train tracks, or telephone wires, etc. It's always a means of getting from a to b.,15,220,20","4"
"24348","","survey-text","161","2334683","0.0-159.0-0.0","A2N4DD7IS7EI2D","","","","{""Q0"":""I do not understand what is going on, and I don't like the colors chosen for this painting.""}","","","","","","","","","","","","","","","","","","","","","","",""
"7072.800000011921","","image-slider-response","162","2341758","0.0-160.0","A2N4DD7IS7EI2D","","","","","-41","","","","","","","","","","","","","","","","","","","","","",""
"3425","","image-button-response","163","2346762","0.0-161.0","A2N4DD7IS7EI2D","img_art/7.jpg","0","","","","","","","","","","","","","","","","","","","","","","","","",""
"1104","","image-button-response","164","2347870","0.0-162.0","A2N4DD7IS7EI2D","img_art/7.jpg","0","","","","","","","","","","","","","","","","","","","","","","","","",""
"969","","image-button-response","165","2348841","0.0-163.0-0.0","A2N4DD7IS7EI2D","img_art/7.jpg","3","","","","","","","","","","","","","","","","","","","","","","","","",""
"3013","","image-button-response","166","2351857","0.0-164.0-0.0","A2N4DD7IS7EI2D","img_art/7.jpg","4","","","","","","","","","","","","","","","","","","","","","","","","",""
"null","","html-keyboard-response","167","2352359","0.0-165.0","A2N4DD7IS7EI2D","<p style=""font-size: 48px;"">+</p>","","","","","null","allTrialResponses","500","1","17","img_art/7.jpg","-41","I do not understand what is going on, and I don't like the colors chosen for this painting.","Cameron,Jesus,Jesse,Joseph,Brendan,Spencer","tracks in dirt?,-15,60,20","Is simple in color and texture,11,100,20","Makes me think of the beach which makes me happy,14,80,20","Dinosaur bones. Death.,-14,220,20","some rocks on a mars?,7,340,20","I love it, it looks like a landscape photograph in desert or rocky mountain,50,120,20","Cameron","tracks in dirt?,-15,60,20","Joseph","Dinosaur bones. Death.,-14,220,20","Brendan","some rocks on a mars?,7,340,20","4"
"31330","","survey-text","168","2383695","0.0-166.0-0.0","A2N4DD7IS7EI2D","","","","{""Q0"":""I like how bright the colors are being used. It gives it a cyberpunk feel to it.""}","","","","","","","","","","","","","","","","","","","","","","",""
"3348.300000011921","","image-slider-response","169","2387045","0.0-167.0","A2N4DD7IS7EI2D","","","","","20","","","","","","","","","","","","","","","","","","","","","",""
"3608","","image-button-response","170","2392060","0.0-168.0","A2N4DD7IS7EI2D","img_art/1.jpg","4","","","","","","","","","","","","","","","","","","","","","","","","",""
"591","","image-button-response","171","2392653","0.0-169.0","A2N4DD7IS7EI2D","img_art/1.jpg","4","","","","","","","","","","","","","","","","","","","","","","","","",""
"2044","","image-button-response","172","2394698","0.0-170.0-0.0","A2N4DD7IS7EI2D","img_art/1.jpg","0","","","","","","","","","","","","","","","","","","","","","","","","",""
"1896","","image-button-response","173","2396597","0.0-171.0-0.0","A2N4DD7IS7EI2D","img_art/1.jpg","1","","","","","","","","","","","","","","","","","","","","","","","","",""
"null","","html-keyboard-response","174","2398107","0.0-172.0","A2N4DD7IS7EI2D","<p style=""font-size: 48px;"">+</p>","","","","","null","allTrialResponses","1500","1","18","img_art/1.jpg","20","I like how bright the colors are being used. It gives it a cyberpunk feel to it.","Cameron,Bryan,Cole,Joseph,Brendan,Alexis","It's okay, colors remind me of autumn.,10,60,20","Again, like the colors & abstractness.,29,400,20","I like the colors. But it doesnt look like anything,27,200,20","Happy! Reminds me of hiking in tennesee.,18,220,20","a colorful piece of art,25,340,20","This photo reminds me of a fall afternoon, serene,11,140,20","Brendan","a colorful piece of art,25,340,20","Cameron","It's okay, colors remind me of autumn.,10,60,20","Bryan","Again, like the colors & abstractness.,29,400,20","4"
"75791","","survey-text","175","2473904","0.0-173.0-0.0","A2N4DD7IS7EI2D","","","","{""Q0"":""I have no idea what is going on. Too many lines, and I don't understand what the green lines are supposed to represent.""}","","","","","","","","","","","","","","","","","","","","","","",""
"5911.800000011921","","image-slider-response","176","2479818","0.0-174.0","A2N4DD7IS7EI2D","","","","","25","","","","","","","","","","","","","","","","","","","","","",""
"null","","image-button-response","177","2484821","0.0-175.0","A2N4DD7IS7EI2D","img_art/27.jpg","null","","","","","","","","","","","","","","","","","","","","","","","","",""
"4871","","image-button-response","178","2489694","0.0-176.0","A2N4DD7IS7EI2D","img_art/27.jpg","4","","","","","","","","","","","","","","","","","","","","","","","","",""
"1612","","image-button-response","179","2491309","0.0-177.0-0.0","A2N4DD7IS7EI2D","img_art/27.jpg","0","","","","","","","","","","","","","","","","","","","","","","","","",""
"6042","","image-button-response","180","2497353","0.0-178.0-0.0","A2N4DD7IS7EI2D","img_art/27.jpg","5","","","","","","","","","","","","","","","","","","","","","","","","",""
"null","","html-keyboard-response","181","2498368","0.0-179.0","A2N4DD7IS7EI2D","<p style=""font-size: 48px;"">+</p>","","","","","null","allTrialResponses","1000","1","19","img_art/27.jpg","25","I have no idea what is going on. Too many lines, and I don't understand what the green lines are supposed to represent.","Cameron,Bryan,John,Adrian,Brendan,Zachary","Like it, autumn colors, trees and foliage scene.,25,60,20","Not fond of the bad pencil drawing mixed with the drab colors.,-21,400,20","Looks as if a toddler painted it,-20,120,20","Looks like my niece's doodles.,-50,60,20","nice firestorm on desert,23,340,20","Color story is boring in nature, and I feel nothing but boredom from this piece.,-20,400,20","Brendan","nice firestorm on desert,23,340,20","Cameron","Like it, autumn colors, trees and foliage scene.,25,60,20","Zachary","Color story is boring in nature, and I feel nothing but boredom from this piece.,-20,400,20","4"
"55403","","survey-text","182","2553781","0.0-180.0-0.0","A2N4DD7IS7EI2D","","","","{""Q0"":""There is too much grey goin on in this painting. The painting is so bland""}","","","","","","","","","","","","","","","","","","","","","","",""
"5208.300000011921","","image-slider-response","183","2558991","0.0-181.0","A2N4DD7IS7EI2D","","","","","-40","","","","","","","","","","","","","","","","","","","","","",""
"3003","","image-button-response","184","2564001","0.0-182.0","A2N4DD7IS7EI2D","img_art/28.jpg","1","","","","","","","","","","","","","","","","","","","","","","","","",""
"643","","image-button-response","185","2564646","0.0-183.0","A2N4DD7IS7EI2D","img_art/28.jpg","1","","","","","","","","","","","","","","","","","","","","","","","","",""
"3689","","image-button-response","186","2568339","0.0-184.0-0.0","A2N4DD7IS7EI2D","img_art/28.jpg","2","","","","","","","","","","","","","","","","","","","","","","","","",""
"3457","","image-button-response","187","2571799","0.0-185.0-0.0","A2N4DD7IS7EI2D","img_art/28.jpg","0","","","","","","","","","","","","","","","","","","","","","","","","",""
"null","","html-keyboard-response","188","2572802","0.0-186.0","A2N4DD7IS7EI2D","<p style=""font-size: 48px;"">+</p>","","","","","null","allTrialResponses","1000","1","20","img_art/28.jpg","-40","There is too much grey goin on in this painting. The painting is so bland","Cameron,Ethan,Angel,Blake,Brendan,Zachary","dislike the colors. it looks like a bike, but misshapen wheels like it was wrecked.,-10,60,20","The colors are really ugly. They do not compliment each other well.,-45,120,20","My immediate reaction was to think of smog. It recalls choking on dirty air.,-20,180,20","an old woman in a wheelchair. sad,-35,280,20","i dont understand it,-34,340,20","Too muted and bland. I like my art to be vivid.,-11,400,20","Ethan","The colors are really ugly. They do not compliment each other well.,-45,120,20","Angel","My immediate reaction was to think of smog. It recalls choking on dirty air.,-20,180,20","Cameron","dislike the colors. it looks like a bike, but misshapen wheels like it was wrecked.,-10,60,20","4"
"3854","","survey-text","189","2576669","0.0-187.0-0.0","A2N4DD7IS7EI2D","","","","{""Q0"":""we""}","","","","","","","","","","","","","","","","","","","","","","",""
"25971","","survey-text","190","2602641","0.0-188.0-0.0","A2N4DD7IS7EI2D","","","","{""Q0"":""I enjoy the bright colors. The blue reminds me of a random blue bird in a cage.""}","","","","","","","","","","","","","","","","","","","","","","",""
"9991.400000035763","","image-slider-response","191","2612635","0.0-189.0","A2N4DD7IS7EI2D","","","","","30","","","","","","","","","","","","","","","","","","","","","",""
"3183","","image-button-response","192","2617638","0.0-190.0","A2N4DD7IS7EI2D","img_art/22.jpg","0","","","","","","","","","","","","","","","","","","","","","","","","",""
"529","","image-button-response","193","2618168","0.0-191.0","A2N4DD7IS7EI2D","img_art/22.jpg","0","","","","","","","","","","","","","","","","","","","","","","","","",""
"1511","","image-button-response","194","2619683","0.0-192.0-0.0","A2N4DD7IS7EI2D","img_art/22.jpg","2","","","","","","","","","","","","","","","","","","","","","","","","",""
"1703","","image-button-response","195","2621389","0.0-193.0-0.0","A2N4DD7IS7EI2D","img_art/22.jpg","4","","","","","","","","","","","","","","","","","","","","","","","","",""
"null","","html-keyboard-response","196","2621890","0.0-194.0","A2N4DD7IS7EI2D","<p style=""font-size: 48px;"">+</p>","","","","","null","allTrialResponses","500","1","21","img_art/22.jpg","30","I enjoy the bright colors. The blue reminds me of a random blue bird in a cage.","Cameron,Ethan,Angel,Antonio,Austin,Brandon","Like this one, like a sunset,30,60,20","I do not like the color combo. This piece is too much the same throughout.,-1,120,20","This piece gives off a cool vibe. Reminds me of being out in the city at night.,20,180,20","Felt blah. Bunch of nothingness,-42,220,20","Great color palette,29,240,20","Don't like this type of abstract work,-39,320,20","Cameron","Like this one, like a sunset,30,60,20","Angel","This piece gives off a cool vibe. Reminds me of being out in the city at night.,20,180,20","Austin","Great color palette,29,240,20","4"
"31044","","survey-text","197","2652945","0.0-195.0-0.0","A2N4DD7IS7EI2D","","","","{""Q0"":""The painting is too bland. Nothing is going on. The orange reminds of something happening in the desert.""}","","","","","","","","","","","","","","","","","","","","","","",""
"2964","","image-slider-response","198","2655911","0.0-196.0","A2N4DD7IS7EI2D","","","","","-25","","","","","","","","","","","","","","","","","","","","","",""
"3333","","image-button-response","199","2660918","0.0-197.0","A2N4DD7IS7EI2D","img_art/6.jpg","1","","","","","","","","","","","","","","","","","","","","","","","","",""
"712","","image-button-response","200","2661632","0.0-198.0","A2N4DD7IS7EI2D","img_art/6.jpg","1","","","","","","","","","","","","","","","","","","","","","","","","",""
"3036","","image-button-response","201","2664670","0.0-199.0-0.0","A2N4DD7IS7EI2D","img_art/6.jpg","2","","","","","","","","","","","","","","","","","","","","","","","","",""
"2977","","image-button-response","202","2667650","0.0-200.0-0.0","A2N4DD7IS7EI2D","img_art/6.jpg","3","","","","","","","","","","","","","","","","","","","","","","","","",""
"null","","html-keyboard-response","203","2668652","0.0-201.0","A2N4DD7IS7EI2D","<p style=""font-size: 48px;"">+</p>","","","","","null","allTrialResponses","1000","1","22","img_art/6.jpg","-25","The painting is too bland. Nothing is going on. The orange reminds of something happening in the desert.","Cameron,Nicholas,Angel,Aaron,Austin,Andrew","Kind of neat, but then that's a weird looking bird. too weird.,0,60,20","It isnt bad but sort of too bland,0,240,20","This piece feels hopeful, like an oasis in the desert.,20,180,20","It reminds me of a simplistic bird. I like the colors used.,40,20,20","Love the simplicity of it,41,240,20","Reminds me of my friend's bird,21,160,20","Nicholas","It isnt bad but sort of too bland,0,240,20","Angel","This piece feels hopeful, like an oasis in the desert.,20,180,20","Aaron","It reminds me of a simplistic bird. I like the colors used.,40,20,20","4"
"35418","","survey-text","204","2704080","0.0-202.0-0.0","A2N4DD7IS7EI2D","","","","{""Q0"":""The colors of the dots is really hurting my eyes. I don't like the look of this painting.""}","","","","","","","","","","","","","","","","","","","","","","",""
"2817.099999964237","","image-slider-response","205","2706900","0.0-203.0","A2N4DD7IS7EI2D","","","","","-50","","","","","","","","","","","","","","","","","","","","","",""
"4922","","image-button-response","206","2711903","0.0-204.0","A2N4DD7IS7EI2D","img_art/23.jpg","4","","","","","","","","","","","","","","","","","","","","","","","","",""
"556","","image-button-response","207","2712462","0.0-205.0","A2N4DD7IS7EI2D","img_art/23.jpg","4","","","","","","","","","","","","","","","","","","","","","","","","",""
"4201","","image-button-response","208","2716665","0.0-206.0-0.0","A2N4DD7IS7EI2D","img_art/23.jpg","2","","","","","","","","","","","","","","","","","","","","","","","","",""
"1469","","image-button-response","209","2718138","0.0-207.0-0.0","A2N4DD7IS7EI2D","img_art/23.jpg","2","","","","","","","","","","","","","","","","","","","","","","","","",""
"599","","image-button-response","210","2721301","0.0-207.1-0.1","A2N4DD7IS7EI2D","img_art/23.jpg","0","","","","","","","","","","","","","","","","","","","","","","","","",""
"null","","html-keyboard-response","211","2722303","0.0-208.0","A2N4DD7IS7EI2D","<p style=""font-size: 48px;"">+</p>","","","","","null","allTrialResponses","1000","1","23","img_art/23.jpg","-50","The colors of the dots is really hurting my eyes. I don't like the look of this painting.","Ian,Nicholas,Angel,Aaron,Elijah,Shane","It's very colorful and different, the white looks like people dancing,26,260,20","The more i look at it the more i like it  the dots of color and very interesting,50,240,20","I feel positive community and comfort. Singing along at a concert, united with a bunch of strangers through shared joy.,20,180,20","I love the colors and the contrast.,50,20,20","Makes me worried,10,80,20","Love the line in the middle separating the two dark sides,50,80,20","Elijah","Makes me worried,10,80,20","Angel","I feel positive community and comfort. Singing along at a concert, united with a bunch of strangers through shared joy.,20,180,20","Ian","It's very colorful and different, the white looks like people dancing,26,260,20","6"
"24526","","survey-text","212","2746839","0.0-209.0-0.0","A2N4DD7IS7EI2D","","","","{""Q0"":""I love this painting a lot. The way the colors are used and the illustration of the tree""}","","","","","","","","","","","","","","","","","","","","","","",""
"4746.5","","image-slider-response","213","2751588","0.0-210.0","A2N4DD7IS7EI2D","","","","","50","","","","","","","","","","","","","","","","","","","","","",""
"4979","","image-button-response","214","2756591","0.0-211.0","A2N4DD7IS7EI2D","img_art/17.jpg","5","","","","","","","","","","","","","","","","","","","","","","","","",""
"724","","image-button-response","215","2757318","0.0-212.0","A2N4DD7IS7EI2D","img_art/17.jpg","5","","","","","","","","","","","","","","","","","","","","","","","","",""
"620","","image-button-response","216","2757940","0.0-213.0-0.0","A2N4DD7IS7EI2D","img_art/17.jpg","4","","","","","","","","","","","","","","","","","","","","","","","","",""
"541","","image-button-response","217","2758484","0.0-214.0-0.0","A2N4DD7IS7EI2D","img_art/17.jpg","3","","","","","","","","","","","","","","","","","","","","","","","","",""
"null","","html-keyboard-response","218","2759986","0.0-215.0","A2N4DD7IS7EI2D","<p style=""font-size: 48px;"">+</p>","","","","","null","allTrialResponses","1500","1","24","img_art/17.jpg","50","I love this painting a lot. The way the colors are used and the illustration of the tree","Ian,Mark,Angel,Dalton,Elijah,Malik","It seems a little dark but it is very beautiful,28,260,20","A coming storm but I think I would appreciate it more with more contrast.,-12,80,20","Reminds me of the modern art museum in Rome. I didn't ""get"" many pieces, but had a positive cultural experience overall.,20,180,20","Beautiful simply beautiful. i would love this,,50,300,20","Very cool, makes me feel calm,43,80,20","I love vague, dreamlike styles,50,40,20","Malik","I love vague, dreamlike styles,50,40,20","Elijah","Very cool, makes me feel calm,43,80,20","Dalton","Beautiful simply beautiful. i would love this,,50,300,20","6"
"27245","","survey-text","219","2787248","0.0-216.0-0.0","A2N4DD7IS7EI2D","","","","{""Q0"":""I do not like the green shown. I do enjoy the image of the character, but the green is what kills the painting for me.""}","","","","","","","","","","","","","","","","","","","","","","",""
"4907.599999964237","","image-slider-response","220","2792159","0.0-217.0","A2N4DD7IS7EI2D","","","","","-30","","","","","","","","","","","","","","","","","","","","","",""
"null","","image-button-response","221","2797164","0.0-218.0","A2N4DD7IS7EI2D","img_art/25.jpg","null","","","","","","","","","","","","","","","","","","","","","","","","",""
"1298","","image-button-response","222","2798467","0.0-219.0","A2N4DD7IS7EI2D","img_art/25.jpg","0","","","","","","","","","","","","","","","","","","","","","","","","",""
"3273","","image-button-response","223","2801743","0.0-220.0-0.0","A2N4DD7IS7EI2D","img_art/25.jpg","4","","","","","","","","","","","","","","","","","","","","","","","","",""
"2848","","image-button-response","224","2804594","0.0-221.0-0.0","A2N4DD7IS7EI2D","img_art/25.jpg","5","","","","","","","","","","","","","","","","","","","","","","","","",""
"null","","html-keyboard-response","225","2805599","0.0-222.0","A2N4DD7IS7EI2D","<p style=""font-size: 48px;"">+</p>","","","","","null","allTrialResponses","1000","1","25","img_art/25.jpg","-30","I do not like the green shown. I do enjoy the image of the character, but the green is what kills the painting for me.","Thomas,Luis,Edward,Dalton,Elijah,Malik","I like the design but the brightness of the color feels almost blinding to me.,-3,220,20","New life, rising from your personal battles,50,400,20","It looks like people worshipping a statue,33,60,20","This reminds me of royalty and servants.,32,300,20","Makes me feel intrigued,13,80,20","Very cryptic and ancient,36,40,20","Thomas","I like the design but the brightness of the color feels almost blinding to me.,-3,220,20","Elijah","Makes me feel intrigued,13,80,20","Malik","Very cryptic and ancient,36,40,20","6"
"5072","","survey-text","226","2810688","0.0-223.0-0.0","A2N4DD7IS7EI2D","","","","{""Q0"":""table""}","","","","","","","","","","","","","","","","","","","","","","",""
"27303","","survey-text","227","2837992","0.0-224.0-0.0","A2N4DD7IS7EI2D","","","","{""Q0"":""The painting is bland to me. Just splatters of red paint. No thought went into the image.""}","","","","","","","","","","","","","","","","","","","","","","",""
"3504.800000011921","","image-slider-response","228","2841499","0.0-225.0","A2N4DD7IS7EI2D","","","","","-25","","","","","","","","","","","","","","","","","","","","","",""
"3631","","image-button-response","229","2846503","0.0-226.0","A2N4DD7IS7EI2D","img_art/3.jpg","1","","","","","","","","","","","","","","","","","","","","","","","","",""
"897","","image-button-response","230","2847403","0.0-227.0","A2N4DD7IS7EI2D","img_art/3.jpg","0","","","","","","","","","","","","","","","","","","","","","","","","",""
"377","","image-button-response","231","2847783","0.0-228.0-0.0","A2N4DD7IS7EI2D","img_art/3.jpg","1","","","","","","","","","","","","","","","","","","","","","","","","",""
"4613","","image-button-response","232","2852399","0.0-229.0-0.0","A2N4DD7IS7EI2D","img_art/3.jpg","4","","","","","","","","","","","","","","","","","","","","","","","","",""
"null","","html-keyboard-response","233","2853909","0.0-230.0","A2N4DD7IS7EI2D","<p style=""font-size: 48px;"">+</p>","","","","","null","allTrialResponses","1500","1","26","img_art/3.jpg","-25","The painting is bland to me. Just splatters of red paint. No thought went into the image.","Thomas,Christian,Robert,Mitchell,Elijah,Malik","Too messy and structure-less,-10,220,20","sorry do not understand,-26,140,20","I think of an angry child,-50,360,20","Anger, like something a serial killer may paint.,-30,180,20","Somebody scribbled on a piece of paper,-35,80,20","Unaure what the artist  was doing, needs context,11,40,20","Thomas","Too messy and structure-less,-10,220,20","Christian","sorry do not understand,-26,140,20","Elijah","Somebody scribbled on a piece of paper,-35,80,20","6"
"26061","","survey-text","234","2879979","0.0-231.0-0.0","A2N4DD7IS7EI2D","","","","{""Q0"":""I enjoy this abstract painting of a neighborhood. It's really beautiful looking""}","","","","","","","","","","","","","","","","","","","","","","",""
"5865.5","","image-slider-response","235","2885847","0.0-232.0","A2N4DD7IS7EI2D","","","","","50","","","","","","","","","","","","","","","","","","","","","",""
"4306","","image-button-response","236","2890856","0.0-233.0","A2N4DD7IS7EI2D","img_art/26.jpg","1","","","","","","","","","","","","","","","","","","","","","","","","",""
"825","","image-button-response","237","2891685","0.0-234.0","A2N4DD7IS7EI2D","img_art/26.jpg","1","","","","","","","","","","","","","","","","","","","","","","","","",""
"1871","","image-button-response","238","2893558","0.0-235.0-0.0","A2N4DD7IS7EI2D","img_art/26.jpg","0","","","","","","","","","","","","","","","","","","","","","","","","",""
"3496","","image-button-response","239","2897057","0.0-236.0-0.0","A2N4DD7IS7EI2D","img_art/26.jpg","2","","","","","","","","","","","","","","","","","","","","","","","","",""
"null","","html-keyboard-response","240","2897563","0.0-237.0","A2N4DD7IS7EI2D","<p style=""font-size: 48px;"">+</p>","","","","","null","allTrialResponses","500","1","27","img_art/26.jpg","50","I enjoy this abstract painting of a neighborhood. It's really beautiful looking","Thomas,Christian,Jared,Sean,Elijah,Benjamin","It feels almost unfinished, but I like the color palette,9,220,20","love the ""lowkey"" vibrant colors that are colorful but at the same time greyscale,12,140,20","soothing and subtle,1,400,20","picture looks alright,1,40,20","Splash of paint in an ordered way,7,80,20","The colors are muted.,1,260,20","Christian","love the ""lowkey"" vibrant colors that are colorful but at the same time greyscale,12,140,20","Thomas","It feels almost unfinished, but I like the color palette,9,220,20","Jared","soothing and subtle,1,400,20","6"
"33385","","survey-text","241","2930959","0.0-238.0-0.0","A2N4DD7IS7EI2D","","","","{""Q0"":""The way the waterfall is shown off with the great color pallet around it has me intrigued.""}","","","","","","","","","","","","","","","","","","","","","","",""
"3575.5","","image-slider-response","242","2934538","0.0-239.0","A2N4DD7IS7EI2D","","","","","50","","","","","","","","","","","","","","","","","","","","","",""
"4419","","image-button-response","243","2939541","0.0-240.0","A2N4DD7IS7EI2D","img_art/24.jpg","5","","","","","","","","","","","","","","","","","","","","","","","","",""
"373","","image-button-response","244","2939917","0.0-241.0","A2N4DD7IS7EI2D","img_art/24.jpg","5","","","","","","","","","","","","","","","","","","","","","","","","",""
"678","","image-button-response","245","2940597","0.0-242.0-0.0","A2N4DD7IS7EI2D","img_art/24.jpg","1","","","","","","","","","","","","","","","","","","","","","","","","",""
"4131","","image-button-response","246","2944733","0.0-243.0-0.0","A2N4DD7IS7EI2D","img_art/24.jpg","0","","","","","","","","","","","","","","","","","","","","","","","","",""
"null","","html-keyboard-response","247","2945742","0.0-244.0","A2N4DD7IS7EI2D","<p style=""font-size: 48px;"">+</p>","","","","","null","allTrialResponses","1000","1","28","img_art/24.jpg","50","The way the waterfall is shown off with the great color pallet around it has me intrigued.","Thomas,Christian,Jared,Justin,Anthony,Seth","Beautiful colors and texture,20,220,20","organized mess at first glance, would love to inspect this in closer proximity,39,140,20","i like that the water seems in motion,6,400,20","Nice colors, but doesn't do much for me.,1,280,20","This piece resembles a waterfall surrounded by trees.,21,200,20","This is stunning. I love how the brown, red and oranges are blended in together.,40,60,20","Seth","This is stunning. I love how the brown, red and oranges are blended in together.,40,60,20","Christian","organized mess at first glance, would love to inspect this in closer proximity,39,140,20","Thomas","Beautiful colors and texture,20,220,20","6"
"33036","","survey-text","248","2978791","0.0-245.0-0.0","A2N4DD7IS7EI2D","","","","{""Q0"":""Not really liking the theme of this painting. I just cannot be bothered in enjoying what is going on.""}","","","","","","","","","","","","","","","","","","","","","","",""
"4141.600000023842","","image-slider-response","249","2982935","0.0-246.0","A2N4DD7IS7EI2D","","","","","-27","","","","","","","","","","","","","","","","","","","","","",""
"null","","image-button-response","250","2987941","0.0-247.0","A2N4DD7IS7EI2D","img_art/20.jpg","null","","","","","","","","","","","","","","","","","","","","","","","","",""
"3920","","image-button-response","251","2991866","0.0-248.0","A2N4DD7IS7EI2D","img_art/20.jpg","2","","","","","","","","","","","","","","","","","","","","","","","","",""
"1902","","image-button-response","252","2993770","0.0-249.0-0.0","A2N4DD7IS7EI2D","img_art/20.jpg","4","","","","","","","","","","","","","","","","","","","","","","","","",""
"3304","","image-button-response","253","2997076","0.0-250.0-0.0","A2N4DD7IS7EI2D","img_art/20.jpg","3","","","","","","","","","","","","","","","","","","","","","","","","",""
"null","","html-keyboard-response","254","2997579","0.0-251.0","A2N4DD7IS7EI2D","<p style=""font-size: 48px;"">+</p>","","","","","null","allTrialResponses","500","1","29","img_art/20.jpg","-27","Not really liking the theme of this painting. I just cannot be bothered in enjoying what is going on.","Thomas,Christian,Dylan,Taylor,Jeffrey,Seth","I really enjoy the contrast of colors (blue/red/orange),30,220,20","reminds me of georgia o'keeffe's skull,22,140,20","The white blob looks like a face and it's creepy,-30,40,20","Not bad for all the southwestern people.,15,200,20","looks like an auto accident,-30,40,20","I'm not sure why this reminds me of surrealism. It might be the colors used.,16,60,20","Dylan","The white blob looks like a face and it's creepy,-30,40,20","Jeffrey","looks like an auto accident,-30,40,20","Taylor","Not bad for all the southwestern people.,15,200,20","6"
"26225","","survey-text","255","3023814","0.0-252.0-0.0","A2N4DD7IS7EI2D","","","","{""Q0"":""I have zero idea what is going on. I am not digging the colors used in this image.""}","","","","","","","","","","","","","","","","","","","","","","",""
"3740.199999988079","","image-slider-response","256","3027556","0.0-253.0","A2N4DD7IS7EI2D","","","","","-27","","","","","","","","","","","","","","","","","","","","","",""
"3822","","image-button-response","257","3032560","0.0-254.0","A2N4DD7IS7EI2D","img_art/19.jpg","1","","","","","","","","","","","","","","","","","","","","","","","","",""
"730","","image-button-response","258","3033292","0.0-255.0","A2N4DD7IS7EI2D","img_art/19.jpg","1","","","","","","","","","","","","","","","","","","","","","","","","",""
"2360","","image-button-response","259","3035655","0.0-256.0-0.0","A2N4DD7IS7EI2D","img_art/19.jpg","3","","","","","","","","","","","","","","","","","","","","","","","","",""
"1111","","image-button-response","260","3036771","0.0-257.0-0.0","A2N4DD7IS7EI2D","img_art/19.jpg","2","","","","","","","","","","","","","","","","","","","","","","","","",""
"null","","html-keyboard-response","261","3037276","0.0-258.0","A2N4DD7IS7EI2D","<p style=""font-size: 48px;"">+</p>","","","","","null","allTrialResponses","500","1","30","img_art/19.jpg","-27","I have zero idea what is going on. I am not digging the colors used in this image.","Noah,Miguel,Dylan,Taylor,Jeffrey,Connor","the way the landscape is portrayed captivates me - I enjoy studying the structure,32,260,20","Messy and kid like.,-36,160,20","This photo has too much going on.,-19,40,20","Looks like a homeless man and this painting should be too.,-5,200,20","very lively and colourful,21,40,20","Childish music hall,-20,240,20","Miguel","Messy and kid like.,-36,160,20","Taylor","Looks like a homeless man and this painting should be too.,-5,200,20","Dylan","This photo has too much going on.,-19,40,20","6"
"4734","","image-button-response_instructions","262","3042025","0.0-259.0","A2N4DD7IS7EI2D","","0","instructions","","","","","","","","","","","","","","","","","","","","","","","",""
"1191","","image-button-response","263","3043227","0.0-260.0","A2N4DD7IS7EI2D","","0","","","","","","","","","","","","","","","","","","","","","","","","",""
