"rt","url","trial_type","trial_index","time_elapsed","internal_node_id","participant_id","stimulus","button_pressed","Name","responses","response","key_press","variableName","fixationTime","condition","trial","photo","subjectRating","subjectResponse","agentsNames","agent_1_Response","agent_2_Response","agent_3_Response","agent_4_Response","agent_5_Response","agent_6_Response","kept_1_name","kept_1_response","kept_2_name","kept_2_response","kept_3_name","kept_3_response","errorCounter"
"22707","external_page_harvard.html","external-html","0","22789","0.0-0.0","A2NQO8RQIG3D0C","","","","","","","","","","","","","","","","","","","","","","","","","","",""
"2099","","image-button-response","1","24891","0.0-1.0","A2NQO8RQIG3D0C","","1","","","","","","","","","","","","","","","","","","","","","","","","",""
"6069","","image-button-response","2","30971","0.0-2.0-0.0","A2NQO8RQIG3D0C","","1","phone","","","","","","","","","","","","","","","","","","","","","","","",""
"9571","","survey-text","3","40546","0.0-3.0-0.0","A2NQO8RQIG3D0C","","","","{""Q0"":""A2NQO8RQIG3D0C""}","","","","","","","","","","","","","","","","","","","","","","",""
"7842","","image-button-response_instructions","4","48391","0.0-4.0","A2NQO8RQIG3D0C","","0","instructions","","","","","","","","","","","","","","","","","","","","","","","",""
"30898","","image-button-response_instructions","5","79293","0.0-5.0","A2NQO8RQIG3D0C","img_art/ins/popularity/ins1.png","0","instructions","","","","","","","","","","","","","","","","","","","","","","","",""
"12685","","image-button-response_instructions","6","91981","0.0-6.0","A2NQO8RQIG3D0C","img_art/ins/popularity/ins2.png","0","instructions","","","","","","","","","","","","","","","","","","","","","","","",""
"11422","","image-button-response_instructions","7","103406","0.0-7.0","A2NQO8RQIG3D0C","img_art/ins/popularity/ins2Extreme.png","0","instructions","","","","","","","","","","","","","","","","","","","","","","","",""
"23697","","image-button-response_instructions","8","127105","0.0-8.0","A2NQO8RQIG3D0C","img_art/ins/popularity/ins3KEEPpop.PNG","0","instructions","","","","","","","","","","","","","","","","","","","","","","","",""
"6747","","image-button-response_instructions","9","133855","0.0-9.0","A2NQO8RQIG3D0C","img_art/ins/popularity/ins3ANamepop.PNG","0","instructions","","","","","","","","","","","","","","","","","","","","","","","",""
"6123","","image-button-response_instructions","10","139981","0.0-10.0","A2NQO8RQIG3D0C","img_art/ins/popularity/ins3ARatingpop.png","0","instructions","","","","","","","","","","","","","","","","","","","","","","","",""
"5013","","image-button-response_instructions","11","144996","0.0-11.0","A2NQO8RQIG3D0C","img_art/ins/popularity/ins3ATextpop.png","0","instructions","","","","","","","","","","","","","","","","","","","","","","","",""
"13487","","image-button-response_instructions","12","158485","0.0-12.0","A2NQO8RQIG3D0C","img_art/ins/popularity/ins3ALikespop.png","0","instructions","","","","","","","","","","","","","","","","","","","","","","","",""
"20937","","image-button-response_instructions","13","179425","0.0-13.0","A2NQO8RQIG3D0C","img_art/ins/popularity/ins3KEEPpop.PNG","0","instructions","","","","","","","","","","","","","","","","","","","","","","","",""
"16487","","image-button-response_instructions","14","195915","0.0-14.0","A2NQO8RQIG3D0C","img_art/ins/popularity/ins3_5RED.png","0","instructions","","","","","","","","","","","","","","","","","","","","","","","",""
"8514","","image-button-response_instructions","15","204429","0.0-15.0","A2NQO8RQIG3D0C","img_art/ins/popularity/ins3KEEPpop.PNG","0","instructions","","","","","","","","","","","","","","","","","","","","","","","",""
"17581","","image-button-response_instructions","16","222011","0.0-16.0","A2NQO8RQIG3D0C","img_art/ins/popularity/ins4KEEPpop.PNG","0","instructions","","","","","","","","","","","","","","","","","","","","","","","",""
"8224","","image-button-response_instructions","17","230237","0.0-17.0","A2NQO8RQIG3D0C","img_art/ins/popularity/ins5KEEPpop.PNG","0","instructions","","","","","","","","","","","","","","","","","","","","","","","",""
"2953","","image-button-response_instructions","18","233192","0.0-18.0","A2NQO8RQIG3D0C","","0","instructions","","","","","","","","","","","","","","","","","","","","","","","",""
"16445","","survey-text","19","249669","0.0-19.0-0.0","A2NQO8RQIG3D0C","","","","{""Q0"":""but""}","","","","","","","","","","","","","","","","","","","","","","",""
"85858","","survey-text","20","335530","0.0-20.0-0.0","A2NQO8RQIG3D0C","","","","{""Q0"":""I love the mix of the pink, orange, yellow, and gold colors .""}","","","","","","","","","","","","","","","","","","","","","","",""
"6211.900000095367","","image-slider-response","21","341748","0.0-21.0","A2NQO8RQIG3D0C","","","","","38","","","","","","","","","","","","","","","","","","","","","",""
"null","","image-button-response","22","346761","0.0-22.0","A2NQO8RQIG3D0C","img_art/ins/1.jpg","null","","","","","","","","","","","","","","","","","","","","","","","","",""
"7709","","image-button-response","23","354474","0.0-23.0","A2NQO8RQIG3D0C","img_art/ins/1.jpg","4","","","","","","","","","","","","","","","","","","","","","","","","",""
"3232","","image-button-response","24","357712","0.0-24.0-0.0","A2NQO8RQIG3D0C","img_art/ins/1.jpg","5","","","","","","","","","","","","","","","","","","","","","","","","",""
"3073","","image-button-response","25","360790","0.0-25.0-0.0","A2NQO8RQIG3D0C","img_art/ins/1.jpg","0","","","","","","","","","","","","","","","","","","","","","","","","",""
"null","","html-keyboard-response","26","361296","0.0-26.0","A2NQO8RQIG3D0C","<p style=""font-size: 48px;"">+</p>","","","","","null","allTrialResponses","500","1","-2","img_art/ins/1.jpg","38","I love the mix of the pink, orange, yellow, and gold colors .","Allison,Ashley,Beth,Dora,Erika,Jen","looks like a lot of things going on in the mist,20,20,20","I just don't get why these type of art would be popular,-32,40,20","This color reminds me of poo,-46,60,20","looks like what my niece in 3rd grade did this afternoon,-50,80,20","I like the sophisticated brushwork,40,100,20","It reminds me of a candy land dream I had,36,120,20","Erika","I like the sophisticated brushwork,40,100,20","Jen","It reminds me of a candy land dream I had,36,120,20","Allison","looks like a lot of things going on in the mist,20,20,20","0"
"46240","","survey-text","27","407545","0.0-27.0-0.0","A2NQO8RQIG3D0C","","","","{""Q0"":""It is very bold in the use of the red block paint strokes.""}","","","","","","","","","","","","","","","","","","","","","","",""
"5892","","image-slider-response","28","413441","0.0-28.0","A2NQO8RQIG3D0C","","","","","21","","","","","","","","","","","","","","","","","","","","","",""
"4217","","image-button-response","29","418449","0.0-29.0","A2NQO8RQIG3D0C","img_art/ins/2.jpg","0","","","","","","","","","","","","","","","","","","","","","","","","",""
"1398","","image-button-response","30","419852","0.0-30.0","A2NQO8RQIG3D0C","img_art/ins/2.jpg","1","","","","","","","","","","","","","","","","","","","","","","","","",""
"11013","","image-button-response","31","430871","0.0-31.0-0.0","A2NQO8RQIG3D0C","img_art/ins/2.jpg","5","","","","","","","","","","","","","","","","","","","","","","","","",""
"10224","","image-button-response","32","441101","0.0-32.0-0.0","A2NQO8RQIG3D0C","img_art/ins/2.jpg","4","","","","","","","","","","","","","","","","","","","","","","","","",""
"null","","html-keyboard-response","33","441607","0.0-33.0","A2NQO8RQIG3D0C","<p style=""font-size: 48px;"">+</p>","","","","","null","allTrialResponses","500","1","-1","img_art/ins/2.jpg","21","It is very bold in the use of the red block paint strokes.","Allison,Kara,Katie,Jenna,Erika,Jen","I don't have strong feelings about this,10,20,20","I like the blocks of color arrangements,30,160,20","too much color!,-28,180,20","One of my pet peevs,-48,140,20","I would never be able to compose a sophisticated pallete like this,48,100,20","It reminds me of a fireplace,36,120,20","Kara","I like the blocks of color arrangements,30,160,20","Jen","It reminds me of a fireplace,36,120,20","Erika","I would never be able to compose a sophisticated pallete like this,48,100,20","0"
"31530","","survey-text","34","473145","0.0-34.0-0.0","A2NQO8RQIG3D0C","","","","{""Q0"":""The blues remind me of a cold winter morning.""}","","","","","","","","","","","","","","","","","","","","","","",""
"6968","","image-slider-response","35","480117","0.0-35.0","A2NQO8RQIG3D0C","","","","","45","","","","","","","","","","","","","","","","","","","","","",""
"2835","","image-button-response","36","485126","0.0-36.0","A2NQO8RQIG3D0C","img_art/ins/3.jpg","0","","","","","","","","","","","","","","","","","","","","","","","","",""
"800","","image-button-response","37","485931","0.0-37.0","A2NQO8RQIG3D0C","img_art/ins/3.jpg","0","","","","","","","","","","","","","","","","","","","","","","","","",""
"2125","","image-button-response","38","488061","0.0-38.0-0.0","A2NQO8RQIG3D0C","img_art/ins/3.jpg","0","","","","","","","","","","","","","","","","","","","","","","","","",""
"14112","","image-button-response","39","507475","0.0-38.1-0.1","A2NQO8RQIG3D0C","img_art/ins/3.jpg","5","","","","","","","","","","","","","","","","","","","","","","","","",""
"9515","","image-button-response","40","516995","0.0-39.0-0.0","A2NQO8RQIG3D0C","img_art/ins/3.jpg","1","","","","","","","","","","","","","","","","","","","","","","","","",""
"null","","html-keyboard-response","41","517499","0.0-40.0","A2NQO8RQIG3D0C","<p style=""font-size: 48px;"">+</p>","","","","","null","allTrialResponses","500","1","0","img_art/ins/3.jpg","45","The blues remind me of a cold winter morning.","Mary,Kara,Rose,Leslie,Erika,Jen","I like the overlapping of brushes,41,220,20","calming blue is very nice,36,160,20","My daily routine, it's depressing,-20,240,20","It's an alright work,15,200,20","I feel connected to the artist,40,100,20","I can feel a rainy day from this painting,18,120,20","Mary","I like the overlapping of brushes,41,220,20","Jen","I can feel a rainy day from this painting,18,120,20","Kara","calming blue is very nice,36,160,20","2"
"7928","","image-button-response_instructions","42","525435","0.0-41.0","A2NQO8RQIG3D0C","","0","instructions","","","","","","","","","","","","","","","","","","","","","","","",""
"22152","","survey-likert","43","547591","0.0-42.0-0.0","A2NQO8RQIG3D0C","","","","{""Q0"":"""",""Q1"":0,""Q2"":1}","","","","","","","","","","","","","","","","","","","","","","",""
"8843","","survey-text","44","556444","0.0-43.0-0.0","A2NQO8RQIG3D0C","","","","{""Q0"":""rock""}","","","","","","","","","","","","","","","","","","","","","","",""
"28184","","survey-text","45","584631","0.0-44.0-0.0","A2NQO8RQIG3D0C","","","","{""Q0"":""This looks like it took a lot of time and patience to create.""}","","","","","","","","","","","","","","","","","","","","","","",""
"6748.200000047684","","image-slider-response","46","591384","0.0-45.0","A2NQO8RQIG3D0C","","","","","46","","","","","","","","","","","","","","","","","","","","","",""
"null","","image-button-response","47","596416","0.0-46.0","A2NQO8RQIG3D0C","img_art/25.jpg","null","","","","","","","","","","","","","","","","","","","","","","","","",""
"8286","","image-button-response","48","604705","0.0-47.0","A2NQO8RQIG3D0C","img_art/25.jpg","3","","","","","","","","","","","","","","","","","","","","","","","","",""
"8650","","image-button-response","49","613360","0.0-48.0-0.0","A2NQO8RQIG3D0C","img_art/25.jpg","1","","","","","","","","","","","","","","","","","","","","","","","","",""
"2208","","image-button-response","50","615574","0.0-49.0-0.0","A2NQO8RQIG3D0C","img_art/25.jpg","0","","","","","","","","","","","","","","","","","","","","","","","","",""
"null","","html-keyboard-response","51","616078","0.0-50.0","A2NQO8RQIG3D0C","<p style=""font-size: 48px;"">+</p>","","","","","null","allTrialResponses","500","1","1","img_art/25.jpg","46","This looks like it took a lot of time and patience to create.","Ashley,Mackenzie,Rebecca,Amy,Melissa,Molly","haunting, a lovely impression.,50,320,20","Very nice color contrast and design.,40,20,20","I'm sorry but I don't uderstand this,-20,100,20","The limited palette make this figure mysterious and interpret-able.,20,220,20","do not like that color of green,-11,240,20","Well-designed, interesting.,30,340,20","Amy","The limited palette make this figure mysterious and interpret-able.,20,220,20","Mackenzie","Very nice color contrast and design.,40,20,20","Ashley","haunting, a lovely impression.,50,320,20","2"
"61640","","survey-text","52","677725","0.0-51.0-0.0","A2NQO8RQIG3D0C","","","","{""Q0"":""This makes me feel light and hopeful for love to conquer the dark.""}","","","","","","","","","","","","","","","","","","","","","","",""
"5459.799999952316","","image-slider-response","53","683187","0.0-52.0","A2NQO8RQIG3D0C","","","","","48","","","","","","","","","","","","","","","","","","","","","",""
"null","","image-button-response","54","688197","0.0-53.0","A2NQO8RQIG3D0C","img_art/21.jpg","null","","","","","","","","","","","","","","","","","","","","","","","","",""
"8097","","image-button-response","55","696297","0.0-54.0","A2NQO8RQIG3D0C","img_art/21.jpg","3","","","","","","","","","","","","","","","","","","","","","","","","",""
"2208","","image-button-response","56","698511","0.0-55.0-0.0","A2NQO8RQIG3D0C","img_art/21.jpg","4","","","","","","","","","","","","","","","","","","","","","","","","",""
"5794","","image-button-response","57","704312","0.0-56.0-0.0","A2NQO8RQIG3D0C","img_art/21.jpg","5","","","","","","","","","","","","","","","","","","","","","","","","",""
"null","","html-keyboard-response","58","704817","0.0-57.0","A2NQO8RQIG3D0C","<p style=""font-size: 48px;"">+</p>","","","","","null","allTrialResponses","500","1","2","img_art/21.jpg","48","This makes me feel light and hopeful for love to conquer the dark.","Ashley,Mackenzie,Brittany,Amy,Erica,Mariah","Disturbing, land meets ocean, lvoely really.,43,320,20","The shapes and colors are very interesting to look at.,41,20,20","Alright. I like the colors.,5,40,20","A landscape that leaves me inspired and hopeful.,20,220,20","Relaxing and easy to look at,27,80,20","Motion, the light marks in the lower right corner are very appealing.,15,140,20","Amy","A landscape that leaves me inspired and hopeful.,20,220,20","Erica","Relaxing and easy to look at,27,80,20","Mariah","Motion, the light marks in the lower right corner are very appealing.,15,140,20","2"
"30861","","survey-text","59","735686","0.0-58.0-0.0","A2NQO8RQIG3D0C","","","","{""Q0"":""This is very sophisticated.""}","","","","","","","","","","","","","","","","","","","","","","",""
"7176.200000047684","","image-slider-response","60","742866","0.0-59.0","A2NQO8RQIG3D0C","","","","","34","","","","","","","","","","","","","","","","","","","","","",""
"null","","image-button-response","61","747875","0.0-60.0","A2NQO8RQIG3D0C","img_art/13.jpg","null","","","","","","","","","","","","","","","","","","","","","","","","",""
"4847","","image-button-response","62","752725","0.0-61.0","A2NQO8RQIG3D0C","img_art/13.jpg","1","","","","","","","","","","","","","","","","","","","","","","","","",""
"9899","","image-button-response","63","762627","0.0-62.0-0.0","A2NQO8RQIG3D0C","img_art/13.jpg","3","","","","","","","","","","","","","","","","","","","","","","","","",""
"1292","","image-button-response","64","763924","0.0-63.0-0.0","A2NQO8RQIG3D0C","img_art/13.jpg","5","","","","","","","","","","","","","","","","","","","","","","","","",""
"null","","html-keyboard-response","65","764931","0.0-64.0","A2NQO8RQIG3D0C","<p style=""font-size: 48px;"">+</p>","","","","","null","allTrialResponses","1000","1","3","img_art/13.jpg","34","This is very sophisticated.","Leslie,Hailey,Paige,Amy,Erica,Mariah","This elicits no reaction in me.,0,380,20","warm splash of salt water from ocean,16,200,20","Pleased. I like to combination of colors,17,60,20","I recognize the beauty of this but FOR ME its large degree of abstraction diminishes my emotional interaction.,-10,220,20","Messy but organised, helps me to relax and observe,8,80,20","Rain on a cold window.,22,140,20","Hailey","warm splash of salt water from ocean,16,200,20","Amy","I recognize the beauty of this but FOR ME its large degree of abstraction diminishes my emotional interaction.,-10,220,20","Mariah","Rain on a cold window.,22,140,20","2"
"38677","","survey-text","66","803613","0.0-65.0-0.0","A2NQO8RQIG3D0C","","","","{""Q0"":""This looks like a small town on top of hills.""}","","","","","","","","","","","","","","","","","","","","","","",""
"3913.4000000953674","","image-slider-response","67","807530","0.0-66.0","A2NQO8RQIG3D0C","","","","","9","","","","","","","","","","","","","","","","","","","","","",""
"null","","image-button-response","68","812541","0.0-67.0","A2NQO8RQIG3D0C","img_art/11.jpg","null","","","","","","","","","","","","","","","","","","","","","","","","",""
"1098","","image-button-response","69","813643","0.0-68.0","A2NQO8RQIG3D0C","img_art/11.jpg","0","","","","","","","","","","","","","","","","","","","","","","","","",""
"16902","","image-button-response","70","830549","0.0-69.0-0.0","A2NQO8RQIG3D0C","img_art/11.jpg","2","","","","","","","","","","","","","","","","","","","","","","","","",""
"2239","","image-button-response","71","832794","0.0-70.0-0.0","A2NQO8RQIG3D0C","img_art/11.jpg","5","","","","","","","","","","","","","","","","","","","","","","","","",""
"null","","html-keyboard-response","72","833298","0.0-71.0","A2NQO8RQIG3D0C","<p style=""font-size: 48px;"">+</p>","","","","","null","allTrialResponses","500","1","4","img_art/11.jpg","9","This looks like a small town on top of hills.","Vanessa,Hailey,Jordan,Amy,Marissa,Mariah","It makes me think of a rainy day and I like the colors. Also like the wavy lines.,22,380,20","a train going around the country,14,200,20","Oh, I love this one, it says to me that life is very busy,50,20,20","Simple and complex. Hopeful yet dark. I love this,35,220,20","I dislike how dark this is,-21,160,20","The colors are lovely. February getting ready to yield to March.,41,140,20","Vanessa","It makes me think of a rainy day and I like the colors. Also like the wavy lines.,22,380,20","Jordan","Oh, I love this one, it says to me that life is very busy,50,20,20","Mariah","The colors are lovely. February getting ready to yield to March.,41,140,20","2"
"32439","","survey-text","73","865744","0.0-72.0-0.0","A2NQO8RQIG3D0C","","","","{""Q0"":""There is a lot of excitement in this.""}","","","","","","","","","","","","","","","","","","","","","","",""
"5842.200000047684","","image-slider-response","74","871590","0.0-73.0","A2NQO8RQIG3D0C","","","","","8","","","","","","","","","","","","","","","","","","","","","",""
"null","","image-button-response","75","876600","0.0-74.0","A2NQO8RQIG3D0C","img_art/2.jpg","null","","","","","","","","","","","","","","","","","","","","","","","","",""
"8041","","image-button-response","76","884644","0.0-75.0","A2NQO8RQIG3D0C","img_art/2.jpg","1","","","","","","","","","","","","","","","","","","","","","","","","",""
"12579","","image-button-response","77","897230","0.0-76.0-0.0","A2NQO8RQIG3D0C","img_art/2.jpg","5","","","","","","","","","","","","","","","","","","","","","","","","",""
"13704","","image-button-response","78","910940","0.0-77.0-0.0","A2NQO8RQIG3D0C","img_art/2.jpg","0","","","","","","","","","","","","","","","","","","","","","","","","",""
"null","","html-keyboard-response","79","911948","0.0-78.0","A2NQO8RQIG3D0C","<p style=""font-size: 48px;"">+</p>","","","","","null","allTrialResponses","1000","1","5","img_art/2.jpg","8","There is a lot of excitement in this.","Vanessa,Michaela,Jordan,Shelby,Brooke,Mariah","I don't like the abstract nature of this painting or the colors used.,-50,380,20","My immediate reaction was it looked like a class but then I saw a smile in the middle,11,260,20","I can't get past the fact that it looks like someone wearing a mask,-46,20,20","The contrasting colors are a bit harsh,-10,240,20","Ugly version of that park painting.,-31,60,20","The colors are soothing, but the composition feels thoughtless.,-11,140,20","Michaela","My immediate reaction was it looked like a class but then I saw a smile in the middle,11,260,20","Mariah","The colors are soothing, but the composition feels thoughtless.,-11,140,20","Vanessa","I don't like the abstract nature of this painting or the colors used.,-50,380,20","2"
"9409","","survey-text","80","921370","0.0-79.0-0.0","A2NQO8RQIG3D0C","","","","{""Q0"":""sky""}","","","","","","","","","","","","","","","","","","","","","","",""
"21320","","survey-text","81","942694","0.0-80.0-0.0","A2NQO8RQIG3D0C","","","","{""Q0"":""Very bold with passion.""}","","","","","","","","","","","","","","","","","","","","","","",""
"5737.400000095367","","image-slider-response","82","948436","0.0-81.0","A2NQO8RQIG3D0C","","","","","35","","","","","","","","","","","","","","","","","","","","","",""
"null","","image-button-response","83","953447","0.0-82.0","A2NQO8RQIG3D0C","img_art/30.jpg","null","","","","","","","","","","","","","","","","","","","","","","","","",""
"11543","","image-button-response","84","964995","0.0-83.0","A2NQO8RQIG3D0C","img_art/30.jpg","4","","","","","","","","","","","","","","","","","","","","","","","","",""
"5301","","image-button-response","85","970300","0.0-84.0-0.0","A2NQO8RQIG3D0C","img_art/30.jpg","5","","","","","","","","","","","","","","","","","","","","","","","","",""
"11880","","image-button-response","86","982185","0.0-85.0-0.0","A2NQO8RQIG3D0C","img_art/30.jpg","3","","","","","","","","","","","","","","","","","","","","","","","","",""
"null","","html-keyboard-response","87","983689","0.0-86.0","A2NQO8RQIG3D0C","<p style=""font-size: 48px;"">+</p>","","","","","null","allTrialResponses","1500","1","6","img_art/30.jpg","35","Very bold with passion.","Vanessa,Michaela,Angelica,Andrea,Madison,Mariah","I like the red against the blue, but otherwise, it's not really my taste,4,380,20","My son made me a painting that looked like this,26,260,20","This is just simple and ugly.,-2,280,20","It feels like graffiti and the dark colors do nothing for the mood.,-5,240,20","Interesting brushstroke work, but not particularly memorable.,21,60,20","It just feels hasty and not well composed. Has an angsty teen feel,-31,140,20","Madison","Interesting brushstroke work, but not particularly memorable.,21,60,20","Mariah","It just feels hasty and not well composed. Has an angsty teen feel,-31,140,20","Andrea","It feels like graffiti and the dark colors do nothing for the mood.,-5,240,20","2"
"15575","","survey-text","88","999271","0.0-87.0-0.0","A2NQO8RQIG3D0C","","","","{""Q0"":""This makes my skin crawl.""}","","","","","","","","","","","","","","","","","","","","","","",""
"2982.2999999523163","","image-slider-response","89","1002258","0.0-88.0","A2NQO8RQIG3D0C","","","","","-23","","","","","","","","","","","","","","","","","","","","","",""
"null","","image-button-response","90","1007268","0.0-89.0","A2NQO8RQIG3D0C","img_art/7.jpg","null","","","","","","","","","","","","","","","","","","","","","","","","",""
"9816","","image-button-response","91","1017088","0.0-90.0","A2NQO8RQIG3D0C","img_art/7.jpg","3","","","","","","","","","","","","","","","","","","","","","","","","",""
"5495","","image-button-response","92","1022588","0.0-91.0-0.0","A2NQO8RQIG3D0C","img_art/7.jpg","4","","","","","","","","","","","","","","","","","","","","","","","","",""
"8886","","image-button-response","93","1031479","0.0-92.0-0.0","A2NQO8RQIG3D0C","img_art/7.jpg","5","","","","","","","","","","","","","","","","","","","","","","","","",""
"null","","html-keyboard-response","94","1031983","0.0-93.0","A2NQO8RQIG3D0C","<p style=""font-size: 48px;"">+</p>","","","","","null","allTrialResponses","500","1","7","img_art/7.jpg","-23","This makes my skin crawl.","Katelyn,Cheyenne,Shannon,Andrea,Madison,Mariah","Makes me think of the beach which makes me happy,14,100,20","Nice realistic feel but nothing stands out.,4,200,20","I don't like the repetitiveness of the colors, and I think there should be more colors.,-50,220,20","Reminds me of mold. Repulsive.,-10,240,20","Is this a painting, really? Very compelling if so, the texture work is incredible.,15,60,20","The dried bottom of a puddle in July.,-41,140,20","Andrea","Reminds me of mold. Repulsive.,-10,240,20","Madison","Is this a painting, really? Very compelling if so, the texture work is incredible.,15,60,20","Mariah","The dried bottom of a puddle in July.,-41,140,20","2"
"16599","","survey-text","95","1048589","0.0-94.0-0.0","A2NQO8RQIG3D0C","","","","{""Q0"":""A party in the clouds.""}","","","","","","","","","","","","","","","","","","","","","","",""
"3646.2000000476837","","image-slider-response","96","1052239","0.0-95.0","A2NQO8RQIG3D0C","","","","","11","","","","","","","","","","","","","","","","","","","","","",""
"null","","image-button-response","97","1057248","0.0-96.0","A2NQO8RQIG3D0C","img_art/27.jpg","null","","","","","","","","","","","","","","","","","","","","","","","","",""
"3232","","image-button-response","98","1060483","0.0-97.0","A2NQO8RQIG3D0C","img_art/27.jpg","1","","","","","","","","","","","","","","","","","","","","","","","","",""
"8557","","image-button-response","99","1069043","0.0-98.0-0.0","A2NQO8RQIG3D0C","img_art/27.jpg","3","","","","","","","","","","","","","","","","","","","","","","","","",""
"22678","","image-button-response","100","1091728","0.0-99.0-0.0","A2NQO8RQIG3D0C","img_art/27.jpg","5","","","","","","","","","","","","","","","","","","","","","","","","",""
"null","","html-keyboard-response","101","1092736","0.0-100.0","A2NQO8RQIG3D0C","<p style=""font-size: 48px;"">+</p>","","","","","null","allTrialResponses","1000","1","8","img_art/27.jpg","11","A party in the clouds.","Autumn,Alexa,Kelly,Andrea,Madison,Mariah","Adult contemporary painting with child.,-33,340,20","I love the mood of this painting,30,40,20","The green stick drawings or whatever they are ruin it for me.,-23,220,20","I see a cathedral through the woods.,12,240,20","The photographing is horribly distracting. I would feel more favorable toward the original colors/ brightness,1,60,20","The green lines disrupt the image in an unpleasant and hurried way.,-30,140,20","Alexa","I love the mood of this painting,30,40,20","Andrea","I see a cathedral through the woods.,12,240,20","Mariah","The green lines disrupt the image in an unpleasant and hurried way.,-30,140,20","2"
"32879","","survey-text","102","1125623","0.0-101.0-0.0","A2NQO8RQIG3D0C","","","","{""Q0"":""I think of earthy places with lots of clay art.""}","","","","","","","","","","","","","","","","","","","","","","",""
"2743.5999999046326","","image-slider-response","103","1128371","0.0-102.0","A2NQO8RQIG3D0C","","","","","6","","","","","","","","","","","","","","","","","","","","","",""
"null","","image-button-response","104","1133380","0.0-103.0","A2NQO8RQIG3D0C","img_art/1.jpg","null","","","","","","","","","","","","","","","","","","","","","","","","",""
"1470","","image-button-response","105","1134853","0.0-104.0","A2NQO8RQIG3D0C","img_art/1.jpg","1","","","","","","","","","","","","","","","","","","","","","","","","",""
"9186","","image-button-response","106","1144043","0.0-105.0-0.0","A2NQO8RQIG3D0C","img_art/1.jpg","5","","","","","","","","","","","","","","","","","","","","","","","","",""
"2352","","image-button-response","107","1146401","0.0-106.0-0.0","A2NQO8RQIG3D0C","img_art/1.jpg","0","","","","","","","","","","","","","","","","","","","","","","","","",""
"null","","html-keyboard-response","108","1146905","0.0-107.0","A2NQO8RQIG3D0C","<p style=""font-size: 48px;"">+</p>","","","","","null","allTrialResponses","500","1","9","img_art/1.jpg","6","I think of earthy places with lots of clay art.","Cynthia,Alexa,Savannah,Andrea,Gabrielle,Mariah","fishing on the lake surrounded by trees,42,320,20","The blend of colors are gorgeous and reminds me of fall,32,40,20","Its simply okay.,3,200,20","It just doesn't speak to me.,0,240,20","nice piece, fall like,31,160,20","Colors are pleasant, but feels incredibly generic.,9,140,20","Alexa","The blend of colors are gorgeous and reminds me of fall,32,40,20","Mariah","Colors are pleasant, but feels incredibly generic.,9,140,20","Cynthia","fishing on the lake surrounded by trees,42,320,20","2"
"43249","","survey-text","109","1190161","0.0-108.0-0.0","A2NQO8RQIG3D0C","","","","{""Q0"":""A lot of excitement with people enjoying themselves.""}","","","","","","","","","","","","","","","","","","","","","","",""
"3309.100000143051","","image-slider-response","110","1193473","0.0-109.0","A2NQO8RQIG3D0C","","","","","26","","","","","","","","","","","","","","","","","","","","","",""
"null","","image-button-response","111","1198483","0.0-110.0","A2NQO8RQIG3D0C","img_art/23.jpg","null","","","","","","","","","","","","","","","","","","","","","","","","",""
"15871","","image-button-response","112","1214357","0.0-111.0","A2NQO8RQIG3D0C","img_art/23.jpg","4","","","","","","","","","","","","","","","","","","","","","","","","",""
"3161","","image-button-response","113","1217523","0.0-112.0-0.0","A2NQO8RQIG3D0C","img_art/23.jpg","5","","","","","","","","","","","","","","","","","","","","","","","","",""
"2038","","image-button-response","114","1219566","0.0-113.0-0.0","A2NQO8RQIG3D0C","img_art/23.jpg","1","","","","","","","","","","","","","","","","","","","","","","","","",""
"null","","html-keyboard-response","115","1220573","0.0-114.0","A2NQO8RQIG3D0C","<p style=""font-size: 48px;"">+</p>","","","","","null","allTrialResponses","1000","1","10","img_art/23.jpg","26","A lot of excitement with people enjoying themselves.","Cynthia,Alexa,Kayla,Meghan,Kathryn,Mariah","puzzled with curiosity,31,320,20","Very colorful and wild. It's cool and I like it,32,40,20","Like a wound that has been sutured. Pain, but also healing.,5,180,20","reminds me of an album cover,36,220,20","I feel positive community and comfort. Singing along at a concert, united with a bunch of strangers through shared joy.,20,140,20","It feels active and vibrant.,20,140,20","Kathryn","I feel positive community and comfort. Singing along at a concert, united with a bunch of strangers through shared joy.,20,140,20","Mariah","It feels active and vibrant.,20,140,20","Alexa","Very colorful and wild. It's cool and I like it,32,40,20","2"
"6860","","survey-text","116","1227445","0.0-115.0-0.0","A2NQO8RQIG3D0C","","","","{""Q0"":""our""}","","","","","","","","","","","","","","","","","","","","","","",""
"33028","","survey-text","117","1260477","0.0-116.0-0.0","A2NQO8RQIG3D0C","","","","{""Q0"":""Reminds me of a sad moment in childhood.""}","","","","","","","","","","","","","","","","","","","","","","",""
"4307.700000047684","","image-slider-response","118","1264787","0.0-117.0","A2NQO8RQIG3D0C","","","","","3","","","","","","","","","","","","","","","","","","","","","",""
"null","","image-button-response","119","1269797","0.0-118.0","A2NQO8RQIG3D0C","img_art/16.jpg","null","","","","","","","","","","","","","","","","","","","","","","","","",""
"2615","","image-button-response","120","1272415","0.0-119.0","A2NQO8RQIG3D0C","img_art/16.jpg","1","","","","","","","","","","","","","","","","","","","","","","","","",""
"13719","","image-button-response","121","1286138","0.0-120.0-0.0","A2NQO8RQIG3D0C","img_art/16.jpg","4","","","","","","","","","","","","","","","","","","","","","","","","",""
"6788","","image-button-response","122","1292932","0.0-121.0-0.0","A2NQO8RQIG3D0C","img_art/16.jpg","3","","","","","","","","","","","","","","","","","","","","","","","","",""
"null","","html-keyboard-response","123","1293435","0.0-122.0","A2NQO8RQIG3D0C","<p style=""font-size: 48px;"">+</p>","","","","","null","allTrialResponses","500","1","11","img_art/16.jpg","3","Reminds me of a sad moment in childhood.","Abigail,Alexa,Isabella,Margaret,Kathryn,Mariah","The bear makes me very uncomfortable,-50,20,20","I can't figure out the meaning of this painting but it is pleasant to look at,40,40,20","This looks chaotic,-25,280,20","i like how it incorporates mixed visual art with the photo of the bear and the drawings,30,100,20","I see something that is supposed to be comforting but it's been discarded and lost.,-20,140,20","Why is that bear there? It looks like it would be gross to touch. The texture bothers me.,-20,140,20","Alexa","I can't figure out the meaning of this painting but it is pleasant to look at,40,40,20","Kathryn","I see something that is supposed to be comforting but it's been discarded and lost.,-20,140,20","Margaret","i like how it incorporates mixed visual art with the photo of the bear and the drawings,30,100,20","2"
"37354","","survey-text","124","1330798","0.0-123.0-0.0","A2NQO8RQIG3D0C","","","","{""Q0"":""This feels like a relaxing day walking in the town.""}","","","","","","","","","","","","","","","","","","","","","","",""
"4857","","image-slider-response","125","1335658","0.0-124.0","A2NQO8RQIG3D0C","","","","","43","","","","","","","","","","","","","","","","","","","","","",""
"null","","image-button-response","126","1340668","0.0-125.0","A2NQO8RQIG3D0C","img_art/19.jpg","null","","","","","","","","","","","","","","","","","","","","","","","","",""
"15605","","image-button-response","127","1356277","0.0-126.0","A2NQO8RQIG3D0C","img_art/19.jpg","4","","","","","","","","","","","","","","","","","","","","","","","","",""
"7240","","image-button-response","128","1363522","0.0-127.0-0.0","A2NQO8RQIG3D0C","img_art/19.jpg","0","","","","","","","","","","","","","","","","","","","","","","","","",""
"7901","","image-button-response","129","1371428","0.0-128.0-0.0","A2NQO8RQIG3D0C","img_art/19.jpg","1","","","","","","","","","","","","","","","","","","","","","","","","",""
"null","","html-keyboard-response","130","1372433","0.0-129.0","A2NQO8RQIG3D0C","<p style=""font-size: 48px;"">+</p>","","","","","null","allTrialResponses","1000","1","12","img_art/19.jpg","43","This feels like a relaxing day walking in the town.","Katherine,Alexa,Cassandra,Margaret,Kathryn,Jasmine","I dig the not being able to tell what anything is but knowing everything is supposed to be something,46,120,20","It has a chaotic energy about it that draws me in,40,40,20","Nuetral...can't think of anything to say,4,120,20","i think it is ugly and hate the colors,-35,100,20","This one feels pretty neutral. Like a window into someone's life, one person in a bustling metropolis.,0,140,20","Just stirred a negative reaction. Don't really like it perhaps because of the structure?,-8,340,20","Kathryn","This one feels pretty neutral. Like a window into someone's life, one person in a bustling metropolis.,0,140,20","Katherine","I dig the not being able to tell what anything is but knowing everything is supposed to be something,46,120,20","Alexa","It has a chaotic energy about it that draws me in,40,40,20","2"
"35520","","survey-text","131","1407960","0.0-130.0-0.0","A2NQO8RQIG3D0C","","","","{""Q0"":""Feels like I am falling back to a castle I do not belong.""}","","","","","","","","","","","","","","","","","","","","","","",""
"2984.9000000953674","","image-slider-response","132","1410949","0.0-131.0","A2NQO8RQIG3D0C","","","","","11","","","","","","","","","","","","","","","","","","","","","",""
"null","","image-button-response","133","1415958","0.0-132.0","A2NQO8RQIG3D0C","img_art/8.jpg","null","","","","","","","","","","","","","","","","","","","","","","","","",""
"8241","","image-button-response","134","1424202","0.0-133.0","A2NQO8RQIG3D0C","img_art/8.jpg","4","","","","","","","","","","","","","","","","","","","","","","","","",""
"4688","","image-button-response","135","1428894","0.0-134.0-0.0","A2NQO8RQIG3D0C","img_art/8.jpg","5","","","","","","","","","","","","","","","","","","","","","","","","",""
"5157","","image-button-response","136","1434056","0.0-135.0-0.0","A2NQO8RQIG3D0C","img_art/8.jpg","0","","","","","","","","","","","","","","","","","","","","","","","","",""
"null","","html-keyboard-response","137","1435564","0.0-136.0","A2NQO8RQIG3D0C","<p style=""font-size: 48px;"">+</p>","","","","","null","allTrialResponses","1500","1","13","img_art/8.jpg","11","Feels like I am falling back to a castle I do not belong.","Katherine,Alexa,Cassidy,Kimberly,Kathryn,Jenna","This is really cool, I love the fragments of faces,38,120,20","It's simply gorgeous. This artist is very talented,50,40,20","I like the colors,10,140,20","Feels very 90's but I like the doorway,15,260,20","The angle makes it kind of disorienting but I enjoy the fantastical colors and imagery. It's like a dream.,10,140,20","beautiful colors & details. love the surrealism & strange angle. the faces are interesting.,50,360,20","Kathryn","The angle makes it kind of disorienting but I enjoy the fantastical colors and imagery. It's like a dream.,10,140,20","Jenna","beautiful colors & details. love the surrealism & strange angle. the faces are interesting.,50,360,20","Katherine","This is really cool, I love the fragments of faces,38,120,20","2"
"17070","","survey-text","138","1452641","0.0-137.0-0.0","A2NQO8RQIG3D0C","","","","{""Q0"":""I feel like I am relaxing in nature.""}","","","","","","","","","","","","","","","","","","","","","","",""
"5171.700000047684","","image-slider-response","139","1457817","0.0-138.0","A2NQO8RQIG3D0C","","","","","38","","","","","","","","","","","","","","","","","","","","","",""
"null","","image-button-response","140","1462826","0.0-139.0","A2NQO8RQIG3D0C","img_art/24.jpg","null","","","","","","","","","","","","","","","","","","","","","","","","",""
"1351","","image-button-response","141","1464180","0.0-140.0","A2NQO8RQIG3D0C","img_art/24.jpg","0","","","","","","","","","","","","","","","","","","","","","","","","",""
"15274","","image-button-response","142","1479458","0.0-141.0-0.0","A2NQO8RQIG3D0C","img_art/24.jpg","4","","","","","","","","","","","","","","","","","","","","","","","","",""
"4918","","image-button-response","143","1484379","0.0-142.0-0.0","A2NQO8RQIG3D0C","img_art/24.jpg","3","","","","","","","","","","","","","","","","","","","","","","","","",""
"null","","html-keyboard-response","144","1484883","0.0-143.0","A2NQO8RQIG3D0C","<p style=""font-size: 48px;"">+</p>","","","","","null","allTrialResponses","500","1","14","img_art/24.jpg","38","I feel like I am relaxing in nature.","Katherine,Alexis,Tiffany,Alyssa,Kathryn,Jenna","The combination of nature / realism with abstract colors is unique.,39,120,20","Simple. Not too abstract. Love the different flower colors.,20,100,20","I feel relaxed and happy, looking at the stream, but it feels hollow, like something is fake.,5,360,20","Beautiful.Nice use of colors and invokes feelings of serene and peace,40,160,20","This is clear and healthy. It makes me think of unspoiled nature.,20,140,20","colors are a bit cramped together. really unique take on a waterfall though.,32,360,20","Katherine","The combination of nature / realism with abstract colors is unique.,39,120,20","Kathryn","This is clear and healthy. It makes me think of unspoiled nature.,20,140,20","Alyssa","Beautiful.Nice use of colors and invokes feelings of serene and peace,40,160,20","2"
"29467","","survey-text","145","1514358","0.0-144.0-0.0","A2NQO8RQIG3D0C","","","","{""Q0"":""Each day feeling the same as the last.""}","","","","","","","","","","","","","","","","","","","","","","",""
"5745","","image-slider-response","146","1520108","0.0-145.0","A2NQO8RQIG3D0C","","","","","18","","","","","","","","","","","","","","","","","","","","","",""
"null","","image-button-response","147","1525117","0.0-146.0","A2NQO8RQIG3D0C","img_art/28.jpg","null","","","","","","","","","","","","","","","","","","","","","","","","",""
"1616","","image-button-response","148","1526737","0.0-147.0","A2NQO8RQIG3D0C","img_art/28.jpg","1","","","","","","","","","","","","","","","","","","","","","","","","",""
"12266","","image-button-response","149","1539007","0.0-148.0-0.0","A2NQO8RQIG3D0C","img_art/28.jpg","2","","","","","","","","","","","","","","","","","","","","","","","","",""
"1772","","image-button-response","150","1540784","0.0-149.0-0.0","A2NQO8RQIG3D0C","img_art/28.jpg","5","","","","","","","","","","","","","","","","","","","","","","","","",""
"null","","html-keyboard-response","151","1541288","0.0-150.0","A2NQO8RQIG3D0C","<p style=""font-size: 48px;"">+</p>","","","","","null","allTrialResponses","500","1","15","img_art/28.jpg","18","Each day feeling the same as the last.","Katherine,Michelle,Miranda,Alyssa,Kathryn,Lauren","Eh it's just kinda brown and muddy and not very nice looking,-18,120,20","This piece is depressing to me, reminds me of German paintings,-6,280,20","This one looks very dark and seems like it has a lot of depth to it.,31,320,20","Not a fan of the bleak and dreary colors,-10,160,20","My immediate reaction was to think of smog. It recalls choking on dirty air.,-20,140,20","I feel that the image is invoking a sense of negativity.,-15,340,20","Michelle","This piece is depressing to me, reminds me of German paintings,-6,280,20","Miranda","This one looks very dark and seems like it has a lot of depth to it.,31,320,20","Lauren","I feel that the image is invoking a sense of negativity.,-15,340,20","2"
"9986","","survey-text","152","1551289","0.0-151.0-0.0","A2NQO8RQIG3D0C","","","","{""Q0"":""course""}","","","","","","","","","","","","","","","","","","","","","","",""
"24174","","survey-text","153","1575466","0.0-152.0-0.0","A2NQO8RQIG3D0C","","","","{""Q0"":""A dark day in the desert.""}","","","","","","","","","","","","","","","","","","","","","","",""
"4357.699999809265","","image-slider-response","154","1579828","0.0-153.0","A2NQO8RQIG3D0C","","","","","10","","","","","","","","","","","","","","","","","","","","","",""
"null","","image-button-response","155","1584838","0.0-154.0","A2NQO8RQIG3D0C","img_art/20.jpg","null","","","","","","","","","","","","","","","","","","","","","","","","",""
"10280","","image-button-response","156","1595121","0.0-155.0","A2NQO8RQIG3D0C","img_art/20.jpg","2","","","","","","","","","","","","","","","","","","","","","","","","",""
"2338","","image-button-response","157","1597463","0.0-156.0-0.0","A2NQO8RQIG3D0C","img_art/20.jpg","4","","","","","","","","","","","","","","","","","","","","","","","","",""
"1991","","image-button-response","158","1599458","0.0-157.0-0.0","A2NQO8RQIG3D0C","img_art/20.jpg","5","","","","","","","","","","","","","","","","","","","","","","","","",""
"null","","html-keyboard-response","159","1599961","0.0-158.0","A2NQO8RQIG3D0C","<p style=""font-size: 48px;"">+</p>","","","","","null","allTrialResponses","500","1","16","img_art/20.jpg","10","A dark day in the desert.","Christina,Michelle,Miranda,Alexandria,Crystal,Lauren","it looks like a piccasso knock off,-23,240,20","Reminds me of Dali for some reason, whom I don't like,-7,280,20","A painting within a painting, the inner painting looks like a car crash with a semi truck.,21,320,20","it looks like a car crash which is depressing,-19,80,20","The pulling and sagging nature is very beautiful.,30,300,20","I like how the image is depicting a scene.,10,340,20","Miranda","A painting within a painting, the inner painting looks like a car crash with a semi truck.,21,320,20","Crystal","The pulling and sagging nature is very beautiful.,30,300,20","Lauren","I like how the image is depicting a scene.,10,340,20","2"
"17230","","survey-text","160","1617200","0.0-159.0-0.0","A2NQO8RQIG3D0C","","","","{""Q0"":""I see a lot of pain and violence.""}","","","","","","","","","","","","","","","","","","","","","","",""
"4391.400000095367","","image-slider-response","161","1621595","0.0-160.0","A2NQO8RQIG3D0C","","","","","3","","","","","","","","","","","","","","","","","","","","","",""
"null","","image-button-response","162","1626606","0.0-161.0","A2NQO8RQIG3D0C","img_art/3.jpg","null","","","","","","","","","","","","","","","","","","","","","","","","",""
"1373","","image-button-response","163","1627982","0.0-162.0","A2NQO8RQIG3D0C","img_art/3.jpg","2","","","","","","","","","","","","","","","","","","","","","","","","",""
"6029","","image-button-response","164","1634015","0.0-163.0-0.0","A2NQO8RQIG3D0C","img_art/3.jpg","4","","","","","","","","","","","","","","","","","","","","","","","","",""
"8986","","image-button-response","165","1643008","0.0-164.0-0.0","A2NQO8RQIG3D0C","img_art/3.jpg","3","","","","","","","","","","","","","","","","","","","","","","","","",""
"null","","html-keyboard-response","166","1644516","0.0-165.0","A2NQO8RQIG3D0C","<p style=""font-size: 48px;"">+</p>","","","","","null","allTrialResponses","1500","1","17","img_art/3.jpg","3","I see a lot of pain and violence.","Katie,Stephanie,Miranda,Mary,Crystal,Lauren","Messy. Looks like a children's drawing being passed off as expensive art. Too much red.,-50,160,20","I think of an angry child,-50,300,20","It just makes me think of blood splattered everywhere.,-31,320,20","I usually don't like red. Red in this angry piece is very fitting.,19,180,20","I like the abstract flowing lines. It lacks hard rigid marks and flow nicely into a piece of calamity.,32,300,20","No clue what I'm looking. This just looks a series of scribbles in a box.,-20,340,20","Miranda","It just makes me think of blood splattered everywhere.,-31,320,20","Crystal","I like the abstract flowing lines. It lacks hard rigid marks and flow nicely into a piece of calamity.,32,300,20","Mary","I usually don't like red. Red in this angry piece is very fitting.,19,180,20","2"
"19425","","survey-text","167","1663949","0.0-166.0-0.0","A2NQO8RQIG3D0C","","","","{""Q0"":""This reminds me of the 1980s.""}","","","","","","","","","","","","","","","","","","","","","","",""
"4793.899999856949","","image-slider-response","168","1668746","0.0-167.0","A2NQO8RQIG3D0C","","","","","1","","","","","","","","","","","","","","","","","","","","","",""
"null","","image-button-response","169","1673751","0.0-168.0","A2NQO8RQIG3D0C","img_art/22.jpg","null","","","","","","","","","","","","","","","","","","","","","","","","",""
"13180","","image-button-response","170","1686934","0.0-169.0","A2NQO8RQIG3D0C","img_art/22.jpg","4","","","","","","","","","","","","","","","","","","","","","","","","",""
"4857","","image-button-response","171","1691795","0.0-170.0-0.0","A2NQO8RQIG3D0C","img_art/22.jpg","0","","","","","","","","","","","","","","","","","","","","","","","","",""
"5566","","image-button-response","172","1697366","0.0-171.0-0.0","A2NQO8RQIG3D0C","img_art/22.jpg","1","","","","","","","","","","","","","","","","","","","","","","","","",""
"null","","html-keyboard-response","173","1697871","0.0-172.0","A2NQO8RQIG3D0C","<p style=""font-size: 48px;"">+</p>","","","","","null","allTrialResponses","500","1","18","img_art/22.jpg","1","This reminds me of the 1980s.","Caitlin,Alicia,Miranda,Mary,Crystal,Lindsey","Looks like the kind of art I would see at the doctor's office.,-5,80,20","Could be interpreted so many ways, bold. I like it.,29,120,20","Its very warm, it reminds of someone not liking their painting so they destoryed it,26,320,20","I do not like the color combo. This piece is too much the same throughout.,-1,180,20","Beautiful use of chalk or pastels. Love the abstract nature.,35,300,20","Too much contrasting colors makes me feel anxious. I don't like it.,-20,400,20","Crystal","Beautiful use of chalk or pastels. Love the abstract nature.,35,300,20","Caitlin","Looks like the kind of art I would see at the doctor's office.,-5,80,20","Alicia","Could be interpreted so many ways, bold. I like it.,29,120,20","2"
"20344","","survey-text","174","1718224","0.0-173.0-0.0","A2NQO8RQIG3D0C","","","","{""Q0"":""This makes me calm.""}","","","","","","","","","","","","","","","","","","","","","","",""
"6948.600000143051","","image-slider-response","175","1725177","0.0-174.0","A2NQO8RQIG3D0C","","","","","38","","","","","","","","","","","","","","","","","","","","","",""
"null","","image-button-response","176","1730187","0.0-175.0","A2NQO8RQIG3D0C","img_art/17.jpg","null","","","","","","","","","","","","","","","","","","","","","","","","",""
"2045","","image-button-response","177","1732236","0.0-176.0","A2NQO8RQIG3D0C","img_art/17.jpg","1","","","","","","","","","","","","","","","","","","","","","","","","",""
"3776","","image-button-response","178","1736016","0.0-177.0-0.0","A2NQO8RQIG3D0C","img_art/17.jpg","3","","","","","","","","","","","","","","","","","","","","","","","","",""
"2781","","image-button-response","179","1738803","0.0-178.0-0.0","A2NQO8RQIG3D0C","img_art/17.jpg","4","","","","","","","","","","","","","","","","","","","","","","","","",""
"null","","html-keyboard-response","180","1739307","0.0-179.0","A2NQO8RQIG3D0C","<p style=""font-size: 48px;"">+</p>","","","","","null","allTrialResponses","500","1","19","img_art/17.jpg","38","This makes me calm.","Caitlin,Alicia,Kaylee,Alexandra,Crystal,Julia","Somewhat should trim the tree branches at the shopping mall.,10,80,20","Like this one, super creative, calming.,43,120,20","colorful tree really cool,27,200,20","This is very beautiful and elegant.,42,60,20","Embodies beauty and complexity and in simplicity as well,50,300,20","I'm not into paintings of trees,-18,40,20","Alicia","Like this one, super creative, calming.,43,120,20","Alexandra","This is very beautiful and elegant.,42,60,20","Crystal","Embodies beauty and complexity and in simplicity as well,50,300,20","2"
"17358","","survey-text","181","1756675","0.0-180.0-0.0","A2NQO8RQIG3D0C","","","","{""Q0"":""This is a lonely painting.""}","","","","","","","","","","","","","","","","","","","","","","",""
"4456.599999904633","","image-slider-response","182","1761135","0.0-181.0","A2NQO8RQIG3D0C","","","","","2","","","","","","","","","","","","","","","","","","","","","",""
"null","","image-button-response","183","1766143","0.0-182.0","A2NQO8RQIG3D0C","img_art/6.jpg","null","","","","","","","","","","","","","","","","","","","","","","","","",""
"9524","","image-button-response","184","1775670","0.0-183.0","A2NQO8RQIG3D0C","img_art/6.jpg","4","","","","","","","","","","","","","","","","","","","","","","","","",""
"4640","","image-button-response","185","1780314","0.0-184.0-0.0","A2NQO8RQIG3D0C","img_art/6.jpg","0","","","","","","","","","","","","","","","","","","","","","","","","",""
"9040","","image-button-response","186","1789359","0.0-185.0-0.0","A2NQO8RQIG3D0C","img_art/6.jpg","3","","","","","","","","","","","","","","","","","","","","","","","","",""
"null","","html-keyboard-response","187","1790364","0.0-186.0","A2NQO8RQIG3D0C","<p style=""font-size: 48px;"">+</p>","","","","","null","allTrialResponses","1000","1","20","img_art/6.jpg","2","This is a lonely painting.","Sophia,Alicia,Allison,Alexandra,Crystal,Laura","It's okay. It kind of looks like a bird with his head buried in his feathers.,2,280,20","kids book cover, uninteresting.,-10,120,20","Simple desert scene.,5,140,20","this is interesting and unique,11,60,20","Gives me a feeling of solitude and nothingness,11,300,20","graceful and light,35,320,20","Crystal","Gives me a feeling of solitude and nothingness,11,300,20","Sophia","It's okay. It kind of looks like a bird with his head buried in his feathers.,2,280,20","Alexandra","this is interesting and unique,11,60,20","2"
"4875","","survey-text","188","1795253","0.0-187.0-0.0","A2NQO8RQIG3D0C","","","","{""Q0"":""we""}","","","","","","","","","","","","","","","","","","","","","","",""
"13250","","survey-text","189","1808506","0.0-188.0-0.0","A2NQO8RQIG3D0C","","","","{""Q0"":""This looks very expensive.""}","","","","","","","","","","","","","","","","","","","","","","",""
"2823","","image-slider-response","190","1811333","0.0-189.0","A2NQO8RQIG3D0C","","","","","26","","","","","","","","","","","","","","","","","","","","","",""
"null","","image-button-response","191","1816341","0.0-190.0","A2NQO8RQIG3D0C","img_art/10.jpg","null","","","","","","","","","","","","","","","","","","","","","","","","",""
"2388","","image-button-response","192","1818732","0.0-191.0","A2NQO8RQIG3D0C","img_art/10.jpg","1","","","","","","","","","","","","","","","","","","","","","","","","",""
"10971","","image-button-response","193","1829707","0.0-192.0-0.0","A2NQO8RQIG3D0C","img_art/10.jpg","4","","","","","","","","","","","","","","","","","","","","","","","","",""
"3143","","image-button-response","194","1832856","0.0-193.0-0.0","A2NQO8RQIG3D0C","img_art/10.jpg","0","","","","","","","","","","","","","","","","","","","","","","","","",""
"null","","html-keyboard-response","195","1834359","0.0-194.0","A2NQO8RQIG3D0C","<p style=""font-size: 48px;"">+</p>","","","","","null","allTrialResponses","1500","1","21","img_art/10.jpg","26","This looks very expensive.","Sophia,Leah,Kelsey,Alexandra,Crystal,Maria","This piece is very intriguing to me.,3,280,20","Dark with no object, looks like experimentation, slightly like a storm on the ocean,-21,360,20","reminds me of a violin,9,240,20","The longer I looked at this, the more I liked it,33,60,20","The contrast between the messy dots/dabs vs the straight affluent lines is unappealing,-20,300,20","not sure what to make of this one,0,120,20","Leah","Dark with no object, looks like experimentation, slightly like a storm on the ocean,-21,360,20","Crystal","The contrast between the messy dots/dabs vs the straight affluent lines is unappealing,-20,300,20","Sophia","This piece is very intriguing to me.,3,280,20","2"
"36761","","survey-text","196","1871128","0.0-195.0-0.0","A2NQO8RQIG3D0C","","","","{""Q0"":""This looks like a secret place in the lake.""}","","","","","","","","","","","","","","","","","","","","","","",""
"2766","","image-slider-response","197","1873898","0.0-196.0","A2NQO8RQIG3D0C","","","","","35","","","","","","","","","","","","","","","","","","","","","",""
"null","","image-button-response","198","1878908","0.0-197.0","A2NQO8RQIG3D0C","img_art/9.jpg","null","","","","","","","","","","","","","","","","","","","","","","","","",""
"10260","","image-button-response","199","1889172","0.0-198.0","A2NQO8RQIG3D0C","img_art/9.jpg","4","","","","","","","","","","","","","","","","","","","","","","","","",""
"6068","","image-button-response","200","1895245","0.0-199.0-0.0","A2NQO8RQIG3D0C","img_art/9.jpg","1","","","","","","","","","","","","","","","","","","","","","","","","",""
"9272","","image-button-response","201","1904523","0.0-200.0-0.0","A2NQO8RQIG3D0C","img_art/9.jpg","2","","","","","","","","","","","","","","","","","","","","","","","","",""
"null","","html-keyboard-response","202","1905531","0.0-201.0","A2NQO8RQIG3D0C","<p style=""font-size: 48px;"">+</p>","","","","","null","allTrialResponses","1000","1","22","img_art/9.jpg","35","This looks like a secret place in the lake.","Sophia,Leah,Destiny,Haley,Crystal,Brianna","Yikes. I'm not sure what to make of this one.,-14,280,20","Depressing to me, like a dark dream,-11,360,20","is that sleeping beauty,33,360,20","I don't like the picture, but it wouldn't surprise me if someone did,-20,220,20","Evokes triumph of a mountain over powering a drowning sea,24,300,20","This has some of my favorite colors, and I like it,21,20,20","Crystal","Evokes triumph of a mountain over powering a drowning sea,24,300,20","Leah","Depressing to me, like a dark dream,-11,360,20","Destiny","is that sleeping beauty,33,360,20","2"
"27824","","survey-text","203","1933365","0.0-202.0-0.0","A2NQO8RQIG3D0C","","","","{""Q0"":""Pouring water on an erupting  volcano.""}","","","","","","","","","","","","","","","","","","","","","","",""
"5397.399999856949","","image-slider-response","204","1938766","0.0-203.0","A2NQO8RQIG3D0C","","","","","-14","","","","","","","","","","","","","","","","","","","","","",""
"null","","image-button-response","205","1943771","0.0-204.0","A2NQO8RQIG3D0C","img_art/5.jpg","null","","","","","","","","","","","","","","","","","","","","","","","","",""
"9594","","image-button-response","206","1953369","0.0-205.0","A2NQO8RQIG3D0C","img_art/5.jpg","4","","","","","","","","","","","","","","","","","","","","","","","","",""
"6859","","image-button-response","207","1960233","0.0-206.0-0.0","A2NQO8RQIG3D0C","img_art/5.jpg","2","","","","","","","","","","","","","","","","","","","","","","","","",""
"3499","","image-button-response","208","1963737","0.0-207.0-0.0","A2NQO8RQIG3D0C","img_art/5.jpg","1","","","","","","","","","","","","","","","","","","","","","","","","",""
"null","","html-keyboard-response","209","1964746","0.0-208.0","A2NQO8RQIG3D0C","<p style=""font-size: 48px;"">+</p>","","","","","null","allTrialResponses","1000","1","23","img_art/5.jpg","-14","Pouring water on an erupting  volcano.","Jamie,Leah,Destiny,Morgan,Crystal,Jessica","Don't really see it and yellow/pink don't go well together,-35,320,20","Boring, no flow except the pink feathery band,-42,360,20","Just doesn't do a whole lot for me. I see Cinderellas broom,-11,360,20","Dull pyramid that says nothing.,7,380,20","Confused as to what the artist is attempting to do.,-50,300,20","Don't really know the point of this one.,-11,400,20","Crystal","Confused as to what the artist is attempting to do.,-50,300,20","Destiny","Just doesn't do a whole lot for me. I see Cinderellas broom,-11,360,20","Leah","Boring, no flow except the pink feathery band,-42,360,20","2"
"14047","","survey-text","210","1978801","0.0-209.0-0.0","A2NQO8RQIG3D0C","","","","{""Q0"":""Looks like a distorted hand.""}","","","","","","","","","","","","","","","","","","","","","","",""
"3807.100000143051","","image-slider-response","211","1982612","0.0-210.0","A2NQO8RQIG3D0C","","","","","-8","","","","","","","","","","","","","","","","","","","","","",""
"null","","image-button-response","212","1987622","0.0-211.0","A2NQO8RQIG3D0C","img_art/4.jpg","null","","","","","","","","","","","","","","","","","","","","","","","","",""
"4712","","image-button-response","213","1992337","0.0-212.0","A2NQO8RQIG3D0C","img_art/4.jpg","3","","","","","","","","","","","","","","","","","","","","","","","","",""
"3290","","image-button-response","214","1995631","0.0-213.0-0.0","A2NQO8RQIG3D0C","img_art/4.jpg","4","","","","","","","","","","","","","","","","","","","","","","","","",""
"2507","","image-button-response","215","1998143","0.0-214.0-0.0","A2NQO8RQIG3D0C","img_art/4.jpg","5","","","","","","","","","","","","","","","","","","","","","","","","",""
"null","","html-keyboard-response","216","1998646","0.0-215.0","A2NQO8RQIG3D0C","<p style=""font-size: 48px;"">+</p>","","","","","null","allTrialResponses","500","1","24","img_art/4.jpg","-8","Looks like a distorted hand.","Danielle,Leah,Destiny,Chloe,Crystal,Sierra","Not my preference when it comes to art styles or subjects,-10,340,20","To me just looking at paint scrawls,-41,360,20","it looks like a preschooler just dragged his fingers around,-36,360,20","Great movement but don't love the yellowy tones.,31,220,20","Looks like finger nails from the Guinness world record book.,-30,300,20","it looks like a deformed hand,-9,260,20","Chloe","Great movement but don't love the yellowy tones.,31,220,20","Crystal","Looks like finger nails from the Guinness world record book.,-30,300,20","Sierra","it looks like a deformed hand,-9,260,20","2"
"23365","","survey-text","217","2022021","0.0-216.0-0.0","A2NQO8RQIG3D0C","","","","{""Q0"":""This looks like it took a long time to create.""}","","","","","","","","","","","","","","","","","","","","","","",""
"3727.5","","image-slider-response","218","2025753","0.0-217.0","A2NQO8RQIG3D0C","","","","","-6","","","","","","","","","","","","","","","","","","","","","",""
"null","","image-button-response","219","2030763","0.0-218.0","A2NQO8RQIG3D0C","img_art/12.jpg","null","","","","","","","","","","","","","","","","","","","","","","","","",""
"9290","","image-button-response","220","2040057","0.0-219.0","A2NQO8RQIG3D0C","img_art/12.jpg","4","","","","","","","","","","","","","","","","","","","","","","","","",""
"3005","","image-button-response","221","2043067","0.0-220.0-0.0","A2NQO8RQIG3D0C","img_art/12.jpg","3","","","","","","","","","","","","","","","","","","","","","","","","",""
"4684","","image-button-response","222","2047754","0.0-221.0-0.0","A2NQO8RQIG3D0C","img_art/12.jpg","0","","","","","","","","","","","","","","","","","","","","","","","","",""
"null","","html-keyboard-response","223","2048259","0.0-222.0","A2NQO8RQIG3D0C","<p style=""font-size: 48px;"">+</p>","","","","","null","allTrialResponses","500","1","25","img_art/12.jpg","-6","This looks like it took a long time to create.","Rachel,Olivia,Angela,Chloe,Crystal,Sierra","I like how it's split into tiny squares, but otherwise, not very intriguing.,-18,80,20","feels cluttered,-11,40,20","I like the colors in the bottom half of the painting,10,260,20","Nice hallway art for a hotel.,21,220,20","I like the sectioned nature of the squares and curves. Not my favorite but still a good one.,27,300,20","i dont see the point.,-19,260,20","Crystal","I like the sectioned nature of the squares and curves. Not my favorite but still a good one.,27,300,20","Chloe","Nice hallway art for a hotel.,21,220,20","Rachel","I like how it's split into tiny squares, but otherwise, not very intriguing.,-18,80,20","2"
"5994","","survey-text","224","2054267","0.0-223.0-0.0","A2NQO8RQIG3D0C","","","","{""Q0"":""table""}","","","","","","","","","","","","","","","","","","","","","","",""
"35271","","survey-text","225","2089541","0.0-224.0-0.0","A2NQO8RQIG3D0C","","","","{""Q0"":""This reminds me of a beautiful day walking to a cafe.""}","","","","","","","","","","","","","","","","","","","","","","",""
"3341.600000143051","","image-slider-response","226","2092887","0.0-225.0","A2NQO8RQIG3D0C","","","","","45","","","","","","","","","","","","","","","","","","","","","",""
"null","","image-button-response","227","2097897","0.0-226.0","A2NQO8RQIG3D0C","img_art/26.jpg","null","","","","","","","","","","","","","","","","","","","","","","","","",""
"2640","","image-button-response","228","2100541","0.0-227.0","A2NQO8RQIG3D0C","img_art/26.jpg","0","","","","","","","","","","","","","","","","","","","","","","","","",""
"3258","","image-button-response","229","2103804","0.0-228.0-0.0","A2NQO8RQIG3D0C","img_art/26.jpg","5","","","","","","","","","","","","","","","","","","","","","","","","",""
"13318","","image-button-response","230","2117131","0.0-229.0-0.0","A2NQO8RQIG3D0C","img_art/26.jpg","3","","","","","","","","","","","","","","","","","","","","","","","","",""
"null","","html-keyboard-response","231","2118136","0.0-230.0","A2NQO8RQIG3D0C","<p style=""font-size: 48px;"">+</p>","","","","","null","allTrialResponses","1000","1","26","img_art/26.jpg","45","This reminds me of a beautiful day walking to a cafe.","Rachel,Madeline,Emily,Chloe,Crystal,Kaitlin","Pretty trees and bushes around fancy brown stones. I like the soft nature.,20,80,20","I like the shapes but needs more detail i think,3,40,20","Not much skil went into this one either.,-41,40,20","Not great use of space and brush strokes seem indistinct/accidental,-30,220,20","Do not like water colors at all,-50,300,20","i can feel the warmth,12,60,20","Rachel","Pretty trees and bushes around fancy brown stones. I like the soft nature.,20,80,20","Kaitlin","i can feel the warmth,12,60,20","Chloe","Not great use of space and brush strokes seem indistinct/accidental,-30,220,20","2"
"16592","","survey-text","232","2134737","0.0-231.0-0.0","A2NQO8RQIG3D0C","","","","{""Q0"":""I think of peacocks fighting.""}","","","","","","","","","","","","","","","","","","","","","","",""
"3105.199999809265","","image-slider-response","233","2137847","0.0-232.0","A2NQO8RQIG3D0C","","","","","-8","","","","","","","","","","","","","","","","","","","","","",""
"null","","image-button-response","234","2142852","0.0-233.0","A2NQO8RQIG3D0C","img_art/15.jpg","null","","","","","","","","","","","","","","","","","","","","","","","","",""
"845","","image-button-response","235","2143701","0.0-234.0","A2NQO8RQIG3D0C","img_art/15.jpg","0","","","","","","","","","","","","","","","","","","","","","","","","",""
"7990","","image-button-response","236","2151696","0.0-235.0-0.0","A2NQO8RQIG3D0C","img_art/15.jpg","3","","","","","","","","","","","","","","","","","","","","","","","","",""
"1060","","image-button-response","237","2152761","0.0-236.0-0.0","A2NQO8RQIG3D0C","img_art/15.jpg","5","","","","","","","","","","","","","","","","","","","","","","","","",""
"null","","html-keyboard-response","238","2153764","0.0-237.0","A2NQO8RQIG3D0C","<p style=""font-size: 48px;"">+</p>","","","","","null","allTrialResponses","1000","1","27","img_art/15.jpg","-8","I think of peacocks fighting.","Rachel,Taylor,Kylie,Chloe,Makayla,Kaitlin","Reminds me of blue birds in a tree at night. I love nature.,40,80,20","The blues are soothing,21,340,20","I don't know how I feel about this,31,300,20","Like the composition and lines,26,220,20","It's just dots. Doesn't bring any positive or negative feelings,2,80,20","This one seems a bit frightening,-19,60,20","Rachel","Reminds me of blue birds in a tree at night. I love nature.,40,80,20","Chloe","Like the composition and lines,26,220,20","Kaitlin","This one seems a bit frightening,-19,60,20","2"
"38323","","survey-text","239","2192095","0.0-238.0-0.0","A2NQO8RQIG3D0C","","","","{""Q0"":""Looks like wild berries falling from a bush in the forest.""}","","","","","","","","","","","","","","","","","","","","","","",""
"4017.4000000953674","","image-slider-response","240","2196117","0.0-239.0","A2NQO8RQIG3D0C","","","","","30","","","","","","","","","","","","","","","","","","","","","",""
"null","","image-button-response","241","2201124","0.0-240.0","A2NQO8RQIG3D0C","img_art/14.jpg","null","","","","","","","","","","","","","","","","","","","","","","","","",""
"3536","","image-button-response","242","2204664","0.0-241.0","A2NQO8RQIG3D0C","img_art/14.jpg","5","","","","","","","","","","","","","","","","","","","","","","","","",""
"8581","","image-button-response","243","2213251","0.0-242.0-0.0","A2NQO8RQIG3D0C","img_art/14.jpg","3","","","","","","","","","","","","","","","","","","","","","","","","",""
"2298","","image-button-response","244","2215554","0.0-243.0-0.0","A2NQO8RQIG3D0C","img_art/14.jpg","0","","","","","","","","","","","","","","","","","","","","","","","","",""
"null","","html-keyboard-response","245","2216058","0.0-244.0","A2NQO8RQIG3D0C","<p style=""font-size: 48px;"">+</p>","","","","","null","allTrialResponses","500","1","28","img_art/14.jpg","30","Looks like wild berries falling from a bush in the forest.","Rachel,Breanna,Erin,Chloe,Kristen,Kaitlin","Did not evoke much feeling except confusion. I am not sure what to make of this one.,-20,80,20","Makes me feel good,30,380,20","Looks childish and basic,-42,120,20","Like the brushstrokes but not the composition,9,220,20","somewhat stressful, crazy,-3,280,20","this would make a very beautiful art project,22,60,20","Kaitlin","this would make a very beautiful art project,22,60,20","Chloe","Like the brushstrokes but not the composition,9,220,20","Rachel","Did not evoke much feeling except confusion. I am not sure what to make of this one.,-20,80,20","2"
"15279","","survey-text","246","2231347","0.0-245.0-0.0","A2NQO8RQIG3D0C","","","","{""Q0"":""This looks futuristic. ""}","","","","","","","","","","","","","","","","","","","","","","",""
"2687.2000000476837","","image-slider-response","247","2234038","0.0-246.0","A2NQO8RQIG3D0C","","","","","7","","","","","","","","","","","","","","","","","","","","","",""
"null","","image-button-response","248","2239046","0.0-247.0","A2NQO8RQIG3D0C","img_art/29.jpg","null","","","","","","","","","","","","","","","","","","","","","","","","",""
"9221","","image-button-response","249","2248269","0.0-248.0","A2NQO8RQIG3D0C","img_art/29.jpg","5","","","","","","","","","","","","","","","","","","","","","","","","",""
"1182","","image-button-response","250","2249456","0.0-249.0-0.0","A2NQO8RQIG3D0C","img_art/29.jpg","2","","","","","","","","","","","","","","","","","","","","","","","","",""
"6407","","image-button-response","251","2255869","0.0-250.0-0.0","A2NQO8RQIG3D0C","img_art/29.jpg","3","","","","","","","","","","","","","","","","","","","","","","","","",""
"null","","html-keyboard-response","252","2256373","0.0-251.0","A2NQO8RQIG3D0C","<p style=""font-size: 48px;"">+</p>","","","","","null","allTrialResponses","500","1","29","img_art/29.jpg","7","This looks futuristic. ","Rachel,Hannah,Sydney,Chloe,Bailey,Kaitlin","It looks like someone did not like their art and drew an x over it.,-32,80,20","I don't like the red X through it.,-20,240,20","I like that the colors are toned down even though they're everywhere.,5,320,20","Looks muddy and sticky,-31,220,20","Giant messy blob. Looks like it tries to be edgy, but fails.,-40,360,20","seems fun, looks like a battle zone,22,60,20","Kaitlin","seems fun, looks like a battle zone,22,60,20","Sydney","I like that the colors are toned down even though they're everywhere.,5,320,20","Chloe","Looks muddy and sticky,-31,220,20","2"
"68602","","survey-text","253","2324987","0.0-252.0-0.0","A2NQO8RQIG3D0C","","","","{""Q0"":""I see a knight battling a demon and the maiden afraid in the background.""}","","","","","","","","","","","","","","","","","","","","","","",""
"5698.299999952316","","image-slider-response","254","2330689","0.0-253.0","A2NQO8RQIG3D0C","","","","","24","","","","","","","","","","","","","","","","","","","","","",""
"null","","image-button-response","255","2335695","0.0-254.0","A2NQO8RQIG3D0C","img_art/18.jpg","null","","","","","","","","","","","","","","","","","","","","","","","","",""
"789","","image-button-response","256","2336488","0.0-255.0","A2NQO8RQIG3D0C","img_art/18.jpg","0","","","","","","","","","","","","","","","","","","","","","","","","",""
"7031","","image-button-response","257","2343523","0.0-256.0-0.0","A2NQO8RQIG3D0C","img_art/18.jpg","5","","","","","","","","","","","","","","","","","","","","","","","","",""
"9258","","image-button-response","258","2352785","0.0-257.0-0.0","A2NQO8RQIG3D0C","img_art/18.jpg","2","","","","","","","","","","","","","","","","","","","","","","","","",""
"null","","html-keyboard-response","259","2353289","0.0-258.0","A2NQO8RQIG3D0C","<p style=""font-size: 48px;"">+</p>","","","","","null","allTrialResponses","500","1","30","img_art/18.jpg","24","I see a knight battling a demon and the maiden afraid in the background.","Samantha,Emma,Sydney,Chloe,Sara,Kaitlin","Id love to see this piece closer. So much extra details hidden it it.,50,140,20","Vaguely creepy ........,-20,60,20","I like the colors being used, but I don't like the chaos in the middle of it.,20,320,20","Evocative but cheesy.,-20,220,20","Too abstract and swirly,-21,160,20","I really like this one - there seems to be a story behind it,32,60,20","Samantha","Id love to see this piece closer. So much extra details hidden it it.,50,140,20","Kaitlin","I really like this one - there seems to be a story behind it,32,60,20","Sydney","I like the colors being used, but I don't like the chaos in the middle of it.,20,320,20","2"
"6154","","image-button-response_instructions","260","2359455","0.0-259.0","A2NQO8RQIG3D0C","","0","instructions","","","","","","","","","","","","","","","","","","","","","","","",""
"1333","","image-button-response","261","2360796","0.0-260.0","A2NQO8RQIG3D0C","","0","","","","","","","","","","","","","","","","","","","","","","","","",""
