"rt","url","trial_type","trial_index","time_elapsed","internal_node_id","participant_id","stimulus","button_pressed","Name","responses","response","key_press","variableName","fixationTime","condition","trial","photo","subjectRating","subjectResponse","agentsNames","agent_1_Response","agent_2_Response","agent_3_Response","agent_4_Response","agent_5_Response","agent_6_Response","kept_1_name","kept_1_response","kept_2_name","kept_2_response","kept_3_name","kept_3_response","errorCounter"
"33302","external_page_harvard.html","external-html","0","33354","0.0-0.0","A2O486OILASFYG","","","","","","","","","","","","","","","","","","","","","","","","","","",""
"1950","","image-button-response","1","35305","0.0-1.0","A2O486OILASFYG","","1","","","","","","","","","","","","","","","","","","","","","","","","",""
"3043","","image-button-response","2","38354","0.0-2.0-0.0","A2O486OILASFYG","","1","phone","","","","","","","","","","","","","","","","","","","","","","","",""
"8118","","survey-text","3","46474","0.0-3.0-0.0","A2O486OILASFYG","","","","{""Q0"":""A2O486OILASFYG""}","","","","","","","","","","","","","","","","","","","","","","",""
"4110","","image-button-response_instructions","4","50586","0.0-4.0","A2O486OILASFYG","","0","instructions","","","","","","","","","","","","","","","","","","","","","","","",""
"9520","","image-button-response_instructions","5","60106","0.0-5.0","A2O486OILASFYG","img_art/ins/popularity/ins1.png","0","instructions","","","","","","","","","","","","","","","","","","","","","","","",""
"9256","","image-button-response_instructions","6","69362","0.0-6.0","A2O486OILASFYG","img_art/ins/popularity/ins2.png","0","instructions","","","","","","","","","","","","","","","","","","","","","","","",""
"5447","","image-button-response_instructions","7","74810","0.0-7.0","A2O486OILASFYG","img_art/ins/popularity/ins2Extreme.png","0","instructions","","","","","","","","","","","","","","","","","","","","","","","",""
"28576","","image-button-response_instructions","8","103387","0.0-8.0","A2O486OILASFYG","img_art/ins/popularity/ins3KEEPpop.PNG","0","instructions","","","","","","","","","","","","","","","","","","","","","","","",""
"4327","","image-button-response_instructions","9","107715","0.0-9.0","A2O486OILASFYG","img_art/ins/popularity/ins3ANamepop.PNG","0","instructions","","","","","","","","","","","","","","","","","","","","","","","",""
"3335","","image-button-response_instructions","10","111051","0.0-10.0","A2O486OILASFYG","img_art/ins/popularity/ins3ARatingpop.png","0","instructions","","","","","","","","","","","","","","","","","","","","","","","",""
"4895","","image-button-response_instructions","11","115947","0.0-11.0","A2O486OILASFYG","img_art/ins/popularity/ins3ATextpop.png","0","instructions","","","","","","","","","","","","","","","","","","","","","","","",""
"6727","","image-button-response_instructions","12","122675","0.0-12.0","A2O486OILASFYG","img_art/ins/popularity/ins3ALikespop.png","0","instructions","","","","","","","","","","","","","","","","","","","","","","","",""
"14839","","image-button-response_instructions","13","137516","0.0-13.0","A2O486OILASFYG","img_art/ins/popularity/ins3KEEPpop.PNG","0","instructions","","","","","","","","","","","","","","","","","","","","","","","",""
"9512","","image-button-response_instructions","14","147028","0.0-14.0","A2O486OILASFYG","img_art/ins/popularity/ins3_5RED.png","0","instructions","","","","","","","","","","","","","","","","","","","","","","","",""
"5872","","image-button-response_instructions","15","152900","0.0-15.0","A2O486OILASFYG","img_art/ins/popularity/ins3KEEPpop.PNG","0","instructions","","","","","","","","","","","","","","","","","","","","","","","",""
"14488","","image-button-response_instructions","16","167389","0.0-16.0","A2O486OILASFYG","img_art/ins/popularity/ins4KEEPpop.PNG","0","instructions","","","","","","","","","","","","","","","","","","","","","","","",""
"4047","","image-button-response_instructions","17","171437","0.0-17.0","A2O486OILASFYG","img_art/ins/popularity/ins5KEEPpop.PNG","0","instructions","","","","","","","","","","","","","","","","","","","","","","","",""
"1855","","image-button-response_instructions","18","173293","0.0-18.0","A2O486OILASFYG","","0","instructions","","","","","","","","","","","","","","","","","","","","","","","",""
"5240","","survey-text","19","178558","0.0-19.0-0.0","A2O486OILASFYG","","","","{""Q0"":""but""}","","","","","","","","","","","","","","","","","","","","","","",""
"18759","","survey-text","20","197318","0.0-20.0-0.0","A2O486OILASFYG","","","","{""Q0"":""The motion and the colors stress me out.""}","","","","","","","","","","","","","","","","","","","","","","",""
"5622","","image-slider-response","21","202942","0.0-21.0","A2O486OILASFYG","","","","","-24","","","","","","","","","","","","","","","","","","","","","",""
"null","","image-button-response","22","207945","0.0-22.0","A2O486OILASFYG","img_art/ins/1.jpg","null","","","","","","","","","","","","","","","","","","","","","","","","",""
"5876","","image-button-response","23","213822","0.0-23.0","A2O486OILASFYG","img_art/ins/1.jpg","4","","","","","","","","","","","","","","","","","","","","","","","","",""
"7567","","image-button-response","24","221391","0.0-24.0-0.0","A2O486OILASFYG","img_art/ins/1.jpg","2","","","","","","","","","","","","","","","","","","","","","","","","",""
"3487","","image-button-response","25","224879","0.0-25.0-0.0","A2O486OILASFYG","img_art/ins/1.jpg","5","","","","","","","","","","","","","","","","","","","","","","","","",""
"null","","html-keyboard-response","26","225881","0.0-26.0","A2O486OILASFYG","<p style=""font-size: 48px;"">+</p>","","","","","null","allTrialResponses","1000","1","-2","img_art/ins/1.jpg","-24","The motion and the colors stress me out.","Allison,Ashley,Beth,Dora,Erika,Jen","looks like a lot of things going on in the mist,20,20,20","I just don't get why these type of art would be popular,-32,40,20","This color reminds me of poo,-46,60,20","looks like what my niece in 3rd grade did this afternoon,-50,80,20","I like the sophisticated brushwork,40,100,20","It reminds me of a candy land dream I had,36,120,20","Erika","I like the sophisticated brushwork,40,100,20","Beth","This color reminds me of poo,-46,60,20","Jen","It reminds me of a candy land dream I had,36,120,20","0"
"37763","","survey-text","27","263648","0.0-27.0-0.0","A2O486OILASFYG","","","","{""Q0"":""It reminds me of a city at sunset with the sea in the background.""}","","","","","","","","","","","","","","","","","","","","","","",""
"6230","","image-slider-response","28","269880","0.0-28.0","A2O486OILASFYG","","","","","30","","","","","","","","","","","","","","","","","","","","","",""
"null","","image-button-response","29","274882","0.0-29.0","A2O486OILASFYG","img_art/ins/2.jpg","null","","","","","","","","","","","","","","","","","","","","","","","","",""
"10173","","image-button-response","30","285057","0.0-30.0","A2O486OILASFYG","img_art/ins/2.jpg","5","","","","","","","","","","","","","","","","","","","","","","","","",""
"1967","","image-button-response","31","287024","0.0-31.0-0.0","A2O486OILASFYG","img_art/ins/2.jpg","4","","","","","","","","","","","","","","","","","","","","","","","","",""
"5671","","image-button-response","32","292697","0.0-32.0-0.0","A2O486OILASFYG","img_art/ins/2.jpg","1","","","","","","","","","","","","","","","","","","","","","","","","",""
"null","","html-keyboard-response","33","293699","0.0-33.0","A2O486OILASFYG","<p style=""font-size: 48px;"">+</p>","","","","","null","allTrialResponses","1000","1","-1","img_art/ins/2.jpg","30","It reminds me of a city at sunset with the sea in the background.","Katie,Kara,Beth,Jenna,Erika,Jen","too much color!,-28,180,20","I like the blocks of color arrangements,30,160,20","meaningless painting,-45,60,20","One of my pet peevs,-48,140,20","I would never be able to compose a sophisticated pallete like this,48,100,20","It reminds me of a fireplace,36,120,20","Jen","It reminds me of a fireplace,36,120,20","Erika","I would never be able to compose a sophisticated pallete like this,48,100,20","Kara","I like the blocks of color arrangements,30,160,20","0"
"20818","","survey-text","34","314522","0.0-34.0-0.0","A2O486OILASFYG","","","","{""Q0"":""It makes me feel calm and fresh.""}","","","","","","","","","","","","","","","","","","","","","","",""
"3878","","image-slider-response","35","318402","0.0-35.0","A2O486OILASFYG","","","","","11","","","","","","","","","","","","","","","","","","","","","",""
"4750","","image-button-response","36","323403","0.0-36.0","A2O486OILASFYG","img_art/ins/3.jpg","4","","","","","","","","","","","","","","","","","","","","","","","","",""
"1901","","image-button-response","37","325306","0.0-37.0","A2O486OILASFYG","img_art/ins/3.jpg","4","","","","","","","","","","","","","","","","","","","","","","","","",""
"1286","","image-button-response","38","326594","0.0-38.0-0.0","A2O486OILASFYG","img_art/ins/3.jpg","5","","","","","","","","","","","","","","","","","","","","","","","","",""
"5135","","image-button-response","39","331730","0.0-39.0-0.0","A2O486OILASFYG","img_art/ins/3.jpg","1","","","","","","","","","","","","","","","","","","","","","","","","",""
"null","","html-keyboard-response","40","333231","0.0-40.0","A2O486OILASFYG","<p style=""font-size: 48px;"">+</p>","","","","","null","allTrialResponses","1500","1","0","img_art/ins/3.jpg","11","It makes me feel calm and fresh.","Mary,Kara,Rose,Leslie,Erika,Jen","I like the overlapping of brushes,41,220,20","calming blue is very nice,36,160,20","My daily routine, it's depressing,-20,240,20","It's an alright work,15,200,20","I feel connected to the artist,40,100,20","I can feel a rainy day from this painting,18,120,20","Erika","I feel connected to the artist,40,100,20","Jen","I can feel a rainy day from this painting,18,120,20","Kara","calming blue is very nice,36,160,20","0"
"6280","","image-button-response_instructions","41","339514","0.0-41.0","A2O486OILASFYG","","0","instructions","","","","","","","","","","","","","","","","","","","","","","","",""
"12490","","survey-likert","42","352005","0.0-42.0-0.0","A2O486OILASFYG","","","","{""Q0"":"""",""Q1"":0,""Q2"":1}","","","","","","","","","","","","","","","","","","","","","","",""
"4754","","survey-text","43","356763","0.0-43.0-0.0","A2O486OILASFYG","","","","{""Q0"":""rock""}","","","","","","","","","","","","","","","","","","","","","","",""
"16463","","survey-text","44","373227","0.0-44.0-0.0","A2O486OILASFYG","","","","{""Q0"":""It looks like a lonely bird in a desert.""}","","","","","","","","","","","","","","","","","","","","","","",""
"5030","","image-slider-response","45","378259","0.0-45.0","A2O486OILASFYG","","","","","5","","","","","","","","","","","","","","","","","","","","","",""
"4914","","image-button-response","46","383291","0.0-46.0","A2O486OILASFYG","img_art/6.jpg","4","","","","","","","","","","","","","","","","","","","","","","","","",""
"3872","","image-button-response","47","387163","0.0-47.0","A2O486OILASFYG","img_art/6.jpg","4","","","","","","","","","","","","","","","","","","","","","","","","",""
"3327","","image-button-response","48","390492","0.0-48.0-0.0","A2O486OILASFYG","img_art/6.jpg","0","","","","","","","","","","","","","","","","","","","","","","","","",""
"7151","","image-button-response","49","397644","0.0-49.0-0.0","A2O486OILASFYG","img_art/6.jpg","1","","","","","","","","","","","","","","","","","","","","","","","","",""
"null","","html-keyboard-response","50","398645","0.0-50.0","A2O486OILASFYG","<p style=""font-size: 48px;"">+</p>","","","","","null","allTrialResponses","1000","1","1","img_art/6.jpg","5","It looks like a lonely bird in a desert.","Maria,Lauren,Cheyenne,Caitlin,Amber,Megan","intrigues me - not sure what I'm seeing, but I like combination of colour and texture,21,120,20","I like the simplicity of the piece.,10,340,20","Good painting but too simple to care about it for very long.,-15,200,20","A crow on one leg?,-10,80,20","Something very simplistic about it. The colors mesh well.,10,200,20","Odd desert, nice sand color with headless bird,11,200,20","Amber","Something very simplistic about it. The colors mesh well.,10,200,20","Maria","intrigues me - not sure what I'm seeing, but I like combination of colour and texture,21,120,20","Lauren","I like the simplicity of the piece.,10,340,20","0"
"18156","","survey-text","51","416805","0.0-51.0-0.0","A2O486OILASFYG","","","","{""Q0"":""I want to like it but the colors are too bland for me.""}","","","","","","","","","","","","","","","","","","","","","","",""
"4054","","image-slider-response","52","420861","0.0-52.0","A2O486OILASFYG","","","","","3","","","","","","","","","","","","","","","","","","","","","",""
"3647","","image-button-response","53","425862","0.0-53.0","A2O486OILASFYG","img_art/26.jpg","1","","","","","","","","","","","","","","","","","","","","","","","","",""
"917","","image-button-response","54","426781","0.0-54.0","A2O486OILASFYG","img_art/26.jpg","1","","","","","","","","","","","","","","","","","","","","","","","","",""
"1766","","image-button-response","55","428549","0.0-55.0-0.0","A2O486OILASFYG","img_art/26.jpg","0","","","","","","","","","","","","","","","","","","","","","","","","",""
"3567","","image-button-response","56","432117","0.0-56.0-0.0","A2O486OILASFYG","img_art/26.jpg","4","","","","","","","","","","","","","","","","","","","","","","","","",""
"null","","html-keyboard-response","57","433618","0.0-57.0","A2O486OILASFYG","<p style=""font-size: 48px;"">+</p>","","","","","null","allTrialResponses","1500","1","2","img_art/26.jpg","3","I want to like it but the colors are too bland for me.","Maria,Lauren,Kaitlin,Alyssa,Amber,Sierra","fairly neutral, really,8,120,20","The piece doesn't really invoke anything for me.,0,340,20","i can feel the warmth,12,60,20","Its pretty.And a nice use of water colors.,25,160,20","The colors are muted.,1,200,20","soothing and subtle,1,260,20","Lauren","The piece doesn't really invoke anything for me.,0,340,20","Maria","fairly neutral, really,8,120,20","Amber","The colors are muted.,1,200,20","0"
"16312","","survey-text","58","449934","0.0-58.0-0.0","A2O486OILASFYG","","","","{""Q0"":""Looks like the cliffs after an angry storm.""}","","","","","","","","","","","","","","","","","","","","","","",""
"3350","","image-slider-response","59","453286","0.0-59.0","A2O486OILASFYG","","","","","7","","","","","","","","","","","","","","","","","","","","","",""
"null","","image-button-response","60","458288","0.0-60.0","A2O486OILASFYG","img_art/21.jpg","null","","","","","","","","","","","","","","","","","","","","","","","","",""
"6950","","image-button-response","61","465238","0.0-61.0","A2O486OILASFYG","img_art/21.jpg","0","","","","","","","","","","","","","","","","","","","","","","","","",""
"2055","","image-button-response","62","467294","0.0-62.0-0.0","A2O486OILASFYG","img_art/21.jpg","1","","","","","","","","","","","","","","","","","","","","","","","","",""
"4999","","image-button-response","63","472294","0.0-63.0-0.0","A2O486OILASFYG","img_art/21.jpg","4","","","","","","","","","","","","","","","","","","","","","","","","",""
"null","","html-keyboard-response","64","473296","0.0-64.0","A2O486OILASFYG","<p style=""font-size: 48px;"">+</p>","","","","","null","allTrialResponses","1000","1","3","img_art/21.jpg","7","Looks like the cliffs after an angry storm.","Maria,Lauren,Angela,Shelby,Amber,Madison","brings up imagery of the sea and clashing, though not in a negative way,31,120,20","I like how the piece has the possibility of depicting some type of story.,30,340,20","I feel like I'm looking at two different paintings mashed together in the middle.,20,260,20","Very calming and soft, makes me feel good,31,240,20","sunset after the rain,49,200,20","War! But then, what? And then, what of it? Intention seems incomplete, or not fully committed to.,-19,60,20","Maria","brings up imagery of the sea and clashing, though not in a negative way,31,120,20","Lauren","I like how the piece has the possibility of depicting some type of story.,30,340,20","Amber","sunset after the rain,49,200,20","0"
"23915","","survey-text","65","497215","0.0-65.0-0.0","A2O486OILASFYG","","","","{""Q0"":""Finger painting and I can feel the paint under my fingernails.""}","","","","","","","","","","","","","","","","","","","","","","",""
"2830","","image-slider-response","66","500047","0.0-66.0","A2O486OILASFYG","","","","","-15","","","","","","","","","","","","","","","","","","","","","",""
"null","","image-button-response","67","505049","0.0-67.0","A2O486OILASFYG","img_art/4.jpg","null","","","","","","","","","","","","","","","","","","","","","","","","",""
"3157","","image-button-response","68","508207","0.0-68.0","A2O486OILASFYG","img_art/4.jpg","5","","","","","","","","","","","","","","","","","","","","","","","","",""
"1711","","image-button-response","69","509919","0.0-69.0-0.0","A2O486OILASFYG","img_art/4.jpg","0","","","","","","","","","","","","","","","","","","","","","","","","",""
"6393","","image-button-response","70","516313","0.0-70.0-0.0","A2O486OILASFYG","img_art/4.jpg","3","","","","","","","","","","","","","","","","","","","","","","","","",""
"null","","html-keyboard-response","71","517315","0.0-71.0","A2O486OILASFYG","<p style=""font-size: 48px;"">+</p>","","","","","null","allTrialResponses","1000","1","4","img_art/4.jpg","-15","Finger painting and I can feel the paint under my fingernails.","Maria,Lauren,Julia,Hannah,Amber,Briana","no strong feelings about this one,2,120,20","I like the design. It can be interpreted in various ways, such as a hand of horror or still piece.,15,340,20","it reminds me of McDonalds, and not in a good way.,-34,40,20","looks very rudimentary and too simple.,-14,240,20","I like the bold style.,10,200,20","Fingerpaint of a hand?,-30,400,20","Briana","Fingerpaint of a hand?,-30,400,20","Maria","no strong feelings about this one,2,120,20","Hannah","looks very rudimentary and too simple.,-14,240,20","0"
"17489","","survey-text","72","534808","0.0-72.0-0.0","A2O486OILASFYG","","","","{""Q0"":""I love the tree and how ethereal it looks.""}","","","","","","","","","","","","","","","","","","","","","","",""
"4310","","image-slider-response","73","539120","0.0-73.0","A2O486OILASFYG","","","","","38","","","","","","","","","","","","","","","","","","","","","",""
"4327","","image-button-response","74","544122","0.0-74.0","A2O486OILASFYG","img_art/17.jpg","4","","","","","","","","","","","","","","","","","","","","","","","","",""
"4654","","image-button-response","75","548776","0.0-75.0","A2O486OILASFYG","img_art/17.jpg","1","","","","","","","","","","","","","","","","","","","","","","","","",""
"1247","","image-button-response","76","550024","0.0-76.0-0.0","A2O486OILASFYG","img_art/17.jpg","2","","","","","","","","","","","","","","","","","","","","","","","","",""
"3152","","image-button-response","77","553178","0.0-77.0-0.0","A2O486OILASFYG","img_art/17.jpg","4","","","","","","","","","","","","","","","","","","","","","","","","",""
"null","","html-keyboard-response","78","554681","0.0-78.0","A2O486OILASFYG","<p style=""font-size: 48px;"">+</p>","","","","","null","allTrialResponses","1500","1","5","img_art/17.jpg","38","I love the tree and how ethereal it looks.","Maria,Rebecca,Rachel,Hannah,Gabriela,Briana","feel close to nature,30,120,20","tree sprouting out of a box (house) the invasion of nature?,39,100,20","Reminds me of a beautiful tree growing in a courtyard. I like the light and airy technique used.,34,80,20","Looks like an abandoned building that is being overtaken by nature.,-10,240,20","This makes me feel inspired and happy. I love everything about this portrait,45,140,20","It looks unfinished,-7,400,20","Rebecca","tree sprouting out of a box (house) the invasion of nature?,39,100,20","Rachel","Reminds me of a beautiful tree growing in a courtyard. I like the light and airy technique used.,34,80,20","Gabriela","This makes me feel inspired and happy. I love everything about this portrait,45,140,20","0"
"3761","","survey-text","79","558449","0.0-79.0-0.0","A2O486OILASFYG","","","","{""Q0"":""sky""}","","","","","","","","","","","","","","","","","","","","","","",""
"14728","","survey-text","80","573177","0.0-80.0-0.0","A2O486OILASFYG","","","","{""Q0"":""A lot of anger went onto this page.""}","","","","","","","","","","","","","","","","","","","","","","",""
"4311.000000000116","","image-slider-response","81","577489","0.0-81.0","A2O486OILASFYG","","","","","-15","","","","","","","","","","","","","","","","","","","","","",""
"null","","image-button-response","82","582491","0.0-82.0","A2O486OILASFYG","img_art/3.jpg","null","","","","","","","","","","","","","","","","","","","","","","","","",""
"1141","","image-button-response","83","583634","0.0-83.0","A2O486OILASFYG","img_art/3.jpg","2","","","","","","","","","","","","","","","","","","","","","","","","",""
"3455","","image-button-response","84","587090","0.0-84.0-0.0","A2O486OILASFYG","img_art/3.jpg","3","","","","","","","","","","","","","","","","","","","","","","","","",""
"1150","","image-button-response","85","588242","0.0-85.0-0.0","A2O486OILASFYG","img_art/3.jpg","0","","","","","","","","","","","","","","","","","","","","","","","","",""
"null","","html-keyboard-response","86","588743","0.0-86.0","A2O486OILASFYG","<p style=""font-size: 48px;"">+</p>","","","","","null","allTrialResponses","500","1","6","img_art/3.jpg","-15","A lot of anger went onto this page.","Cassidy,Rebecca,Rachel,Madeline,Gabriela,Jasmine","Again, looks like a child's work. I don't get these types of pieces. Too simple,-47,140,20","sorry do not understand,-26,100,20","Too red and chaotic. Not calming.,-41,80,20","Scribbly a bit too much,-30,40,20","It looks like a child drawing,-29,140,20","I don't really have a strong reaction to this one,0,340,20","Rachel","Too red and chaotic. Not calming.,-41,80,20","Madeline","Scribbly a bit too much,-30,40,20","Cassidy","Again, looks like a child's work. I don't get these types of pieces. Too simple,-47,140,20","0"
"23318","","survey-text","87","612067","0.0-87.0-0.0","A2O486OILASFYG","","","","{""Q0"":""Really interesting, like a journey to heaven or hell.""}","","","","","","","","","","","","","","","","","","","","","","",""
"3766","","image-slider-response","88","615835","0.0-88.0","A2O486OILASFYG","","","","","44","","","","","","","","","","","","","","","","","","","","","",""
"null","","image-button-response","89","620836","0.0-89.0","A2O486OILASFYG","img_art/18.jpg","null","","","","","","","","","","","","","","","","","","","","","","","","",""
"6166","","image-button-response","90","627003","0.0-90.0","A2O486OILASFYG","img_art/18.jpg","0","","","","","","","","","","","","","","","","","","","","","","","","",""
"1831","","image-button-response","91","628835","0.0-91.0-0.0","A2O486OILASFYG","img_art/18.jpg","1","","","","","","","","","","","","","","","","","","","","","","","","",""
"1543","","image-button-response","92","630380","0.0-92.0-0.0","A2O486OILASFYG","img_art/18.jpg","4","","","","","","","","","","","","","","","","","","","","","","","","",""
"null","","html-keyboard-response","93","631882","0.0-93.0","A2O486OILASFYG","<p style=""font-size: 48px;"">+</p>","","","","","null","allTrialResponses","1500","1","7","img_art/18.jpg","44","Really interesting, like a journey to heaven or hell.","Cassidy,Hailey,Rachel,Madeline,Chelsea,Allison","nice balance of color. The different sizes and types of strokes give a lot to look at,18,140,20","i like the colors. outerspace,21,200,20","This one seems rather ghoulish to me.,-41,80,20","Good concept but then scribbled on a bit?,15,40,20","I like the detail but I wouldn't hang this up on my wall.,14,180,20","Colors are okay. Reminds me of cavalry.,10,140,20","Cassidy","nice balance of color. The different sizes and types of strokes give a lot to look at,18,140,20","Hailey","i like the colors. outerspace,21,200,20","Chelsea","I like the detail but I wouldn't hang this up on my wall.,14,180,20","0"
"27422","","survey-text","94","659308","0.0-94.0-0.0","A2O486OILASFYG","","","","{""Q0"":""I don't understand this and the colors are too muted to bring feeling to it.""}","","","","","","","","","","","","","","","","","","","","","","",""
"2382","","image-slider-response","95","661692","0.0-95.0","A2O486OILASFYG","","","","","-35","","","","","","","","","","","","","","","","","","","","","",""
"null","","image-button-response","96","666693","0.0-96.0","A2O486OILASFYG","img_art/5.jpg","null","","","","","","","","","","","","","","","","","","","","","","","","",""
"7326","","image-button-response","97","674020","0.0-97.0","A2O486OILASFYG","img_art/5.jpg","4","","","","","","","","","","","","","","","","","","","","","","","","",""
"1287","","image-button-response","98","675308","0.0-98.0-0.0","A2O486OILASFYG","img_art/5.jpg","3","","","","","","","","","","","","","","","","","","","","","","","","",""
"1279","","image-button-response","99","676588","0.0-99.0-0.0","A2O486OILASFYG","img_art/5.jpg","1","","","","","","","","","","","","","","","","","","","","","","","","",""
"null","","html-keyboard-response","100","677090","0.0-100.0","A2O486OILASFYG","<p style=""font-size: 48px;"">+</p>","","","","","null","allTrialResponses","500","1","8","img_art/5.jpg","-35","I don't understand this and the colors are too muted to bring feeling to it.","Cassidy,Hailey,Shannon,Cynthia,Chelsea,Mariah","I like these colors together and the tiny splatters, but what is this?,7,140,20","puke yellow with nothing but sadness,-35,200,20","I don't know what it's supposed to be and it looks ugly the way the colors are on the yellow cube.,-50,220,20","boring and unsure,-25,320,20","I'm not sure what is going on here.,-46,180,20","It feels very strong and open.,31,140,20","Chelsea","I'm not sure what is going on here.,-46,180,20","Cynthia","boring and unsure,-25,320,20","Hailey","puke yellow with nothing but sadness,-35,200,20","0"
"33760","","survey-text","101","710854","0.0-101.0-0.0","A2O486OILASFYG","","","","{""Q0"":""The colors are just off putting and I don't see what its trying to depict.""}","","","","","","","","","","","","","","","","","","","","","","",""
"4334","","image-slider-response","102","715189","0.0-102.0","A2O486OILASFYG","","","","","-47","","","","","","","","","","","","","","","","","","","","","",""
"2095","","image-button-response","103","720191","0.0-103.0","A2O486OILASFYG","img_art/2.jpg","0","","","","","","","","","","","","","","","","","","","","","","","","",""
"2133","","image-button-response","104","722326","0.0-104.0","A2O486OILASFYG","img_art/2.jpg","3","","","","","","","","","","","","","","","","","","","","","","","","",""
"3609","","image-button-response","105","725936","0.0-105.0-0.0","A2O486OILASFYG","img_art/2.jpg","0","","","","","","","","","","","","","","","","","","","","","","","","",""
"900","","image-button-response","106","726838","0.0-106.0-0.0","A2O486OILASFYG","img_art/2.jpg","1","","","","","","","","","","","","","","","","","","","","","","","","",""
"null","","html-keyboard-response","107","728340","0.0-107.0","A2O486OILASFYG","<p style=""font-size: 48px;"">+</p>","","","","","null","allTrialResponses","1500","1","9","img_art/2.jpg","-47","The colors are just off putting and I don't see what its trying to depict.","Sarah,Hailey,Melissa,Cynthia,Chelsea,Grace","nope. just looks like a mess,-28,180,20","ugly green color and makes me sick,-29,200,20","appealing colors,4,240,20","Confused and disoriented,-33,320,20","Not sure what is happening. I'm not a big fan of the colors but they don't bother me either.,1,180,20","Like the colors but reminds me of a kids show done in cubism.,0,180,20","Cynthia","Confused and disoriented,-33,320,20","Sarah","nope. just looks like a mess,-28,180,20","Hailey","ugly green color and makes me sick,-29,200,20","0"
"13053","","survey-text","108","741399","0.0-108.0-0.0","A2O486OILASFYG","","","","{""Q0"":""Love this, I can feel the nature and water in this.""}","","","","","","","","","","","","","","","","","","","","","","",""
"2998.0000000001164","","image-slider-response","109","744398","0.0-109.0","A2O486OILASFYG","","","","","48","","","","","","","","","","","","","","","","","","","","","",""
"2863","","image-button-response","110","749401","0.0-110.0","A2O486OILASFYG","img_art/24.jpg","5","","","","","","","","","","","","","","","","","","","","","","","","",""
"1557","","image-button-response","111","750959","0.0-111.0","A2O486OILASFYG","img_art/24.jpg","5","","","","","","","","","","","","","","","","","","","","","","","","",""
"5911","","image-button-response","112","756871","0.0-112.0-0.0","A2O486OILASFYG","img_art/24.jpg","2","","","","","","","","","","","","","","","","","","","","","","","","",""
"1726","","image-button-response","113","758599","0.0-113.0-0.0","A2O486OILASFYG","img_art/24.jpg","4","","","","","","","","","","","","","","","","","","","","","","","","",""
"null","","html-keyboard-response","114","760100","0.0-114.0","A2O486OILASFYG","<p style=""font-size: 48px;"">+</p>","","","","","null","allTrialResponses","1500","1","10","img_art/24.jpg","48","Love this, I can feel the nature and water in this.","Sarah,Hailey,Vanessa,Cynthia,Jennifer,Taylor","it's fine, the colors are pleasing, but not my taste,9,180,20","warm spring day after a rain. soft,20,200,20","I love the colors, but I wish the water was less abstract.,17,380,20","Interested in visiting this place,18,320,20","This piece resembles a waterfall surrounded by trees.,21,380,20","Makes me think of a couple of hikes that I've taken,50,340,20","Taylor","Makes me think of a couple of hikes that I've taken,50,340,20","Vanessa","I love the colors, but I wish the water was less abstract.,17,380,20","Jennifer","This piece resembles a waterfall surrounded by trees.,21,380,20","0"
"4205","","survey-text","115","764311","0.0-115.0-0.0","A2O486OILASFYG","","","","{""Q0"":""our""}","","","","","","","","","","","","","","","","","","","","","","",""
"12952","","survey-text","116","777263","0.0-116.0-0.0","A2O486OILASFYG","","","","{""Q0"":""This disturbs me and I hate the color""}","","","","","","","","","","","","","","","","","","","","","","",""
"3375","","image-slider-response","117","780640","0.0-117.0","A2O486OILASFYG","","","","","-46","","","","","","","","","","","","","","","","","","","","","",""
"null","","image-button-response","118","785641","0.0-118.0","A2O486OILASFYG","img_art/25.jpg","null","","","","","","","","","","","","","","","","","","","","","","","","",""
"1837","","image-button-response","119","787480","0.0-119.0","A2O486OILASFYG","img_art/25.jpg","0","","","","","","","","","","","","","","","","","","","","","","","","",""
"2710","","image-button-response","120","790192","0.0-120.0-0.0","A2O486OILASFYG","img_art/25.jpg","1","","","","","","","","","","","","","","","","","","","","","","","","",""
"1534","","image-button-response","121","791728","0.0-121.0-0.0","A2O486OILASFYG","img_art/25.jpg","2","","","","","","","","","","","","","","","","","","","","","","","","",""
"null","","html-keyboard-response","122","792729","0.0-122.0","A2O486OILASFYG","<p style=""font-size: 48px;"">+</p>","","","","","null","allTrialResponses","1000","1","11","img_art/25.jpg","-46","This disturbs me and I hate the color","Laura,Destiny,Vanessa,Sara,Jennifer,Taylor","I think of death,-28,320,20","creeeeeppyyyyyyy but mad cool,-26,360,20","I don't like the color. I don't like the abstract-ness of it.,-22,380,20","Green color is not my thing,-29,160,20","Spooky, but in a good way. I like the green and black color palette.,42,380,20","It makes me feel a little uneasy, but I like the painting,11,340,20","Laura","I think of death,-28,320,20","Destiny","creeeeeppyyyyyyy but mad cool,-26,360,20","Vanessa","I don't like the color. I don't like the abstract-ness of it.,-22,380,20","0"
"13939","","survey-text","123","806673","0.0-123.0-0.0","A2O486OILASFYG","","","","{""Q0"":""I want to like it but the colors are too soft and muted.""}","","","","","","","","","","","","","","","","","","","","","","",""
"3053.9999999998836","","image-slider-response","124","809728","0.0-124.0","A2O486OILASFYG","","","","","-16","","","","","","","","","","","","","","","","","","","","","",""
"null","","image-button-response","125","814733","0.0-125.0","A2O486OILASFYG","img_art/14.jpg","null","","","","","","","","","","","","","","","","","","","","","","","","",""
"7203","","image-button-response","126","821937","0.0-126.0","A2O486OILASFYG","img_art/14.jpg","2","","","","","","","","","","","","","","","","","","","","","","","","",""
"1231","","image-button-response","127","823169","0.0-127.0-0.0","A2O486OILASFYG","img_art/14.jpg","1","","","","","","","","","","","","","","","","","","","","","","","","",""
"1246","","image-button-response","128","824417","0.0-128.0-0.0","A2O486OILASFYG","img_art/14.jpg","0","","","","","","","","","","","","","","","","","","","","","","","","",""
"null","","html-keyboard-response","129","825419","0.0-129.0","A2O486OILASFYG","<p style=""font-size: 48px;"">+</p>","","","","","null","allTrialResponses","1000","1","12","img_art/14.jpg","-16","I want to like it but the colors are too soft and muted.","Laura,Destiny,Vanessa,Jordan,Christina,Bailey","feels incomplete, poorly planned/executed,-34,320,20","I dont really vibe with the grayish color palette,-7,360,20","I don't like the colors, but I espeically don't like all the negative space.,-20,380,20","this one isn't bad, reminds me a tree that gives life, and people are waiting for someone new to be born,27,20,20","has a tree look to it and it's colors are happy,9,240,20","Not quite the style I'd like, but it does have a certain air of emptiness.,12,360,20","Vanessa","I don't like the colors, but I espeically don't like all the negative space.,-20,380,20","Destiny","I dont really vibe with the grayish color palette,-7,360,20","Laura","feels incomplete, poorly planned/executed,-34,320,20","0"
"19049","","survey-text","130","844474","0.0-130.0-0.0","A2O486OILASFYG","","","","{""Q0"":""This is interesting and I keep seeing a number five in the picture.""}","","","","","","","","","","","","","","","","","","","","","","",""
"2422","","image-slider-response","131","846897","0.0-131.0","A2O486OILASFYG","","","","","4","","","","","","","","","","","","","","","","","","","","","",""
"null","","image-button-response","132","851901","0.0-132.0","A2O486OILASFYG","img_art/28.jpg","null","","","","","","","","","","","","","","","","","","","","","","","","",""
"4675","","image-button-response","133","856577","0.0-133.0","A2O486OILASFYG","img_art/28.jpg","0","","","","","","","","","","","","","","","","","","","","","","","","",""
"2015","","image-button-response","134","858594","0.0-134.0-0.0","A2O486OILASFYG","img_art/28.jpg","1","","","","","","","","","","","","","","","","","","","","","","","","",""
"3535","","image-button-response","135","862130","0.0-135.0-0.0","A2O486OILASFYG","img_art/28.jpg","5","","","","","","","","","","","","","","","","","","","","","","","","",""
"null","","html-keyboard-response","136","863132","0.0-136.0","A2O486OILASFYG","<p style=""font-size: 48px;"">+</p>","","","","","null","allTrialResponses","1000","1","13","img_art/28.jpg","4","This is interesting and I keep seeing a number five in the picture.","Laura,Destiny,Vanessa,Jacqueline,Emily,Kristen","musical, animated and happy with somber undertones,7,320,20","I wish I knew why I liked it, maybes its the pinky tones,36,360,20","It's such a blah piece and way too abstract.,-50,380,20","I don't like the washed out colors.,-15,300,20","Incoherent ugly mess.,-50,40,20","almost reminds me of thomas becket getting his head cut off,21,280,20","Laura","musical, animated and happy with somber undertones,7,320,20","Destiny","I wish I knew why I liked it, maybes its the pinky tones,36,360,20","Kristen","almost reminds me of thomas becket getting his head cut off,21,280,20","0"
"26218","","survey-text","137","889355","0.0-137.0-0.0","A2O486OILASFYG","","","","{""Q0"":""I don't like the brush strokes and its too abstract for the scene, but not in a good abstract way.""}","","","","","","","","","","","","","","","","","","","","","","",""
"2638","","image-slider-response","138","891995","0.0-138.0","A2O486OILASFYG","","","","","-21","","","","","","","","","","","","","","","","","","","","","",""
"null","","image-button-response","139","896997","0.0-139.0","A2O486OILASFYG","img_art/19.jpg","null","","","","","","","","","","","","","","","","","","","","","","","","",""
"5215","","image-button-response","140","902213","0.0-140.0","A2O486OILASFYG","img_art/19.jpg","2","","","","","","","","","","","","","","","","","","","","","","","","",""
"3957","","image-button-response","141","906172","0.0-141.0-0.0","A2O486OILASFYG","img_art/19.jpg","0","","","","","","","","","","","","","","","","","","","","","","","","",""
"2032","","image-button-response","142","908205","0.0-142.0-0.0","A2O486OILASFYG","img_art/19.jpg","5","","","","","","","","","","","","","","","","","","","","","","","","",""
"null","","html-keyboard-response","143","909209","0.0-143.0","A2O486OILASFYG","<p style=""font-size: 48px;"">+</p>","","","","","null","allTrialResponses","1000","1","14","img_art/19.jpg","-21","I don't like the brush strokes and its too abstract for the scene, but not in a good abstract way.","Laura,Destiny,Courtney,Molly,Mary,Kristen","confusion, scattered and diffuse,-4,320,20","this flow I just really like how everything blends but also doesn't,45,360,20","Thats a lazy town,-8,280,20","I can see kind of beach and sea full of people and buildings.,25,340,20","I interpret an outdoor scene. It's good because it makes me want to look longer.,22,180,20","city, stress of urbanism, slightly panicked,2,280,20","Courtney","Thats a lazy town,-8,280,20","Laura","confusion, scattered and diffuse,-4,320,20","Kristen","city, stress of urbanism, slightly panicked,2,280,20","0"
"21136","","survey-text","144","930349","0.0-144.0-0.0","A2O486OILASFYG","","","","{""Q0"":""Energy, but mad or sad energy""}","","","","","","","","","","","","","","","","","","","","","","",""
"2532.9999999998836","","image-slider-response","145","932884","0.0-145.0","A2O486OILASFYG","","","","","25","","","","","","","","","","","","","","","","","","","","","",""
"4215","","image-button-response","146","937886","0.0-146.0","A2O486OILASFYG","img_art/15.jpg","4","","","","","","","","","","","","","","","","","","","","","","","","",""
"629","","image-button-response","147","938516","0.0-147.0","A2O486OILASFYG","img_art/15.jpg","4","","","","","","","","","","","","","","","","","","","","","","","","",""
"1151","","image-button-response","148","939668","0.0-148.0-0.0","A2O486OILASFYG","img_art/15.jpg","3","","","","","","","","","","","","","","","","","","","","","","","","",""
"3695","","image-button-response","149","943364","0.0-149.0-0.0","A2O486OILASFYG","img_art/15.jpg","1","","","","","","","","","","","","","","","","","","","","","","","","",""
"null","","html-keyboard-response","150","944867","0.0-150.0","A2O486OILASFYG","<p style=""font-size: 48px;"">+</p>","","","","","null","allTrialResponses","1500","1","15","img_art/15.jpg","25","Energy, but mad or sad energy","Laura,Anna,Courtney,Leah,Kathryn,Kristen","abrasive, rough, uneven,-31,320,20","I like how it's simple but beautiful.,40,300,20","Weird fuzzball bush.,22,280,20","Pretty, like in a field of poppies,19,360,20","This is looking at a forest from above. I can see water and some pathways throughout. Nature.,20,140,20","darkness, hatred, fear,-29,280,20","Kathryn","This is looking at a forest from above. I can see water and some pathways throughout. Nature.,20,140,20","Leah","Pretty, like in a field of poppies,19,360,20","Anna","I like how it's simple but beautiful.,40,300,20","0"
"4545","","survey-text","151","949424","0.0-151.0-0.0","A2O486OILASFYG","","","","{""Q0"":""course""}","","","","","","","","","","","","","","","","","","","","","","",""
"18989","","survey-text","152","968413","0.0-152.0-0.0","A2O486OILASFYG","","","","{""Q0"":""Reminds me of the 80s paintings and clothing that were everywhere""}","","","","","","","","","","","","","","","","","","","","","","",""
"1814","","image-slider-response","153","970229","0.0-153.0","A2O486OILASFYG","","","","","-45","","","","","","","","","","","","","","","","","","","","","",""
"null","","image-button-response","154","975232","0.0-154.0","A2O486OILASFYG","img_art/12.jpg","null","","","","","","","","","","","","","","","","","","","","","","","","",""
"3454","","image-button-response","155","978686","0.0-155.0","A2O486OILASFYG","img_art/12.jpg","5","","","","","","","","","","","","","","","","","","","","","","","","",""
"1350","","image-button-response","156","980037","0.0-156.0-0.0","A2O486OILASFYG","img_art/12.jpg","0","","","","","","","","","","","","","","","","","","","","","","","","",""
"1415","","image-button-response","157","981454","0.0-157.0-0.0","A2O486OILASFYG","img_art/12.jpg","1","","","","","","","","","","","","","","","","","","","","","","","","",""
"null","","html-keyboard-response","158","981955","0.0-158.0","A2O486OILASFYG","<p style=""font-size: 48px;"">+</p>","","","","","null","allTrialResponses","500","1","16","img_art/12.jpg","-45","Reminds me of the 80s paintings and clothing that were everywhere","Kimberly,Anna,Kayla,Leah,Kathryn,Andrea","Just not a fan, I can't figure out why,-17,260,20","Therapist wall art.,10,300,20","Yay! Lots of people, lots of lives.,25,180,20","Looks like a puzzle I want to put together, but not hang in my den,2,360,20","This feels cosmopolitan. Like looking at a high rise apartment at night and seeing into everyone's windows.,20,140,20","It just feels like a jigsaw puzzle,-4,240,20","Andrea","It just feels like a jigsaw puzzle,-4,240,20","Kimberly","Just not a fan, I can't figure out why,-17,260,20","Anna","Therapist wall art.,10,300,20","0"
"17518","","survey-text","159","999478","0.0-159.0-0.0","A2O486OILASFYG","","","","{""Q0"":""I can see music, art and motion in this.""}","","","","","","","","","","","","","","","","","","","","","","",""
"3798","","image-slider-response","160","1003278","0.0-160.0","A2O486OILASFYG","","","","","49","","","","","","","","","","","","","","","","","","","","","",""
"null","","image-button-response","161","1008281","0.0-161.0","A2O486OILASFYG","img_art/10.jpg","null","","","","","","","","","","","","","","","","","","","","","","","","",""
"3316","","image-button-response","162","1011598","0.0-162.0","A2O486OILASFYG","img_art/10.jpg","5","","","","","","","","","","","","","","","","","","","","","","","","",""
"2641","","image-button-response","163","1014240","0.0-163.0-0.0","A2O486OILASFYG","img_art/10.jpg","1","","","","","","","","","","","","","","","","","","","","","","","","",""
"1036","","image-button-response","164","1015278","0.0-164.0-0.0","A2O486OILASFYG","img_art/10.jpg","2","","","","","","","","","","","","","","","","","","","","","","","","",""
"null","","html-keyboard-response","165","1016280","0.0-165.0","A2O486OILASFYG","<p style=""font-size: 48px;"">+</p>","","","","","null","allTrialResponses","1000","1","17","img_art/10.jpg","49","I can see music, art and motion in this.","Kimberly,Anna,Natalie,Monica,Marissa,Andrea","Also too all over the place, I don't see any pattern or anything that's supposed to stand out,-19,260,20","I like how simple but intricate it is.,30,300,20","I see a rollercoaster,23,400,20","It doesn't look pleasing to the eye, it kind of looks like an animal but a dirty one,-38,360,20","My immediate thought is WTF is this,-20,160,20","Kraken, and I love it.,39,240,20","Andrea","Kraken, and I love it.,39,240,20","Anna","I like how simple but intricate it is.,30,300,20","Natalie","I see a rollercoaster,23,400,20","0"
"19977","","survey-text","166","1036263","0.0-166.0-0.0","A2O486OILASFYG","","","","{""Q0"":""This could be an album cover for the Beatles or another great band.""}","","","","","","","","","","","","","","","","","","","","","","",""
"3174","","image-slider-response","167","1039439","0.0-167.0","A2O486OILASFYG","","","","","32","","","","","","","","","","","","","","","","","","","","","",""
"4263","","image-button-response","168","1044442","0.0-168.0","A2O486OILASFYG","img_art/23.jpg","1","","","","","","","","","","","","","","","","","","","","","","","","",""
"1909","","image-button-response","169","1046351","0.0-169.0","A2O486OILASFYG","img_art/23.jpg","1","","","","","","","","","","","","","","","","","","","","","","","","",""
"1367","","image-button-response","170","1047719","0.0-170.0-0.0","A2O486OILASFYG","img_art/23.jpg","2","","","","","","","","","","","","","","","","","","","","","","","","",""
"1607","","image-button-response","171","1049327","0.0-171.0-0.0","A2O486OILASFYG","img_art/23.jpg","4","","","","","","","","","","","","","","","","","","","","","","","","",""
"null","","html-keyboard-response","172","1050329","0.0-172.0","A2O486OILASFYG","<p style=""font-size: 48px;"">+</p>","","","","","null","allTrialResponses","1000","1","18","img_art/23.jpg","32","This could be an album cover for the Beatles or another great band.","Leslie,Anna,Natalie,Gabrielle,Abigail,Andrea","It reminds me of being in a crowded place.,-10,380,20","I love the colors and the contrast.,50,300,20","so much detail .,31,400,20","it's OK, but just OK, kind of interesting but I wouldn't spend money on it,4,160,20","I like the contrast,29,20,20","I see souls in torment and that makes me feel uneasy.,-21,240,20","Anna","I love the colors and the contrast.,50,300,20","Natalie","so much detail .,31,400,20","Abigail","I like the contrast,29,20,20","0"
"31722","","survey-text","173","1082057","0.0-173.0-0.0","A2O486OILASFYG","","","","{""Q0"":""Feels like a woman in a garden being painted.""}","","","","","","","","","","","","","","","","","","","","","","",""
"2766","","image-slider-response","174","1084824","0.0-174.0","A2O486OILASFYG","","","","","8","","","","","","","","","","","","","","","","","","","","","",""
"null","","image-button-response","175","1089826","0.0-175.0","A2O486OILASFYG","img_art/9.jpg","null","","","","","","","","","","","","","","","","","","","","","","","","",""
"1798","","image-button-response","176","1091625","0.0-176.0","A2O486OILASFYG","img_art/9.jpg","5","","","","","","","","","","","","","","","","","","","","","","","","",""
"1455","","image-button-response","177","1093081","0.0-177.0-0.0","A2O486OILASFYG","img_art/9.jpg","0","","","","","","","","","","","","","","","","","","","","","","","","",""
"3727","","image-button-response","178","1096809","0.0-178.0-0.0","A2O486OILASFYG","img_art/9.jpg","1","","","","","","","","","","","","","","","","","","","","","","","","",""
"null","","html-keyboard-response","179","1097812","0.0-179.0","A2O486OILASFYG","<p style=""font-size: 48px;"">+</p>","","","","","null","allTrialResponses","1000","1","19","img_art/9.jpg","8","Feels like a woman in a garden being painted.","Alexa,Anna,Natalie,Erin,Abigail,Brooke","It's wild and chaotic but also beautiful and has some kind of calming factor about it,20,40,20","It looks like a child's crayon drawing.,-10,300,20","Gives me anxiety,-23,400,20","Framing is overwhelming,-35,120,20","Reminds me of a cave in a scary movie,-21,20,20","Dark fantasy seaside cave carnival? Fun.,15,60,20","Brooke","Dark fantasy seaside cave carnival? Fun.,15,60,20","Alexa","It's wild and chaotic but also beautiful and has some kind of calming factor about it,20,40,20","Anna","It looks like a child's crayon drawing.,-10,300,20","0"
"19841","","survey-text","180","1117658","0.0-180.0-0.0","A2O486OILASFYG","","","","{""Q0"":""Too much going on here and lot of energy.  I don't get this one.""}","","","","","","","","","","","","","","","","","","","","","","",""
"2886","","image-slider-response","181","1120546","0.0-181.0","A2O486OILASFYG","","","","","-7","","","","","","","","","","","","","","","","","","","","","",""
"null","","image-button-response","182","1125548","0.0-182.0","A2O486OILASFYG","img_art/22.jpg","null","","","","","","","","","","","","","","","","","","","","","","","","",""
"3253","","image-button-response","183","1128802","0.0-183.0","A2O486OILASFYG","img_art/22.jpg","1","","","","","","","","","","","","","","","","","","","","","","","","",""
"1719","","image-button-response","184","1130522","0.0-184.0-0.0","A2O486OILASFYG","img_art/22.jpg","5","","","","","","","","","","","","","","","","","","","","","","","","",""
"2600","","image-button-response","185","1133124","0.0-185.0-0.0","A2O486OILASFYG","img_art/22.jpg","2","","","","","","","","","","","","","","","","","","","","","","","","",""
"null","","html-keyboard-response","186","1134127","0.0-186.0","A2O486OILASFYG","<p style=""font-size: 48px;"">+</p>","","","","","null","allTrialResponses","1000","1","20","img_art/22.jpg","-7","Too much going on here and lot of energy.  I don't get this one.","Alexa,Anna,Katherine,Paige,Victoria,Brooke","Really pretty. Love the colors.,30,40,20","Boring, typical abstract art,-30,300,20","Cool squares but what's the circle?,38,120,20","Happy. I like to colors,33,60,20","love how the colors blend,42,400,20","Like this one, like a sunset,30,60,20","Anna","Boring, typical abstract art,-30,300,20","Brooke","Like this one, like a sunset,30,60,20","Katherine","Cool squares but what's the circle?,38,120,20","0"
"3187","","survey-text","187","1137323","0.0-187.0-0.0","A2O486OILASFYG","","","","{""Q0"":""we""}","","","","","","","","","","","","","","","","","","","","","","",""
"29231","","survey-text","188","1166555","0.0-188.0-0.0","A2O486OILASFYG","","","","{""Q0"":""Love this, is it a seaside scene or a tractor accident?""}","","","","","","","","","","","","","","","","","","","","","","",""
"4719","","image-slider-response","189","1171275","0.0-189.0","A2O486OILASFYG","","","","","43","","","","","","","","","","","","","","","","","","","","","",""
"null","","image-button-response","190","1176276","0.0-190.0","A2O486OILASFYG","img_art/20.jpg","null","","","","","","","","","","","","","","","","","","","","","","","","",""
"3390","","image-button-response","191","1179667","0.0-191.0","A2O486OILASFYG","img_art/20.jpg","4","","","","","","","","","","","","","","","","","","","","","","","","",""
"6128","","image-button-response","192","1185797","0.0-192.0-0.0","A2O486OILASFYG","img_art/20.jpg","0","","","","","","","","","","","","","","","","","","","","","","","","",""
"3965","","image-button-response","193","1189764","0.0-193.0-0.0","A2O486OILASFYG","img_art/20.jpg","1","","","","","","","","","","","","","","","","","","","","","","","","",""
"null","","html-keyboard-response","194","1191267","0.0-194.0","A2O486OILASFYG","<p style=""font-size: 48px;"">+</p>","","","","","null","allTrialResponses","1500","1","21","img_art/20.jpg","43","Love this, is it a seaside scene or a tractor accident?","Brianna,Anna,Katherine,Katelyn,Elizabeth,Brooke","It looks like a motorcycle and I like cars and motorcycles,30,20,20","I would like it more without the frame.,10,300,20","More dark colors and blurry objects.,13,120,20","I do at least like the dark colors blending,6,100,20","This painting would make a great display art,50,20,20","Dinosaur skill and some dark shadow above,-30,60,20","Elizabeth","This painting would make a great display art,50,20,20","Brianna","It looks like a motorcycle and I like cars and motorcycles,30,20,20","Anna","I would like it more without the frame.,10,300,20","0"
"32197","","survey-text","195","1223469","0.0-195.0-0.0","A2O486OILASFYG","","","","{""Q0"":""This is too weird for me, its like looking down an elevator shaft""}","","","","","","","","","","","","","","","","","","","","","","",""
"2127","","image-slider-response","196","1225597","0.0-196.0","A2O486OILASFYG","","","","","-48","","","","","","","","","","","","","","","","","","","","","",""
"null","","image-button-response","197","1230599","0.0-197.0","A2O486OILASFYG","img_art/29.jpg","null","","","","","","","","","","","","","","","","","","","","","","","","",""
"3789","","image-button-response","198","1234389","0.0-198.0","A2O486OILASFYG","img_art/29.jpg","3","","","","","","","","","","","","","","","","","","","","","","","","",""
"1095","","image-button-response","199","1235485","0.0-199.0-0.0","A2O486OILASFYG","img_art/29.jpg","4","","","","","","","","","","","","","","","","","","","","","","","","",""
"3888","","image-button-response","200","1239375","0.0-200.0-0.0","A2O486OILASFYG","img_art/29.jpg","2","","","","","","","","","","","","","","","","","","","","","","","","",""
"null","","html-keyboard-response","201","1240878","0.0-201.0","A2O486OILASFYG","<p style=""font-size: 48px;"">+</p>","","","","","null","allTrialResponses","1500","1","22","img_art/29.jpg","-48","This is too weird for me, its like looking down an elevator shaft","Brianna,Anna,Jessica,Angelica,Elizabeth,Kaitlyn","It has a red X on there, and x's mean bad in my perspective,-29,20,20","I like the texture and colors and how it makes me feel. I like how it's different from other abstract art.,45,300,20","It looks cool but I don't really get what's going on, it looks too busy,0,400,20","This is very gross and odd looking.,-8,280,20","Has a haunting feel to it,22,20,20","I do not like the red x present in the picture,-6,80,20","Angelica","This is very gross and odd looking.,-8,280,20","Elizabeth","Has a haunting feel to it,22,20,20","Jessica","It looks cool but I don't really get what's going on, it looks too busy,0,400,20","0"
"212689","","survey-text","202","1453572","0.0-202.0-0.0","A2O486OILASFYG","","","","{""Q0"":""Too much going on and too bland.  Just seems stressful.""}","","","","","","","","","","","","","","","","","","","","","","",""
"2734","","image-slider-response","203","1456308","0.0-203.0","A2O486OILASFYG","","","","","-25","","","","","","","","","","","","","","","","","","","","","",""
"3758","","image-button-response","204","1461310","0.0-204.0","A2O486OILASFYG","img_art/1.jpg","0","","","","","","","","","","","","","","","","","","","","","","","","",""
"1700","","image-button-response","205","1463012","0.0-205.0","A2O486OILASFYG","img_art/1.jpg","0","","","","","","","","","","","","","","","","","","","","","","","","",""
"2639","","image-button-response","206","1465652","0.0-206.0-0.0","A2O486OILASFYG","img_art/1.jpg","3","","","","","","","","","","","","","","","","","","","","","","","","",""
"2895","","image-button-response","207","1468548","0.0-207.0-0.0","A2O486OILASFYG","img_art/1.jpg","1","","","","","","","","","","","","","","","","","","","","","","","","",""
"null","","html-keyboard-response","208","1469050","0.0-208.0","A2O486OILASFYG","<p style=""font-size: 48px;"">+</p>","","","","","null","allTrialResponses","500","1","23","img_art/1.jpg","-25","Too much going on and too bland.  Just seems stressful.","Cassandra,Savannah,Jessica,Angelica,Elizabeth,Claire","I didn't like this too much...I didn't like the red and the jaggedness to it.,-29,120,20","Its simply okay.,3,200,20","Looks like the same thing as the last piece shown to me,10,400,20","This is ugly with bad colors.,-6,280,20","Absolutely love this painting,50,20,20","the colors are nice,8,260,20","Cassandra","I didn't like this too much...I didn't like the red and the jaggedness to it.,-29,120,20","Angelica","This is ugly with bad colors.,-6,280,20","Savannah","Its simply okay.,3,200,20","0"
"12147","","survey-text","209","1481205","0.0-209.0-0.0","A2O486OILASFYG","","","","{""Q0"":""I love it, reminds me of trees in a winter forest.""}","","","","","","","","","","","","","","","","","","","","","","",""
"2157.999999999767","","image-slider-response","210","1483364","0.0-210.0","A2O486OILASFYG","","","","","45","","","","","","","","","","","","","","","","","","","","","",""
"null","","image-button-response","211","1488367","0.0-211.0","A2O486OILASFYG","img_art/13.jpg","null","","","","","","","","","","","","","","","","","","","","","","","","",""
"2685","","image-button-response","212","1491053","0.0-212.0","A2O486OILASFYG","img_art/13.jpg","2","","","","","","","","","","","","","","","","","","","","","","","","",""
"2302","","image-button-response","213","1493357","0.0-213.0-0.0","A2O486OILASFYG","img_art/13.jpg","4","","","","","","","","","","","","","","","","","","","","","","","","",""
"1743","","image-button-response","214","1495101","0.0-214.0-0.0","A2O486OILASFYG","img_art/13.jpg","1","","","","","","","","","","","","","","","","","","","","","","","","",""
"null","","html-keyboard-response","215","1495603","0.0-215.0","A2O486OILASFYG","<p style=""font-size: 48px;"">+</p>","","","","","null","allTrialResponses","500","1","24","img_art/13.jpg","45","I love it, reminds me of trees in a winter forest.","Cassandra,Savannah,Crystal,Angelica,Alexis,Heather","I love the colors and the texture,37,120,20","Lots of depth and character.,30,200,20","Reminiscent of Jackson Pollock and gives me a feeling of chaotic satisfaction,50,300,20","It's too violent looking and there's too much contrast between the white/black.,-21,280,20","Simple, but pleasing. The blue gradient is a favorite of mine,32,100,20","rain in blue black and white,1,260,20","Crystal","Reminiscent of Jackson Pollock and gives me a feeling of chaotic satisfaction,50,300,20","Alexis","Simple, but pleasing. The blue gradient is a favorite of mine,32,100,20","Savannah","Lots of depth and character.,30,200,20","0"
"15645","","survey-text","216","1511254","0.0-216.0-0.0","A2O486OILASFYG","","","","{""Q0"":""Super interesting, one of those paintings you could looks at for a long time.""}","","","","","","","","","","","","","","","","","","","","","","",""
"2134","","image-slider-response","217","1513389","0.0-217.0","A2O486OILASFYG","","","","","46","","","","","","","","","","","","","","","","","","","","","",""
"null","","image-button-response","218","1518391","0.0-218.0","A2O486OILASFYG","img_art/8.jpg","null","","","","","","","","","","","","","","","","","","","","","","","","",""
"1445","","image-button-response","219","1519837","0.0-219.0","A2O486OILASFYG","img_art/8.jpg","5","","","","","","","","","","","","","","","","","","","","","","","","",""
"1881","","image-button-response","220","1521719","0.0-220.0-0.0","A2O486OILASFYG","img_art/8.jpg","2","","","","","","","","","","","","","","","","","","","","","","","","",""
"1524","","image-button-response","221","1523246","0.0-221.0-0.0","A2O486OILASFYG","img_art/8.jpg","1","","","","","","","","","","","","","","","","","","","","","","","","",""
"null","","html-keyboard-response","222","1524747","0.0-222.0","A2O486OILASFYG","<p style=""font-size: 48px;"">+</p>","","","","","null","allTrialResponses","1500","1","25","img_art/8.jpg","46","Super interesting, one of those paintings you could looks at for a long time.","Sabrina,Savannah,Crystal,Makayla,Alexis,Amanda","I love the expressiveness of this,50,120,20","Despite the detail, this picture is very abstract!,31,200,20","i like the abstract nature of a birds eye view of the city. The hard shapes and squares present with a softness rather than rigidity.,26,300,20","I see water and structures that resemble Ancient Rome,15,80,20","Reminds me of old 80s fantasy book covers. Nostalgic,23,100,20","I love architectural paintings,46,180,20","Amanda","I love architectural paintings,46,180,20","Crystal","i like the abstract nature of a birds eye view of the city. The hard shapes and squares present with a softness rather than rigidity.,26,300,20","Savannah","Despite the detail, this picture is very abstract!,31,200,20","0"
"5217","","survey-text","223","1529974","0.0-223.0-0.0","A2O486OILASFYG","","","","{""Q0"":""table""}","","","","","","","","","","","","","","","","","","","","","","",""
"21585","","survey-text","224","1551560","0.0-224.0-0.0","A2O486OILASFYG","","","","{""Q0"":""Its calming like a fantasy forest in a far away world.""}","","","","","","","","","","","","","","","","","","","","","","",""
"2754","","image-slider-response","225","1554318","0.0-225.0","A2O486OILASFYG","","","","","20","","","","","","","","","","","","","","","","","","","","","",""
"null","","image-button-response","226","1559320","0.0-226.0","A2O486OILASFYG","img_art/30.jpg","null","","","","","","","","","","","","","","","","","","","","","","","","",""
"6141","","image-button-response","227","1565463","0.0-227.0","A2O486OILASFYG","img_art/30.jpg","5","","","","","","","","","","","","","","","","","","","","","","","","",""
"775","","image-button-response","228","1566239","0.0-228.0-0.0","A2O486OILASFYG","img_art/30.jpg","4","","","","","","","","","","","","","","","","","","","","","","","","",""
"862","","image-button-response","229","1567103","0.0-229.0-0.0","A2O486OILASFYG","img_art/30.jpg","2","","","","","","","","","","","","","","","","","","","","","","","","",""
"null","","html-keyboard-response","230","1568604","0.0-230.0","A2O486OILASFYG","<p style=""font-size: 48px;"">+</p>","","","","","null","allTrialResponses","1500","1","26","img_art/30.jpg","20","Its calming like a fantasy forest in a far away world.","Chloe,Savannah,Crystal,Kelsey,Catherine,Amanda","Muddy, sloppy, unprofessional,-44,220,20","Colors are nice but it just seems too simple.,-26,200,20","An interesting design but don't like the colors. I value the time and effort put into it, but not a huge fan.,10,300,20","dont like this much at all,-30,240,20","connection, Everything is connected even in contrast.,42,160,20","Love how the red stands out,20,180,20","Amanda","Love how the red stands out,20,180,20","Catherine","connection, Everything is connected even in contrast.,42,160,20","Crystal","An interesting design but don't like the colors. I value the time and effort put into it, but not a huge fan.,10,300,20","0"
"22614","","survey-text","231","1591224","0.0-231.0-0.0","A2O486OILASFYG","","","","{""Q0"":""Smoggy metropolis gone sour, but I like it.""}","","","","","","","","","","","","","","","","","","","","","","",""
"2158","","image-slider-response","232","1593384","0.0-232.0","A2O486OILASFYG","","","","","7","","","","","","","","","","","","","","","","","","","","","",""
"null","","image-button-response","233","1598386","0.0-233.0","A2O486OILASFYG","img_art/11.jpg","null","","","","","","","","","","","","","","","","","","","","","","","","",""
"3749","","image-button-response","234","1602136","0.0-234.0","A2O486OILASFYG","img_art/11.jpg","4","","","","","","","","","","","","","","","","","","","","","","","","",""
"2351","","image-button-response","235","1604488","0.0-235.0-0.0","A2O486OILASFYG","img_art/11.jpg","2","","","","","","","","","","","","","","","","","","","","","","","","",""
"1199","","image-button-response","236","1605688","0.0-236.0-0.0","A2O486OILASFYG","img_art/11.jpg","0","","","","","","","","","","","","","","","","","","","","","","","","",""
"null","","html-keyboard-response","237","1606189","0.0-237.0","A2O486OILASFYG","<p style=""font-size: 48px;"">+</p>","","","","","null","allTrialResponses","500","1","27","img_art/11.jpg","7","Smoggy metropolis gone sour, but I like it.","Miranda,Haley,Crystal,Samantha,Catherine,Amanda","This one is a little erie, gives me post-apocalyptic feeling,27,320,20","Lovely. I could look at this for a really long time. I love the details and the composition.,40,220,20","Enjoyed the lines representing different paths that encompass different entities,20,300,20","Love the colors and flow,50,140,20","Busy city life. transportation, anxiety.,10,160,20","It makes me feel angry and overwhelmed,-29,180,20","Catherine","Busy city life. transportation, anxiety.,10,160,20","Crystal","Enjoyed the lines representing different paths that encompass different entities,20,300,20","Miranda","This one is a little erie, gives me post-apocalyptic feeling,27,320,20","0"
"23567","","survey-text","238","1629761","0.0-238.0-0.0","A2O486OILASFYG","","","","{""Q0"":""Nope, nope, nope, like a little kids drawings, nope.""}","","","","","","","","","","","","","","","","","","","","","","",""
"2190","","image-slider-response","239","1631953","0.0-239.0","A2O486OILASFYG","","","","","-48","","","","","","","","","","","","","","","","","","","","","",""
"null","","image-button-response","240","1636954","0.0-240.0","A2O486OILASFYG","img_art/27.jpg","null","","","","","","","","","","","","","","","","","","","","","","","","",""
"4710","","image-button-response","241","1641665","0.0-241.0","A2O486OILASFYG","img_art/27.jpg","2","","","","","","","","","","","","","","","","","","","","","","","","",""
"1847","","image-button-response","242","1643513","0.0-242.0-0.0","A2O486OILASFYG","img_art/27.jpg","0","","","","","","","","","","","","","","","","","","","","","","","","",""
"3793","","image-button-response","243","1647307","0.0-243.0-0.0","A2O486OILASFYG","img_art/27.jpg","3","","","","","","","","","","","","","","","","","","","","","","","","",""
"null","","html-keyboard-response","244","1648310","0.0-244.0","A2O486OILASFYG","<p style=""font-size: 48px;"">+</p>","","","","","null","allTrialResponses","1000","1","28","img_art/27.jpg","-48","Nope, nope, nope, like a little kids drawings, nope.","Miranda,Breanna,Crystal,Michaela,Catherine,Erika","I'm not a fan. It looks like something my nephews (1 and 2) would make,-8,320,20","Not too impressed with the work,6,380,20","Muddied and directionless. Like someone dragged a brush across the paper for the sake of doing something.,-50,300,20","It looks like a kid colored a picture and an adult added to it,19,260,20","Angelic, childlike. happiness but also with sadness.,40,160,20","Nice color, but too vague,-12,100,20","Crystal","Muddied and directionless. Like someone dragged a brush across the paper for the sake of doing something.,-50,300,20","Miranda","I'm not a fan. It looks like something my nephews (1 and 2) would make,-8,320,20","Michaela","It looks like a kid colored a picture and an adult added to it,19,260,20","0"
"18702","","survey-text","245","1667018","0.0-245.0-0.0","A2O486OILASFYG","","","","{""Q0"":""Weird, like I'm going to get killed in a nightmare tonight.""}","","","","","","","","","","","","","","","","","","","","","","",""
"2894.000000000233","","image-slider-response","246","1669914","0.0-246.0","A2O486OILASFYG","","","","","-50","","","","","","","","","","","","","","","","","","","","","",""
"null","","image-button-response","247","1674916","0.0-247.0","A2O486OILASFYG","img_art/16.jpg","null","","","","","","","","","","","","","","","","","","","","","","","","",""
"2398","","image-button-response","248","1677314","0.0-248.0","A2O486OILASFYG","img_art/16.jpg","0","","","","","","","","","","","","","","","","","","","","","","","","",""
"1375","","image-button-response","249","1678690","0.0-249.0-0.0","A2O486OILASFYG","img_art/16.jpg","2","","","","","","","","","","","","","","","","","","","","","","","","",""
"2055","","image-button-response","250","1680746","0.0-250.0-0.0","A2O486OILASFYG","img_art/16.jpg","3","","","","","","","","","","","","","","","","","","","","","","","","",""
"null","","html-keyboard-response","251","1681247","0.0-251.0","A2O486OILASFYG","<p style=""font-size: 48px;"">+</p>","","","","","null","allTrialResponses","500","1","29","img_art/16.jpg","-50","Weird, like I'm going to get killed in a nightmare tonight.","Miranda,Sydney,Crystal,Michaela,Isabella,Autumn","This looks like it was made by an art student filled with angst,-30,320,20","This piece is unusual but unique.,5,320,20","Garble and nonsense,-50,300,20","It feels lazily done,-9,260,20","This looks chaotic,-25,280,20","Very cool abstraction.,19,340,20","Miranda","This looks like it was made by an art student filled with angst,-30,320,20","Crystal","Garble and nonsense,-50,300,20","Michaela","It feels lazily done,-9,260,20","0"
"11925","","survey-text","252","1693179","0.0-252.0-0.0","A2O486OILASFYG","","","","{""Q0"":""Sand at the beach and on my feet.""}","","","","","","","","","","","","","","","","","","","","","","",""
"2230","","image-slider-response","253","1695411","0.0-253.0","A2O486OILASFYG","","","","","11","","","","","","","","","","","","","","","","","","","","","",""
"null","","image-button-response","254","1700413","0.0-254.0","A2O486OILASFYG","img_art/7.jpg","null","","","","","","","","","","","","","","","","","","","","","","","","",""
"3661","","image-button-response","255","1704075","0.0-255.0","A2O486OILASFYG","img_art/7.jpg","2","","","","","","","","","","","","","","","","","","","","","","","","",""
"1327","","image-button-response","256","1705403","0.0-256.0-0.0","A2O486OILASFYG","img_art/7.jpg","3","","","","","","","","","","","","","","","","","","","","","","","","",""
"5215","","image-button-response","257","1710619","0.0-257.0-0.0","A2O486OILASFYG","img_art/7.jpg","0","","","","","","","","","","","","","","","","","","","","","","","","",""
"null","","html-keyboard-response","258","1711620","0.0-258.0","A2O486OILASFYG","<p style=""font-size: 48px;"">+</p>","","","","","null","allTrialResponses","1000","1","30","img_art/7.jpg","11","Sand at the beach and on my feet.","Miranda,Stephanie,Crystal,Michaela,Katie,Kelly","This looks like a literal picture of the ground so I'm really not too sure about this one.,-42,320,20","This looks muddy and stomped on. I think of destruction.,-50,300,20","I thought I was looking at a satellite image of mars.,21,300,20","It looks like maybe some seeds?,14,260,20","I see dryness, which is sad. Dirt, sand, the dessert. Barren dry lifeless,-30,160,20","My firs thought was ""gross""...not sure what this is and I dont think i want to know.,-19,220,20","Crystal","I thought I was looking at a satellite image of mars.,21,300,20","Michaela","It looks like maybe some seeds?,14,260,20","Miranda","This looks like a literal picture of the ground so I'm really not too sure about this one.,-42,320,20","0"
"3306","","image-button-response_instructions","259","1714933","0.0-259.0","A2O486OILASFYG","","0","instructions","","","","","","","","","","","","","","","","","","","","","","","",""
"1635","","image-button-response","260","1716573","0.0-260.0","A2O486OILASFYG","","0","","","","","","","","","","","","","","","","","","","","","","","","",""
