"rt","url","trial_type","trial_index","time_elapsed","internal_node_id","participant_id","stimulus","button_pressed","Name","responses","response","key_press","variableName","fixationTime","condition","trial","photo","subjectRating","subjectResponse","agentsNames","agent_1_Response","agent_2_Response","agent_3_Response","agent_4_Response","agent_5_Response","agent_6_Response","kept_1_name","kept_1_response","kept_2_name","kept_2_response","kept_3_name","kept_3_response","errorCounter"
"5636","external_page_harvard.html","external-html","0","5721","0.0-0.0","A2O8I5KDFW41DO","","","","","","","","","","","","","","","","","","","","","","","","","","",""
"1886","","image-button-response","1","7610","0.0-1.0","A2O8I5KDFW41DO","","0","","","","","","","","","","","","","","","","","","","","","","","","",""
"1483","","image-button-response","2","9097","0.0-2.0-0.0","A2O8I5KDFW41DO","","1","phone","","","","","","","","","","","","","","","","","","","","","","","",""
"6367","","survey-text","3","15465","0.0-3.0-0.0","A2O8I5KDFW41DO","","","","{""Q0"":""A2O8I5KDFW41DO""}","","","","","","","","","","","","","","","","","","","","","","",""
"6750","","image-button-response_instructions","4","22217","0.0-4.0","A2O8I5KDFW41DO","","0","instructions","","","","","","","","","","","","","","","","","","","","","","","",""
"15263","","image-button-response_instructions","5","37481","0.0-5.0","A2O8I5KDFW41DO","img_art/ins/popularity/ins1.png","0","instructions","","","","","","","","","","","","","","","","","","","","","","","",""
"8488","","image-button-response_instructions","6","45970","0.0-6.0","A2O8I5KDFW41DO","img_art/ins/popularity/ins2.png","0","instructions","","","","","","","","","","","","","","","","","","","","","","","",""
"2464","","image-button-response_instructions","7","48434","0.0-7.0","A2O8I5KDFW41DO","img_art/ins/popularity/ins2Extreme.png","0","instructions","","","","","","","","","","","","","","","","","","","","","","","",""
"4671","","image-button-response_instructions","8","53106","0.0-8.0","A2O8I5KDFW41DO","img_art/ins/popularity/ins3KEEPpop.PNG","0","instructions","","","","","","","","","","","","","","","","","","","","","","","",""
"4423","","image-button-response_instructions","9","57530","0.0-9.0","A2O8I5KDFW41DO","img_art/ins/popularity/ins3ANamepop.PNG","0","instructions","","","","","","","","","","","","","","","","","","","","","","","",""
"3527","","image-button-response_instructions","10","61058","0.0-10.0","A2O8I5KDFW41DO","img_art/ins/popularity/ins3ARatingpop.png","0","instructions","","","","","","","","","","","","","","","","","","","","","","","",""
"3239","","image-button-response_instructions","11","64298","0.0-11.0","A2O8I5KDFW41DO","img_art/ins/popularity/ins3ATextpop.png","0","instructions","","","","","","","","","","","","","","","","","","","","","","","",""
"5063","","image-button-response_instructions","12","69362","0.0-12.0","A2O8I5KDFW41DO","img_art/ins/popularity/ins3ALikespop.png","0","instructions","","","","","","","","","","","","","","","","","","","","","","","",""
"20503","","image-button-response_instructions","13","89867","0.0-13.0","A2O8I5KDFW41DO","img_art/ins/popularity/ins3KEEPpop.PNG","0","instructions","","","","","","","","","","","","","","","","","","","","","","","",""
"10845","","image-button-response_instructions","14","100715","0.0-14.0","A2O8I5KDFW41DO","img_art/ins/popularity/ins3_5RED.png","0","instructions","","","","","","","","","","","","","","","","","","","","","","","",""
"5334","","image-button-response_instructions","15","106050","0.0-15.0","A2O8I5KDFW41DO","img_art/ins/popularity/ins3KEEPpop.PNG","0","instructions","","","","","","","","","","","","","","","","","","","","","","","",""
"18343","","image-button-response_instructions","16","124395","0.0-16.0","A2O8I5KDFW41DO","img_art/ins/popularity/ins4KEEPpop.PNG","0","instructions","","","","","","","","","","","","","","","","","","","","","","","",""
"6231","","image-button-response_instructions","17","130627","0.0-17.0","A2O8I5KDFW41DO","img_art/ins/popularity/ins5KEEPpop.PNG","0","instructions","","","","","","","","","","","","","","","","","","","","","","","",""
"1647","","image-button-response_instructions","18","132275","0.0-18.0","A2O8I5KDFW41DO","","0","instructions","","","","","","","","","","","","","","","","","","","","","","","",""
"4952","","survey-text","19","137251","0.0-19.0-0.0","A2O8I5KDFW41DO","","","","{""Q0"":""but""}","","","","","","","","","","","","","","","","","","","","","","",""
"11207","","survey-text","20","148459","0.0-20.0-0.0","A2O8I5KDFW41DO","","","","{""Q0"":""It's ok.""}","","","","","","","","","","","","","","","","","","","","","","",""
"6358","","image-slider-response","21","154819","0.0-21.0","A2O8I5KDFW41DO","","","","","0","","","","","","","","","","","","","","","","","","","","","",""
"null","","image-button-response","22","159835","0.0-22.0","A2O8I5KDFW41DO","img_art/ins/1.jpg","null","","","","","","","","","","","","","","","","","","","","","","","","",""
"10353","","image-button-response","23","170188","0.0-23.0","A2O8I5KDFW41DO","img_art/ins/1.jpg","0","","","","","","","","","","","","","","","","","","","","","","","","",""
"6166","","image-button-response","24","176356","0.0-24.0-0.0","A2O8I5KDFW41DO","img_art/ins/1.jpg","3","","","","","","","","","","","","","","","","","","","","","","","","",""
"2214","","image-button-response","25","178573","0.0-25.0-0.0","A2O8I5KDFW41DO","img_art/ins/1.jpg","1","","","","","","","","","","","","","","","","","","","","","","","","",""
"null","","html-keyboard-response","26","179076","0.0-26.0","A2O8I5KDFW41DO","<p style=""font-size: 48px;"">+</p>","","","","","null","allTrialResponses","500","1","-2","img_art/ins/1.jpg","0","It's ok.","Adam,Alex,Ben,Carl,Daniel,Jack","Seems like doodles,-20,20,20","very creative work.,36,40,20","This color reminds me of poo,-46,60,20","very calming artwork,42,80,20","It looks like a murder scene.,-48,100,20","I like the sophisticated brushwork,40,120,20","Adam","Seems like doodles,-20,20,20","Carl","very calming artwork,42,80,20","Alex","very creative work.,36,40,20","0"
"12052","","survey-text","27","191133","0.0-27.0-0.0","A2O8I5KDFW41DO","","","","{""Q0"":""Looks angry.""}","","","","","","","","","","","","","","","","","","","","","","",""
"3359","","image-slider-response","28","194492","0.0-28.0","A2O8I5KDFW41DO","","","","","-7","","","","","","","","","","","","","","","","","","","","","",""
"null","","image-button-response","29","199503","0.0-29.0","A2O8I5KDFW41DO","img_art/ins/2.jpg","null","","","","","","","","","","","","","","","","","","","","","","","","",""
"7133","","image-button-response","30","206637","0.0-30.0","A2O8I5KDFW41DO","img_art/ins/2.jpg","5","","","","","","","","","","","","","","","","","","","","","","","","",""
"6423","","image-button-response","31","213061","0.0-31.0-0.0","A2O8I5KDFW41DO","img_art/ins/2.jpg","1","","","","","","","","","","","","","","","","","","","","","","","","",""
"1079","","image-button-response","32","214141","0.0-32.0-0.0","A2O8I5KDFW41DO","img_art/ins/2.jpg","2","","","","","","","","","","","","","","","","","","","","","","","","",""
"null","","html-keyboard-response","33","215644","0.0-33.0","A2O8I5KDFW41DO","<p style=""font-size: 48px;"">+</p>","","","","","null","allTrialResponses","1500","1","-1","img_art/ins/2.jpg","-7","Looks angry.","Adam,Alex,James,Carl,John,Kyle","too much color,-18,20,20","I like the blocks of color arrangements,30,40,20","looks too angry,-50,140,20","I can feel the artist's passion in it,45,80,20","love the texture of paint,48,160,20","Idk, it is just annoying,-32,180,20","Kyle","Idk, it is just annoying,-32,180,20","Alex","I like the blocks of color arrangements,30,40,20","James","looks too angry,-50,140,20","0"
"11071","","survey-text","34","226718","0.0-34.0-0.0","A2O8I5KDFW41DO","","","","{""Q0"":""Cold and icy.""}","","","","","","","","","","","","","","","","","","","","","","",""
"4039","","image-slider-response","35","230757","0.0-35.0","A2O8I5KDFW41DO","","","","","6","","","","","","","","","","","","","","","","","","","","","",""
"null","","image-button-response","36","235766","0.0-36.0","A2O8I5KDFW41DO","img_art/ins/3.jpg","null","","","","","","","","","","","","","","","","","","","","","","","","",""
"6670","","image-button-response","37","242437","0.0-37.0","A2O8I5KDFW41DO","img_art/ins/3.jpg","4","","","","","","","","","","","","","","","","","","","","","","","","",""
"2512","","image-button-response","38","244950","0.0-38.0-0.0","A2O8I5KDFW41DO","img_art/ins/3.jpg","1","","","","","","","","","","","","","","","","","","","","","","","","",""
"2038","","image-button-response","39","246989","0.0-39.0-0.0","A2O8I5KDFW41DO","img_art/ins/3.jpg","3","","","","","","","","","","","","","","","","","","","","","","","","",""
"null","","html-keyboard-response","40","247994","0.0-40.0","A2O8I5KDFW41DO","<p style=""font-size: 48px;"">+</p>","","","","","null","allTrialResponses","1000","1","0","img_art/ins/3.jpg","6","Cold and icy.","Sam,Alex,James,Mike,Ron,Kyle","I can feel a rainy day from this painting,18,240,20","calming blue is very nice,36,40,20","My worst nightmare,-42,140,20","enjoy the different shades of blue,22,200,20","It looks depressing,-26,220,20","It looks like a playground for bats,-36,180,20","Ron","It looks depressing,-26,220,20","Alex","calming blue is very nice,36,40,20","Mike","enjoy the different shades of blue,22,200,20","0"
"29446","","image-button-response_instructions","41","277446","0.0-41.0","A2O8I5KDFW41DO","","0","instructions","","","","","","","","","","","","","","","","","","","","","","","",""
"15509","","survey-likert","42","292956","0.0-42.0-0.0","A2O8I5KDFW41DO","","","","{""Q0"":"""",""Q1"":0,""Q2"":1}","","","","","","","","","","","","","","","","","","","","","","",""
"4783","","survey-text","43","297742","0.0-43.0-0.0","A2O8I5KDFW41DO","","","","{""Q0"":""rock""}","","","","","","","","","","","","","","","","","","","","","","",""
"23312","","survey-text","44","321055","0.0-44.0-0.0","A2O8I5KDFW41DO","","","","{""Q0"":""I can't see what's drawn.""}","","","","","","","","","","","","","","","","","","","","","","",""
"4015","","image-slider-response","45","325070","0.0-45.0","A2O8I5KDFW41DO","","","","","-13","","","","","","","","","","","","","","","","","","","","","",""
"null","","image-button-response","46","330091","0.0-46.0","A2O8I5KDFW41DO","img_art/18.jpg","null","","","","","","","","","","","","","","","","","","","","","","","","",""
"1772","","image-button-response","47","331863","0.0-47.0","A2O8I5KDFW41DO","img_art/18.jpg","2","","","","","","","","","","","","","","","","","","","","","","","","",""
"2647","","image-button-response","48","334512","0.0-48.0-0.0","A2O8I5KDFW41DO","img_art/18.jpg","3","","","","","","","","","","","","","","","","","","","","","","","","",""
"5910","","image-button-response","49","340423","0.0-49.0-0.0","A2O8I5KDFW41DO","img_art/18.jpg","0","","","","","","","","","","","","","","","","","","","","","","","","",""
"null","","html-keyboard-response","50","341929","0.0-50.0","A2O8I5KDFW41DO","<p style=""font-size: 48px;"">+</p>","","","","","null","allTrialResponses","1500","1","1","img_art/18.jpg","-13","I can't see what's drawn.","Cameron,Bradley,Malik,Devin,Cole,Michael","Don't like the color scheme. Or the theme.,-5,60,20","This one is very dark and apocalyptic indeed!,-30,300,20","Gently chaotic and beautiful,40,40,20","Good concept but then scribbled on a bit?,15,380,20","Two people fighting with one watching,17,200,20","Not my style but I can see some serious skill went int it.,21,140,20","Malik","Gently chaotic and beautiful,40,40,20","Devin","Good concept but then scribbled on a bit?,15,380,20","Cameron","Don't like the color scheme. Or the theme.,-5,60,20","0"
"21852","","survey-text","51","363784","0.0-51.0-0.0","A2O8I5KDFW41DO","","","","{""Q0"":""Strange random assortment of colors.""}","","","","","","","","","","","","","","","","","","","","","","",""
"3351","","image-slider-response","52","367135","0.0-52.0","A2O8I5KDFW41DO","","","","","-9","","","","","","","","","","","","","","","","","","","","","",""
"null","","image-button-response","53","372142","0.0-53.0","A2O8I5KDFW41DO","img_art/2.jpg","null","","","","","","","","","","","","","","","","","","","","","","","","",""
"361","","image-button-response","54","372503","0.0-54.0","A2O8I5KDFW41DO","img_art/2.jpg","0","","","","","","","","","","","","","","","","","","","","","","","","",""
"4680","","image-button-response","55","377184","0.0-55.0-0.0","A2O8I5KDFW41DO","img_art/2.jpg","1","","","","","","","","","","","","","","","","","","","","","","","","",""
"6895","","image-button-response","56","384080","0.0-56.0-0.0","A2O8I5KDFW41DO","img_art/2.jpg","3","","","","","","","","","","","","","","","","","","","","","","","","",""
"null","","html-keyboard-response","57","385089","0.0-57.0","A2O8I5KDFW41DO","<p style=""font-size: 48px;"">+</p>","","","","","null","allTrialResponses","1000","1","2","img_art/2.jpg","-9","Strange random assortment of colors.","Cameron,Mason,Malik,Devin,Richard,Jason","Ugly version of that park painting.,-31,60,20","retro, amateurish, not a fan of the colors together.,-10,100,20","Indistinct and too bright,-21,40,20","I don't really like this style,-5,380,20","doctor's office art work, nice colors and not offensive,23,340,20","Too jumbled and disorienting,-13,20,20","Cameron","Ugly version of that park painting.,-31,60,20","Mason","retro, amateurish, not a fan of the colors together.,-10,100,20","Devin","I don't really like this style,-5,380,20","0"
"14651","","survey-text","58","399745","0.0-58.0-0.0","A2O8I5KDFW41DO","","","","{""Q0"":""Bloody and painful.""}","","","","","","","","","","","","","","","","","","","","","","",""
"4127","","image-slider-response","59","403873","0.0-59.0","A2O8I5KDFW41DO","","","","","-23","","","","","","","","","","","","","","","","","","","","","",""
"3095","","image-button-response","60","408888","0.0-60.0","A2O8I5KDFW41DO","img_art/3.jpg","0","","","","","","","","","","","","","","","","","","","","","","","","",""
"847","","image-button-response","61","409736","0.0-61.0","A2O8I5KDFW41DO","img_art/3.jpg","0","","","","","","","","","","","","","","","","","","","","","","","","",""
"3094","","image-button-response","62","412832","0.0-62.0-0.0","A2O8I5KDFW41DO","img_art/3.jpg","1","","","","","","","","","","","","","","","","","","","","","","","","",""
"5190","","image-button-response","63","418024","0.0-63.0-0.0","A2O8I5KDFW41DO","img_art/3.jpg","2","","","","","","","","","","","","","","","","","","","","","","","","",""
"null","","html-keyboard-response","64","419029","0.0-64.0","A2O8I5KDFW41DO","<p style=""font-size: 48px;"">+</p>","","","","","null","allTrialResponses","1000","1","3","img_art/3.jpg","-23","Bloody and painful.","Cameron,Mason,Benjamin,Devin,Jack,Elijah","kid scribbled on the wall again,-35,60,20","scribbles in red. 2 minute piece.,-30,100,20","seems to be a lot of angry scribble.,-20,260,20","Scribbly a bit too much,-30,380,20","unique & stylized. interesting. another one I could keep staring at.,50,320,20","Somebody scribbled on a piece of paper,-35,80,20","Cameron","kid scribbled on the wall again,-35,60,20","Mason","scribbles in red. 2 minute piece.,-30,100,20","Benjamin","seems to be a lot of angry scribble.,-20,260,20","0"
"27073","","survey-text","65","446105","0.0-65.0-0.0","A2O8I5KDFW41DO","","","","{""Q0"":""Nothing special about it.""}","","","","","","","","","","","","","","","","","","","","","","",""
"2615","","image-slider-response","66","448721","0.0-66.0","A2O8I5KDFW41DO","","","","","-3","","","","","","","","","","","","","","","","","","","","","",""
"null","","image-button-response","67","453736","0.0-67.0","A2O8I5KDFW41DO","img_art/12.jpg","null","","","","","","","","","","","","","","","","","","","","","","","","",""
"1073","","image-button-response","68","454810","0.0-68.0","A2O8I5KDFW41DO","img_art/12.jpg","1","","","","","","","","","","","","","","","","","","","","","","","","",""
"6599","","image-button-response","69","461410","0.0-69.0-0.0","A2O8I5KDFW41DO","img_art/12.jpg","5","","","","","","","","","","","","","","","","","","","","","","","","",""
"1702","","image-button-response","70","463114","0.0-70.0-0.0","A2O8I5KDFW41DO","img_art/12.jpg","0","","","","","","","","","","","","","","","","","","","","","","","","",""
"null","","html-keyboard-response","71","464117","0.0-71.0","A2O8I5KDFW41DO","<p style=""font-size: 48px;"">+</p>","","","","","null","allTrialResponses","1000","1","4","img_art/12.jpg","-3","Nothing special about it.","Cameron,Mason,Benjamin,Eric,Mark,Chase","Dislike the style, the sharp rectangular pattern very jarring.,-20,60,20","it's ok, but blocky, looks old.,3,100,20","Like how all the colors seem to blend together.,15,260,20","I don't like the dark black with the bright colors, but this as a whole is nice.,25,100,20","It just feels like a jigsaw puzzle,-4,80,20","It's not particularly interesting or ugly.,-7,120,20","Mason","it's ok, but blocky, looks old.,3,100,20","Chase","It's not particularly interesting or ugly.,-7,120,20","Cameron","Dislike the style, the sharp rectangular pattern very jarring.,-20,60,20","0"
"26458","","survey-text","72","490578","0.0-72.0-0.0","A2O8I5KDFW41DO","","","","{""Q0"":""A forest of mold?""}","","","","","","","","","","","","","","","","","","","","","","",""
"3351","","image-slider-response","73","493930","0.0-73.0","A2O8I5KDFW41DO","","","","","-15","","","","","","","","","","","","","","","","","","","","","",""
"3223","","image-button-response","74","498939","0.0-74.0","A2O8I5KDFW41DO","img_art/15.jpg","0","","","","","","","","","","","","","","","","","","","","","","","","",""
"670","","image-button-response","75","499611","0.0-75.0","A2O8I5KDFW41DO","img_art/15.jpg","0","","","","","","","","","","","","","","","","","","","","","","","","",""
"10182","","image-button-response","76","509795","0.0-76.0-0.0","A2O8I5KDFW41DO","img_art/15.jpg","1","","","","","","","","","","","","","","","","","","","","","","","","",""
"943","","image-button-response","77","510738","0.0-77.0-0.0","A2O8I5KDFW41DO","img_art/15.jpg","2","","","","","","","","","","","","","","","","","","","","","","","","",""
"null","","html-keyboard-response","78","511248","0.0-78.0","A2O8I5KDFW41DO","<p style=""font-size: 48px;"">+</p>","","","","","null","allTrialResponses","500","1","5","img_art/15.jpg","-15","A forest of mold?","Cameron,Mason,Thomas,Devon,Victor,Chase","This one reminds me of a postage stamp, but branches and leaves. Kind of fun.,15,60,20","It's ok, it makes me think. That's something I guess.,8,100,20","Interesting, and I don't dislike it.,9,220,20","This one seems a bit frightening,-19,400,20","I like the random blue dabs to break up the black, but it looks unfinished.,4,340,20","I don't like how the black dots are aligned.,-20,120,20","Cameron","This one reminds me of a postage stamp, but branches and leaves. Kind of fun.,15,60,20","Mason","It's ok, it makes me think. That's something I guess.,8,100,20","Thomas","Interesting, and I don't dislike it.,9,220,20","0"
"3820","","survey-text","79","515074","0.0-79.0-0.0","A2O8I5KDFW41DO","","","","{""Q0"":""sky""}","","","","","","","","","","","","","","","","","","","","","","",""
"16815","","survey-text","80","531890","0.0-80.0-0.0","A2O8I5KDFW41DO","","","","{""Q0"":""Looks like terrain of some kind.""}","","","","","","","","","","","","","","","","","","","","","","",""
"3175","","image-slider-response","81","535068","0.0-81.0","A2O8I5KDFW41DO","","","","","6","","","","","","","","","","","","","","","","","","","","","",""
"null","","image-button-response","82","540071","0.0-82.0","A2O8I5KDFW41DO","img_art/7.jpg","null","","","","","","","","","","","","","","","","","","","","","","","","",""
"1635","","image-button-response","83","541708","0.0-83.0","A2O8I5KDFW41DO","img_art/7.jpg","1","","","","","","","","","","","","","","","","","","","","","","","","",""
"3735","","image-button-response","84","545443","0.0-84.0-0.0","A2O8I5KDFW41DO","img_art/7.jpg","4","","","","","","","","","","","","","","","","","","","","","","","","",""
"2831","","image-button-response","85","548276","0.0-85.0-0.0","A2O8I5KDFW41DO","img_art/7.jpg","0","","","","","","","","","","","","","","","","","","","","","","","","",""
"null","","html-keyboard-response","86","549790","0.0-86.0","A2O8I5KDFW41DO","<p style=""font-size: 48px;"">+</p>","","","","","null","allTrialResponses","1500","1","6","img_art/7.jpg","6","Looks like terrain of some kind.","Cameron,Mason,Thomas,Lucas,Travis,Evan","tracks in dirt?,-15,60,20","I don't get it. looks like a picture of the ground.,-42,100,20","Confusion, mild aversion,-36,220,20","Don't understand the meaning of this picture.,-30,380,20","Just neutral...looks like sand at the beach.,3,260,20","I feel confused, am I looking at a painting or a close up picture of some sort of fly stone?,-19,140,20","Mason","I don't get it. looks like a picture of the ground.,-42,100,20","Travis","Just neutral...looks like sand at the beach.,3,260,20","Cameron","tracks in dirt?,-15,60,20","0"
"33396","","survey-text","87","583188","0.0-87.0-0.0","A2O8I5KDFW41DO","","","","{""Q0"":""A bit angry.""}","","","","","","","","","","","","","","","","","","","","","","",""
"2661","","image-slider-response","88","585851","0.0-88.0","A2O8I5KDFW41DO","","","","","-11","","","","","","","","","","","","","","","","","","","","","",""
"2319","","image-button-response","89","590860","0.0-89.0","A2O8I5KDFW41DO","img_art/1.jpg","0","","","","","","","","","","","","","","","","","","","","","","","","",""
"2016","","image-button-response","90","592876","0.0-90.0","A2O8I5KDFW41DO","img_art/1.jpg","4","","","","","","","","","","","","","","","","","","","","","","","","",""
"5800","","image-button-response","91","598676","0.0-91.0-0.0","A2O8I5KDFW41DO","img_art/1.jpg","3","","","","","","","","","","","","","","","","","","","","","","","","",""
"1726","","image-button-response","92","600404","0.0-92.0-0.0","A2O8I5KDFW41DO","img_art/1.jpg","2","","","","","","","","","","","","","","","","","","","","","","","","",""
"null","","html-keyboard-response","93","600910","0.0-93.0","A2O8I5KDFW41DO","<p style=""font-size: 48px;"">+</p>","","","","","null","allTrialResponses","500","1","7","img_art/1.jpg","-11","A bit angry.","Cameron,Mason,Gregory,Jose,Travis,Alejandro","It's okay, colors remind me of autumn.,10,60,20","just colors mixed together. not interesting.,5,100,20","Looks like just a bunch of colors with no real point,-5,220,20","Blurry but that's how emotions are a lot of the time.,27,200,20","I didn't like this too much...I didn't like the red and the jaggedness to it.,-29,260,20","Interesting color scheme but to bled to me,11,80,20","Travis","I didn't like this too much...I didn't like the red and the jaggedness to it.,-29,260,20","Jose","Blurry but that's how emotions are a lot of the time.,27,200,20","Gregory","Looks like just a bunch of colors with no real point,-5,220,20","0"
"14034","","survey-text","94","614948","0.0-94.0-0.0","A2O8I5KDFW41DO","","","","{""Q0"":""I like this.""}","","","","","","","","","","","","","","","","","","","","","","",""
"4527","","image-slider-response","95","619476","0.0-95.0","A2O8I5KDFW41DO","","","","","19","","","","","","","","","","","","","","","","","","","","","",""
"null","","image-button-response","96","624487","0.0-96.0","A2O8I5KDFW41DO","img_art/17.jpg","null","","","","","","","","","","","","","","","","","","","","","","","","",""
"157","","image-button-response","97","624644","0.0-97.0","A2O8I5KDFW41DO","img_art/17.jpg","2","","","","","","","","","","","","","","","","","","","","","","","","",""
"2935","","image-button-response","98","627581","0.0-98.0-0.0","A2O8I5KDFW41DO","img_art/17.jpg","5","","","","","","","","","","","","","","","","","","","","","","","","",""
"5759","","image-button-response","99","633341","0.0-99.0-0.0","A2O8I5KDFW41DO","img_art/17.jpg","4","","","","","","","","","","","","","","","","","","","","","","","","",""
"null","","html-keyboard-response","100","634844","0.0-100.0","A2O8I5KDFW41DO","<p style=""font-size: 48px;"">+</p>","","","","","null","allTrialResponses","1500","1","8","img_art/17.jpg","19","I like this.","Jonathan,David,Gregory,Jose,Travis,Nathaniel","Feels nostalgic somehow,31,140,20","I like how the image gives an impression of gaseous tree.,15,340,20","Looks like some fantasy tree. Nice,30,220,20","Looks like a weird blurry heaven again! I dig,32,200,20","Very pretty...the colors and good and flow well.,33,260,20","I like the artistic sketching pattern.,24,220,20","Gregory","Looks like some fantasy tree. Nice,30,220,20","Nathaniel","I like the artistic sketching pattern.,24,220,20","Travis","Very pretty...the colors and good and flow well.,33,260,20","0"
"29414","","survey-text","101","664261","0.0-101.0-0.0","A2O8I5KDFW41DO","","","","{""Q0"":""I don't understand this type of art.""}","","","","","","","","","","","","","","","","","","","","","","",""
"4702","","image-slider-response","102","668965","0.0-102.0","A2O8I5KDFW41DO","","","","","-21","","","","","","","","","","","","","","","","","","","","","",""
"4840","","image-button-response","103","673968","0.0-103.0","A2O8I5KDFW41DO","img_art/29.jpg","1","","","","","","","","","","","","","","","","","","","","","","","","",""
"980","","image-button-response","104","674949","0.0-104.0","A2O8I5KDFW41DO","img_art/29.jpg","1","","","","","","","","","","","","","","","","","","","","","","","","",""
"2551","","image-button-response","105","677502","0.0-105.0-0.0","A2O8I5KDFW41DO","img_art/29.jpg","3","","","","","","","","","","","","","","","","","","","","","","","","",""
"3094","","image-button-response","106","680597","0.0-106.0-0.0","A2O8I5KDFW41DO","img_art/29.jpg","4","","","","","","","","","","","","","","","","","","","","","","","","",""
"null","","html-keyboard-response","107","681106","0.0-107.0","A2O8I5KDFW41DO","<p style=""font-size: 48px;"">+</p>","","","","","null","allTrialResponses","500","1","9","img_art/29.jpg","-21","I don't understand this type of art.","Luke,Logan,Gregory,Nathan,Travis,Nathaniel","it is difficult to look at but you can't look away,-25,20,20","is this supposed to be edgy,-21,360,20","3D looks is really cool,30,220,20","Quite ugly in my opinion,-30,200,20","Neural...just a blackboard jungle.,3,260,20","Giant messy blob. Looks like it tries to be edgy, but fails.,-40,220,20","Logan","is this supposed to be edgy,-21,360,20","Nathan","Quite ugly in my opinion,-30,200,20","Travis","Neural...just a blackboard jungle.,3,260,20","0"
"32145","","survey-text","108","713254","0.0-108.0-0.0","A2O8I5KDFW41DO","","","","{""Q0"":""Strange wavy pattern.  Kinda dark.""}","","","","","","","","","","","","","","","","","","","","","","",""
"5318","","image-slider-response","109","718574","0.0-109.0","A2O8I5KDFW41DO","","","","","-22","","","","","","","","","","","","","","","","","","","","","",""
"3975","","image-button-response","110","723586","0.0-110.0","A2O8I5KDFW41DO","img_art/11.jpg","0","","","","","","","","","","","","","","","","","","","","","","","","",""
"788","","image-button-response","111","724374","0.0-111.0","A2O8I5KDFW41DO","img_art/11.jpg","0","","","","","","","","","","","","","","","","","","","","","","","","",""
"847","","image-button-response","112","725222","0.0-112.0-0.0","A2O8I5KDFW41DO","img_art/11.jpg","0","","","","","","","","","","","","","","","","","","","","","","","","",""
"5490","","image-button-response","113","734431","0.0-112.1-0.1","A2O8I5KDFW41DO","img_art/11.jpg","5","","","","","","","","","","","","","","","","","","","","","","","","",""
"2655","","image-button-response","114","737086","0.0-113.0-0.0","A2O8I5KDFW41DO","img_art/11.jpg","2","","","","","","","","","","","","","","","","","","","","","","","","",""
"null","","html-keyboard-response","115","738592","0.0-114.0","A2O8I5KDFW41DO","<p style=""font-size: 48px;"">+</p>","","","","","null","allTrialResponses","1500","1","10","img_art/11.jpg","-22","Strange wavy pattern.  Kinda dark.","Shawn,Logan,Justin,Nathan,Travis,Tyler","Like the movement but not the background colors.,21,100,20","life is a highway,12,360,20","It reminds me of telephone wires.,1,280,20","Reminds me of some of post-apocalyptic view of street lights or maybe a city,30,200,20","I liked it it looked like an roller coasters at an amusment park.,16,260,20","Rainy day at an urban sea port. Portugal?,30,320,20","Shawn","Like the movement but not the background colors.,21,100,20","Tyler","Rainy day at an urban sea port. Portugal?,30,320,20","Justin","It reminds me of telephone wires.,1,280,20","2"
"4313","","survey-text","116","742911","0.0-115.0-0.0","A2O8I5KDFW41DO","","","","{""Q0"":""our""}","","","","","","","","","","","","","","","","","","","","","","",""
"22255","","survey-text","117","765167","0.0-116.0-0.0","A2O8I5KDFW41DO","","","","{""Q0"":""Interesting urban feel""}","","","","","","","","","","","","","","","","","","","","","","",""
"2711","","image-slider-response","118","767879","0.0-117.0","A2O8I5KDFW41DO","","","","","15","","","","","","","","","","","","","","","","","","","","","",""
"null","","image-button-response","119","772883","0.0-118.0","A2O8I5KDFW41DO","img_art/8.jpg","null","","","","","","","","","","","","","","","","","","","","","","","","",""
"2836","","image-button-response","120","775719","0.0-119.0","A2O8I5KDFW41DO","img_art/8.jpg","1","","","","","","","","","","","","","","","","","","","","","","","","",""
"8559","","image-button-response","121","784280","0.0-120.0-0.0","A2O8I5KDFW41DO","img_art/8.jpg","0","","","","","","","","","","","","","","","","","","","","","","","","",""
"1943","","image-button-response","122","786223","0.0-121.0-0.0","A2O8I5KDFW41DO","img_art/8.jpg","2","","","","","","","","","","","","","","","","","","","","","","","","",""
"null","","html-keyboard-response","123","787733","0.0-122.0","A2O8I5KDFW41DO","<p style=""font-size: 48px;"">+</p>","","","","","null","allTrialResponses","1500","1","11","img_art/8.jpg","15","Interesting urban feel","Shawn,Sean,Justin,Dakota,Corey,Tyler","Cheesy. A little too knock you over the dead with its message without making it emotional,-31,100,20","looks nice, like the details,25,40,20","Interesting to look at, there are many things happening in the painting.,32,280,20","chaotic and disassembled,-8,280,20","its pretty exciting to look at, there is alot going on,15,260,20","The composition is striking, and some of the images are quite dramatic,11,320,20","Sean","looks nice, like the details,25,40,20","Shawn","Cheesy. A little too knock you over the dead with its message without making it emotional,-31,100,20","Justin","Interesting to look at, there are many things happening in the painting.,32,280,20","2"
"28424","","survey-text","124","816160","0.0-123.0-0.0","A2O8I5KDFW41DO","","","","{""Q0"":""Too dull and too much black.""}","","","","","","","","","","","","","","","","","","","","","","",""
"2831","","image-slider-response","125","818992","0.0-124.0","A2O8I5KDFW41DO","","","","","-15","","","","","","","","","","","","","","","","","","","","","",""
"4824","","image-button-response","126","823993","0.0-125.0","A2O8I5KDFW41DO","img_art/10.jpg","0","","","","","","","","","","","","","","","","","","","","","","","","",""
"2119","","image-button-response","127","826112","0.0-126.0","A2O8I5KDFW41DO","img_art/10.jpg","0","","","","","","","","","","","","","","","","","","","","","","","","",""
"4135","","image-button-response","128","830249","0.0-127.0-0.0","A2O8I5KDFW41DO","img_art/10.jpg","4","","","","","","","","","","","","","","","","","","","","","","","","",""
"4487","","image-button-response","129","834736","0.0-128.0-0.0","A2O8I5KDFW41DO","img_art/10.jpg","1","","","","","","","","","","","","","","","","","","","","","","","","",""
"null","","html-keyboard-response","130","835239","0.0-129.0","A2O8I5KDFW41DO","<p style=""font-size: 48px;"">+</p>","","","","","null","allTrialResponses","500","1","12","img_art/10.jpg","-15","Too dull and too much black.","Shawn,Sean,Justin,Adam,Steven,Daniel","Don't like the colorblock but the lines are nice,-20,100,20","I see a rollercoaster,23,40,20","The design is dynamic and interesting.,14,280,20","I like the contrast,10,40,20","I dont like it, there is too much going on,-19,160,20","Music visualized with subtle color,17,320,20","Shawn","Don't like the colorblock but the lines are nice,-20,100,20","Steven","I dont like it, there is too much going on,-19,160,20","Sean","I see a rollercoaster,23,40,20","2"
"27308","","survey-text","131","862553","0.0-130.0-0.0","A2O8I5KDFW41DO","","","","{""Q0"":""Clashing choice of colors.""}","","","","","","","","","","","","","","","","","","","","","","",""
"5815","","image-slider-response","132","868369","0.0-131.0","A2O8I5KDFW41DO","","","","","-11","","","","","","","","","","","","","","","","","","","","","",""
"2943","","image-button-response","133","873384","0.0-132.0","A2O8I5KDFW41DO","img_art/27.jpg","0","","","","","","","","","","","","","","","","","","","","","","","","",""
"560","","image-button-response","134","873946","0.0-133.0","A2O8I5KDFW41DO","img_art/27.jpg","1","","","","","","","","","","","","","","","","","","","","","","","","",""
"3423","","image-button-response","135","877369","0.0-134.0-0.0","A2O8I5KDFW41DO","img_art/27.jpg","3","","","","","","","","","","","","","","","","","","","","","","","","",""
"2671","","image-button-response","136","880042","0.0-135.0-0.0","A2O8I5KDFW41DO","img_art/27.jpg","5","","","","","","","","","","","","","","","","","","","","","","","","",""
"null","","html-keyboard-response","137","881553","0.0-136.0","A2O8I5KDFW41DO","<p style=""font-size: 48px;"">+</p>","","","","","null","allTrialResponses","1500","1","13","img_art/27.jpg","-11","Clashing choice of colors.","Shawn,Sean,Jeremy,Juan,Steven,Garrett","Like the movement of the lines and dripping paint.,30,100,20","also gives me anxiety,-21,40,20","Pleased. Reminds me of a child drawing,46,60,20","Colors make me think of fall, but I don't like how the picture was done or the weird lines across the background,6,260,20","two warring cities, separated by a small desert,50,160,20","This image could do a better job of showing what is going on and it could use more colors.,-42,180,20","Sean","also gives me anxiety,-21,40,20","Juan","Colors make me think of fall, but I don't like how the picture was done or the weird lines across the background,6,260,20","Garrett","This image could do a better job of showing what is going on and it could use more colors.,-42,180,20","2"
"24556","","survey-text","138","906114","0.0-137.0-0.0","A2O8I5KDFW41DO","","","","{""Q0"":""Is this part of a landscape?""}","","","","","","","","","","","","","","","","","","","","","","",""
"4119","","image-slider-response","139","910234","0.0-138.0","A2O8I5KDFW41DO","","","","","-16","","","","","","","","","","","","","","","","","","","","","",""
"null","","image-button-response","140","915239","0.0-139.0","A2O8I5KDFW41DO","img_art/20.jpg","null","","","","","","","","","","","","","","","","","","","","","","","","",""
"915","","image-button-response","141","916155","0.0-140.0","A2O8I5KDFW41DO","img_art/20.jpg","2","","","","","","","","","","","","","","","","","","","","","","","","",""
"5039","","image-button-response","142","921194","0.0-141.0-0.0","A2O8I5KDFW41DO","img_art/20.jpg","4","","","","","","","","","","","","","","","","","","","","","","","","",""
"7480","","image-button-response","143","928675","0.0-142.0-0.0","A2O8I5KDFW41DO","img_art/20.jpg","3","","","","","","","","","","","","","","","","","","","","","","","","",""
"null","","html-keyboard-response","144","929682","0.0-143.0","A2O8I5KDFW41DO","<p style=""font-size: 48px;"">+</p>","","","","","null","allTrialResponses","1000","1","14","img_art/20.jpg","-16","Is this part of a landscape?","Jordan,Sean,Blake,Juan,Paul,Garrett","A mountain vacation,46,160,20","I like the detail on it, although I get a sad vibe to it,19,40,20","reminds me of a dead animal in the west. ugly,-25,280,20","I like the deep blues, but I don't like the way this picture makes me feel.,-13,260,20","It looks like a junkyard and isn't appealing,-22,300,20","I really like this. There are lots of objects the artist wanted to show and the colors are good.,38,180,20","Blake","reminds me of a dead animal in the west. ugly,-25,280,20","Paul","It looks like a junkyard and isn't appealing,-22,300,20","Juan","I like the deep blues, but I don't like the way this picture makes me feel.,-13,260,20","2"
"18437","","survey-text","145","948123","0.0-144.0-0.0","A2O8I5KDFW41DO","","","","{""Q0"":""Reminds me of spring.""}","","","","","","","","","","","","","","","","","","","","","","",""
"2958","","image-slider-response","146","951083","0.0-145.0","A2O8I5KDFW41DO","","","","","6","","","","","","","","","","","","","","","","","","","","","",""
"4071","","image-button-response","147","956090","0.0-146.0","A2O8I5KDFW41DO","img_art/14.jpg","1","","","","","","","","","","","","","","","","","","","","","","","","",""
"567","","image-button-response","148","956659","0.0-147.0","A2O8I5KDFW41DO","img_art/14.jpg","1","","","","","","","","","","","","","","","","","","","","","","","","",""
"5992","","image-button-response","149","962651","0.0-148.0-0.0","A2O8I5KDFW41DO","img_art/14.jpg","4","","","","","","","","","","","","","","","","","","","","","","","","",""
"6214","","image-button-response","150","968867","0.0-149.0-0.0","A2O8I5KDFW41DO","img_art/14.jpg","3","","","","","","","","","","","","","","","","","","","","","","","","",""
"null","","html-keyboard-response","151","969369","0.0-150.0","A2O8I5KDFW41DO","<p style=""font-size: 48px;"">+</p>","","","","","null","allTrialResponses","500","1","15","img_art/14.jpg","6","Reminds me of spring.","Adrian,Scott,Blake,Juan,Paul,Noah","Warm, positive, growth.,8,60,20","its okay nothing special,11,20,20","fuzzy and confused. ok then well,16,280,20","I don't like the colors, but I espeically don't like all the negative space.,-20,260,20","Just don't like it, maybe it's the bleeding colors on the left of the tree-looking thing in the center or the faded background,-10,300,20","I enjoy what comes across as a playful take on nature themes,26,260,20","Scott","its okay nothing special,11,20,20","Paul","Just don't like it, maybe it's the bleeding colors on the left of the tree-looking thing in the center or the faded background,-10,300,20","Juan","I don't like the colors, but I espeically don't like all the negative space.,-20,260,20","2"
"4083","","survey-text","152","973460","0.0-151.0-0.0","A2O8I5KDFW41DO","","","","{""Q0"":""course""}","","","","","","","","","","","","","","","","","","","","","","",""
"23256","","survey-text","153","996716","0.0-152.0-0.0","A2O8I5KDFW41DO","","","","{""Q0"":""Kinda dull.""}","","","","","","","","","","","","","","","","","","","","","","",""
"5495","","image-slider-response","154","1002212","0.0-153.0","A2O8I5KDFW41DO","","","","","-26","","","","","","","","","","","","","","","","","","","","","",""
"4935","","image-button-response","155","1007219","0.0-154.0","A2O8I5KDFW41DO","img_art/19.jpg","3","","","","","","","","","","","","","","","","","","","","","","","","",""
"1169","","image-button-response","156","1008388","0.0-155.0","A2O8I5KDFW41DO","img_art/19.jpg","3","","","","","","","","","","","","","","","","","","","","","","","","",""
"2511","","image-button-response","157","1010900","0.0-156.0-0.0","A2O8I5KDFW41DO","img_art/19.jpg","4","","","","","","","","","","","","","","","","","","","","","","","","",""
"990","","image-button-response","158","1011892","0.0-157.0-0.0","A2O8I5KDFW41DO","img_art/19.jpg","5","","","","","","","","","","","","","","","","","","","","","","","","",""
"null","","html-keyboard-response","159","1012396","0.0-158.0","A2O8I5KDFW41DO","<p style=""font-size: 48px;"">+</p>","","","","","null","allTrialResponses","500","1","16","img_art/19.jpg","-26","Kinda dull.","Christian,Scott,Jared,Juan,Paul,Robert","interesting take on depth (reminds me of those 1000 piece puzzles),2,140,20","looks like a shopping center,20,20,20","green and orange are my favorite colors.  this cityscape feels warm,34,400,20","Again, this is too abstract.,-10,260,20","The shapes make me recall a city scene but it looks dirty,-22,300,20","A dreary town in the fall.,-4,360,20","Juan","Again, this is too abstract.,-10,260,20","Paul","The shapes make me recall a city scene but it looks dirty,-22,300,20","Robert","A dreary town in the fall.,-4,360,20","2"
"13142","","survey-text","160","1025541","0.0-159.0-0.0","A2O8I5KDFW41DO","","","","{""Q0"":""Psychedelic""}","","","","","","","","","","","","","","","","","","","","","","",""
"3199","","image-slider-response","161","1028741","0.0-160.0","A2O8I5KDFW41DO","","","","","-13","","","","","","","","","","","","","","","","","","","","","",""
"null","","image-button-response","162","1033756","0.0-161.0","A2O8I5KDFW41DO","img_art/23.jpg","null","","","","","","","","","","","","","","","","","","","","","","","","",""
"489","","image-button-response","163","1034245","0.0-162.0","A2O8I5KDFW41DO","img_art/23.jpg","2","","","","","","","","","","","","","","","","","","","","","","","","",""
"1583","","image-button-response","164","1035829","0.0-163.0-0.0","A2O8I5KDFW41DO","img_art/23.jpg","3","","","","","","","","","","","","","","","","","","","","","","","","",""
"5550","","image-button-response","165","1041381","0.0-164.0-0.0","A2O8I5KDFW41DO","img_art/23.jpg","5","","","","","","","","","","","","","","","","","","","","","","","","",""
"null","","html-keyboard-response","166","1042883","0.0-165.0","A2O8I5KDFW41DO","<p style=""font-size: 48px;"">+</p>","","","","","null","allTrialResponses","1500","1","17","img_art/23.jpg","-13","Psychedelic","Taylor,Jesse,Brendan,Juan,Paul,Robert","SOME thought was put into this one.,5,200,20","Makes me want to stare at it for hours. Like there is something deeper to find.,37,80,20","i completely dont get it,-47,340,20","This is ugly and weird.,-50,260,20","I like the sharp contrast of the white on the colorful background,27,300,20","This makes me think of an orchestra playing a forth of july song,12,360,20","Brendan","i completely dont get it,-47,340,20","Juan","This is ugly and weird.,-50,260,20","Robert","This makes me think of an orchestra playing a forth of july song,12,360,20","2"
"23968","","survey-text","167","1066854","0.0-166.0-0.0","A2O8I5KDFW41DO","","","","{""Q0"":""Dull, gray, boring.""}","","","","","","","","","","","","","","","","","","","","","","",""
"3487","","image-slider-response","168","1070341","0.0-167.0","A2O8I5KDFW41DO","","","","","-38","","","","","","","","","","","","","","","","","","","","","",""
"4912","","image-button-response","169","1075356","0.0-168.0","A2O8I5KDFW41DO","img_art/28.jpg","0","","","","","","","","","","","","","","","","","","","","","","","","",""
"729","","image-button-response","170","1076086","0.0-169.0","A2O8I5KDFW41DO","img_art/28.jpg","0","","","","","","","","","","","","","","","","","","","","","","","","",""
"2671","","image-button-response","171","1078758","0.0-170.0-0.0","A2O8I5KDFW41DO","img_art/28.jpg","1","","","","","","","","","","","","","","","","","","","","","","","","",""
"2071","","image-button-response","172","1080831","0.0-171.0-0.0","A2O8I5KDFW41DO","img_art/28.jpg","3","","","","","","","","","","","","","","","","","","","","","","","","",""
"null","","html-keyboard-response","173","1082338","0.0-172.0","A2O8I5KDFW41DO","<p style=""font-size: 48px;"">+</p>","","","","","null","allTrialResponses","1500","1","18","img_art/28.jpg","-38","Dull, gray, boring.","Tanner,Jesus,Brendan,Juan,Bryce,Robert","almost reminds me of thomas becket getting his head cut off,21,180,20","The muted tones aren't my favorite.,-10,100,20","i dont understand it,-34,340,20","It's such a blah piece and way too abstract.,-50,260,20","It gives me weird vibes.,-25,20,20","The colors are neutral but I see a mother helping her child,31,360,20","Tanner","almost reminds me of thomas becket getting his head cut off,21,180,20","Jesus","The muted tones aren't my favorite.,-10,100,20","Juan","It's such a blah piece and way too abstract.,-50,260,20","2"
"19922","","survey-text","174","1102263","0.0-173.0-0.0","A2O8I5KDFW41DO","","","","{""Q0"":""Paint splatter is art now.""}","","","","","","","","","","","","","","","","","","","","","","",""
"3439","","image-slider-response","175","1105703","0.0-174.0","A2O8I5KDFW41DO","","","","","-24","","","","","","","","","","","","","","","","","","","","","",""
"2023","","image-button-response","176","1110708","0.0-175.0","A2O8I5KDFW41DO","img_art/13.jpg","0","","","","","","","","","","","","","","","","","","","","","","","","",""
"2570","","image-button-response","177","1113279","0.0-176.0","A2O8I5KDFW41DO","img_art/13.jpg","4","","","","","","","","","","","","","","","","","","","","","","","","",""
"3919","","image-button-response","178","1117199","0.0-177.0-0.0","A2O8I5KDFW41DO","img_art/13.jpg","5","","","","","","","","","","","","","","","","","","","","","","","","",""
"4951","","image-button-response","179","1122151","0.0-178.0-0.0","A2O8I5KDFW41DO","img_art/13.jpg","3","","","","","","","","","","","","","","","","","","","","","","","","",""
"null","","html-keyboard-response","180","1123654","0.0-179.0","A2O8I5KDFW41DO","<p style=""font-size: 48px;"">+</p>","","","","","null","allTrialResponses","1500","1","19","img_art/13.jpg","-24","Paint splatter is art now.","Tanner,Jesus,Stephen,Juan,Jacob,Trevor","happy, serenity,30,180,20","I enjoy the cool colors mixed together,31,100,20","Like how realistic it looks.,33,140,20","I love the colors and the contrast between the different blues.,21,260,20","The paint splatter idea is kind of overused but I like how it brings the piece together,16,340,20","i like the colors but it looks like something that would hang in a hotel,18,280,20","Jacob","The paint splatter idea is kind of overused but I like how it brings the piece together,16,340,20","Trevor","i like the colors but it looks like something that would hang in a hotel,18,280,20","Juan","I love the colors and the contrast between the different blues.,21,260,20","2"
"36589","","survey-text","181","1160247","0.0-180.0-0.0","A2O8I5KDFW41DO","","","","{""Q0"":""Too abstract.""}","","","","","","","","","","","","","","","","","","","","","","",""
"3599","","image-slider-response","182","1163848","0.0-181.0","A2O8I5KDFW41DO","","","","","-40","","","","","","","","","","","","","","","","","","","","","",""
"2615","","image-button-response","183","1168855","0.0-182.0","A2O8I5KDFW41DO","img_art/5.jpg","1","","","","","","","","","","","","","","","","","","","","","","","","",""
"737","","image-button-response","184","1169592","0.0-183.0","A2O8I5KDFW41DO","img_art/5.jpg","1","","","","","","","","","","","","","","","","","","","","","","","","",""
"598","","image-button-response","185","1170192","0.0-184.0-0.0","A2O8I5KDFW41DO","img_art/5.jpg","2","","","","","","","","","","","","","","","","","","","","","","","","",""
"2839","","image-button-response","186","1173032","0.0-185.0-0.0","A2O8I5KDFW41DO","img_art/5.jpg","3","","","","","","","","","","","","","","","","","","","","","","","","",""
"null","","html-keyboard-response","187","1174538","0.0-186.0","A2O8I5KDFW41DO","<p style=""font-size: 48px;"">+</p>","","","","","null","allTrialResponses","1500","1","20","img_art/5.jpg","-40","Too abstract.","Carlos,Caleb,Seth,Juan,Jacob,Trevor","It feels very strong and open.,31,80,20","Boring and appears low effort,-41,40,20","I didn't care for this art piece. I wasn't sure about the color choice.,-15,60,20","The yellow is garish and the picture doesn't look liked anything.,-49,260,20","Don't really know the point of this one.,-11,340,20","looks like a little kids painting,-50,280,20","Caleb","Boring and appears low effort,-41,40,20","Seth","I didn't care for this art piece. I wasn't sure about the color choice.,-15,60,20","Juan","The yellow is garish and the picture doesn't look liked anything.,-49,260,20","2"
"3334","","survey-text","188","1177880","0.0-187.0-0.0","A2O8I5KDFW41DO","","","","{""Q0"":""we""}","","","","","","","","","","","","","","","","","","","","","","",""
"19760","","survey-text","189","1197641","0.0-188.0-0.0","A2O8I5KDFW41DO","","","","{""Q0"":""Looks like death.""}","","","","","","","","","","","","","","","","","","","","","","",""
"4319","","image-slider-response","190","1201961","0.0-189.0","A2O8I5KDFW41DO","","","","","-15","","","","","","","","","","","","","","","","","","","","","",""
"2279","","image-button-response","191","1206976","0.0-190.0","A2O8I5KDFW41DO","img_art/25.jpg","0","","","","","","","","","","","","","","","","","","","","","","","","",""
"448","","image-button-response","192","1207425","0.0-191.0","A2O8I5KDFW41DO","img_art/25.jpg","0","","","","","","","","","","","","","","","","","","","","","","","","",""
"3078","","image-button-response","193","1210505","0.0-192.0-0.0","A2O8I5KDFW41DO","img_art/25.jpg","3","","","","","","","","","","","","","","","","","","","","","","","","",""
"9303","","image-button-response","194","1219810","0.0-193.0-0.0","A2O8I5KDFW41DO","img_art/25.jpg","5","","","","","","","","","","","","","","","","","","","","","","","","",""
"null","","html-keyboard-response","195","1220816","0.0-194.0","A2O8I5KDFW41DO","<p style=""font-size: 48px;"">+</p>","","","","","null","allTrialResponses","1000","1","21","img_art/25.jpg","-15","Looks like death.","Dylan,Caleb,Seth,Juan,Zachary,Jake","This is too dark and creepy. I also hate the color,-30,40,20","Very cool color, very clear message!,50,40,20","This piece feels cultural. Like it represents something culturally.,22,60,20","I don't like the color. I don't like the abstract-ness of it.,-22,260,20","I like the green color, but the combination of green and a person with a long neck reminds me of aliens,-27,400,20","This is strange and poorly done.,-2,360,20","Dylan","This is too dark and creepy. I also hate the color,-30,40,20","Juan","I don't like the color. I don't like the abstract-ness of it.,-22,260,20","Jake","This is strange and poorly done.,-2,360,20","2"
"24766","","survey-text","196","1245586","0.0-195.0-0.0","A2O8I5KDFW41DO","","","","{""Q0"":""I like the color combo and nothing else.""}","","","","","","","","","","","","","","","","","","","","","","",""
"3639","","image-slider-response","197","1249226","0.0-196.0","A2O8I5KDFW41DO","","","","","-5","","","","","","","","","","","","","","","","","","","","","",""
"2279","","image-button-response","198","1254243","0.0-197.0","A2O8I5KDFW41DO","img_art/22.jpg","0","","","","","","","","","","","","","","","","","","","","","","","","",""
"646","","image-button-response","199","1254891","0.0-198.0","A2O8I5KDFW41DO","img_art/22.jpg","0","","","","","","","","","","","","","","","","","","","","","","","","",""
"2230","","image-button-response","200","1257123","0.0-199.0-0.0","A2O8I5KDFW41DO","img_art/22.jpg","1","","","","","","","","","","","","","","","","","","","","","","","","",""
"5302","","image-button-response","201","1262426","0.0-200.0-0.0","A2O8I5KDFW41DO","img_art/22.jpg","3","","","","","","","","","","","","","","","","","","","","","","","","",""
"null","","html-keyboard-response","202","1263938","0.0-201.0","A2O8I5KDFW41DO","<p style=""font-size: 48px;"">+</p>","","","","","null","allTrialResponses","1500","1","22","img_art/22.jpg","-5","I like the color combo and nothing else.","Dylan,Kevin,Isaac,Juan,Andrew,Jake","The colors in this picture are nice.,32,40,20","Looks hot where ever that is.,-8,320,20","The colors clash, and I don't know what is happening.,-23,280,20","I don't like the colors or the way they've been arranged.,-20,260,20","Doesn't make me feel anything,-4,160,20","It's bland and ugly.,-21,360,20","Dylan","The colors in this picture are nice.,32,40,20","Kevin","Looks hot where ever that is.,-8,320,20","Juan","I don't like the colors or the way they've been arranged.,-20,260,20","2"
"22860","","survey-text","203","1286802","0.0-202.0-0.0","A2O8I5KDFW41DO","","","","{""Q0"":""The left and right side kinda contrast.""}","","","","","","","","","","","","","","","","","","","","","","",""
"5254","","image-slider-response","204","1292059","0.0-203.0","A2O8I5KDFW41DO","","","","","-20","","","","","","","","","","","","","","","","","","","","","",""
"1815","","image-button-response","205","1297070","0.0-204.0","A2O8I5KDFW41DO","img_art/21.jpg","0","","","","","","","","","","","","","","","","","","","","","","","","",""
"3740","","image-button-response","206","1300811","0.0-205.0","A2O8I5KDFW41DO","img_art/21.jpg","4","","","","","","","","","","","","","","","","","","","","","","","","",""
"3047","","image-button-response","207","1303860","0.0-206.0-0.0","A2O8I5KDFW41DO","img_art/21.jpg","5","","","","","","","","","","","","","","","","","","","","","","","","",""
"2296","","image-button-response","208","1306156","0.0-207.0-0.0","A2O8I5KDFW41DO","img_art/21.jpg","0","","","","","","","","","","","","","","","","","","","","","","","","",""
"null","","html-keyboard-response","209","1307661","0.0-208.0","A2O8I5KDFW41DO","<p style=""font-size: 48px;"">+</p>","","","","","null","allTrialResponses","1500","1","23","img_art/21.jpg","-20","The left and right side kinda contrast.","Dylan,Kevin,Ethan,Juan,William,Christopher","This one is nice, it reminds me of the sky,42,40,20","Another ship on fire.,-10,320,20","This is lovely. I like the mix of colors, the warn and cool slowly combining.,39,120,20","The colors and softness work together to make something that's lovely.,42,260,20","like the colors,30,380,20","I love the section of blues, the colors overall are really lovely,31,160,20","William","like the colors,30,380,20","Christopher","I love the section of blues, the colors overall are really lovely,31,160,20","Dylan","This one is nice, it reminds me of the sky,42,40,20","2"
"22962","","survey-text","210","1330628","0.0-209.0-0.0","A2O8I5KDFW41DO","","","","{""Q0"":""Reminds me of a murder scene.""}","","","","","","","","","","","","","","","","","","","","","","",""
"4735","","image-slider-response","211","1335364","0.0-210.0","A2O8I5KDFW41DO","","","","","-3","","","","","","","","","","","","","","","","","","","","","",""
"3063","","image-button-response","212","1340377","0.0-211.0","A2O8I5KDFW41DO","img_art/16.jpg","0","","","","","","","","","","","","","","","","","","","","","","","","",""
"1259","","image-button-response","213","1341637","0.0-212.0","A2O8I5KDFW41DO","img_art/16.jpg","0","","","","","","","","","","","","","","","","","","","","","","","","",""
"1935","","image-button-response","214","1343572","0.0-213.0-0.0","A2O8I5KDFW41DO","img_art/16.jpg","2","","","","","","","","","","","","","","","","","","","","","","","","",""
"5263","","image-button-response","215","1348836","0.0-214.0-0.0","A2O8I5KDFW41DO","img_art/16.jpg","4","","","","","","","","","","","","","","","","","","","","","","","","",""
"null","","html-keyboard-response","216","1349339","0.0-215.0","A2O8I5KDFW41DO","<p style=""font-size: 48px;"">+</p>","","","","","null","allTrialResponses","500","1","24","img_art/16.jpg","-3","Reminds me of a murder scene.","Dylan,Alexis,Timothy,Derek,William,Christopher","This is weird and creepy.,-40,40,20","It looks very generic, like items were pasted onto the background,-38,140,20","This feels like images of a painful childhood,-50,240,20","I can't figure out the meaning of this painting but it is pleasant to look at,40,360,20","liked the bear, nothing else made sense,10,380,20","i don't like the collage aspect,-25,160,20","Dylan","This is weird and creepy.,-40,40,20","Timothy","This feels like images of a painful childhood,-50,240,20","William","liked the bear, nothing else made sense,10,380,20","2"
"18093","","survey-text","217","1367437","0.0-216.0-0.0","A2O8I5KDFW41DO","","","","{""Q0"":""Bland.""}","","","","","","","","","","","","","","","","","","","","","","",""
"4303","","image-slider-response","218","1371740","0.0-217.0","A2O8I5KDFW41DO","","","","","-11","","","","","","","","","","","","","","","","","","","","","",""
"3191","","image-button-response","219","1376746","0.0-218.0","A2O8I5KDFW41DO","img_art/26.jpg","0","","","","","","","","","","","","","","","","","","","","","","","","",""
"818","","image-button-response","220","1377565","0.0-219.0","A2O8I5KDFW41DO","img_art/26.jpg","0","","","","","","","","","","","","","","","","","","","","","","","","",""
"1320","","image-button-response","221","1378885","0.0-220.0-0.0","A2O8I5KDFW41DO","img_art/26.jpg","1","","","","","","","","","","","","","","","","","","","","","","","","",""
"3327","","image-button-response","222","1382213","0.0-221.0-0.0","A2O8I5KDFW41DO","img_art/26.jpg","4","","","","","","","","","","","","","","","","","","","","","","","","",""
"null","","html-keyboard-response","223","1382724","0.0-222.0","A2O8I5KDFW41DO","<p style=""font-size: 48px;"">+</p>","","","","","null","allTrialResponses","500","1","25","img_art/26.jpg","-11","Bland.","Dylan,Alex,Timothy,Ryan,William,Shane","I like the colors but it is still a little boring,22,40,20","I can make out a street view and I am a fan of watercolors but still too boring,15,100,20","Very pleasent little scene,40,240,20","Pleasant to look at,28,380,20","feels a tad old,30,380,20","Colors are full and reminds me of a messy room,-9,80,20","Dylan","I like the colors but it is still a little boring,22,40,20","Alex","I can make out a street view and I am a fan of watercolors but still too boring,15,100,20","William","feels a tad old,30,380,20","2"
"3719","","survey-text","224","1386453","0.0-223.0-0.0","A2O8I5KDFW41DO","","","","{""Q0"":""table""}","","","","","","","","","","","","","","","","","","","","","","",""
"23600","","survey-text","225","1410053","0.0-224.0-0.0","A2O8I5KDFW41DO","","","","{""Q0"":""I don't like the yellow/orange color.""}","","","","","","","","","","","","","","","","","","","","","","",""
"3431","","image-slider-response","226","1413486","0.0-225.0","A2O8I5KDFW41DO","","","","","-23","","","","","","","","","","","","","","","","","","","","","",""
"2591","","image-button-response","227","1418500","0.0-226.0","A2O8I5KDFW41DO","img_art/4.jpg","0","","","","","","","","","","","","","","","","","","","","","","","","",""
"104","","image-button-response","228","1418606","0.0-227.0","A2O8I5KDFW41DO","img_art/4.jpg","0","","","","","","","","","","","","","","","","","","","","","","","","",""
"1032","","image-button-response","229","1419639","0.0-228.0-0.0","A2O8I5KDFW41DO","img_art/4.jpg","1","","","","","","","","","","","","","","","","","","","","","","","","",""
"4238","","image-button-response","230","1423877","0.0-229.0-0.0","A2O8I5KDFW41DO","img_art/4.jpg","4","","","","","","","","","","","","","","","","","","","","","","","","",""
"null","","html-keyboard-response","231","1424889","0.0-230.0","A2O8I5KDFW41DO","<p style=""font-size: 48px;"">+</p>","","","","","null","allTrialResponses","1000","1","26","img_art/4.jpg","-23","I don't like the yellow/orange color.","Dylan,Alex,Vincent,Matthew,William,Anthony","This artwork looks like a child did it,-41,40,20","Looks like more paint smearing but at least there is structure,-5,100,20","I like it not sure much of how I feel about it,7,360,20","It looks like a hand.,25,120,20","dont like the colors,-31,380,20","Ugly and bland compared to the other pieces.,-33,200,20","Dylan","This artwork looks like a child did it,-41,40,20","Alex","Looks like more paint smearing but at least there is structure,-5,100,20","William","dont like the colors,-31,380,20","2"
"24557","","survey-text","232","1449454","0.0-231.0-0.0","A2O8I5KDFW41DO","","","","{""Q0"":""Looks like a river.""}","","","","","","","","","","","","","","","","","","","","","","",""
"6407","","image-slider-response","233","1455862","0.0-232.0","A2O8I5KDFW41DO","","","","","-30","","","","","","","","","","","","","","","","","","","","","",""
"null","","image-button-response","234","1460866","0.0-233.0","A2O8I5KDFW41DO","img_art/30.jpg","null","","","","","","","","","","","","","","","","","","","","","","","","",""
"125","","image-button-response","235","1460991","0.0-234.0","A2O8I5KDFW41DO","img_art/30.jpg","1","","","","","","","","","","","","","","","","","","","","","","","","",""
"2880","","image-button-response","236","1463871","0.0-235.0-0.0","A2O8I5KDFW41DO","img_art/30.jpg","2","","","","","","","","","","","","","","","","","","","","","","","","",""
"4551","","image-button-response","237","1468423","0.0-236.0-0.0","A2O8I5KDFW41DO","img_art/30.jpg","5","","","","","","","","","","","","","","","","","","","","","","","","",""
"null","","html-keyboard-response","238","1469932","0.0-237.0","A2O8I5KDFW41DO","<p style=""font-size: 48px;"">+</p>","","","","","null","allTrialResponses","1500","1","27","img_art/30.jpg","-30","Looks like a river.","Dylan,Alex,James,Bryan,William,Aaron","I really love the pastel colors and the 3D design in this,43,40,20","Don't like it at all, looks like a someone smeared paint with their fingers,-25,100,20","I like the fact that it's a painting.,21,380,20","A little too dull. Would've liked brighter colors. Also looks washed out.,1,400,20","to dark and dreary,-28,380,20","It looks like a pretty but unremarkable painting in a doctors office,15,20,20","Alex","Don't like it at all, looks like a someone smeared paint with their fingers,-25,100,20","James","I like the fact that it's a painting.,21,380,20","Aaron","It looks like a pretty but unremarkable painting in a doctors office,15,20,20","2"
"18950","","survey-text","239","1488887","0.0-238.0-0.0","A2O8I5KDFW41DO","","","","{""Q0"":""I like the color combo.""}","","","","","","","","","","","","","","","","","","","","","","",""
"6215","","image-slider-response","240","1495103","0.0-239.0","A2O8I5KDFW41DO","","","","","22","","","","","","","","","","","","","","","","","","","","","",""
"null","","image-button-response","241","1500118","0.0-240.0","A2O8I5KDFW41DO","img_art/9.jpg","null","","","","","","","","","","","","","","","","","","","","","","","","",""
"1361","","image-button-response","242","1501479","0.0-241.0","A2O8I5KDFW41DO","img_art/9.jpg","0","","","","","","","","","","","","","","","","","","","","","","","","",""
"3720","","image-button-response","243","1505200","0.0-242.0-0.0","A2O8I5KDFW41DO","img_art/9.jpg","1","","","","","","","","","","","","","","","","","","","","","","","","",""
"8333","","image-button-response","244","1513536","0.0-243.0-0.0","A2O8I5KDFW41DO","img_art/9.jpg","2","","","","","","","","","","","","","","","","","","","","","","","","",""
"null","","html-keyboard-response","245","1515038","0.0-244.0","A2O8I5KDFW41DO","<p style=""font-size: 48px;"">+</p>","","","","","null","allTrialResponses","1500","1","28","img_art/9.jpg","22","I like the color combo.","Peter,Alex,James,Ian,Samuel,Aaron","Looks like a monster's teeth , unsettling,-18,320,20","Alright, I can see a reclining lady, I'm just glad to be able to tell what's in the picture,5,100,20","This has some of my favorite colors, and I like it,21,380,20","It looks like someone gave a kid a coloring book page but the colors are soothing and look put together and elegant,27,260,20","what a wild ride,11,400,20","It looks like a child's crayon drawing.,-10,20,20","Peter","Looks like a monster's teeth , unsettling,-18,320,20","Alex","Alright, I can see a reclining lady, I'm just glad to be able to tell what's in the picture,5,100,20","James","This has some of my favorite colors, and I like it,21,380,20","2"
"20893","","survey-text","246","1535936","0.0-245.0-0.0","A2O8I5KDFW41DO","","","","{""Q0"":""Lonely tree.""}","","","","","","","","","","","","","","","","","","","","","","",""
"10615","","image-slider-response","247","1546552","0.0-246.0","A2O8I5KDFW41DO","","","","","0","","","","","","","","","","","","","","","","","","","","","",""
"null","","image-button-response","248","1551558","0.0-247.0","A2O8I5KDFW41DO","img_art/6.jpg","null","","","","","","","","","","","","","","","","","","","","","","","","",""
"2601","","image-button-response","249","1554161","0.0-248.0","A2O8I5KDFW41DO","img_art/6.jpg","1","","","","","","","","","","","","","","","","","","","","","","","","",""
"3575","","image-button-response","250","1557736","0.0-249.0-0.0","A2O8I5KDFW41DO","img_art/6.jpg","3","","","","","","","","","","","","","","","","","","","","","","","","",""
"9046","","image-button-response","251","1566785","0.0-250.0-0.0","A2O8I5KDFW41DO","img_art/6.jpg","2","","","","","","","","","","","","","","","","","","","","","","","","",""
"null","","html-keyboard-response","252","1567291","0.0-251.0","A2O8I5KDFW41DO","<p style=""font-size: 48px;"">+</p>","","","","","null","allTrialResponses","500","1","29","img_art/6.jpg","0","Lonely tree.","Peter,Alex,James,Brett,Dustin,Cody","Don't like the black space,2,320,20","Definitely belongs at a doctor's office, I think it's a crow or a tree?,-3,100,20","Nice desert scene,10,380,20","Reminds me of feeling incomplete,1,360,20","I like the warmth of the orange. But, I feel like it's a partial view. I'm frustrated I can't see the entirety.,-20,20,20","Birds are cool but I don't love it,10,180,20","Alex","Definitely belongs at a doctor's office, I think it's a crow or a tree?,-3,100,20","Brett","Reminds me of feeling incomplete,1,360,20","James","Nice desert scene,10,380,20","2"
"22457","","survey-text","253","1589753","0.0-252.0-0.0","A2O8I5KDFW41DO","","","","{""Q0"":""Nice colors.  Nice take on a river and waterfall.""}","","","","","","","","","","","","","","","","","","","","","","",""
"5895","","image-slider-response","254","1595650","0.0-253.0","A2O8I5KDFW41DO","","","","","41","","","","","","","","","","","","","","","","","","","","","",""
"null","","image-button-response","255","1600657","0.0-254.0","A2O8I5KDFW41DO","img_art/24.jpg","null","","","","","","","","","","","","","","","","","","","","","","","","",""
"1248","","image-button-response","256","1601905","0.0-255.0","A2O8I5KDFW41DO","img_art/24.jpg","0","","","","","","","","","","","","","","","","","","","","","","","","",""
"1583","","image-button-response","257","1603489","0.0-256.0-0.0","A2O8I5KDFW41DO","img_art/24.jpg","3","","","","","","","","","","","","","","","","","","","","","","","","",""
"8839","","image-button-response","258","1612330","0.0-257.0-0.0","A2O8I5KDFW41DO","img_art/24.jpg","5","","","","","","","","","","","","","","","","","","","","","","","","",""
"null","","html-keyboard-response","259","1613841","0.0-258.0","A2O8I5KDFW41DO","<p style=""font-size: 48px;"">+</p>","","","","","null","allTrialResponses","1500","1","30","img_art/24.jpg","41","Nice colors.  Nice take on a river and waterfall.","Joshua,Alex,James,Brett,Isaiah,Joseph","It's okay but don't love it.,7,240,20","Looks like a waterfall or a brook, the colors are very nice,15,100,20","The waterfall looks peaceful,11,380,20","Forest waterfall,40,360,20","I feel relaxed and happy, looking at the stream, but it feels hollow, like something is fake.,5,300,20","It looks like a poor dead bunny in a field of flowers. I don't want the bunny to be dead.,-37,220,20","Joshua","It's okay but don't love it.,7,240,20","Brett","Forest waterfall,40,360,20","Joseph","It looks like a poor dead bunny in a field of flowers. I don't want the bunny to be dead.,-37,220,20","2"
"3187","","image-button-response_instructions","260","1617033","0.0-259.0","A2O8I5KDFW41DO","","0","instructions","","","","","","","","","","","","","","","","","","","","","","","",""
