"rt","url","trial_type","trial_index","time_elapsed","internal_node_id","participant_id","stimulus","button_pressed","Name","responses","response","key_press","variableName","fixationTime","condition","trial","photo","subjectRating","subjectResponse","agentsNames","agent_1_Response","agent_2_Response","agent_3_Response","agent_4_Response","agent_5_Response","agent_6_Response","kept_1_name","kept_1_response","kept_2_name","kept_2_response","kept_3_name","kept_3_response","errorCounter"
"12165","external_page_harvard.html","external-html","0","12481","0.0-0.0","A2OIHB0WTFC3BJ","","","","","","","","","","","","","","","","","","","","","","","","","","",""
"2145","","image-button-response","1","14636","0.0-1.0","A2OIHB0WTFC3BJ","","0","","","","","","","","","","","","","","","","","","","","","","","","",""
"2014","","image-button-response","2","16667","0.0-2.0-0.0","A2OIHB0WTFC3BJ","","1","phone","","","","","","","","","","","","","","","","","","","","","","","",""
"12821","","survey-text","3","29493","0.0-3.0-0.0","A2OIHB0WTFC3BJ","","","","{""Q0"":""A2OIHB0WTFC3BJ""}","","","","","","","","","","","","","","","","","","","","","","",""
"6836","","image-button-response_instructions","4","36335","0.0-4.0","A2OIHB0WTFC3BJ","","0","instructions","","","","","","","","","","","","","","","","","","","","","","","",""
"15042","","image-button-response_instructions","5","51383","0.0-5.0","A2OIHB0WTFC3BJ","img_art/ins/popularity/ins1.png","0","instructions","","","","","","","","","","","","","","","","","","","","","","","",""
"6255","","image-button-response_instructions","6","57646","0.0-6.0","A2OIHB0WTFC3BJ","img_art/ins/popularity/ins2.png","0","instructions","","","","","","","","","","","","","","","","","","","","","","","",""
"9844","","image-button-response_instructions","7","67496","0.0-7.0","A2OIHB0WTFC3BJ","img_art/ins/popularity/ins2Extreme.png","0","instructions","","","","","","","","","","","","","","","","","","","","","","","",""
"26582","","image-button-response_instructions","8","94084","0.0-8.0","A2OIHB0WTFC3BJ","img_art/ins/popularity/ins3KEEPpop.PNG","0","instructions","","","","","","","","","","","","","","","","","","","","","","","",""
"4428","","image-button-response_instructions","9","98518","0.0-9.0","A2OIHB0WTFC3BJ","img_art/ins/popularity/ins3ANamepop.PNG","0","instructions","","","","","","","","","","","","","","","","","","","","","","","",""
"3812","","image-button-response_instructions","10","102337","0.0-10.0","A2OIHB0WTFC3BJ","img_art/ins/popularity/ins3ARatingpop.png","0","instructions","","","","","","","","","","","","","","","","","","","","","","","",""
"2937","","image-button-response_instructions","11","105280","0.0-11.0","A2OIHB0WTFC3BJ","img_art/ins/popularity/ins3ATextpop.png","0","instructions","","","","","","","","","","","","","","","","","","","","","","","",""
"7939","","image-button-response_instructions","12","113225","0.0-12.0","A2OIHB0WTFC3BJ","img_art/ins/popularity/ins3ALikespop.png","0","instructions","","","","","","","","","","","","","","","","","","","","","","","",""
"13277","","image-button-response_instructions","13","126508","0.0-13.0","A2OIHB0WTFC3BJ","img_art/ins/popularity/ins3KEEPpop.PNG","0","instructions","","","","","","","","","","","","","","","","","","","","","","","",""
"8107","","image-button-response_instructions","14","134621","0.0-14.0","A2OIHB0WTFC3BJ","img_art/ins/popularity/ins3_5RED.png","0","instructions","","","","","","","","","","","","","","","","","","","","","","","",""
"6155","","image-button-response_instructions","15","140779","0.0-15.0","A2OIHB0WTFC3BJ","img_art/ins/popularity/ins3KEEPpop.PNG","0","instructions","","","","","","","","","","","","","","","","","","","","","","","",""
"8403","","image-button-response_instructions","16","149187","0.0-16.0","A2OIHB0WTFC3BJ","img_art/ins/popularity/ins4KEEPpop.PNG","0","instructions","","","","","","","","","","","","","","","","","","","","","","","",""
"4902","","image-button-response_instructions","17","154093","0.0-17.0","A2OIHB0WTFC3BJ","img_art/ins/popularity/ins5KEEPpop.PNG","0","instructions","","","","","","","","","","","","","","","","","","","","","","","",""
"2899","","image-button-response_instructions","18","156996","0.0-18.0","A2OIHB0WTFC3BJ","","0","instructions","","","","","","","","","","","","","","","","","","","","","","","",""
"6376","","survey-text","19","163466","0.0-19.0-0.0","A2OIHB0WTFC3BJ","","","","{""Q0"":""but""}","","","","","","","","","","","","","","","","","","","","","","",""
"13287","","survey-text","20","176759","0.0-20.0-0.0","A2OIHB0WTFC3BJ","","","","{""Q0"":""Looks like messy candy""}","","","","","","","","","","","","","","","","","","","","","","",""
"4530","","image-slider-response","21","181300","0.0-21.0","A2OIHB0WTFC3BJ","","","","","-16","","","","","","","","","","","","","","","","","","","","","",""
"null","","image-button-response","22","186311","0.0-22.0","A2OIHB0WTFC3BJ","img_art/ins/1.jpg","null","","","","","","","","","","","","","","","","","","","","","","","","",""
"7019","","image-button-response","23","193333","0.0-23.0","A2OIHB0WTFC3BJ","img_art/ins/1.jpg","2","","","","","","","","","","","","","","","","","","","","","","","","",""
"3112","","image-button-response","24","196450","0.0-24.0-0.0","A2OIHB0WTFC3BJ","img_art/ins/1.jpg","0","","","","","","","","","","","","","","","","","","","","","","","","",""
"2669","","image-button-response","25","199126","0.0-25.0-0.0","A2OIHB0WTFC3BJ","img_art/ins/1.jpg","4","","","","","","","","","","","","","","","","","","","","","","","","",""
"null","","html-keyboard-response","26","200634","0.0-26.0","A2OIHB0WTFC3BJ","<p style=""font-size: 48px;"">+</p>","","","","","null","allTrialResponses","1500","1","-2","img_art/ins/1.jpg","-16","Looks like messy candy","Adam,Alex,Ben,Carl,Daniel,Jack","Seems like doodles,-20,20,20","very creative work.,36,40,20","This color reminds me of poo,-46,60,20","very calming artwork,42,80,20","It looks like a murder scene.,-48,100,20","I like the sophisticated brushwork,40,120,20","Ben","This color reminds me of poo,-46,60,20","Adam","Seems like doodles,-20,20,20","Daniel","It looks like a murder scene.,-48,100,20","0"
"31488","","survey-text","27","232137","0.0-27.0-0.0","A2OIHB0WTFC3BJ","","","","{""Q0"":""Looks like a ship on fire""}","","","","","","","","","","","","","","","","","","","","","","",""
"3709","","image-slider-response","28","235850","0.0-28.0","A2OIHB0WTFC3BJ","","","","","-10","","","","","","","","","","","","","","","","","","","","","",""
"null","","image-button-response","29","240858","0.0-29.0","A2OIHB0WTFC3BJ","img_art/ins/2.jpg","null","","","","","","","","","","","","","","","","","","","","","","","","",""
"2002","","image-button-response","30","242863","0.0-30.0","A2OIHB0WTFC3BJ","img_art/ins/2.jpg","2","","","","","","","","","","","","","","","","","","","","","","","","",""
"2317","","image-button-response","31","245185","0.0-31.0-0.0","A2OIHB0WTFC3BJ","img_art/ins/2.jpg","5","","","","","","","","","","","","","","","","","","","","","","","","",""
"2870","","image-button-response","32","248060","0.0-32.0-0.0","A2OIHB0WTFC3BJ","img_art/ins/2.jpg","3","","","","","","","","","","","","","","","","","","","","","","","","",""
"null","","html-keyboard-response","33","249064","0.0-33.0","A2OIHB0WTFC3BJ","<p style=""font-size: 48px;"">+</p>","","","","","null","allTrialResponses","1000","1","-1","img_art/ins/2.jpg","-10","Looks like a ship on fire","Adam,John,Ben,James,Daniel,Kyle","too much color,-18,20,20","love the texture of paint,48,160,20","meaningless painting,-45,60,20","looks too angry,-50,140,20","One of my pet peevs,-48,100,20","Idk, it is just annoying,-32,180,20","Ben","meaningless painting,-45,60,20","Kyle","Idk, it is just annoying,-32,180,20","James","looks too angry,-50,140,20","0"
"17243","","survey-text","34","266320","0.0-34.0-0.0","A2OIHB0WTFC3BJ","","","","{""Q0"":""Seems icey and chilly""}","","","","","","","","","","","","","","","","","","","","","","",""
"3404","","image-slider-response","35","269731","0.0-35.0","A2OIHB0WTFC3BJ","","","","","21","","","","","","","","","","","","","","","","","","","","","",""
"null","","image-button-response","36","274737","0.0-36.0","A2OIHB0WTFC3BJ","img_art/ins/3.jpg","null","","","","","","","","","","","","","","","","","","","","","","","","",""
"534","","image-button-response","37","275273","0.0-37.0","A2OIHB0WTFC3BJ","img_art/ins/3.jpg","1","","","","","","","","","","","","","","","","","","","","","","","","",""
"5115","","image-button-response","38","280394","0.0-38.0-0.0","A2OIHB0WTFC3BJ","img_art/ins/3.jpg","0","","","","","","","","","","","","","","","","","","","","","","","","",""
"4976","","image-button-response","39","285376","0.0-39.0-0.0","A2OIHB0WTFC3BJ","img_art/ins/3.jpg","5","","","","","","","","","","","","","","","","","","","","","","","","",""
"null","","html-keyboard-response","40","285880","0.0-40.0","A2OIHB0WTFC3BJ","<p style=""font-size: 48px;"">+</p>","","","","","null","allTrialResponses","500","1","0","img_art/ins/3.jpg","21","Seems icey and chilly","Sam,Mike,Ben,James,Ron,Kyle","I can feel a rainy day from this painting,18,240,20","enjoy the different shades of blue,22,200,20","This thing gives me anxiety,-41,60,20","My worst nightmare,-42,140,20","It looks depressing,-26,220,20","It looks like a playground for bats,-36,180,20","Mike","enjoy the different shades of blue,22,200,20","Sam","I can feel a rainy day from this painting,18,240,20","Kyle","It looks like a playground for bats,-36,180,20","0"
"5415","","image-button-response_instructions","41","291309","0.0-41.0","A2OIHB0WTFC3BJ","","0","instructions","","","","","","","","","","","","","","","","","","","","","","","",""
"16837","","survey-likert","42","308151","0.0-42.0-0.0","A2OIHB0WTFC3BJ","","","","{""Q0"":"""",""Q1"":0,""Q2"":1}","","","","","","","","","","","","","","","","","","","","","","",""
"4115","","survey-text","43","312279","0.0-43.0-0.0","A2OIHB0WTFC3BJ","","","","{""Q0"":""rock""}","","","","","","","","","","","","","","","","","","","","","","",""
"14333","","survey-text","44","326616","0.0-44.0-0.0","A2OIHB0WTFC3BJ","","","","{""Q0"":""Looks like death""}","","","","","","","","","","","","","","","","","","","","","","",""
"3082","","image-slider-response","45","329703","0.0-45.0","A2OIHB0WTFC3BJ","","","","","27","","","","","","","","","","","","","","","","","","","","","",""
"4683","","image-button-response","46","334751","0.0-46.0","A2OIHB0WTFC3BJ","img_art/18.jpg","0","","","","","","","","","","","","","","","","","","","","","","","","",""
"1438","","image-button-response","47","336192","0.0-47.0","A2OIHB0WTFC3BJ","img_art/18.jpg","0","","","","","","","","","","","","","","","","","","","","","","","","",""
"2506","","image-button-response","48","338702","0.0-48.0-0.0","A2OIHB0WTFC3BJ","img_art/18.jpg","1","","","","","","","","","","","","","","","","","","","","","","","","",""
"3475","","image-button-response","49","342181","0.0-49.0-0.0","A2OIHB0WTFC3BJ","img_art/18.jpg","4","","","","","","","","","","","","","","","","","","","","","","","","",""
"null","","html-keyboard-response","50","343687","0.0-50.0","A2OIHB0WTFC3BJ","<p style=""font-size: 48px;"">+</p>","","","","","null","allTrialResponses","1500","1","1","img_art/18.jpg","27","Looks like death","Jack,Blake,Benjamin,Shawn,Angel,Jake","hauntingly beautiful. more things revealed the longer you look. love the spirit-like figure in the top left.,47,320,20","i like the colors. outerspace,21,280,20","ugly and lots of movement,-6,260,20","Evocative but cheesy.,-20,100,20","Like riding into battle. A sense of confidence, but also trepidation for what's coming. Could be a personification of death.,-10,180,20","It looks grotesque and violent.,-50,360,20","Jack","hauntingly beautiful. more things revealed the longer you look. love the spirit-like figure in the top left.,47,320,20","Blake","i like the colors. outerspace,21,280,20","Angel","Like riding into battle. A sense of confidence, but also trepidation for what's coming. Could be a personification of death.,-10,180,20","0"
"19464","","survey-text","51","363163","0.0-51.0-0.0","A2OIHB0WTFC3BJ","","","","{""Q0"":""A tree growing through a building""}","","","","","","","","","","","","","","","","","","","","","","",""
"3564","","image-slider-response","52","366738","0.0-52.0","A2OIHB0WTFC3BJ","","","","","11","","","","","","","","","","","","","","","","","","","","","",""
"null","","image-button-response","53","371747","0.0-53.0","A2OIHB0WTFC3BJ","img_art/17.jpg","null","","","","","","","","","","","","","","","","","","","","","","","","",""
"1461","","image-button-response","54","373212","0.0-54.0","A2OIHB0WTFC3BJ","img_art/17.jpg","1","","","","","","","","","","","","","","","","","","","","","","","","",""
"1215","","image-button-response","55","374435","0.0-55.0-0.0","A2OIHB0WTFC3BJ","img_art/17.jpg","2","","","","","","","","","","","","","","","","","","","","","","","","",""
"3948","","image-button-response","56","378390","0.0-56.0-0.0","A2OIHB0WTFC3BJ","img_art/17.jpg","3","","","","","","","","","","","","","","","","","","","","","","","","",""
"null","","html-keyboard-response","57","379396","0.0-57.0","A2OIHB0WTFC3BJ","<p style=""font-size: 48px;"">+</p>","","","","","null","allTrialResponses","1000","1","2","img_art/17.jpg","11","A tree growing through a building","Jack,Blake,Peter,Devon,Angel,James","stunning. makes me feel happy, hopeful, serene, and a little wistful.,50,320,20","soft and warm light colors are relaxing,12,280,20","I feel okay , it's like a tree,28,320,20","i feel some sadness in this picture,25,400,20","Reminds me of the modern art museum in Rome. I didn't ""get"" many pieces, but had a positive cultural experience overall.,20,180,20","It's nice and realistic looking.,12,380,20","Blake","soft and warm light colors are relaxing,12,280,20","Peter","I feel okay , it's like a tree,28,320,20","Devon","i feel some sadness in this picture,25,400,20","0"
"20244","","survey-text","58","399667","0.0-58.0-0.0","A2OIHB0WTFC3BJ","","","","{""Q0"":""Ink pen in an ink jar""}","","","","","","","","","","","","","","","","","","","","","","",""
"3262","","image-slider-response","59","402936","0.0-59.0","A2OIHB0WTFC3BJ","","","","","-6","","","","","","","","","","","","","","","","","","","","","",""
"null","","image-button-response","60","407943","0.0-60.0","A2OIHB0WTFC3BJ","img_art/5.jpg","null","","","","","","","","","","","","","","","","","","","","","","","","",""
"4105","","image-button-response","61","412050","0.0-61.0","A2OIHB0WTFC3BJ","img_art/5.jpg","0","","","","","","","","","","","","","","","","","","","","","","","","",""
"2272","","image-button-response","62","414327","0.0-62.0-0.0","A2OIHB0WTFC3BJ","img_art/5.jpg","1","","","","","","","","","","","","","","","","","","","","","","","","",""
"1538","","image-button-response","63","415871","0.0-63.0-0.0","A2OIHB0WTFC3BJ","img_art/5.jpg","3","","","","","","","","","","","","","","","","","","","","","","","","",""
"null","","html-keyboard-response","64","416376","0.0-64.0","A2OIHB0WTFC3BJ","<p style=""font-size: 48px;"">+</p>","","","","","null","allTrialResponses","500","1","3","img_art/5.jpg","-6","Ink pen in an ink jar","Ian,Blake,Peter,Devon,Nathaniel,Hunter","This either looks like a bell or aliens finishing the pyramids,-34,260,20","puke yellow with nothing but sadness,-35,280,20","Bright and sunny,19,320,20","a bit confused about this picture,-9,400,20","Not sure what that even is. Looks like a 2-year old drawing,-40,220,20","strong appeal in contrast,27,240,20","Ian","This either looks like a bell or aliens finishing the pyramids,-34,260,20","Blake","puke yellow with nothing but sadness,-35,280,20","Devon","a bit confused about this picture,-9,400,20","0"
"12613","","survey-text","65","429006","0.0-65.0-0.0","A2OIHB0WTFC3BJ","","","","{""Q0"":""Storm on the horizon""}","","","","","","","","","","","","","","","","","","","","","","",""
"3004","","image-slider-response","66","432020","0.0-66.0","A2OIHB0WTFC3BJ","","","","","17","","","","","","","","","","","","","","","","","","","","","",""
"null","","image-button-response","67","437029","0.0-67.0","A2OIHB0WTFC3BJ","img_art/21.jpg","null","","","","","","","","","","","","","","","","","","","","","","","","",""
"6402","","image-button-response","68","443434","0.0-68.0","A2OIHB0WTFC3BJ","img_art/21.jpg","0","","","","","","","","","","","","","","","","","","","","","","","","",""
"3018","","image-button-response","69","446461","0.0-69.0-0.0","A2OIHB0WTFC3BJ","img_art/21.jpg","1","","","","","","","","","","","","","","","","","","","","","","","","",""
"4436","","image-button-response","70","450905","0.0-70.0-0.0","A2OIHB0WTFC3BJ","img_art/21.jpg","2","","","","","","","","","","","","","","","","","","","","","","","","",""
"null","","html-keyboard-response","71","451412","0.0-71.0","A2OIHB0WTFC3BJ","<p style=""font-size: 48px;"">+</p>","","","","","null","allTrialResponses","500","1","4","img_art/21.jpg","17","Storm on the horizon","Ian,Blake,Mason,Devon,Cole,Patrick","This looks very interesting because something is happening but I can't tell what.,28,260,20","ocean and rocks at the beach,11,280,20","Don't know why I like it, cant describe, maybe many landscapes?,47,100,20","waterpaint is attractive,13,400,20","Unfinished. Confusing to look at,-12,200,20","It looks confusing,-21,280,20","Ian","This looks very interesting because something is happening but I can't tell what.,28,260,20","Blake","ocean and rocks at the beach,11,280,20","Mason","Don't know why I like it, cant describe, maybe many landscapes?,47,100,20","0"
"46922","","survey-text","72","498357","0.0-72.0-0.0","A2OIHB0WTFC3BJ","","","","{""Q0"":""Just squiggly lines""}","","","","","","","","","","","","","","","","","","","","","","",""
"3283","","image-slider-response","73","501652","0.0-73.0","A2OIHB0WTFC3BJ","","","","","-37","","","","","","","","","","","","","","","","","","","","","",""
"4487","","image-button-response","74","506662","0.0-74.0","A2OIHB0WTFC3BJ","img_art/30.jpg","5","","","","","","","","","","","","","","","","","","","","","","","","",""
"542","","image-button-response","75","507211","0.0-75.0","A2OIHB0WTFC3BJ","img_art/30.jpg","5","","","","","","","","","","","","","","","","","","","","","","","","",""
"2673","","image-button-response","76","509892","0.0-76.0-0.0","A2OIHB0WTFC3BJ","img_art/30.jpg","1","","","","","","","","","","","","","","","","","","","","","","","","",""
"1345","","image-button-response","77","511245","0.0-77.0-0.0","A2OIHB0WTFC3BJ","img_art/30.jpg","0","","","","","","","","","","","","","","","","","","","","","","","","",""
"null","","html-keyboard-response","78","512751","0.0-78.0","A2OIHB0WTFC3BJ","<p style=""font-size: 48px;"">+</p>","","","","","null","allTrialResponses","1500","1","5","img_art/30.jpg","-37","Just squiggly lines","Ian,Blake,Mason,Nathan,Vincent,Jason","It looks like it was made by pre-k students.,-30,260,20","snakes in the grass, I don't like it,-17,280,20","Neat, but simple, I could make this. not skilled.,9,100,20","It's okay. It should either have stuck to the grey-blue, or added more red. Seems unorganized (maybe that's the point?),-9,200,20","Personal , calming conservative signature business ideal.,32,360,20","Do not like the streaks,-14,20,20","Jason","Do not like the streaks,-14,20,20","Blake","snakes in the grass, I don't like it,-17,280,20","Ian","It looks like it was made by pre-k students.,-30,260,20","0"
"3461","","survey-text","79","516259","0.0-79.0-0.0","A2OIHB0WTFC3BJ","","","","{""Q0"":""sky""}","","","","","","","","","","","","","","","","","","","","","","",""
"9365","","survey-text","80","525627","0.0-80.0-0.0","A2OIHB0WTFC3BJ","","","","{""Q0"":""Park in a city""}","","","","","","","","","","","","","","","","","","","","","","",""
"2977","","image-slider-response","81","528611","0.0-81.0","A2OIHB0WTFC3BJ","","","","","5","","","","","","","","","","","","","","","","","","","","","",""
"4004","","image-button-response","82","533618","0.0-82.0","A2OIHB0WTFC3BJ","img_art/26.jpg","4","","","","","","","","","","","","","","","","","","","","","","","","",""
"7","","image-button-response","83","533631","0.0-83.0","A2OIHB0WTFC3BJ","img_art/26.jpg","4","","","","","","","","","","","","","","","","","","","","","","","","",""
"1261","","image-button-response","84","534899","0.0-84.0-0.0","A2OIHB0WTFC3BJ","img_art/26.jpg","5","","","","","","","","","","","","","","","","","","","","","","","","",""
"7894","","image-button-response","85","542798","0.0-85.0-0.0","A2OIHB0WTFC3BJ","img_art/26.jpg","3","","","","","","","","","","","","","","","","","","","","","","","","",""
"null","","html-keyboard-response","86","543802","0.0-86.0","A2OIHB0WTFC3BJ","<p style=""font-size: 48px;"">+</p>","","","","","null","allTrialResponses","1000","1","6","img_art/26.jpg","5","Park in a city","Ian,Blake,Jesus,Christopher,Robert,Jason","This seems pretty and sweet, it's something I would like to actually see.,31,260,20","bedroom in the outdoors. warm,9,280,20","Very interesting to look at, I like the shapes, textures and colors.,30,100,20","too hard to figure out if it's meant to be actual objects or impressions,-36,160,20","Day just begun in the city and the stores are opening their doors.,41,360,20","The colors look faded and blurry,2,20,20","Robert","Day just begun in the city and the stores are opening their doors.,41,360,20","Jason","The colors look faded and blurry,2,20,20","Christopher","too hard to figure out if it's meant to be actual objects or impressions,-36,160,20","0"
"22675","","survey-text","87","566495","0.0-87.0-0.0","A2OIHB0WTFC3BJ","","","","{""Q0"":""Looks like a childs drawing""}","","","","","","","","","","","","","","","","","","","","","","",""
"3904","","image-slider-response","88","570410","0.0-88.0","A2OIHB0WTFC3BJ","","","","","-41","","","","","","","","","","","","","","","","","","","","","",""
"3756","","image-button-response","89","575419","0.0-89.0","A2OIHB0WTFC3BJ","img_art/27.jpg","4","","","","","","","","","","","","","","","","","","","","","","","","",""
"1675","","image-button-response","90","577099","0.0-90.0","A2OIHB0WTFC3BJ","img_art/27.jpg","4","","","","","","","","","","","","","","","","","","","","","","","","",""
"1932","","image-button-response","91","579037","0.0-91.0-0.0","A2OIHB0WTFC3BJ","img_art/27.jpg","1","","","","","","","","","","","","","","","","","","","","","","","","",""
"3559","","image-button-response","92","582603","0.0-92.0-0.0","A2OIHB0WTFC3BJ","img_art/27.jpg","0","","","","","","","","","","","","","","","","","","","","","","","","",""
"null","","html-keyboard-response","93","584110","0.0-93.0","A2OIHB0WTFC3BJ","<p style=""font-size: 48px;"">+</p>","","","","","null","allTrialResponses","1500","1","7","img_art/27.jpg","-41","Looks like a childs drawing","Antonio,Scott,Juan,Christopher,Robert,Jason","Didnt actually make me feel anything, sort of bland,3,220,20","again looks like childrens artwork,-40,20,20","Colors make me think of fall, but I don't like how the picture was done or the weird lines across the background,6,260,20","i don't think i should like this one because it's a little chaotic and simple but I do,6,160,20","The black sketchy over the colors doesn't fit.,-4,360,20","The variation of orange is nice,9,20,20","Robert","The black sketchy over the colors doesn't fit.,-4,360,20","Scott","again looks like childrens artwork,-40,20,20","Antonio","Didnt actually make me feel anything, sort of bland,3,220,20","0"
"17140","","survey-text","94","601287","0.0-94.0-0.0","A2OIHB0WTFC3BJ","","","","{""Q0"":""Looks like a mess""}","","","","","","","","","","","","","","","","","","","","","","",""
"2962","","image-slider-response","95","604254","0.0-95.0","A2OIHB0WTFC3BJ","","","","","-14","","","","","","","","","","","","","","","","","","","","","",""
"2416","","image-button-response","96","609261","0.0-96.0","A2OIHB0WTFC3BJ","img_art/29.jpg","3","","","","","","","","","","","","","","","","","","","","","","","","",""
"1820","","image-button-response","97","611086","0.0-97.0","A2OIHB0WTFC3BJ","img_art/29.jpg","5","","","","","","","","","","","","","","","","","","","","","","","","",""
"1550","","image-button-response","98","612641","0.0-98.0-0.0","A2OIHB0WTFC3BJ","img_art/29.jpg","3","","","","","","","","","","","","","","","","","","","","","","","","",""
"477","","image-button-response","99","613128","0.0-99.0-0.0","A2OIHB0WTFC3BJ","img_art/29.jpg","4","","","","","","","","","","","","","","","","","","","","","","","","",""
"null","","html-keyboard-response","100","614136","0.0-100.0","A2OIHB0WTFC3BJ","<p style=""font-size: 48px;"">+</p>","","","","","null","allTrialResponses","1000","1","8","img_art/29.jpg","-14","Looks like a mess","Antonio,Scott,Anthony,Gabriel,Robert,Devin","Depressing and with that big red x on it just makes me not like it.,-33,220,20","feels random and not thoughtout,-37,20,20","Very interesting composition,41,200,20","dont like this one,-20,160,20","Looks like a murder,-50,360,20","Looks a bit messy,-13,380,20","Devin","Looks a bit messy,-13,380,20","Gabriel","dont like this one,-20,160,20","Robert","Looks like a murder,-50,360,20","0"
"16066","","survey-text","101","630235","0.0-101.0-0.0","A2OIHB0WTFC3BJ","","","","{""Q0"":""Creatures dancing in the stars""}","","","","","","","","","","","","","","","","","","","","","","",""
"2764","","image-slider-response","102","633008","0.0-102.0","A2OIHB0WTFC3BJ","","","","","23","","","","","","","","","","","","","","","","","","","","","",""
"2103","","image-button-response","103","638018","0.0-103.0","A2OIHB0WTFC3BJ","img_art/23.jpg","3","","","","","","","","","","","","","","","","","","","","","","","","",""
"938","","image-button-response","104","638958","0.0-104.0","A2OIHB0WTFC3BJ","img_art/23.jpg","4","","","","","","","","","","","","","","","","","","","","","","","","",""
"2897","","image-button-response","105","641861","0.0-105.0-0.0","A2OIHB0WTFC3BJ","img_art/23.jpg","2","","","","","","","","","","","","","","","","","","","","","","","","",""
"4212","","image-button-response","106","646079","0.0-106.0-0.0","A2OIHB0WTFC3BJ","img_art/23.jpg","0","","","","","","","","","","","","","","","","","","","","","","","","",""
"null","","html-keyboard-response","107","646587","0.0-107.0","A2OIHB0WTFC3BJ","<p style=""font-size: 48px;"">+</p>","","","","","null","allTrialResponses","500","1","9","img_art/23.jpg","23","Creatures dancing in the stars","Shane,Luis,Luke,Gabriel,Robert,Devin","Love the line in the middle separating the two dark sides,50,80,20","I dont like the chaos of this,-20,400,20","makes me happy and want to dance,43,20,20","i think this ones okay,10,160,20","This makes me think of an orchestra playing a forth of july song,12,360,20","background is great but the white is a bit weird,3,380,20","Robert","This makes me think of an orchestra playing a forth of july song,12,360,20","Luke","makes me happy and want to dance,43,20,20","Shane","Love the line in the middle separating the two dark sides,50,80,20","0"
"16943","","survey-text","108","663560","0.0-108.0-0.0","A2OIHB0WTFC3BJ","","","","{""Q0"":""Mythical God""}","","","","","","","","","","","","","","","","","","","","","","",""
"3105","","image-slider-response","109","666671","0.0-109.0","A2OIHB0WTFC3BJ","","","","","24","","","","","","","","","","","","","","","","","","","","","",""
"4091","","image-button-response","110","671677","0.0-110.0","A2OIHB0WTFC3BJ","img_art/25.jpg","5","","","","","","","","","","","","","","","","","","","","","","","","",""
"570","","image-button-response","111","672250","0.0-111.0","A2OIHB0WTFC3BJ","img_art/25.jpg","5","","","","","","","","","","","","","","","","","","","","","","","","",""
"1017","","image-button-response","112","673273","0.0-112.0-0.0","A2OIHB0WTFC3BJ","img_art/25.jpg","2","","","","","","","","","","","","","","","","","","","","","","","","",""
"4318","","image-button-response","113","677597","0.0-113.0-0.0","A2OIHB0WTFC3BJ","img_art/25.jpg","0","","","","","","","","","","","","","","","","","","","","","","","","",""
"null","","html-keyboard-response","114","678106","0.0-114.0","A2OIHB0WTFC3BJ","<p style=""font-size: 48px;"">+</p>","","","","","null","allTrialResponses","500","1","10","img_art/25.jpg","24","Mythical God","Shane,Tyler,Luke,Aaron,Robert,Elijah","I love the green and the figure is black but the green makes it pop,29,80,20","Meh. Hardly abstract, though.,-40,320,20","the contrasting colors are very interesting,24,20,20","I love the green and the texture,50,20,20","It made me think of healing.,22,360,20","Makes me feel intrigued,13,80,20","Elijah","Makes me feel intrigued,13,80,20","Luke","the contrasting colors are very interesting,24,20,20","Shane","I love the green and the figure is black but the green makes it pop,29,80,20","0"
"4423","","survey-text","115","682584","0.0-115.0-0.0","A2OIHB0WTFC3BJ","","","","{""Q0"":""our""}","","","","","","","","","","","","","","","","","","","","","","",""
"26309","","survey-text","116","708902","0.0-116.0-0.0","A2OIHB0WTFC3BJ","","","","{""Q0"":""Warm colors""}","","","","","","","","","","","","","","","","","","","","","","",""
"3052","","image-slider-response","117","711961","0.0-117.0","A2OIHB0WTFC3BJ","","","","","3","","","","","","","","","","","","","","","","","","","","","",""
"2770","","image-button-response","118","716970","0.0-118.0","A2OIHB0WTFC3BJ","img_art/1.jpg","3","","","","","","","","","","","","","","","","","","","","","","","","",""
"1436","","image-button-response","119","718413","0.0-119.0","A2OIHB0WTFC3BJ","img_art/1.jpg","3","","","","","","","","","","","","","","","","","","","","","","","","",""
"2116","","image-button-response","120","720534","0.0-120.0-0.0","A2OIHB0WTFC3BJ","img_art/1.jpg","0","","","","","","","","","","","","","","","","","","","","","","","","",""
"3219","","image-button-response","121","723758","0.0-121.0-0.0","A2OIHB0WTFC3BJ","img_art/1.jpg","5","","","","","","","","","","","","","","","","","","","","","","","","",""
"null","","html-keyboard-response","122","725264","0.0-122.0","A2OIHB0WTFC3BJ","<p style=""font-size: 48px;"">+</p>","","","","","null","allTrialResponses","1500","1","11","img_art/1.jpg","3","Warm colors","Shane,Travis,Luke,Justin,Brian,Elijah","Warmth of the sun,22,80,20","I didn't like this too much...I didn't like the red and the jaggedness to it.,-29,260,20","it is very colorful and makes me happy,44,20,20","It reminds me of a sunset I once saw.,16,280,20","I don't feel like much is happening in this painting,-25,380,20","Makes me feel confused,-6,80,20","Justin","It reminds me of a sunset I once saw.,16,280,20","Shane","Warmth of the sun,22,80,20","Elijah","Makes me feel confused,-6,80,20","0"
"12577","","survey-text","123","737882","0.0-123.0-0.0","A2OIHB0WTFC3BJ","","","","{""Q0"":""Lady lying in the garden""}","","","","","","","","","","","","","","","","","","","","","","",""
"3149","","image-slider-response","124","741038","0.0-124.0","A2OIHB0WTFC3BJ","","","","","10","","","","","","","","","","","","","","","","","","","","","",""
"4915","","image-button-response","125","746050","0.0-125.0","A2OIHB0WTFC3BJ","img_art/9.jpg","3","","","","","","","","","","","","","","","","","","","","","","","","",""
"578","","image-button-response","126","746638","0.0-126.0","A2OIHB0WTFC3BJ","img_art/9.jpg","3","","","","","","","","","","","","","","","","","","","","","","","","",""
"3517","","image-button-response","127","750159","0.0-127.0-0.0","A2OIHB0WTFC3BJ","img_art/9.jpg","1","","","","","","","","","","","","","","","","","","","","","","","","",""
"2579","","image-button-response","128","752746","0.0-128.0-0.0","A2OIHB0WTFC3BJ","img_art/9.jpg","4","","","","","","","","","","","","","","","","","","","","","","","","",""
"null","","html-keyboard-response","129","754252","0.0-129.0","A2OIHB0WTFC3BJ","<p style=""font-size: 48px;"">+</p>","","","","","null","allTrialResponses","1500","1","12","img_art/9.jpg","10","Lady lying in the garden","Shane,Christian,Brendan,Justin,Derek,Elijah","Angry beast mouth,-37,80,20","love the color palette, but I'm gonna be honest, I don't really understand it,14,140,20","not my type of art,-33,340,20","It reminds me of an illustration for a fairy tale.,19,280,20","It's wild and chaotic but also beautiful and has some kind of calming factor about it,20,360,20","It's a mix of paint splash and scribbling,-33,80,20","Justin","It reminds me of an illustration for a fairy tale.,19,280,20","Christian","love the color palette, but I'm gonna be honest, I don't really understand it,14,140,20","Derek","It's wild and chaotic but also beautiful and has some kind of calming factor about it,20,360,20","0"
"20433","","survey-text","130","774717","0.0-130.0-0.0","A2OIHB0WTFC3BJ","","","","{""Q0"":""Just confusing""}","","","","","","","","","","","","","","","","","","","","","","",""
"15354","","image-slider-response","131","790076","0.0-131.0","A2OIHB0WTFC3BJ","","","","","-41","","","","","","","","","","","","","","","","","","","","","",""
"null","","image-button-response","132","795082","0.0-132.0","A2OIHB0WTFC3BJ","img_art/22.jpg","null","","","","","","","","","","","","","","","","","","","","","","","","",""
"2424","","image-button-response","133","797508","0.0-133.0","A2OIHB0WTFC3BJ","img_art/22.jpg","5","","","","","","","","","","","","","","","","","","","","","","","","",""
"2998","","image-button-response","134","800510","0.0-134.0-0.0","A2OIHB0WTFC3BJ","img_art/22.jpg","1","","","","","","","","","","","","","","","","","","","","","","","","",""
"2876","","image-button-response","135","803392","0.0-135.0-0.0","A2OIHB0WTFC3BJ","img_art/22.jpg","3","","","","","","","","","","","","","","","","","","","","","","","","",""
"null","","html-keyboard-response","136","803897","0.0-136.0","A2OIHB0WTFC3BJ","<p style=""font-size: 48px;"">+</p>","","","","","null","allTrialResponses","500","1","13","img_art/22.jpg","-41","Just confusing","Jose,Christian,Cameron,Justin,Derek,Dakota","Cool squares but what's the circle?,38,200,20","colorful water (in front of castle?),17,140,20","Like this one, like a sunset,30,60,20","It reminds me of sunsets and dusks.,22,280,20","Really pretty. Love the colors.,30,360,20","muddy and rough,14,280,20","Dakota","muddy and rough,14,280,20","Christian","colorful water (in front of castle?),17,140,20","Justin","It reminds me of sunsets and dusks.,22,280,20","0"
"19948","","survey-text","137","823866","0.0-137.0-0.0","A2OIHB0WTFC3BJ","","","","{""Q0"":""Black plants with blue flowers""}","","","","","","","","","","","","","","","","","","","","","","",""
"3902","","image-slider-response","138","827780","0.0-138.0","A2OIHB0WTFC3BJ","","","","","17","","","","","","","","","","","","","","","","","","","","","",""
"null","","image-button-response","139","832787","0.0-139.0","A2OIHB0WTFC3BJ","img_art/15.jpg","null","","","","","","","","","","","","","","","","","","","","","","","","",""
"783","","image-button-response","140","833574","0.0-140.0","A2OIHB0WTFC3BJ","img_art/15.jpg","0","","","","","","","","","","","","","","","","","","","","","","","","",""
"2618","","image-button-response","141","836201","0.0-141.0-0.0","A2OIHB0WTFC3BJ","img_art/15.jpg","1","","","","","","","","","","","","","","","","","","","","","","","","",""
"9742","","image-button-response","142","845952","0.0-142.0-0.0","A2OIHB0WTFC3BJ","img_art/15.jpg","4","","","","","","","","","","","","","","","","","","","","","","","","",""
"null","","html-keyboard-response","143","846958","0.0-143.0","A2OIHB0WTFC3BJ","<p style=""font-size: 48px;"">+</p>","","","","","null","allTrialResponses","1000","1","14","img_art/15.jpg","17","Black plants with blue flowers","Timothy,Christian,Mark,Justin,Joshua,Dakota","This painting gives a calm vibe but no stronger emotions than that,10,240,20","very unsettling! like reverse porcelain esp because of the colors,28,140,20","Chameleons on reeds. Nice but doesn't really make me feel anything.,11,80,20","Color scheme and design are rather boring.,-10,280,20","Like this for the colors and arrangement.,11,240,20","abrasive, rough, uneven,-31,280,20","Timothy","This painting gives a calm vibe but no stronger emotions than that,10,240,20","Christian","very unsettling! like reverse porcelain esp because of the colors,28,140,20","Joshua","Like this for the colors and arrangement.,11,240,20","0"
"20821","","survey-text","144","867819","0.0-144.0-0.0","A2OIHB0WTFC3BJ","","","","{""Q0"":""I like the blocks and the different shades""}","","","","","","","","","","","","","","","","","","","","","","",""
"3525","","image-slider-response","145","871352","0.0-145.0","A2OIHB0WTFC3BJ","","","","","30","","","","","","","","","","","","","","","","","","","","","",""
"2390","","image-button-response","146","876363","0.0-146.0","A2OIHB0WTFC3BJ","img_art/12.jpg","5","","","","","","","","","","","","","","","","","","","","","","","","",""
"551","","image-button-response","147","876920","0.0-147.0","A2OIHB0WTFC3BJ","img_art/12.jpg","3","","","","","","","","","","","","","","","","","","","","","","","","",""
"913","","image-button-response","148","877840","0.0-148.0-0.0","A2OIHB0WTFC3BJ","img_art/12.jpg","5","","","","","","","","","","","","","","","","","","","","","","","","",""
"1882","","image-button-response","149","879732","0.0-149.0-0.0","A2OIHB0WTFC3BJ","img_art/12.jpg","1","","","","","","","","","","","","","","","","","","","","","","","","",""
"null","","html-keyboard-response","150","880738","0.0-150.0","A2OIHB0WTFC3BJ","<p style=""font-size: 48px;"">+</p>","","","","","null","allTrialResponses","1000","1","15","img_art/12.jpg","30","I like the blocks and the different shades","Timothy,Christian,Alexis,Isaac,Joshua,Kevin","The shapes make me feel a bit uncomfortable,-10,240,20","so many different available interpretations for this, would love to closer.,24,140,20","In my opinion, this photo has an old school vibe,22,140,20","I like the gradient of little color on the top to colorful on the bottom.,24,280,20","I don't get this one. Doesn't evoke an emotional response.,-10,240,20","That is a warn quilt grama made.,11,320,20","Isaac","I like the gradient of little color on the top to colorful on the bottom.,24,280,20","Kevin","That is a warn quilt grama made.,11,320,20","Christian","so many different available interpretations for this, would love to closer.,24,140,20","0"
"4276","","survey-text","151","885086","0.0-151.0-0.0","A2OIHB0WTFC3BJ","","","","{""Q0"":""course""}","","","","","","","","","","","","","","","","","","","","","","",""
"17884","","survey-text","152","902974","0.0-152.0-0.0","A2OIHB0WTFC3BJ","","","","{""Q0"":""Messy painting. I do not like.""}","","","","","","","","","","","","","","","","","","","","","","",""
"5096","","image-slider-response","153","908080","0.0-153.0","A2OIHB0WTFC3BJ","","","","","11","","","","","","","","","","","","","","","","","","","","","",""
"2521","","image-button-response","154","913086","0.0-154.0","A2OIHB0WTFC3BJ","img_art/3.jpg","3","","","","","","","","","","","","","","","","","","","","","","","","",""
"1190","","image-button-response","155","914278","0.0-155.0","A2OIHB0WTFC3BJ","img_art/3.jpg","1","","","","","","","","","","","","","","","","","","","","","","","","",""
"784","","image-button-response","156","915068","0.0-156.0-0.0","A2OIHB0WTFC3BJ","img_art/3.jpg","3","","","","","","","","","","","","","","","","","","","","","","","","",""
"1120","","image-button-response","157","916193","0.0-157.0-0.0","A2OIHB0WTFC3BJ","img_art/3.jpg","5","","","","","","","","","","","","","","","","","","","","","","","","",""
"null","","html-keyboard-response","158","916697","0.0-158.0","A2OIHB0WTFC3BJ","<p style=""font-size: 48px;"">+</p>","","","","","null","allTrialResponses","500","1","16","img_art/3.jpg","11","Messy painting. I do not like.","Jordan,Christian,Grant,Isaac,Alex,Kevin","Reminded me of blood or something bad,-21,160,20","sorry do not understand,-26,140,20","It looks like the artist was trying too hard to make it chaotic and emotional.,-25,200,20","It looks like scribbles.,-40,280,20","Ok, just a bunch of red lines and a grey smudge. Would pass this right by in a gallery,-12,100,20","That just looks like a mess..,-18,320,20","Christian","sorry do not understand,-26,140,20","Isaac","It looks like scribbles.,-40,280,20","Kevin","That just looks like a mess..,-18,320,20","0"
"11237","","survey-text","159","927961","0.0-159.0-0.0","A2OIHB0WTFC3BJ","","","","{""Q0"":""Just paint splatters""}","","","","","","","","","","","","","","","","","","","","","","",""
"3434","","image-slider-response","160","931401","0.0-160.0","A2OIHB0WTFC3BJ","","","","","-28","","","","","","","","","","","","","","","","","","","","","",""
"2769","","image-button-response","161","936407","0.0-161.0","A2OIHB0WTFC3BJ","img_art/13.jpg","3","","","","","","","","","","","","","","","","","","","","","","","","",""
"1038","","image-button-response","162","937456","0.0-162.0","A2OIHB0WTFC3BJ","img_art/13.jpg","3","","","","","","","","","","","","","","","","","","","","","","","","",""
"1415","","image-button-response","163","938881","0.0-163.0-0.0","A2OIHB0WTFC3BJ","img_art/13.jpg","2","","","","","","","","","","","","","","","","","","","","","","","","",""
"3575","","image-button-response","164","942466","0.0-164.0-0.0","A2OIHB0WTFC3BJ","img_art/13.jpg","0","","","","","","","","","","","","","","","","","","","","","","","","",""
"null","","html-keyboard-response","165","942971","0.0-165.0","A2OIHB0WTFC3BJ","<p style=""font-size: 48px;"">+</p>","","","","","null","allTrialResponses","500","1","17","img_art/13.jpg","-28","Just paint splatters","Paul,Christian,Dalton,Isaac,Eric,Kevin","It's like any other splatter paint art piece, nothing special,1,300,20","love the style but not very novel,9,140,20","rain in blue black and white,1,300,20","The colors are okay but I don't like the shapes here.,-18,280,20","I love the style of this piece, but the color choice could've been more eye catching or calming.,40,100,20","Debree on top of a calm pond.,18,320,20","Isaac","The colors are okay but I don't like the shapes here.,-18,280,20","Dalton","rain in blue black and white,1,300,20","Paul","It's like any other splatter paint art piece, nothing special,1,300,20","0"
"29743","","survey-text","166","972752","0.0-166.0-0.0","A2OIHB0WTFC3BJ","","","","{""Q0"":""Seems like a dream and there is a truck burning""}","","","","","","","","","","","","","","","","","","","","","","",""
"3961","","image-slider-response","167","976721","0.0-167.0","A2OIHB0WTFC3BJ","","","","","30","","","","","","","","","","","","","","","","","","","","","",""
"3591","","image-button-response","168","981726","0.0-168.0","A2OIHB0WTFC3BJ","img_art/20.jpg","3","","","","","","","","","","","","","","","","","","","","","","","","",""
"3794","","image-button-response","169","985524","0.0-169.0","A2OIHB0WTFC3BJ","img_art/20.jpg","3","","","","","","","","","","","","","","","","","","","","","","","","",""
"1069","","image-button-response","170","986599","0.0-170.0-0.0","A2OIHB0WTFC3BJ","img_art/20.jpg","4","","","","","","","","","","","","","","","","","","","","","","","","",""
"1913","","image-button-response","171","988517","0.0-171.0-0.0","A2OIHB0WTFC3BJ","img_art/20.jpg","5","","","","","","","","","","","","","","","","","","","","","","","","",""
"null","","html-keyboard-response","172","989022","0.0-172.0","A2OIHB0WTFC3BJ","<p style=""font-size: 48px;"">+</p>","","","","","null","allTrialResponses","500","1","18","img_art/20.jpg","30","Seems like a dream and there is a truck burning","Paul,Jonathan,Dalton,Isaac,Steven,Ethan","It looks like a junkyard and isn't appealing,-22,300,20","This one feels scary in a bad way,-30,140,20","make me feel like its a little country maybe a tractor and a skull head of a bull,1,300,20","It is abstract but it looks neat.,15,280,20","It's okay, I see what looks like a truck laying on it's side. Meh,10,160,20","I can tell this artist has experience. I just don't care for the color combo.,7,120,20","Isaac","It is abstract but it looks neat.,15,280,20","Steven","It's okay, I see what looks like a truck laying on it's side. Meh,10,160,20","Ethan","I can tell this artist has experience. I just don't care for the color combo.,7,120,20","0"
"16699","","survey-text","173","1005748","0.0-173.0-0.0","A2OIHB0WTFC3BJ","","","","{""Q0"":""Looks like a train yard""}","","","","","","","","","","","","","","","","","","","","","","",""
"2597","","image-slider-response","174","1008357","0.0-174.0","A2OIHB0WTFC3BJ","","","","","8","","","","","","","","","","","","","","","","","","","","","",""
"null","","image-button-response","175","1013369","0.0-175.0","A2OIHB0WTFC3BJ","img_art/19.jpg","null","","","","","","","","","","","","","","","","","","","","","","","","",""
"1202","","image-button-response","176","1014575","0.0-176.0","A2OIHB0WTFC3BJ","img_art/19.jpg","4","","","","","","","","","","","","","","","","","","","","","","","","",""
"3238","","image-button-response","177","1017820","0.0-177.0-0.0","A2OIHB0WTFC3BJ","img_art/19.jpg","5","","","","","","","","","","","","","","","","","","","","","","","","",""
"4547","","image-button-response","178","1022375","0.0-178.0-0.0","A2OIHB0WTFC3BJ","img_art/19.jpg","2","","","","","","","","","","","","","","","","","","","","","","","","",""
"null","","html-keyboard-response","179","1023383","0.0-179.0","A2OIHB0WTFC3BJ","<p style=""font-size: 48px;"">+</p>","","","","","null","allTrialResponses","1000","1","19","img_art/19.jpg","8","Looks like a train yard","Thomas,Dylan,Marcus,Isaac,Steven,Ethan","I like this as a whole, but the longer I look at it, the less it pleases me,-10,220,20","This photo has too much going on.,-19,40,20","I like the colors but the scene itself feels too jumbled and cluttered,9,60,20","It is too busy.,-34,280,20","I like it, I see someone walking his dog in the early morning time,23,160,20","I interpret an outdoor scene. It's good because it makes me want to look longer.,22,120,20","Steven","I like it, I see someone walking his dog in the early morning time,23,160,20","Ethan","I interpret an outdoor scene. It's good because it makes me want to look longer.,22,120,20","Marcus","I like the colors but the scene itself feels too jumbled and cluttered,9,60,20","0"
"11764","","survey-text","180","1035188","0.0-180.0-0.0","A2OIHB0WTFC3BJ","","","","{""Q0"":""Looks like a desert floor""}","","","","","","","","","","","","","","","","","","","","","","",""
"2403","","image-slider-response","181","1037597","0.0-181.0","A2OIHB0WTFC3BJ","","","","","-13","","","","","","","","","","","","","","","","","","","","","",""
"null","","image-button-response","182","1042603","0.0-182.0","A2OIHB0WTFC3BJ","img_art/7.jpg","null","","","","","","","","","","","","","","","","","","","","","","","","",""
"682","","image-button-response","183","1043287","0.0-183.0","A2OIHB0WTFC3BJ","img_art/7.jpg","4","","","","","","","","","","","","","","","","","","","","","","","","",""
"693","","image-button-response","184","1043984","0.0-184.0-0.0","A2OIHB0WTFC3BJ","img_art/7.jpg","3","","","","","","","","","","","","","","","","","","","","","","","","",""
"2659","","image-button-response","185","1046649","0.0-185.0-0.0","A2OIHB0WTFC3BJ","img_art/7.jpg","5","","","","","","","","","","","","","","","","","","","","","","","","",""
"null","","html-keyboard-response","186","1047653","0.0-186.0","A2OIHB0WTFC3BJ","<p style=""font-size: 48px;"">+</p>","","","","","null","allTrialResponses","1000","1","20","img_art/7.jpg","-13","Looks like a desert floor","Adrian,Gregory,Marcus,Brandon,Steven,Ethan","It's dirty. I don't mind the colors so much as the way they are put together in this dirty-looking pattern.,-41,60,20","Looks like a battle raging on,20,220,20","Looks like vomit, or chunky feces,-42,60,20","Looks like bad wallpaper,-29,320,20","looks like the surface of the moon.,1,160,20","This reminds me of a close up photo of a stone wall.,-19,120,20","Steven","looks like the surface of the moon.,1,160,20","Brandon","Looks like bad wallpaper,-29,320,20","Ethan","This reminds me of a close up photo of a stone wall.,-19,120,20","0"
"3046","","survey-text","187","1050760","0.0-187.0-0.0","A2OIHB0WTFC3BJ","","","","{""Q0"":""we""}","","","","","","","","","","","","","","","","","","","","","","",""
"15585","","survey-text","188","1066351","0.0-188.0-0.0","A2OIHB0WTFC3BJ","","","","{""Q0"":""Nice waterfall and scenery""}","","","","","","","","","","","","","","","","","","","","","","",""
"3591","","image-slider-response","189","1069953","0.0-189.0","A2OIHB0WTFC3BJ","","","","","34","","","","","","","","","","","","","","","","","","","","","",""
"null","","image-button-response","190","1074961","0.0-190.0","A2OIHB0WTFC3BJ","img_art/24.jpg","null","","","","","","","","","","","","","","","","","","","","","","","","",""
"674","","image-button-response","191","1075639","0.0-191.0","A2OIHB0WTFC3BJ","img_art/24.jpg","3","","","","","","","","","","","","","","","","","","","","","","","","",""
"1119","","image-button-response","192","1076766","0.0-192.0-0.0","A2OIHB0WTFC3BJ","img_art/24.jpg","4","","","","","","","","","","","","","","","","","","","","","","","","",""
"1279","","image-button-response","193","1078051","0.0-193.0-0.0","A2OIHB0WTFC3BJ","img_art/24.jpg","2","","","","","","","","","","","","","","","","","","","","","","","","",""
"null","","html-keyboard-response","194","1079056","0.0-194.0","A2OIHB0WTFC3BJ","<p style=""font-size: 48px;"">+</p>","","","","","null","allTrialResponses","1000","1","21","img_art/24.jpg","34","Nice waterfall and scenery","Noah,Colton,Jorge,Brandon,Steven,Ethan","this evokes a gutural reaction - it displeases me how similar it is to art I saw growing up,-30,260,20","reminds me of a beautiful waterfall,50,220,20","Interested in visiting this place,18,180,20","Simple. Not too abstract. Love the different flower colors.,20,320,20","It's beautiful! I love it! I see a waterfall, and they are my favorite things in the world,50,160,20","This is sort of interesting. I think it's a bit busy. Less is more.,3,120,20","Brandon","Simple. Not too abstract. Love the different flower colors.,20,320,20","Steven","It's beautiful! I love it! I see a waterfall, and they are my favorite things in the world,50,160,20","Jorge","Interested in visiting this place,18,180,20","0"
"11310","","survey-text","195","1090407","0.0-195.0-0.0","A2OIHB0WTFC3BJ","","","","{""Q0"":""A crow""}","","","","","","","","","","","","","","","","","","","","","","",""
"4040","","image-slider-response","196","1094454","0.0-196.0","A2OIHB0WTFC3BJ","","","","","5","","","","","","","","","","","","","","","","","","","","","",""
"null","","image-button-response","197","1099460","0.0-197.0","A2OIHB0WTFC3BJ","img_art/6.jpg","null","","","","","","","","","","","","","","","","","","","","","","","","",""
"2394","","image-button-response","198","1101855","0.0-198.0","A2OIHB0WTFC3BJ","img_art/6.jpg","2","","","","","","","","","","","","","","","","","","","","","","","","",""
"2062","","image-button-response","199","1103922","0.0-199.0-0.0","A2OIHB0WTFC3BJ","img_art/6.jpg","5","","","","","","","","","","","","","","","","","","","","","","","","",""
"1411","","image-button-response","200","1105340","0.0-200.0-0.0","A2OIHB0WTFC3BJ","img_art/6.jpg","4","","","","","","","","","","","","","","","","","","","","","","","","",""
"null","","html-keyboard-response","201","1105846","0.0-201.0","A2OIHB0WTFC3BJ","<p style=""font-size: 48px;"">+</p>","","","","","null","allTrialResponses","500","1","22","img_art/6.jpg","5","A crow","Malik,Caleb,Jorge,Brandon,Steven,Isaiah","Lonesome in nature,13,40,20","Despite how simple it is, this piece has clear meaning.,34,40,20","seeds of change,11,180,20","The feeling of isolation with so little objects. Great,20,320,20","This is interesting, I feel solitude, and loneliness from this.,13,160,20","The painting makes me happy. Like I'm looking at a little bird.,6,300,20","Jorge","seeds of change,11,180,20","Isaiah","The painting makes me happy. Like I'm looking at a little bird.,6,300,20","Steven","This is interesting, I feel solitude, and loneliness from this.,13,160,20","0"
"21561","","survey-text","202","1127439","0.0-202.0-0.0","A2OIHB0WTFC3BJ","","","","{""Q0"":""Very confusing and a lot going on but I like it.""}","","","","","","","","","","","","","","","","","","","","","","",""
"3611","","image-slider-response","203","1131063","0.0-203.0","A2OIHB0WTFC3BJ","","","","","49","","","","","","","","","","","","","","","","","","","","","",""
"null","","image-button-response","204","1136074","0.0-204.0","A2OIHB0WTFC3BJ","img_art/8.jpg","null","","","","","","","","","","","","","","","","","","","","","","","","",""
"601","","image-button-response","205","1136679","0.0-205.0","A2OIHB0WTFC3BJ","img_art/8.jpg","4","","","","","","","","","","","","","","","","","","","","","","","","",""
"1790","","image-button-response","206","1138477","0.0-206.0-0.0","A2OIHB0WTFC3BJ","img_art/8.jpg","2","","","","","","","","","","","","","","","","","","","","","","","","",""
"4037","","image-button-response","207","1142522","0.0-207.0-0.0","A2OIHB0WTFC3BJ","img_art/8.jpg","1","","","","","","","","","","","","","","","","","","","","","","","","",""
"null","","html-keyboard-response","208","1144030","0.0-208.0","A2OIHB0WTFC3BJ","<p style=""font-size: 48px;"">+</p>","","","","","null","allTrialResponses","1500","1","23","img_art/8.jpg","49","Very confusing and a lot going on but I like it.","Edward,Lucas,Jorge,Jesse,Steven,Isaiah","It's too boxy for my taste,-10,60,20","Different styles make this picture outstanding.,20,380,20","New power in the community,22,180,20","I like the definition and the strong lines. It makes me think of someone watching over the world,24,80,20","very nice, i love what's going on here,21,160,20","It makes me feel nervous. I can't tell ifI'm looking at an apartment, or a hellscape.,-18,300,20","Steven","very nice, i love what's going on here,21,160,20","Jorge","New power in the community,22,180,20","Lucas","Different styles make this picture outstanding.,20,380,20","0"
"25641","","survey-text","209","1169732","0.0-209.0-0.0","A2OIHB0WTFC3BJ","","","","{""Q0"":""Reminds me of the man with very long fingernails""}","","","","","","","","","","","","","","","","","","","","","","",""
"3952","","image-slider-response","210","1173693","0.0-210.0","A2OIHB0WTFC3BJ","","","","","-16","","","","","","","","","","","","","","","","","","","","","",""
"null","","image-button-response","211","1178702","0.0-211.0","A2OIHB0WTFC3BJ","img_art/4.jpg","null","","","","","","","","","","","","","","","","","","","","","","","","",""
"2153","","image-button-response","212","1180858","0.0-212.0","A2OIHB0WTFC3BJ","img_art/4.jpg","2","","","","","","","","","","","","","","","","","","","","","","","","",""
"1854","","image-button-response","213","1182719","0.0-213.0-0.0","A2OIHB0WTFC3BJ","img_art/4.jpg","0","","","","","","","","","","","","","","","","","","","","","","","","",""
"3807","","image-button-response","214","1186533","0.0-214.0-0.0","A2OIHB0WTFC3BJ","img_art/4.jpg","5","","","","","","","","","","","","","","","","","","","","","","","","",""
"null","","html-keyboard-response","215","1188038","0.0-215.0","A2OIHB0WTFC3BJ","<p style=""font-size: 48px;"">+</p>","","","","","null","allTrialResponses","1500","1","24","img_art/4.jpg","-16","Reminds me of the man with very long fingernails","Bryan,Lucas,Jorge,Austin,Steven,Richard","McDonald's golden arches on steroids.,-20,400,20","Not bad at all.,20,380,20","creepy as it looks like fingernails,-23,180,20","Like the color vibrancy,29,240,20","The colors remind me of mcdonalds,-33,160,20","too childish, not really art in my world,-50,340,20","Jorge","creepy as it looks like fingernails,-23,180,20","Bryan","McDonald's golden arches on steroids.,-20,400,20","Richard","too childish, not really art in my world,-50,340,20","0"
"14387","","survey-text","216","1202457","0.0-216.0-0.0","A2OIHB0WTFC3BJ","","","","{""Q0"":""Confusing and messy""}","","","","","","","","","","","","","","","","","","","","","","",""
"3090","","image-slider-response","217","1205559","0.0-217.0","A2OIHB0WTFC3BJ","","","","","-36","","","","","","","","","","","","","","","","","","","","","",""
"null","","image-button-response","218","1210570","0.0-218.0","A2OIHB0WTFC3BJ","img_art/2.jpg","null","","","","","","","","","","","","","","","","","","","","","","","","",""
"661","","image-button-response","219","1211235","0.0-219.0","A2OIHB0WTFC3BJ","img_art/2.jpg","2","","","","","","","","","","","","","","","","","","","","","","","","",""
"1009","","image-button-response","220","1212250","0.0-220.0-0.0","A2OIHB0WTFC3BJ","img_art/2.jpg","1","","","","","","","","","","","","","","","","","","","","","","","","",""
"1397","","image-button-response","221","1213653","0.0-221.0-0.0","A2OIHB0WTFC3BJ","img_art/2.jpg","0","","","","","","","","","","","","","","","","","","","","","","","","",""
"null","","html-keyboard-response","222","1215159","0.0-222.0","A2OIHB0WTFC3BJ","<p style=""font-size: 48px;"">+</p>","","","","","null","allTrialResponses","1500","1","25","img_art/2.jpg","-36","Confusing and messy","Bryan,Spencer,Jorge,Trevor,Jared,Richard","Like the colors but reminds me of a kids show done in cubism.,0,400,20","Kind of looks upside down, I need a focal point,-29,120,20","Confused and disoriented,-33,180,20","It looks like a little kids primary color picture,3,280,20","looks like a happy child,15,400,20","doctor's office art work, nice colors and not offensive,23,340,20","Jorge","Confused and disoriented,-33,180,20","Spencer","Kind of looks upside down, I need a focal point,-29,120,20","Bryan","Like the colors but reminds me of a kids show done in cubism.,0,400,20","0"
"3475","","survey-text","223","1218707","0.0-223.0-0.0","A2OIHB0WTFC3BJ","","","","{""Q0"":""table""}","","","","","","","","","","","","","","","","","","","","","","",""
"20643","","survey-text","224","1239355","0.0-224.0-0.0","A2OIHB0WTFC3BJ","","","","{""Q0"":""A lonely tree on an island""}","","","","","","","","","","","","","","","","","","","","","","",""
"3349","","image-slider-response","225","1242709","0.0-225.0","A2OIHB0WTFC3BJ","","","","","23","","","","","","","","","","","","","","","","","","","","","",""
"null","","image-button-response","226","1247717","0.0-226.0","A2OIHB0WTFC3BJ","img_art/14.jpg","null","","","","","","","","","","","","","","","","","","","","","","","","",""
"2080","","image-button-response","227","1249800","0.0-227.0","A2OIHB0WTFC3BJ","img_art/14.jpg","3","","","","","","","","","","","","","","","","","","","","","","","","",""
"2460","","image-button-response","228","1252265","0.0-228.0-0.0","A2OIHB0WTFC3BJ","img_art/14.jpg","1","","","","","","","","","","","","","","","","","","","","","","","","",""
"4018","","image-button-response","229","1256289","0.0-229.0-0.0","A2OIHB0WTFC3BJ","img_art/14.jpg","5","","","","","","","","","","","","","","","","","","","","","","","","",""
"null","","html-keyboard-response","230","1257798","0.0-230.0","A2OIHB0WTFC3BJ","<p style=""font-size: 48px;"">+</p>","","","","","null","allTrialResponses","1500","1","26","img_art/14.jpg","23","A lonely tree on an island","Bryan,Spencer,Jorge,Kenneth,Sean,Tristan","Like some of the colors but not much else.,1,400,20","I like the simplicity along with the colors,27,120,20","unsure and dull feeling,-1,180,20","Its cute, but not my favorite.,8,300,20","my reaction is that the picture is wierd,-14,40,20","In others I might say the colors are garish. Here it works perfectly. The balance is wondrous and unlimiting.,25,300,20","Kenneth","Its cute, but not my favorite.,8,300,20","Spencer","I like the simplicity along with the colors,27,120,20","Tristan","In others I might say the colors are garish. Here it works perfectly. The balance is wondrous and unlimiting.,25,300,20","0"
"26950","","survey-text","231","1284809","0.0-231.0-0.0","A2OIHB0WTFC3BJ","","","","{""Q0"":""Looks like abstract ski goggles""}","","","","","","","","","","","","","","","","","","","","","","",""
"3876","","image-slider-response","232","1288694","0.0-232.0","A2OIHB0WTFC3BJ","","","","","43","","","","","","","","","","","","","","","","","","","","","",""
"3322","","image-button-response","233","1293703","0.0-233.0","A2OIHB0WTFC3BJ","img_art/10.jpg","4","","","","","","","","","","","","","","","","","","","","","","","","",""
"1775","","image-button-response","234","1295486","0.0-234.0","A2OIHB0WTFC3BJ","img_art/10.jpg","4","","","","","","","","","","","","","","","","","","","","","","","","",""
"689","","image-button-response","235","1296182","0.0-235.0-0.0","A2OIHB0WTFC3BJ","img_art/10.jpg","3","","","","","","","","","","","","","","","","","","","","","","","","",""
"3646","","image-button-response","236","1299833","0.0-236.0-0.0","A2OIHB0WTFC3BJ","img_art/10.jpg","2","","","","","","","","","","","","","","","","","","","","","","","","",""
"null","","html-keyboard-response","237","1300339","0.0-237.0","A2OIHB0WTFC3BJ","<p style=""font-size: 48px;"">+</p>","","","","","null","allTrialResponses","500","1","27","img_art/10.jpg","43","Looks like abstract ski goggles","Miguel,Spencer,Ryan,Kenneth,Jeffrey,Tristan","It just looks like a dirty stain.,-38,160,20","Dark with no object, looks like experimentation, slightly like a storm on the ocean,-21,120,20","Reminds me of a beautiful ship wreck,36,380,20","I cant tell what this is supposed to be, but I enjoy the simplicity of it.,28,300,20","Relaxing; a lot of going on but colours make it easy to look at,20,40,20","Highly abstract and yet the shapes and colors provide an emotional accessibility for me.,20,300,20","Jeffrey","Relaxing; a lot of going on but colours make it easy to look at,20,40,20","Kenneth","I cant tell what this is supposed to be, but I enjoy the simplicity of it.,28,300,20","Ryan","Reminds me of a beautiful ship wreck,36,380,20","0"
"31166","","survey-text","238","1331549","0.0-238.0-0.0","A2OIHB0WTFC3BJ","","","","{""Q0"":""A lot going on but I do not really get it.""}","","","","","","","","","","","","","","","","","","","","","","",""
"3178","","image-slider-response","239","1334744","0.0-239.0","A2OIHB0WTFC3BJ","","","","","-50","","","","","","","","","","","","","","","","","","","","","",""
"null","","image-button-response","240","1339753","0.0-240.0","A2OIHB0WTFC3BJ","img_art/16.jpg","null","","","","","","","","","","","","","","","","","","","","","","","","",""
"1164","","image-button-response","241","1340921","0.0-241.0","A2OIHB0WTFC3BJ","img_art/16.jpg","1","","","","","","","","","","","","","","","","","","","","","","","","",""
"850","","image-button-response","242","1341778","0.0-242.0-0.0","A2OIHB0WTFC3BJ","img_art/16.jpg","0","","","","","","","","","","","","","","","","","","","","","","","","",""
"2111","","image-button-response","243","1343896","0.0-243.0-0.0","A2OIHB0WTFC3BJ","img_art/16.jpg","3","","","","","","","","","","","","","","","","","","","","","","","","",""
"null","","html-keyboard-response","244","1345403","0.0-244.0","A2OIHB0WTFC3BJ","<p style=""font-size: 48px;"">+</p>","","","","","null","allTrialResponses","1500","1","28","img_art/16.jpg","-50","A lot going on but I do not really get it.","Tanner,David,Ryan,Kenneth,Jeffrey,Stephen","sad. desth of childhood,-5,180,20","The colored teddy bear clashes with the color scheme.,-20,340,20","Very modern, reminds me of bansky,43,380,20","Looks like someone got really high and did a bad photoshop job.,-27,300,20","Teddy bear calls positive emotional response but then I get worried about what is about to happen,18,40,20","Cute but there's a lot going on.,7,140,20","David","The colored teddy bear clashes with the color scheme.,-20,340,20","Tanner","sad. desth of childhood,-5,180,20","Kenneth","Looks like someone got really high and did a bad photoshop job.,-27,300,20","0"
"26467","","survey-text","245","1371911","0.0-245.0-0.0","A2OIHB0WTFC3BJ","","","","{""Q0"":""I really like the lines with the vibrant colors coming off them.""}","","","","","","","","","","","","","","","","","","","","","","",""
"3067","","image-slider-response","246","1374985","0.0-246.0","A2OIHB0WTFC3BJ","","","","","50","","","","","","","","","","","","","","","","","","","","","",""
"null","","image-button-response","247","1379990","0.0-247.0","A2OIHB0WTFC3BJ","img_art/11.jpg","null","","","","","","","","","","","","","","","","","","","","","","","","",""
"2442","","image-button-response","248","1382436","0.0-248.0","A2OIHB0WTFC3BJ","img_art/11.jpg","3","","","","","","","","","","","","","","","","","","","","","","","","",""
"2440","","image-button-response","249","1384880","0.0-249.0-0.0","A2OIHB0WTFC3BJ","img_art/11.jpg","5","","","","","","","","","","","","","","","","","","","","","","","","",""
"788","","image-button-response","250","1385674","0.0-250.0-0.0","A2OIHB0WTFC3BJ","img_art/11.jpg","4","","","","","","","","","","","","","","","","","","","","","","","","",""
"null","","html-keyboard-response","251","1386178","0.0-251.0","A2OIHB0WTFC3BJ","<p style=""font-size: 48px;"">+</p>","","","","","null","allTrialResponses","500","1","29","img_art/11.jpg","50","I really like the lines with the vibrant colors coming off them.","Tanner,David,Logan,Kenneth,Brett,Victor","small town, friendly. calm,35,180,20","I like how this piece can be interpreted in different ways, such as a village on hilly terrain.,10,340,20","life is a highway,12,360,20","Its a little psychedelic.,10,300,20","This looks like a busy highway system along a suburban background,40,360,20","Love the colors against the black and gray. The lines are calming.,22,340,20","Kenneth","Its a little psychedelic.,10,300,20","Victor","Love the colors against the black and gray. The lines are calming.,22,340,20","Brett","This looks like a busy highway system along a suburban background,40,360,20","0"
"26095","","survey-text","252","1412302","0.0-252.0-0.0","A2OIHB0WTFC3BJ","","","","{""Q0"":""Looks like two creatures in a room. ""}","","","","","","","","","","","","","","","","","","","","","","",""
"2980","","image-slider-response","253","1415289","0.0-253.0","A2OIHB0WTFC3BJ","","","","","-37","","","","","","","","","","","","","","","","","","","","","",""
"4456","","image-button-response","254","1420295","0.0-254.0","A2OIHB0WTFC3BJ","img_art/28.jpg","3","","","","","","","","","","","","","","","","","","","","","","","","",""
"1244","","image-button-response","255","1421544","0.0-255.0","A2OIHB0WTFC3BJ","img_art/28.jpg","3","","","","","","","","","","","","","","","","","","","","","","","","",""
"948","","image-button-response","256","1422495","0.0-256.0-0.0","A2OIHB0WTFC3BJ","img_art/28.jpg","0","","","","","","","","","","","","","","","","","","","","","","","","",""
"2432","","image-button-response","257","1424934","0.0-257.0-0.0","A2OIHB0WTFC3BJ","img_art/28.jpg","2","","","","","","","","","","","","","","","","","","","","","","","","",""
"null","","html-keyboard-response","258","1425438","0.0-258.0","A2OIHB0WTFC3BJ","<p style=""font-size: 48px;"">+</p>","","","","","null","allTrialResponses","500","1","30","img_art/28.jpg","-37","Looks like two creatures in a room. ","Michael,Jeremy,Andrew,Kenneth,Brett,Victor","Incoherent ugly mess.,-50,140,20","I just don't like it. It makes no sense to me,1,60,20","Doesn't give me an emotional response,0,160,20","This one is too bleak, not a fan of the image or colors.,-28,300,20","Overpopulated city,35,360,20","Almost looks like child's artwork, sloppy and chaotic,6,340,20","Kenneth","This one is too bleak, not a fan of the image or colors.,-28,300,20","Michael","Incoherent ugly mess.,-50,140,20","Andrew","Doesn't give me an emotional response,0,160,20","0"
