"rt","url","trial_type","trial_index","time_elapsed","internal_node_id","participant_id","stimulus","button_pressed","Name","responses","response","key_press","variableName","fixationTime","condition","trial","photo","subjectRating","subjectResponse","agentsNames","agent_1_Response","agent_2_Response","agent_3_Response","agent_4_Response","agent_5_Response","agent_6_Response","kept_1_name","kept_1_response","kept_2_name","kept_2_response","kept_3_name","kept_3_response","errorCounter"
"4164","external_page_harvard.html","external-html","0","4375","0.0-0.0","A2OPYRV3GLAPS1","","","","","","","","","","","","","","","","","","","","","","","","","","",""
"1523","","image-button-response","1","5901","0.0-1.0","A2OPYRV3GLAPS1","","0","","","","","","","","","","","","","","","","","","","","","","","","",""
"2314","","image-button-response","2","8222","0.0-2.0-0.0","A2OPYRV3GLAPS1","","1","phone","","","","","","","","","","","","","","","","","","","","","","","",""
"2901","","survey-text","3","11126","0.0-3.0-0.0","A2OPYRV3GLAPS1","","","","{""Q0"":""A2OPYRV3GLAPS1""}","","","","","","","","","","","","","","","","","","","","","","",""
"10829","","image-button-response_instructions","4","21958","0.0-4.0","A2OPYRV3GLAPS1","","0","instructions","","","","","","","","","","","","","","","","","","","","","","","",""
"12781","","image-button-response_instructions","5","34743","0.0-5.0","A2OPYRV3GLAPS1","img_art/ins/popularity/ins1.png","0","instructions","","","","","","","","","","","","","","","","","","","","","","","",""
"4022","","image-button-response_instructions","6","38767","0.0-6.0","A2OPYRV3GLAPS1","img_art/ins/popularity/ins2.png","0","instructions","","","","","","","","","","","","","","","","","","","","","","","",""
"3270","","image-button-response_instructions","7","42038","0.0-7.0","A2OPYRV3GLAPS1","img_art/ins/popularity/ins2Extreme.png","0","instructions","","","","","","","","","","","","","","","","","","","","","","","",""
"7390","","image-button-response_instructions","8","49431","0.0-8.0","A2OPYRV3GLAPS1","img_art/ins/popularity/ins3KEEPpop.PNG","0","instructions","","","","","","","","","","","","","","","","","","","","","","","",""
"2750","","image-button-response_instructions","9","52183","0.0-9.0","A2OPYRV3GLAPS1","img_art/ins/popularity/ins3ANamepop.PNG","0","instructions","","","","","","","","","","","","","","","","","","","","","","","",""
"4374","","image-button-response_instructions","10","56559","0.0-10.0","A2OPYRV3GLAPS1","img_art/ins/popularity/ins3ARatingpop.png","0","instructions","","","","","","","","","","","","","","","","","","","","","","","",""
"3374","","image-button-response_instructions","11","59935","0.0-11.0","A2OPYRV3GLAPS1","img_art/ins/popularity/ins3ATextpop.png","0","instructions","","","","","","","","","","","","","","","","","","","","","","","",""
"1493","","image-button-response_instructions","12","61431","0.0-12.0","A2OPYRV3GLAPS1","img_art/ins/popularity/ins3ALikespop.png","0","instructions","","","","","","","","","","","","","","","","","","","","","","","",""
"9253","","image-button-response_instructions","13","70687","0.0-13.0","A2OPYRV3GLAPS1","img_art/ins/popularity/ins3KEEPpop.PNG","0","instructions","","","","","","","","","","","","","","","","","","","","","","","",""
"4855","","image-button-response_instructions","14","75544","0.0-14.0","A2OPYRV3GLAPS1","img_art/ins/popularity/ins3_5RED.png","0","instructions","","","","","","","","","","","","","","","","","","","","","","","",""
"3070","","image-button-response_instructions","15","78616","0.0-15.0","A2OPYRV3GLAPS1","img_art/ins/popularity/ins3KEEPpop.PNG","0","instructions","","","","","","","","","","","","","","","","","","","","","","","",""
"6262","","image-button-response_instructions","16","84879","0.0-16.0","A2OPYRV3GLAPS1","img_art/ins/popularity/ins4KEEPpop.PNG","0","instructions","","","","","","","","","","","","","","","","","","","","","","","",""
"3542","","image-button-response_instructions","17","88423","0.0-17.0","A2OPYRV3GLAPS1","img_art/ins/popularity/ins5KEEPpop.PNG","0","instructions","","","","","","","","","","","","","","","","","","","","","","","",""
"1078","","image-button-response_instructions","18","89503","0.0-18.0","A2OPYRV3GLAPS1","","0","instructions","","","","","","","","","","","","","","","","","","","","","","","",""
"3781","","survey-text","19","93312","0.0-19.0-0.0","A2OPYRV3GLAPS1","","","","{""Q0"":""but""}","","","","","","","","","","","","","","","","","","","","","","",""
"15397","","survey-text","20","108712","0.0-20.0-0.0","A2OPYRV3GLAPS1","","","","{""Q0"":""pretty. calming but energetic colors.""}","","","","","","","","","","","","","","","","","","","","","","",""
"2426.9000000953674","","image-slider-response","21","111145","0.0-21.0","A2OPYRV3GLAPS1","","","","","19","","","","","","","","","","","","","","","","","","","","","",""
"null","","image-button-response","22","116150","0.0-22.0","A2OPYRV3GLAPS1","img_art/ins/1.jpg","null","","","","","","","","","","","","","","","","","","","","","","","","",""
"976","","image-button-response","23","117130","0.0-23.0","A2OPYRV3GLAPS1","img_art/ins/1.jpg","3","","","","","","","","","","","","","","","","","","","","","","","","",""
"2426","","image-button-response","24","119560","0.0-24.0-0.0","A2OPYRV3GLAPS1","img_art/ins/1.jpg","5","","","","","","","","","","","","","","","","","","","","","","","","",""
"2037","","image-button-response","25","121602","0.0-25.0-0.0","A2OPYRV3GLAPS1","img_art/ins/1.jpg","1","","","","","","","","","","","","","","","","","","","","","","","","",""
"null","","html-keyboard-response","26","122610","0.0-26.0","A2OPYRV3GLAPS1","<p style=""font-size: 48px;"">+</p>","","","","","null","allTrialResponses","1000","1","-2","img_art/ins/1.jpg","19","pretty. calming but energetic colors.","Adam,Alex,Ben,Carl,Daniel,Jack","Seems like doodles,-20,20,20","very creative work.,36,40,20","This color reminds me of poo,-46,60,20","very calming artwork,42,80,20","It looks like a murder scene.,-48,100,20","I like the sophisticated brushwork,40,120,20","Carl","very calming artwork,42,80,20","Jack","I like the sophisticated brushwork,40,120,20","Alex","very creative work.,36,40,20","0"
"12866","","survey-text","27","135481","0.0-27.0-0.0","A2OPYRV3GLAPS1","","","","{""Q0"":""Feels dark and slightly unnerving""}","","","","","","","","","","","","","","","","","","","","","","",""
"2958","","image-slider-response","28","138441","0.0-28.0","A2OPYRV3GLAPS1","","","","","-12","","","","","","","","","","","","","","","","","","","","","",""
"null","","image-button-response","29","143449","0.0-29.0","A2OPYRV3GLAPS1","img_art/ins/2.jpg","null","","","","","","","","","","","","","","","","","","","","","","","","",""
"4231","","image-button-response","30","147682","0.0-30.0","A2OPYRV3GLAPS1","img_art/ins/2.jpg","3","","","","","","","","","","","","","","","","","","","","","","","","",""
"2701","","image-button-response","31","150386","0.0-31.0-0.0","A2OPYRV3GLAPS1","img_art/ins/2.jpg","0","","","","","","","","","","","","","","","","","","","","","","","","",""
"508","","image-button-response","32","150898","0.0-32.0-0.0","A2OPYRV3GLAPS1","img_art/ins/2.jpg","1","","","","","","","","","","","","","","","","","","","","","","","","",""
"null","","html-keyboard-response","33","152403","0.0-33.0","A2OPYRV3GLAPS1","<p style=""font-size: 48px;"">+</p>","","","","","null","allTrialResponses","1500","1","-1","img_art/ins/2.jpg","-12","Feels dark and slightly unnerving","James,Alex,Kyle,Carl,John,Jack","looks too angry,-50,140,20","I like the blocks of color arrangements,30,40,20","Idk, it is just annoying,-32,180,20","I can feel the artist's passion in it,45,80,20","love the texture of paint,48,160,20","I would never be able to compose a sophisticated pallete like this,48,120,20","Carl","I can feel the artist's passion in it,45,80,20","James","looks too angry,-50,140,20","Alex","I like the blocks of color arrangements,30,40,20","0"
"11474","","survey-text","34","163881","0.0-34.0-0.0","A2OPYRV3GLAPS1","","","","{""Q0"":""Icy. Makes me think of glaciers and cold.""}","","","","","","","","","","","","","","","","","","","","","","",""
"2774.4000000953674","","image-slider-response","35","166658","0.0-35.0","A2OPYRV3GLAPS1","","","","","24","","","","","","","","","","","","","","","","","","","","","",""
"1590","","image-button-response","36","171663","0.0-36.0","A2OPYRV3GLAPS1","img_art/ins/3.jpg","1","","","","","","","","","","","","","","","","","","","","","","","","",""
"1833","","image-button-response","37","173499","0.0-37.0","A2OPYRV3GLAPS1","img_art/ins/3.jpg","5","","","","","","","","","","","","","","","","","","","","","","","","",""
"2309","","image-button-response","38","175811","0.0-38.0-0.0","A2OPYRV3GLAPS1","img_art/ins/3.jpg","1","","","","","","","","","","","","","","","","","","","","","","","","",""
"2163","","image-button-response","39","177978","0.0-39.0-0.0","A2OPYRV3GLAPS1","img_art/ins/3.jpg","0","","","","","","","","","","","","","","","","","","","","","","","","",""
"null","","html-keyboard-response","40","179481","0.0-40.0","A2OPYRV3GLAPS1","<p style=""font-size: 48px;"">+</p>","","","","","null","allTrialResponses","1500","1","0","img_art/ins/3.jpg","24","Icy. Makes me think of glaciers and cold.","James,Alex,Mike,Carl,Ron,Sam","My worst nightmare,-42,140,20","calming blue is very nice,36,40,20","enjoy the different shades of blue,22,200,20","It's an alright work,15,80,20","It looks depressing,-26,220,20","I can feel a rainy day from this painting,18,240,20","Sam","I can feel a rainy day from this painting,18,240,20","Alex","calming blue is very nice,36,40,20","James","My worst nightmare,-42,140,20","0"
"4564","","image-button-response_instructions","41","184050","0.0-41.0","A2OPYRV3GLAPS1","","0","instructions","","","","","","","","","","","","","","","","","","","","","","","",""
"7702","","survey-likert","42","191754","0.0-42.0-0.0","A2OPYRV3GLAPS1","","","","{""Q0"":"""",""Q1"":0,""Q2"":1}","","","","","","","","","","","","","","","","","","","","","","",""
"3715","","survey-text","43","195475","0.0-43.0-0.0","A2OPYRV3GLAPS1","","","","{""Q0"":""rock""}","","","","","","","","","","","","","","","","","","","","","","",""
"31750","","survey-text","44","227228","0.0-44.0-0.0","A2OPYRV3GLAPS1","","","","{""Q0"":""Pretty. Evocative. I like the color contrasts and brushwork.""}","","","","","","","","","","","","","","","","","","","","","","",""
"2964.5","","image-slider-response","45","230196","0.0-45.0","A2OPYRV3GLAPS1","","","","","29","","","","","","","","","","","","","","","","","","","","","",""
"4306","","image-button-response","46","235218","0.0-46.0","A2OPYRV3GLAPS1","img_art/24.jpg","1","","","","","","","","","","","","","","","","","","","","","","","","",""
"1263","","image-button-response","47","236485","0.0-47.0","A2OPYRV3GLAPS1","img_art/24.jpg","4","","","","","","","","","","","","","","","","","","","","","","","","",""
"3013","","image-button-response","48","239501","0.0-48.0-0.0","A2OPYRV3GLAPS1","img_art/24.jpg","3","","","","","","","","","","","","","","","","","","","","","","","","",""
"1404","","image-button-response","49","240909","0.0-49.0-0.0","A2OPYRV3GLAPS1","img_art/24.jpg","1","","","","","","","","","","","","","","","","","","","","","","","","",""
"null","","html-keyboard-response","50","241913","0.0-50.0","A2OPYRV3GLAPS1","<p style=""font-size: 48px;"">+</p>","","","","","null","allTrialResponses","1000","1","1","img_art/24.jpg","29","Pretty. Evocative. I like the color contrasts and brushwork.","Devon,Dakota,Hunter,Jose,Nicholas,Jorge","Aww. I love the peace brought by this picture.,40,400,20","chunky fresh color,27,280,20","feels overdone, but still executed well,0,240,20","The combination of nature / realism with abstract colors is unique.,39,200,20","Happy and relaxing bubbling brook,37,240,20","Interested in visiting this place,18,180,20","Nicholas","Happy and relaxing bubbling brook,37,240,20","Jose","The combination of nature / realism with abstract colors is unique.,39,200,20","Dakota","chunky fresh color,27,280,20","0"
"11063","","survey-text","51","252981","0.0-51.0-0.0","A2OPYRV3GLAPS1","","","","{""Q0"":""Ethereal and beautiful, but a bit cold.""}","","","","","","","","","","","","","","","","","","","","","","",""
"1853","","image-slider-response","52","254837","0.0-52.0","A2OPYRV3GLAPS1","","","","","9","","","","","","","","","","","","","","","","","","","","","",""
"null","","image-button-response","53","259841","0.0-53.0","A2OPYRV3GLAPS1","img_art/17.jpg","null","","","","","","","","","","","","","","","","","","","","","","","","",""
"6681","","image-button-response","54","266525","0.0-54.0","A2OPYRV3GLAPS1","img_art/17.jpg","5","","","","","","","","","","","","","","","","","","","","","","","","",""
"949","","image-button-response","55","267477","0.0-55.0-0.0","A2OPYRV3GLAPS1","img_art/17.jpg","5","","","","","","","","","","","","","","","","","","","","","","","","",""
"845","","image-button-response","56","271846","0.0-55.1-0.1","A2OPYRV3GLAPS1","img_art/17.jpg","4","","","","","","","","","","","","","","","","","","","","","","","","",""
"2460","","image-button-response","57","274309","0.0-56.0-0.0","A2OPYRV3GLAPS1","img_art/17.jpg","1","","","","","","","","","","","","","","","","","","","","","","","","",""
"null","","html-keyboard-response","58","274812","0.0-57.0","A2OPYRV3GLAPS1","<p style=""font-size: 48px;"">+</p>","","","","","null","allTrialResponses","500","1","2","img_art/17.jpg","9","Ethereal and beautiful, but a bit cold.","Kevin,Dakota,Angel,Jose,Nicholas,Taylor","Some new perm we got there.,12,320,20","home - reminds me of fond memories of the Barnes Museum courtyard (looks just like it),30,280,20","Reminds me of the modern art museum in Rome. I didn't ""get"" many pieces, but had a positive cultural experience overall.,20,180,20","Looks like a weird blurry heaven again! I dig,32,200,20","Nice colors, shapes, flow,31,240,20","Somewhat should trim the tree branches at the shopping mall.,10,200,20","Taylor","Somewhat should trim the tree branches at the shopping mall.,10,200,20","Nicholas","Nice colors, shapes, flow,31,240,20","Dakota","home - reminds me of fond memories of the Barnes Museum courtyard (looks just like it),30,280,20","2"
"34868","","survey-text","59","309686","0.0-58.0-0.0","A2OPYRV3GLAPS1","","","","{""Q0"":""Somehow detailed and abstract at the same time. It's like an very clear image of an impossible object.""}","","","","","","","","","","","","","","","","","","","","","","",""
"2341.9000000953674","","image-slider-response","60","312031","0.0-59.0","A2OPYRV3GLAPS1","","","","","25","","","","","","","","","","","","","","","","","","","","","",""
"null","","image-button-response","61","317038","0.0-60.0","A2OPYRV3GLAPS1","img_art/18.jpg","null","","","","","","","","","","","","","","","","","","","","","","","","",""
"679","","image-button-response","62","317719","0.0-61.0","A2OPYRV3GLAPS1","img_art/18.jpg","4","","","","","","","","","","","","","","","","","","","","","","","","",""
"805","","image-button-response","63","318527","0.0-62.0-0.0","A2OPYRV3GLAPS1","img_art/18.jpg","3","","","","","","","","","","","","","","","","","","","","","","","","",""
"2493","","image-button-response","64","321023","0.0-63.0-0.0","A2OPYRV3GLAPS1","img_art/18.jpg","1","","","","","","","","","","","","","","","","","","","","","","","","",""
"null","","html-keyboard-response","65","322027","0.0-64.0","A2OPYRV3GLAPS1","<p style=""font-size: 48px;"">+</p>","","","","","null","allTrialResponses","1000","1","3","img_art/18.jpg","25","Somehow detailed and abstract at the same time. It's like an very clear image of an impossible object.","Juan,Dakota,Jeremy,Timothy,Nicholas,Taylor","Again, this is too abtract.,-25,260,20","afraid and anxious,21,280,20","Unhappy. Makes me thing of evil,-10,60,20","This gives a very ominous feeling,-30,240,20","Id love to see this piece closer. So much extra details hidden it it.,50,240,20","Bad guys are after the good guy.,-10,200,20","Nicholas","Id love to see this piece closer. So much extra details hidden it it.,50,240,20","Timothy","This gives a very ominous feeling,-30,240,20","Dakota","afraid and anxious,21,280,20","2"
"28079","","survey-text","66","350112","0.0-65.0-0.0","A2OPYRV3GLAPS1","","","","{""Q0"":""Sunset over a harbor with stormy clouds in the distance.""}","","","","","","","","","","","","","","","","","","","","","","",""
"2404.7000002861023","","image-slider-response","67","352520","0.0-66.0","A2OPYRV3GLAPS1","","","","","36","","","","","","","","","","","","","","","","","","","","","",""
"2693","","image-button-response","68","357523","0.0-67.0","A2OPYRV3GLAPS1","img_art/21.jpg","1","","","","","","","","","","","","","","","","","","","","","","","","",""
"1257","","image-button-response","69","358783","0.0-68.0","A2OPYRV3GLAPS1","img_art/21.jpg","1","","","","","","","","","","","","","","","","","","","","","","","","",""
"5550","","image-button-response","70","364337","0.0-69.0-0.0","A2OPYRV3GLAPS1","img_art/21.jpg","4","","","","","","","","","","","","","","","","","","","","","","","","",""
"4372","","image-button-response","71","368712","0.0-70.0-0.0","A2OPYRV3GLAPS1","img_art/21.jpg","0","","","","","","","","","","","","","","","","","","","","","","","","",""
"null","","html-keyboard-response","72","369215","0.0-71.0","A2OPYRV3GLAPS1","<p style=""font-size: 48px;"">+</p>","","","","","null","allTrialResponses","500","1","4","img_art/21.jpg","36","Sunset over a harbor with stormy clouds in the distance.","Daniel,Dakota,Jonathan,Timothy,Nicholas,Brett","Nice asymmetry with maritime colors city meets the sea,34,320,20","a serene, calm and eloquent storm,9,280,20","Makes me think of a natural disaster but I love how it looks. Makes you think,30,140,20","Very calming and soft, makes me feel good,31,240,20","Love the colors and the relationship between the light and storm,50,240,20","Makes me think of a battleship targeting a beautiful mountainside,0,360,20","Dakota","a serene, calm and eloquent storm,9,280,20","Nicholas","Love the colors and the relationship between the light and storm,50,240,20","Daniel","Nice asymmetry with maritime colors city meets the sea,34,320,20","2"
"13582","","survey-text","73","382801","0.0-72.0-0.0","A2OPYRV3GLAPS1","","","","{""Q0"":""Doesn't do it for me. Too rudimentary.""}","","","","","","","","","","","","","","","","","","","","","","",""
"2333","","image-slider-response","74","385137","0.0-73.0","A2OPYRV3GLAPS1","","","","","-21","","","","","","","","","","","","","","","","","","","","","",""
"4933","","image-button-response","75","390144","0.0-74.0","A2OPYRV3GLAPS1","img_art/5.jpg","2","","","","","","","","","","","","","","","","","","","","","","","","",""
"1550","","image-button-response","76","391697","0.0-75.0","A2OPYRV3GLAPS1","img_art/5.jpg","2","","","","","","","","","","","","","","","","","","","","","","","","",""
"6453","","image-button-response","77","398154","0.0-76.0-0.0","A2OPYRV3GLAPS1","img_art/5.jpg","5","","","","","","","","","","","","","","","","","","","","","","","","",""
"3212","","image-button-response","78","401369","0.0-77.0-0.0","A2OPYRV3GLAPS1","img_art/5.jpg","4","","","","","","","","","","","","","","","","","","","","","","","","",""
"null","","html-keyboard-response","79","402373","0.0-78.0","A2OPYRV3GLAPS1","<p style=""font-size: 48px;"">+</p>","","","","","null","allTrialResponses","1000","1","5","img_art/5.jpg","-21","Doesn't do it for me. Too rudimentary.","Daniel,Dakota,Dustin,Marcus,Nicholas,Kyle","Cop out, easy money for artist for a 4 min piece,-29,320,20","fresh and fun - bright and active,16,280,20","I don't get it at all. But, maybe it is the top portion of a piece of fruit.,-50,20,20","I really dislike this. It's ugly and looks dirty.,-44,60,20","I cant explain why i like this so much but it really calls out to me,50,240,20","Not sure what to say about this piece honestly. It's okay I guess.,0,340,20","Dustin","I don't get it at all. But, maybe it is the top portion of a piece of fruit.,-50,20,20","Kyle","Not sure what to say about this piece honestly. It's okay I guess.,0,340,20","Nicholas","I cant explain why i like this so much but it really calls out to me,50,240,20","2"
"5389","","survey-text","80","407769","0.0-79.0-0.0","A2OPYRV3GLAPS1","","","","{""Q0"":""sky""}","","","","","","","","","","","","","","","","","","","","","","",""
"23773","","survey-text","81","431546","0.0-80.0-0.0","A2OPYRV3GLAPS1","","","","{""Q0"":""Mixed feelings. The hovering face disturbs me.""}","","","","","","","","","","","","","","","","","","","","","","",""
"1820.7999997138977","","image-slider-response","82","433370","0.0-81.0","A2OPYRV3GLAPS1","","","","","-15","","","","","","","","","","","","","","","","","","","","","",""
"4044","","image-button-response","83","438374","0.0-82.0","A2OPYRV3GLAPS1","img_art/8.jpg","2","","","","","","","","","","","","","","","","","","","","","","","","",""
"382","","image-button-response","84","438759","0.0-83.0","A2OPYRV3GLAPS1","img_art/8.jpg","2","","","","","","","","","","","","","","","","","","","","","","","","",""
"3185","","image-button-response","85","441947","0.0-84.0-0.0","A2OPYRV3GLAPS1","img_art/8.jpg","4","","","","","","","","","","","","","","","","","","","","","","","","",""
"1068","","image-button-response","86","443019","0.0-85.0-0.0","A2OPYRV3GLAPS1","img_art/8.jpg","5","","","","","","","","","","","","","","","","","","","","","","","","",""
"null","","html-keyboard-response","87","444022","0.0-86.0","A2OPYRV3GLAPS1","<p style=""font-size: 48px;"">+</p>","","","","","null","allTrialResponses","1000","1","6","img_art/8.jpg","-15","Mixed feelings. The hovering face disturbs me.","Aaron,Noah,Dustin,Elijah,Nicholas,Kyle","The shapes and colors work well together.,40,20,20","not sure what to make of this - just neutral again,-1,260,20","I like the colors. But I don't like the faces, they look distraught. Faces and sharp shapes make me anxious,1,20,20","Makes me feel nice,23,80,20","The face bothers me,-25,240,20","Not too bad despite the chaos.,16,340,20","Dustin","I like the colors. But I don't like the faces, they look distraught. Faces and sharp shapes make me anxious,1,20,20","Nicholas","The face bothers me,-25,240,20","Kyle","Not too bad despite the chaos.,16,340,20","2"
"23679","","survey-text","88","467707","0.0-87.0-0.0","A2OPYRV3GLAPS1","","","","{""Q0"":""I like the colors. I'd love it if it were on a huge canvas that I could get lost in.""}","","","","","","","","","","","","","","","","","","","","","","",""
"2341.5","","image-slider-response","89","470051","0.0-88.0","A2OPYRV3GLAPS1","","","","","21","","","","","","","","","","","","","","","","","","","","","",""
"4670","","image-button-response","90","475058","0.0-89.0","A2OPYRV3GLAPS1","img_art/1.jpg","0","","","","","","","","","","","","","","","","","","","","","","","","",""
"927","","image-button-response","91","475988","0.0-90.0","A2OPYRV3GLAPS1","img_art/1.jpg","0","","","","","","","","","","","","","","","","","","","","","","","","",""
"4573","","image-button-response","92","480564","0.0-91.0-0.0","A2OPYRV3GLAPS1","img_art/1.jpg","3","","","","","","","","","","","","","","","","","","","","","","","","",""
"2741","","image-button-response","93","483309","0.0-92.0-0.0","A2OPYRV3GLAPS1","img_art/1.jpg","4","","","","","","","","","","","","","","","","","","","","","","","","",""
"null","","html-keyboard-response","94","484311","0.0-93.0","A2OPYRV3GLAPS1","<p style=""font-size: 48px;"">+</p>","","","","","null","allTrialResponses","1000","1","7","img_art/1.jpg","21","I like the colors. I'd love it if it were on a huge canvas that I could get lost in.","Tyler,Miguel,Dustin,Brandon,Nicholas,Kyle","This looks like the same artist as the first picture, but cropped? Looks incomplete.,28,320,20","Doesn't represent anything in particular.,-47,160,20","Too messy. Just looks like a mess of dark colors.,-20,20,20","Taco Bell wallpaper. Doesn't really make me feel anything,3,320,20","Love the colors but it makes me feel like someone is looking at me through it,38,240,20","Too similar to some of the other pieces,-18,340,20","Tyler","This looks like the same artist as the first picture, but cropped? Looks incomplete.,28,320,20","Brandon","Taco Bell wallpaper. Doesn't really make me feel anything,3,320,20","Nicholas","Love the colors but it makes me feel like someone is looking at me through it,38,240,20","2"
"29111","","survey-text","95","513428","0.0-94.0-0.0","A2OPYRV3GLAPS1","","","","{""Q0"":""I think it's interesting, but I don't find it pleasing to look at. Looks a bit like a letter from a foreign alphabet.""}","","","","","","","","","","","","","","","","","","","","","","",""
"3854.2999997138977","","image-slider-response","96","517285","0.0-95.0","A2OPYRV3GLAPS1","","","","","-4","","","","","","","","","","","","","","","","","","","","","",""
"3532","","image-button-response","97","522290","0.0-96.0","A2OPYRV3GLAPS1","img_art/30.jpg","0","","","","","","","","","","","","","","","","","","","","","","","","",""
"248","","image-button-response","98","522541","0.0-97.0","A2OPYRV3GLAPS1","img_art/30.jpg","0","","","","","","","","","","","","","","","","","","","","","","","","",""
"725","","image-button-response","99","523269","0.0-98.0-0.0","A2OPYRV3GLAPS1","img_art/30.jpg","2","","","","","","","","","","","","","","","","","","","","","","","","",""
"4804","","image-button-response","100","528077","0.0-99.0-0.0","A2OPYRV3GLAPS1","img_art/30.jpg","4","","","","","","","","","","","","","","","","","","","","","","","","",""
"null","","html-keyboard-response","101","529582","0.0-100.0","A2OPYRV3GLAPS1","<p style=""font-size: 48px;"">+</p>","","","","","null","allTrialResponses","1500","1","8","img_art/30.jpg","-4","I think it's interesting, but I don't find it pleasing to look at. Looks a bit like a letter from a foreign alphabet.","Tyler,Travis,Ryan,Brandon,Nicholas,Isaiah","Interesting brushstroke work, but not particularly memorable.,21,320,20","I didn't like this...it looks like someone just finger painted it.,-10,260,20","Love how the red stands out,20,380,20","Too abstract, looks like something I could paint,-50,320,20","Too much like childrens finger paint. I dont like the smear of blended colors,-50,240,20","The painting doesn't elicit any response from me.,0,300,20","Tyler","Interesting brushstroke work, but not particularly memorable.,21,320,20","Ryan","Love how the red stands out,20,380,20","Nicholas","Too much like childrens finger paint. I dont like the smear of blended colors,-50,240,20","2"
"24850","","survey-text","102","554438","0.0-101.0-0.0","A2OPYRV3GLAPS1","","","","{""Q0"":""I find this oddly compelling. I wonder what material it's in. I doesn't look like paint.""}","","","","","","","","","","","","","","","","","","","","","","",""
"2373.4000000953674","","image-slider-response","103","556814","0.0-102.0","A2OPYRV3GLAPS1","","","","","22","","","","","","","","","","","","","","","","","","","","","",""
"3157","","image-button-response","104","561820","0.0-103.0","A2OPYRV3GLAPS1","img_art/25.jpg","1","","","","","","","","","","","","","","","","","","","","","","","","",""
"999","","image-button-response","105","562822","0.0-104.0","A2OPYRV3GLAPS1","img_art/25.jpg","1","","","","","","","","","","","","","","","","","","","","","","","","",""
"6878","","image-button-response","106","569703","0.0-105.0-0.0","A2OPYRV3GLAPS1","img_art/25.jpg","3","","","","","","","","","","","","","","","","","","","","","","","","",""
"1099","","image-button-response","107","570806","0.0-106.0-0.0","A2OPYRV3GLAPS1","img_art/25.jpg","2","","","","","","","","","","","","","","","","","","","","","","","","",""
"null","","html-keyboard-response","108","571812","0.0-107.0","A2OPYRV3GLAPS1","<p style=""font-size: 48px;"">+</p>","","","","","null","allTrialResponses","1000","1","9","img_art/25.jpg","22","I find this oddly compelling. I wonder what material it's in. I doesn't look like paint.","Tyler,Victor,Ryan,Cole,Nicholas,Spencer","Meh. Hardly abstract, though.,-40,320,20","Love the colors, and how it's simple yet complex,25,340,20","Reminds me of Mr. Burns on drugs in the Simpsons,-50,380,20","Its scary. It looks like someone overlooking hell,-34,200,20","It is interesting but too creapy for me,-29,240,20","I really like it, very simple, very tribal,38,120,20","Victor","Love the colors, and how it's simple yet complex,25,340,20","Cole","Its scary. It looks like someone overlooking hell,-34,200,20","Ryan","Reminds me of Mr. Burns on drugs in the Simpsons,-50,380,20","2"
"20054","","survey-text","109","591871","0.0-108.0-0.0","A2OPYRV3GLAPS1","","","","{""Q0"":""It's pretty, but I don't find it memorable. Kind of washes over me without sticking.""}","","","","","","","","","","","","","","","","","","","","","","",""
"3037.3999996185303","","image-slider-response","110","594911","0.0-109.0","A2OPYRV3GLAPS1","","","","","7","","","","","","","","","","","","","","","","","","","","","",""
"null","","image-button-response","111","599915","0.0-110.0","A2OPYRV3GLAPS1","img_art/22.jpg","null","","","","","","","","","","","","","","","","","","","","","","","","",""
"626","","image-button-response","112","600543","0.0-111.0","A2OPYRV3GLAPS1","img_art/22.jpg","2","","","","","","","","","","","","","","","","","","","","","","","","",""
"3039","","image-button-response","113","603584","0.0-112.0-0.0","A2OPYRV3GLAPS1","img_art/22.jpg","4","","","","","","","","","","","","","","","","","","","","","","","","",""
"2229","","image-button-response","114","605816","0.0-113.0-0.0","A2OPYRV3GLAPS1","img_art/22.jpg","5","","","","","","","","","","","","","","","","","","","","","","","","",""
"null","","html-keyboard-response","115","607323","0.0-114.0","A2OPYRV3GLAPS1","<p style=""font-size: 48px;"">+</p>","","","","","null","allTrialResponses","1500","1","10","img_art/22.jpg","7","It's pretty, but I don't find it memorable. Kind of washes over me without sticking.","Alex,Victor,Ryan,Cole,Bradley,Lucas","Not a huge fan of the blocks, also very abstract, I have no idea what it is,8,100,20","I don't really know why, I just like looking at it,10,340,20","Very generic, seen many times before,-43,380,20","Bright colors feel warm,22,200,20","I like this one. There is a lot to see if you keep looking for it.,27,300,20","Unfortunately, I can't see anything special in this painting.,-20,380,20","Ryan","Very generic, seen many times before,-43,380,20","Bradley","I like this one. There is a lot to see if you keep looking for it.,27,300,20","Lucas","Unfortunately, I can't see anything special in this painting.,-20,380,20","2"
"5044","","survey-text","116","612375","0.0-115.0-0.0","A2OPYRV3GLAPS1","","","","{""Q0"":""our""}","","","","","","","","","","","","","","","","","","","","","","",""
"34047","","survey-text","117","646424","0.0-116.0-0.0","A2OPYRV3GLAPS1","","","","{""Q0"":""I like this. I like how the color shifts in the background change the way I see the foreground splatter painting.""}","","","","","","","","","","","","","","","","","","","","","","",""
"2076.5999999046326","","image-slider-response","118","648505","0.0-117.0","A2OPYRV3GLAPS1","","","","","33","","","","","","","","","","","","","","","","","","","","","",""
"3342","","image-button-response","119","653512","0.0-118.0","A2OPYRV3GLAPS1","img_art/13.jpg","1","","","","","","","","","","","","","","","","","","","","","","","","",""
"2253","","image-button-response","120","655768","0.0-119.0","A2OPYRV3GLAPS1","img_art/13.jpg","3","","","","","","","","","","","","","","","","","","","","","","","","",""
"1903","","image-button-response","121","657673","0.0-120.0-0.0","A2OPYRV3GLAPS1","img_art/13.jpg","4","","","","","","","","","","","","","","","","","","","","","","","","",""
"2237","","image-button-response","122","659913","0.0-121.0-0.0","A2OPYRV3GLAPS1","img_art/13.jpg","1","","","","","","","","","","","","","","","","","","","","","","","","",""
"null","","html-keyboard-response","123","660416","0.0-122.0","A2OPYRV3GLAPS1","<p style=""font-size: 48px;"">+</p>","","","","","null","allTrialResponses","500","1","11","img_art/13.jpg","33","I like this. I like how the color shifts in the background change the way I see the foreground splatter painting.","Grant,Connor,Ryan,Andrew,Bradley,Lucas","This elicits no reaction in me.,0,200,20","Color palette is complementary,40,240,20","Feels calm and could be placed in anyones house,43,380,20","It makes me think of sitting inside on a rainy day while drinking a warm coffee,32,160,20","I like the colors used in this piece.,2,300,20","Incredible, curious.,20,380,20","Andrew","It makes me think of sitting inside on a rainy day while drinking a warm coffee,32,160,20","Bradley","I like the colors used in this piece.,2,300,20","Connor","Color palette is complementary,40,240,20","2"
"38430","","survey-text","124","698850","0.0-123.0-0.0","A2OPYRV3GLAPS1","","","","{""Q0"":""I think this does a really good job of evoking a scene, without being very detailed or specific. I can \""feel\"" the setting when I look at it.""}","","","","","","","","","","","","","","","","","","","","","","",""
"2341.7999997138977","","image-slider-response","125","701194","0.0-124.0","A2OPYRV3GLAPS1","","","","","25","","","","","","","","","","","","","","","","","","","","","",""
"3637","","image-button-response","126","706198","0.0-125.0","A2OPYRV3GLAPS1","img_art/26.jpg","2","","","","","","","","","","","","","","","","","","","","","","","","",""
"1674","","image-button-response","127","707875","0.0-126.0","A2OPYRV3GLAPS1","img_art/26.jpg","4","","","","","","","","","","","","","","","","","","","","","","","","",""
"3453","","image-button-response","128","711331","0.0-127.0-0.0","A2OPYRV3GLAPS1","img_art/26.jpg","3","","","","","","","","","","","","","","","","","","","","","","","","",""
"1141","","image-button-response","129","712475","0.0-128.0-0.0","A2OPYRV3GLAPS1","img_art/26.jpg","2","","","","","","","","","","","","","","","","","","","","","","","","",""
"null","","html-keyboard-response","130","713481","0.0-129.0","A2OPYRV3GLAPS1","<p style=""font-size: 48px;"">+</p>","","","","","null","allTrialResponses","1000","1","12","img_art/26.jpg","25","I think this does a really good job of evoking a scene, without being very detailed or specific. I can ""feel"" the setting when I look at it.","Austin,Connor,Shawn,Andrew,Bradley,Justin","Like the soft blend of colors,26,240,20","City scene in a park,23,240,20","Not great use of space and brush strokes seem indistinct/accidental,-30,100,20","Makes me want to walk down a cool street,20,160,20","I like this. Looks like a city street and I can use my imagination to make it come alive.,15,300,20","It looks boring and too rough.,-9,280,20","Bradley","I like this. Looks like a city street and I can use my imagination to make it come alive.,15,300,20","Andrew","Makes me want to walk down a cool street,20,160,20","Shawn","Not great use of space and brush strokes seem indistinct/accidental,-30,100,20","2"
"20500","","survey-text","131","733987","0.0-130.0-0.0","A2OPYRV3GLAPS1","","","","{""Q0"":""I find this quite ugly. I think maybe it's supposed to be, but I still don't like looking at it.""}","","","","","","","","","","","","","","","","","","","","","","",""
"2261.5999999046326","","image-slider-response","132","736251","0.0-131.0","A2OPYRV3GLAPS1","","","","","-21","","","","","","","","","","","","","","","","","","","","","",""
"4094","","image-button-response","133","741257","0.0-132.0","A2OPYRV3GLAPS1","img_art/7.jpg","1","","","","","","","","","","","","","","","","","","","","","","","","",""
"1296","","image-button-response","134","742556","0.0-133.0","A2OPYRV3GLAPS1","img_art/7.jpg","1","","","","","","","","","","","","","","","","","","","","","","","","",""
"1837","","image-button-response","135","744396","0.0-134.0-0.0","A2OPYRV3GLAPS1","img_art/7.jpg","4","","","","","","","","","","","","","","","","","","","","","","","","",""
"389","","image-button-response","136","744788","0.0-135.0-0.0","A2OPYRV3GLAPS1","img_art/7.jpg","3","","","","","","","","","","","","","","","","","","","","","","","","",""
"null","","html-keyboard-response","137","746293","0.0-136.0","A2OPYRV3GLAPS1","<p style=""font-size: 48px;"">+</p>","","","","","null","allTrialResponses","1500","1","13","img_art/7.jpg","-21","I find this quite ugly. I think maybe it's supposed to be, but I still don't like looking at it.","Sean,Antonio,Shawn,Andrew,Bradley,Mitchell","does not look good,-42,40,20","Looks like dirt on the ground. Makes me feel unclean,-37,220,20","Like the tactile quality,30,100,20","It makes me think of new archaeology discoveries,15,160,20","Is this cookie dough?  Yum!,-10,300,20","Looking through a microscope at the ground at a beach.,20,180,20","Antonio","Looks like dirt on the ground. Makes me feel unclean,-37,220,20","Bradley","Is this cookie dough?  Yum!,-10,300,20","Andrew","It makes me think of new archaeology discoveries,15,160,20","2"
"22826","","survey-text","138","769124","0.0-137.0-0.0","A2OPYRV3GLAPS1","","","","{""Q0"":""Something about the contrast of the red and the various greens make me feel a bit seasick.""}","","","","","","","","","","","","","","","","","","","","","","",""
"2108.800000190735","","image-slider-response","139","771236","0.0-138.0","A2OPYRV3GLAPS1","","","","","-24","","","","","","","","","","","","","","","","","","","","","",""
"null","","image-button-response","140","776240","0.0-139.0","A2OPYRV3GLAPS1","img_art/2.jpg","null","","","","","","","","","","","","","","","","","","","","","","","","",""
"833","","image-button-response","141","777076","0.0-140.0","A2OPYRV3GLAPS1","img_art/2.jpg","4","","","","","","","","","","","","","","","","","","","","","","","","",""
"6022","","image-button-response","142","783101","0.0-141.0-0.0","A2OPYRV3GLAPS1","img_art/2.jpg","1","","","","","","","","","","","","","","","","","","","","","","","","",""
"493","","image-button-response","143","783597","0.0-142.0-0.0","A2OPYRV3GLAPS1","img_art/2.jpg","2","","","","","","","","","","","","","","","","","","","","","","","","",""
"null","","html-keyboard-response","144","785099","0.0-143.0","A2OPYRV3GLAPS1","<p style=""font-size: 48px;"">+</p>","","","","","null","allTrialResponses","1500","1","14","img_art/2.jpg","-24","Something about the contrast of the red and the various greens make me feel a bit seasick.","Peter,Antonio,Jared,Andrew,Bradley,John","I don't feel indifferent,4,320,20","Colors are drab and cause a sense of blandness,-28,220,20","looks like a happy child,15,400,20","Doesn't give me a reaction,10,160,20","I'm not fond of the colors in this one.,-33,300,20","Its meh. Doesnt illicit any strong feelings in me,1,120,20","Bradley","I'm not fond of the colors in this one.,-33,300,20","Antonio","Colors are drab and cause a sense of blandness,-28,220,20","Jared","looks like a happy child,15,400,20","2"
"29150","","survey-text","145","814253","0.0-144.0-0.0","A2OPYRV3GLAPS1","","","","{""Q0"":""Feels silly. Sort of makes me want to laugh, but also makes me feel kind of disgusted.""}","","","","","","","","","","","","","","","","","","","","","","",""
"2094.199999809265","","image-slider-response","146","816350","0.0-145.0","A2OPYRV3GLAPS1","","","","","-12","","","","","","","","","","","","","","","","","","","","","",""
"4533","","image-button-response","147","821356","0.0-146.0","A2OPYRV3GLAPS1","img_art/16.jpg","1","","","","","","","","","","","","","","","","","","","","","","","","",""
"7639","","image-button-response","148","828998","0.0-147.0","A2OPYRV3GLAPS1","img_art/16.jpg","2","","","","","","","","","","","","","","","","","","","","","","","","",""
"1021","","image-button-response","149","830022","0.0-148.0-0.0","A2OPYRV3GLAPS1","img_art/16.jpg","1","","","","","","","","","","","","","","","","","","","","","","","","",""
"5316","","image-button-response","150","835342","0.0-149.0-0.0","A2OPYRV3GLAPS1","img_art/16.jpg","0","","","","","","","","","","","","","","","","","","","","","","","","",""
"null","","html-keyboard-response","151","836345","0.0-150.0","A2OPYRV3GLAPS1","<p style=""font-size: 48px;"">+</p>","","","","","null","allTrialResponses","1000","1","15","img_art/16.jpg","-12","Feels silly. Sort of makes me want to laugh, but also makes me feel kind of disgusted.","Chase,Antonio,Jared,Corey,Bradley,Gabriel","Seems very twisted and dark.,-35,120,20","Did not like at all. I think something sinister going on in the background and the bear a diversion,-50,220,20","it looks psychotic,-31,400,20","i like how it incorporates mixed visual art with the photo of the bear and the drawings,30,260,20","This feels like there's some kind of pedofile thing going on here.,-50,300,20","its disturbing! what the heck,-27,160,20","Jared","it looks psychotic,-31,400,20","Antonio","Did not like at all. I think something sinister going on in the background and the bear a diversion,-50,220,20","Chase","Seems very twisted and dark.,-35,120,20","2"
"3660","","survey-text","152","840015","0.0-151.0-0.0","A2OPYRV3GLAPS1","","","","{""Q0"":""course""}","","","","","","","","","","","","","","","","","","","","","","",""
"8938","","survey-text","153","848954","0.0-152.0-0.0","A2OPYRV3GLAPS1","","","","{""Q0"":""I love the sense of depth.""}","","","","","","","","","","","","","","","","","","","","","","",""
"1861.2000002861023","","image-slider-response","154","850819","0.0-153.0","A2OPYRV3GLAPS1","","","","","21","","","","","","","","","","","","","","","","","","","","","",""
"null","","image-button-response","155","855827","0.0-154.0","A2OPYRV3GLAPS1","img_art/29.jpg","null","","","","","","","","","","","","","","","","","","","","","","","","",""
"7752","","image-button-response","156","863582","0.0-155.0","A2OPYRV3GLAPS1","img_art/29.jpg","3","","","","","","","","","","","","","","","","","","","","","","","","",""
"2277","","image-button-response","157","865861","0.0-156.0-0.0","A2OPYRV3GLAPS1","img_art/29.jpg","1","","","","","","","","","","","","","","","","","","","","","","","","",""
"653","","image-button-response","158","866517","0.0-157.0-0.0","A2OPYRV3GLAPS1","img_art/29.jpg","2","","","","","","","","","","","","","","","","","","","","","","","","",""
"null","","html-keyboard-response","159","867019","0.0-158.0","A2OPYRV3GLAPS1","<p style=""font-size: 48px;"">+</p>","","","","","null","allTrialResponses","500","1","16","img_art/29.jpg","21","I love the sense of depth.","Chase,Antonio,Jared,Steven,Evan,Patrick","This is ugly as fuck,-50,120,20","Depressing and with that big red x on it just makes me not like it.,-33,220,20","not digging the paintbrush,1,400,20","Yeah, I don't know. It's clearly a situation where art is the reject of something more,-27,160,20","It makes me feel as though the artist put in a lot of time and effort and then gave up,10,140,20","I don't like the black,-50,280,20","Steven","Yeah, I don't know. It's clearly a situation where art is the reject of something more,-27,160,20","Antonio","Depressing and with that big red x on it just makes me not like it.,-33,220,20","Jared","not digging the paintbrush,1,400,20","2"
"31294","","survey-text","160","898320","0.0-159.0-0.0","A2OPYRV3GLAPS1","","","","{""Q0"":""This is very evocative. It makes me curious to know more about what I'm looking at.""}","","","","","","","","","","","","","","","","","","","","","","",""
"2395.5","","image-slider-response","161","900719","0.0-160.0","A2OPYRV3GLAPS1","","","","","21","","","","","","","","","","","","","","","","","","","","","",""
"4175","","image-button-response","162","905724","0.0-161.0","A2OPYRV3GLAPS1","img_art/20.jpg","0","","","","","","","","","","","","","","","","","","","","","","","","",""
"4897","","image-button-response","163","910624","0.0-162.0","A2OPYRV3GLAPS1","img_art/20.jpg","0","","","","","","","","","","","","","","","","","","","","","","","","",""
"1054","","image-button-response","164","911681","0.0-163.0-0.0","A2OPYRV3GLAPS1","img_art/20.jpg","0","","","","","","","","","","","","","","","","","","","","","","","","",""
"1190","","image-button-response","165","916576","0.0-163.1-0.1","A2OPYRV3GLAPS1","img_art/20.jpg","4","","","","","","","","","","","","","","","","","","","","","","","","",""
"1117","","image-button-response","166","917697","0.0-164.0-0.0","A2OPYRV3GLAPS1","img_art/20.jpg","1","","","","","","","","","","","","","","","","","","","","","","","","",""
"null","","html-keyboard-response","167","919202","0.0-165.0","A2OPYRV3GLAPS1","<p style=""font-size: 48px;"">+</p>","","","","","null","allTrialResponses","1500","1","17","img_art/20.jpg","21","This is very evocative. It makes me curious to know more about what I'm looking at.","Luis,Antonio,Jared,Steven,Thomas,Adam","I love the way it expresses dark nature and uncontrolled situations.,44,400,20","Makes me feel weary,21,220,20","i like the rounded edges,18,400,20","It's okay, I see what looks like a truck laying on it's side. Meh,10,160,20","I really enjoy the contrast of colors (blue/red/orange),30,220,20","Melty picture. Reminiscent of Dali.,10,40,20","Luis","I love the way it expresses dark nature and uncontrolled situations.,44,400,20","Thomas","I really enjoy the contrast of colors (blue/red/orange),30,220,20","Antonio","Makes me feel weary,21,220,20","4"
"18139","","survey-text","168","937345","0.0-166.0-0.0","A2OPYRV3GLAPS1","","","","{""Q0"":""It's like the artists hand is melting into the painting. Disturbing!""}","","","","","","","","","","","","","","","","","","","","","","",""
"1973.1999998092651","","image-slider-response","169","939322","0.0-167.0","A2OPYRV3GLAPS1","","","","","-21","","","","","","","","","","","","","","","","","","","","","",""
"null","","image-button-response","170","944325","0.0-168.0","A2OPYRV3GLAPS1","img_art/4.jpg","null","","","","","","","","","","","","","","","","","","","","","","","","",""
"6018","","image-button-response","171","950346","0.0-169.0","A2OPYRV3GLAPS1","img_art/4.jpg","0","","","","","","","","","","","","","","","","","","","","","","","","",""
"1134","","image-button-response","172","951482","0.0-170.0-0.0","A2OPYRV3GLAPS1","img_art/4.jpg","1","","","","","","","","","","","","","","","","","","","","","","","","",""
"6725","","image-button-response","173","958210","0.0-171.0-0.0","A2OPYRV3GLAPS1","img_art/4.jpg","2","","","","","","","","","","","","","","","","","","","","","","","","",""
"null","","html-keyboard-response","174","958712","0.0-172.0","A2OPYRV3GLAPS1","<p style=""font-size: 48px;"">+</p>","","","","","null","allTrialResponses","500","1","18","img_art/4.jpg","-21","It's like the artists hand is melting into the painting. Disturbing!","Luis,Antonio,Luke,Benjamin,Thomas,Charles","Its just not giving the vibe i should be finding,-31,400,20","Blah feeling, nothing,-8,220,20","it looks like a simple finger painting, yet i liked the color choices,-12,20,20","I like the bold style.,10,260,20","This image doesn't invoke anything in me,-9,220,20","It's ok, theres nothing that draws me away from it I guess,0,100,20","Luis","Its just not giving the vibe i should be finding,-31,400,20","Antonio","Blah feeling, nothing,-8,220,20","Luke","it looks like a simple finger painting, yet i liked the color choices,-12,20,20","4"
"21365","","survey-text","175","980082","0.0-173.0-0.0","A2OPYRV3GLAPS1","","","","{""Q0"":""I like the colors and the contrast between very different brushstroke styles.""}","","","","","","","","","","","","","","","","","","","","","","",""
"1981.6000003814697","","image-slider-response","176","982066","0.0-174.0","A2OPYRV3GLAPS1","","","","","20","","","","","","","","","","","","","","","","","","","","","",""
"null","","image-button-response","177","987073","0.0-175.0","A2OPYRV3GLAPS1","img_art/27.jpg","null","","","","","","","","","","","","","","","","","","","","","","","","",""
"3977","","image-button-response","178","991051","0.0-176.0","A2OPYRV3GLAPS1","img_art/27.jpg","0","","","","","","","","","","","","","","","","","","","","","","","","",""
"2253","","image-button-response","179","993307","0.0-177.0-0.0","A2OPYRV3GLAPS1","img_art/27.jpg","2","","","","","","","","","","","","","","","","","","","","","","","","",""
"1421","","image-button-response","180","994732","0.0-178.0-0.0","A2OPYRV3GLAPS1","img_art/27.jpg","4","","","","","","","","","","","","","","","","","","","","","","","","",""
"null","","html-keyboard-response","181","995737","0.0-179.0","A2OPYRV3GLAPS1","<p style=""font-size: 48px;"">+</p>","","","","","null","allTrialResponses","1000","1","19","img_art/27.jpg","20","I like the colors and the contrast between very different brushstroke styles.","Luis,Antonio,Luke,Scott,Nathaniel,Michael","Love the representation of home,22,400,20","Didnt actually make me feel anything, sort of bland,3,220,20","it looks very simple and childlike,-31,20,20","again looks like childrens artwork,-40,20,20","Looks like a splash of different colors and designs without purpose,-44,220,20","Anyone could do that.,-31,140,20","Luis","Love the representation of home,22,400,20","Luke","it looks very simple and childlike,-31,20,20","Nathaniel","Looks like a splash of different colors and designs without purpose,-44,220,20","4"
"44527","","survey-text","182","1040268","0.0-180.0-0.0","A2OPYRV3GLAPS1","","","","{""Q0"":""Feels trippy, but in a disturbing way. Like, an object disintegrating before the artist's eyes.""}","","","","","","","","","","","","","","","","","","","","","","",""
"3381.699999809265","","image-slider-response","183","1043653","0.0-181.0","A2OPYRV3GLAPS1","","","","","12","","","","","","","","","","","","","","","","","","","","","",""
"4557","","image-button-response","184","1048657","0.0-182.0","A2OPYRV3GLAPS1","img_art/3.jpg","1","","","","","","","","","","","","","","","","","","","","","","","","",""
"793","","image-button-response","185","1049453","0.0-183.0","A2OPYRV3GLAPS1","img_art/3.jpg","1","","","","","","","","","","","","","","","","","","","","","","","","",""
"4230","","image-button-response","186","1053686","0.0-184.0-0.0","A2OPYRV3GLAPS1","img_art/3.jpg","3","","","","","","","","","","","","","","","","","","","","","","","","",""
"1467","","image-button-response","187","1055158","0.0-185.0-0.0","A2OPYRV3GLAPS1","img_art/3.jpg","2","","","","","","","","","","","","","","","","","","","","","","","","",""
"null","","html-keyboard-response","188","1056161","0.0-186.0","A2OPYRV3GLAPS1","<p style=""font-size: 48px;"">+</p>","","","","","null","allTrialResponses","1000","1","20","img_art/3.jpg","12","Feels trippy, but in a disturbing way. Like, an object disintegrating before the artist's eyes.","Luis,Vincent,Luke,Kenneth,Nathaniel,Jesse","I dont really feel anything from this, i cant see or understand any of it,-20,400,20","Iike this one it's a piece that I need to spend more time with to understand how i feel about it,20,360,20","it makes me feel really angry,-20,20,20","Reminds me of blood.,-28,300,20","Just scribbles. People buy that?,-47,220,20","No substance or feeling to it,-20,80,20","Vincent","Iike this one it's a piece that I need to spend more time with to understand how i feel about it,20,360,20","Kenneth","Reminds me of blood.,-28,300,20","Luke","it makes me feel really angry,-20,20,20","4"
"2114","","survey-text","189","1058285","0.0-187.0-0.0","A2OPYRV3GLAPS1","","","","{""Q0"":""we""}","","","","","","","","","","","","","","","","","","","","","","",""
"26455","","survey-text","190","1084741","0.0-188.0-0.0","A2OPYRV3GLAPS1","","","","{""Q0"":""Feels like an experiment with different brushstrokes. Doesn't really add up to anything for me.""}","","","","","","","","","","","","","","","","","","","","","","",""
"3013.199999809265","","image-slider-response","191","1087758","0.0-189.0","A2OPYRV3GLAPS1","","","","","10","","","","","","","","","","","","","","","","","","","","","",""
"3949","","image-button-response","192","1092762","0.0-190.0","A2OPYRV3GLAPS1","img_art/10.jpg","2","","","","","","","","","","","","","","","","","","","","","","","","",""
"152","","image-button-response","193","1092918","0.0-191.0","A2OPYRV3GLAPS1","img_art/10.jpg","2","","","","","","","","","","","","","","","","","","","","","","","","",""
"3294","","image-button-response","194","1096215","0.0-192.0-0.0","A2OPYRV3GLAPS1","img_art/10.jpg","3","","","","","","","","","","","","","","","","","","","","","","","","",""
"476","","image-button-response","195","1096694","0.0-193.0-0.0","A2OPYRV3GLAPS1","img_art/10.jpg","4","","","","","","","","","","","","","","","","","","","","","","","","",""
"null","","html-keyboard-response","196","1097197","0.0-194.0","A2OPYRV3GLAPS1","<p style=""font-size: 48px;"">+</p>","","","","","null","allTrialResponses","500","1","21","img_art/10.jpg","10","Feels like an experiment with different brushstrokes. Doesn't really add up to anything for me.","Ethan,Vincent,Luke,Kenneth,Samuel,Stephen","The flow of lines is off. There are curvy and straight angry lines. It's not flattering at all.,-27,120,20","A very conversational piece could be of many different ideas,38,360,20","it reminds me of a musical instrument,19,20,20","I cant tell what this is supposed to be, but I enjoy the simplicity of it.,28,300,20","feeling the turmoil and ride,12,400,20","Very nice painting, would like it more with different color choice.,6,140,20","Luke","it reminds me of a musical instrument,19,20,20","Kenneth","I cant tell what this is supposed to be, but I enjoy the simplicity of it.,28,300,20","Samuel","feeling the turmoil and ride,12,400,20","4"
"43555","","survey-text","197","1140759","0.0-195.0-0.0","A2OPYRV3GLAPS1","","","","{""Q0"":""I like this. It makes me want to imagine what the artist is seeing. It makes me think about the every person's eyes transform the world. ""}","","","","","","","","","","","","","","","","","","","","","","",""
"2126.2000002861023","","image-slider-response","198","1142887","0.0-196.0","A2OPYRV3GLAPS1","","","","","26","","","","","","","","","","","","","","","","","","","","","",""
"3820","","image-button-response","199","1147892","0.0-197.0","A2OPYRV3GLAPS1","img_art/19.jpg","2","","","","","","","","","","","","","","","","","","","","","","","","",""
"970","","image-button-response","200","1148864","0.0-198.0","A2OPYRV3GLAPS1","img_art/19.jpg","2","","","","","","","","","","","","","","","","","","","","","","","","",""
"2485","","image-button-response","201","1151352","0.0-199.0-0.0","A2OPYRV3GLAPS1","img_art/19.jpg","4","","","","","","","","","","","","","","","","","","","","","","","","",""
"1692","","image-button-response","202","1153048","0.0-200.0-0.0","A2OPYRV3GLAPS1","img_art/19.jpg","1","","","","","","","","","","","","","","","","","","","","","","","","",""
"null","","html-keyboard-response","203","1154550","0.0-201.0","A2OPYRV3GLAPS1","<p style=""font-size: 48px;"">+</p>","","","","","null","allTrialResponses","1500","1","22","img_art/19.jpg","26","I like this. It makes me want to imagine what the artist is seeing. It makes me think about the every person's eyes transform the world. ","Mark,Seth,Luke,Kenneth,Samuel,Isaac","Feels like a cafe in Paris.,35,80,20","I wasn't sure if I liked it or hated it. It oddly reminds me of a clothing store.,11,60,20","it draws my eye and my mind fills in the spaces,14,20,20","TOo much brown.,-24,300,20","city life energy,8,400,20","It is too busy.,-34,280,20","Luke","it draws my eye and my mind fills in the spaces,14,20,20","Samuel","city life energy,8,400,20","Seth","I wasn't sure if I liked it or hated it. It oddly reminds me of a clothing store.,11,60,20","4"
"19211","","survey-text","204","1173768","0.0-202.0-0.0","A2OPYRV3GLAPS1","","","","{""Q0"":""Compelling. Feels like a lot is going on. I could look at it for a long time.""}","","","","","","","","","","","","","","","","","","","","","","",""
"2197.0999999046326","","image-slider-response","205","1175968","0.0-203.0","A2OPYRV3GLAPS1","","","","","24","","","","","","","","","","","","","","","","","","","","","",""
"4711","","image-button-response","206","1180975","0.0-204.0","A2OPYRV3GLAPS1","img_art/12.jpg","1","","","","","","","","","","","","","","","","","","","","","","","","",""
"233","","image-button-response","207","1181210","0.0-205.0","A2OPYRV3GLAPS1","img_art/12.jpg","1","","","","","","","","","","","","","","","","","","","","","","","","",""
"3510","","image-button-response","208","1184723","0.0-206.0-0.0","A2OPYRV3GLAPS1","img_art/12.jpg","3","","","","","","","","","","","","","","","","","","","","","","","","",""
"923","","image-button-response","209","1185650","0.0-207.0-0.0","A2OPYRV3GLAPS1","img_art/12.jpg","5","","","","","","","","","","","","","","","","","","","","","","","","",""
"null","","html-keyboard-response","210","1187151","0.0-208.0","A2OPYRV3GLAPS1","<p style=""font-size: 48px;"">+</p>","","","","","null","allTrialResponses","1500","1","23","img_art/12.jpg","24","Compelling. Feels like a lot is going on. I could look at it for a long time.","Edward,Seth,Luke,Joseph,Samuel,Jacob","It looks like old lady upholstery,12,60,20","This is beautiful. It looks like 1,000 different sunrises and sunsets.,44,60,20","don't feel a lot but it seems very simple,-6,20,20","Yay! Lots of people, lots of lives.,25,220,20","feels cluttered,-11,400,20","I like this concept.,11,340,20","Seth","This is beautiful. It looks like 1,000 different sunrises and sunsets.,44,60,20","Joseph","Yay! Lots of people, lots of lives.,25,220,20","Jacob","I like this concept.,11,340,20","4"
"19395","","survey-text","211","1206553","0.0-209.0-0.0","A2OPYRV3GLAPS1","","","","{""Q0"":""A tree in the desert, surrounded by flowers. Beautiful.""}","","","","","","","","","","","","","","","","","","","","","","",""
"3221.300000190735","","image-slider-response","212","1209777","0.0-210.0","A2OPYRV3GLAPS1","","","","","37","","","","","","","","","","","","","","","","","","","","","",""
"3942","","image-button-response","213","1214784","0.0-211.0","A2OPYRV3GLAPS1","img_art/14.jpg","2","","","","","","","","","","","","","","","","","","","","","","","","",""
"1296","","image-button-response","214","1216082","0.0-212.0","A2OPYRV3GLAPS1","img_art/14.jpg","4","","","","","","","","","","","","","","","","","","","","","","","","",""
"2933","","image-button-response","215","1219018","0.0-213.0-0.0","A2OPYRV3GLAPS1","img_art/14.jpg","2","","","","","","","","","","","","","","","","","","","","","","","","",""
"349","","image-button-response","216","1219370","0.0-214.0-0.0","A2OPYRV3GLAPS1","img_art/14.jpg","1","","","","","","","","","","","","","","","","","","","","","","","","",""
"null","","html-keyboard-response","217","1220874","0.0-215.0","A2OPYRV3GLAPS1","<p style=""font-size: 48px;"">+</p>","","","","","null","allTrialResponses","1500","1","24","img_art/14.jpg","37","A tree in the desert, surrounded by flowers. Beautiful.","Ian,Seth,David,Joseph,Robert,Jacob","This just looks like a kids watercolor painting.,-30,260,20","This piece feels inviting. It's like opening up the pages of your favorite book for the first time.,26,60,20","I like how balanced the piece is with its symmetrical design.,20,340,20","I like that it looks like plants on a table, which reminds me of life.,4,220,20","Late Winter when things are just starting to bloom.,21,360,20","I kind of like it!,6,340,20","Robert","Late Winter when things are just starting to bloom.,21,360,20","David","I like how balanced the piece is with its symmetrical design.,20,340,20","Seth","This piece feels inviting. It's like opening up the pages of your favorite book for the first time.,26,60,20","4"
"18841","","survey-text","218","1239722","0.0-216.0-0.0","A2OPYRV3GLAPS1","","","","{""Q0"":""Pebbles or cobblestone. I don't know how I feel about it.""}","","","","","","","","","","","","","","","","","","","","","","",""
"5065.799999713898","","image-slider-response","219","1244790","0.0-217.0","A2OPYRV3GLAPS1","","","","","-10","","","","","","","","","","","","","","","","","","","","","",""
"null","","image-button-response","220","1249793","0.0-218.0","A2OPYRV3GLAPS1","img_art/15.jpg","null","","","","","","","","","","","","","","","","","","","","","","","","",""
"1963","","image-button-response","221","1251758","0.0-219.0","A2OPYRV3GLAPS1","img_art/15.jpg","2","","","","","","","","","","","","","","","","","","","","","","","","",""
"4602","","image-button-response","222","1256363","0.0-220.0-0.0","A2OPYRV3GLAPS1","img_art/15.jpg","0","","","","","","","","","","","","","","","","","","","","","","","","",""
"1909","","image-button-response","223","1258276","0.0-221.0-0.0","A2OPYRV3GLAPS1","img_art/15.jpg","3","","","","","","","","","","","","","","","","","","","","","","","","",""
"null","","html-keyboard-response","224","1259282","0.0-222.0","A2OPYRV3GLAPS1","<p style=""font-size: 48px;"">+</p>","","","","","null","allTrialResponses","1000","1","25","img_art/15.jpg","-10","Pebbles or cobblestone. I don't know how I feel about it.","Jack,Seth,David,Brendan,Robert,Matthew","interesting technique. the blue is very pretty,18,320,20","There should be more space between the black marks. The black comes off harsh and the blue between the trees can barely be seen.,-21,60,20","Hard to tell what I'm looking at, but it does a gives a slight impression of a of garden.,5,340,20","some trees in the forest,15,340,20","This piece is too dark,-42,360,20","I think of birds, nature, levels of space.,18,120,20","David","Hard to tell what I'm looking at, but it does a gives a slight impression of a of garden.,5,340,20","Jack","interesting technique. the blue is very pretty,18,320,20","Brendan","some trees in the forest,15,340,20","4"
"3558","","survey-text","225","1262851","0.0-223.0-0.0","A2OPYRV3GLAPS1","","","","{""Q0"":""table""}","","","","","","","","","","","","","","","","","","","","","","",""
"28126","","survey-text","226","1290980","0.0-224.0-0.0","A2OPYRV3GLAPS1","","","","{""Q0"":""Odd shapes. Makes me think of a kidney.""}","","","","","","","","","","","","","","","","","","","","","","",""
"2012.1000003814697","","image-slider-response","227","1292996","0.0-225.0","A2OPYRV3GLAPS1","","","","","-8","","","","","","","","","","","","","","","","","","","","","",""
"4974","","image-button-response","228","1298000","0.0-226.0","A2OPYRV3GLAPS1","img_art/28.jpg","0","","","","","","","","","","","","","","","","","","","","","","","","",""
"1195","","image-button-response","229","1299197","0.0-227.0","A2OPYRV3GLAPS1","img_art/28.jpg","0","","","","","","","","","","","","","","","","","","","","","","","","",""
"4164","","image-button-response","230","1303364","0.0-228.0-0.0","A2OPYRV3GLAPS1","img_art/28.jpg","4","","","","","","","","","","","","","","","","","","","","","","","","",""
"1942","","image-button-response","231","1305309","0.0-229.0-0.0","A2OPYRV3GLAPS1","img_art/28.jpg","2","","","","","","","","","","","","","","","","","","","","","","","","",""
"null","","html-keyboard-response","232","1305811","0.0-230.0","A2OPYRV3GLAPS1","<p style=""font-size: 48px;"">+</p>","","","","","null","allTrialResponses","500","1","26","img_art/28.jpg","-8","Odd shapes. Makes me think of a kidney.","Jack,Joshua,David,Brendan,Paul,Devin","looks like humanoid figures in distress. I like it, but makes me slightly uncomfortable,35,320,20","The colors are drab and a little depressing.,-20,240,20","I feel that the image is invoking a sense of negativity.,-15,340,20","i dont understand it,-34,340,20","The dark colors make it look dirty and the shapes make me uncomfortable,-50,300,20","It is a bit drab,-10,380,20","Jack","looks like humanoid figures in distress. I like it, but makes me slightly uncomfortable,35,320,20","Paul","The dark colors make it look dirty and the shapes make me uncomfortable,-50,300,20","David","I feel that the image is invoking a sense of negativity.,-15,340,20","4"
"55027","","survey-text","233","1360846","0.0-231.0-0.0","A2OPYRV3GLAPS1","","","","{""Q0"":""It seems to be a woman reclining, possibly delivering a baby?! I like the colors, but the human figure makes me feel like I'm violating someone's privacy.""}","","","","","","","","","","","","","","","","","","","","","","",""
"3789.2000002861023","","image-slider-response","234","1364638","0.0-232.0","A2OPYRV3GLAPS1","","","","","13","","","","","","","","","","","","","","","","","","","","","",""
"3573","","image-button-response","235","1369643","0.0-233.0","A2OPYRV3GLAPS1","img_art/9.jpg","2","","","","","","","","","","","","","","","","","","","","","","","","",""
"3482","","image-button-response","236","1373127","0.0-234.0","A2OPYRV3GLAPS1","img_art/9.jpg","4","","","","","","","","","","","","","","","","","","","","","","","","",""
"2773","","image-button-response","237","1375903","0.0-235.0-0.0","A2OPYRV3GLAPS1","img_art/9.jpg","2","","","","","","","","","","","","","","","","","","","","","","","","",""
"2181","","image-button-response","238","1378088","0.0-236.0-0.0","A2OPYRV3GLAPS1","img_art/9.jpg","5","","","","","","","","","","","","","","","","","","","","","","","","",""
"null","","html-keyboard-response","239","1379590","0.0-237.0","A2OPYRV3GLAPS1","<p style=""font-size: 48px;"">+</p>","","","","","null","allTrialResponses","1500","1","27","img_art/9.jpg","13","It seems to be a woman reclining, possibly delivering a baby?! I like the colors, but the human figure makes me feel like I'm violating someone's privacy.","Jack,William,David,Adrian,Paul,Christian","gorgeous colors, love the little details,42,320,20","reminds me of a story book,18,380,20","I like how design can be interpreted differently, I see a person sleeping or a mountainous region.,10,340,20","Looks like my niece's doodles.,-50,60,20","I like the greens and blues around the sides and the person reclining in the center makes me feel relaxed,24,300,20","love the color palette, but I'm gonna be honest, I don't really understand it,14,140,20","Paul","I like the greens and blues around the sides and the person reclining in the center makes me feel relaxed,24,300,20","David","I like how design can be interpreted differently, I see a person sleeping or a mountainous region.,10,340,20","Christian","love the color palette, but I'm gonna be honest, I don't really understand it,14,140,20","4"
"27219","","survey-text","240","1406816","0.0-238.0-0.0","A2OPYRV3GLAPS1","","","","{""Q0"":""I can't tell if it's a crow or a tree. I like the ambiguity. Makes me brain start filling in details.""}","","","","","","","","","","","","","","","","","","","","","","",""
"2012.6000003814697","","image-slider-response","241","1408831","0.0-239.0","A2OPYRV3GLAPS1","","","","","22","","","","","","","","","","","","","","","","","","","","","",""
"null","","image-button-response","242","1413836","0.0-240.0","A2OPYRV3GLAPS1","img_art/6.jpg","null","","","","","","","","","","","","","","","","","","","","","","","","",""
"666","","image-button-response","243","1414503","0.0-241.0","A2OPYRV3GLAPS1","img_art/6.jpg","2","","","","","","","","","","","","","","","","","","","","","","","","",""
"637","","image-button-response","244","1415143","0.0-242.0-0.0","A2OPYRV3GLAPS1","img_art/6.jpg","0","","","","","","","","","","","","","","","","","","","","","","","","",""
"4695","","image-button-response","245","1419840","0.0-243.0-0.0","A2OPYRV3GLAPS1","img_art/6.jpg","4","","","","","","","","","","","","","","","","","","","","","","","","",""
"null","","html-keyboard-response","246","1420343","0.0-244.0","A2OPYRV3GLAPS1","<p style=""font-size: 48px;"">+</p>","","","","","null","allTrialResponses","500","1","28","img_art/6.jpg","22","I can't tell if it's a crow or a tree. I like the ambiguity. Makes me brain start filling in details.","Tanner,Derek,David,Mason,Paul,Christian","loneliness, fragile, forever alone, a girl who's been there for eternity, only think tracking time is the length of her hair,9,180,20","Too basic for me,-20,360,20","I like the simplicity of the piece.,10,340,20","kids book cover, uninteresting.,-10,100,20","Maybe it's supposed to be a bird but it looks like a scary cloaked figure. it's just too simple and jarring,-23,300,20","??????? fake floating leaf? headless bird,-28,140,20","David","I like the simplicity of the piece.,10,340,20","Tanner","loneliness, fragile, forever alone, a girl who's been there for eternity, only think tracking time is the length of her hair,9,180,20","Paul","Maybe it's supposed to be a bird but it looks like a scary cloaked figure. it's just too simple and jarring,-23,300,20","4"
"39177","","survey-text","247","1459529","0.0-245.0-0.0","A2OPYRV3GLAPS1","","","","{""Q0"":""It's like a conga line of squiggles! Evokes a rave or party. Very, very energetic.""}","","","","","","","","","","","","","","","","","","","","","","",""
"2645.7000002861023","","image-slider-response","248","1462177","0.0-246.0","A2OPYRV3GLAPS1","","","","","28","","","","","","","","","","","","","","","","","","","","","",""
"null","","image-button-response","249","1467181","0.0-247.0","A2OPYRV3GLAPS1","img_art/23.jpg","null","","","","","","","","","","","","","","","","","","","","","","","","",""
"2563","","image-button-response","250","1469747","0.0-248.0","A2OPYRV3GLAPS1","img_art/23.jpg","4","","","","","","","","","","","","","","","","","","","","","","","","",""
"1516","","image-button-response","251","1471266","0.0-249.0-0.0","A2OPYRV3GLAPS1","img_art/23.jpg","5","","","","","","","","","","","","","","","","","","","","","","","","",""
"1196","","image-button-response","252","1472465","0.0-250.0-0.0","A2OPYRV3GLAPS1","img_art/23.jpg","2","","","","","","","","","","","","","","","","","","","","","","","","",""
"null","","html-keyboard-response","253","1472968","0.0-251.0","A2OPYRV3GLAPS1","<p style=""font-size: 48px;"">+</p>","","","","","null","allTrialResponses","500","1","29","img_art/23.jpg","28","It's like a conga line of squiggles! Evokes a rave or party. Very, very energetic.","Tanner,Garrett,David,Malik,Paul,Zachary","fsiries, happy, spiritual,16,180,20","I really like the way all the colors look, I think this is a pretty picture.,40,180,20","I like the symmetrical design and how it portrays the liveliness of a musical environment.,30,340,20","Very intense and unique,3,40,20","I like the sharp contrast of the white on the colorful background,27,300,20","Vivid colors and the white in the middle looks like people dancing.,31,400,20","Paul","I like the sharp contrast of the white on the colorful background,27,300,20","Zachary","Vivid colors and the white in the middle looks like people dancing.,31,400,20","David","I like the symmetrical design and how it portrays the liveliness of a musical environment.,30,340,20","4"
"35914","","survey-text","254","1508891","0.0-252.0-0.0","A2OPYRV3GLAPS1","","","","{""Q0"":""I love this. Makes me think of nature and technology at the same time, somehow. The human world and the natural landscape blending into one.""}","","","","","","","","","","","","","","","","","","","","","","",""
"1652.5999999046326","","image-slider-response","255","1510546","0.0-253.0","A2OPYRV3GLAPS1","","","","","39","","","","","","","","","","","","","","","","","","","","","",""
"3973","","image-button-response","256","1515551","0.0-254.0","A2OPYRV3GLAPS1","img_art/11.jpg","2","","","","","","","","","","","","","","","","","","","","","","","","",""
"2401","","image-button-response","257","1517956","0.0-255.0","A2OPYRV3GLAPS1","img_art/11.jpg","4","","","","","","","","","","","","","","","","","","","","","","","","",""
"1740","","image-button-response","258","1519700","0.0-256.0-0.0","A2OPYRV3GLAPS1","img_art/11.jpg","5","","","","","","","","","","","","","","","","","","","","","","","","",""
"1164","","image-button-response","259","1520868","0.0-257.0-0.0","A2OPYRV3GLAPS1","img_art/11.jpg","2","","","","","","","","","","","","","","","","","","","","","","","","",""
"null","","html-keyboard-response","260","1522372","0.0-258.0","A2OPYRV3GLAPS1","<p style=""font-size: 48px;"">+</p>","","","","","null","allTrialResponses","1500","1","30","img_art/11.jpg","39","I love this. Makes me think of nature and technology at the same time, somehow. The human world and the natural landscape blending into one.","Carlos,Bryan,David,Jeffrey,Paul,Zachary","The colors are lovely. February getting ready to yield to March.,41,80,20","Rainy asian city scape.,31,400,20","I like how this piece can be interpreted in different ways, such as a village on hilly terrain.,10,340,20","a lot of dark colours,-8,40,20","I like how it reminds me of music and at the same time it looks like colorful train tracks.,10,300,20","Makes me think of a futuristic scene of vehicles flying in the sky in a city.,36,400,20","Paul","I like how it reminds me of music and at the same time it looks like colorful train tracks.,10,300,20","Zachary","Makes me think of a futuristic scene of vehicles flying in the sky in a city.,36,400,20","David","I like how this piece can be interpreted in different ways, such as a village on hilly terrain.,10,340,20","4"
"4391","","image-button-response_instructions","261","1526771","0.0-259.0","A2OPYRV3GLAPS1","","0","instructions","","","","","","","","","","","","","","","","","","","","","","","",""
"2163","","image-button-response","262","1528939","0.0-260.0","A2OPYRV3GLAPS1","","0","","","","","","","","","","","","","","","","","","","","","","","","",""
