"rt","url","trial_type","trial_index","time_elapsed","internal_node_id","participant_id","stimulus","button_pressed","Name","responses","response","key_press","variableName","fixationTime","condition","trial","photo","subjectRating","subjectResponse","agentsNames","agent_1_Response","agent_2_Response","agent_3_Response","agent_4_Response","agent_5_Response","agent_6_Response","kept_1_name","kept_1_response","kept_2_name","kept_2_response","kept_3_name","kept_3_response","errorCounter"
"5320","external_page_harvard.html","external-html","0","5330","0.0-0.0","A2OSK04AGTLY6J","","","","","","","","","","","","","","","","","","","","","","","","","","",""
"1520","","image-button-response","1","6853","0.0-1.0","A2OSK04AGTLY6J","","1","","","","","","","","","","","","","","","","","","","","","","","","",""
"1344","","image-button-response","2","8206","0.0-2.0-0.0","A2OSK04AGTLY6J","","1","phone","","","","","","","","","","","","","","","","","","","","","","","",""
"4311","","survey-text","3","12520","0.0-3.0-0.0","A2OSK04AGTLY6J","","","","{""Q0"":""A2OSK04AGTLY6J""}","","","","","","","","","","","","","","","","","","","","","","",""
"2162","","image-button-response_instructions","4","14686","0.0-4.0","A2OSK04AGTLY6J","","0","instructions","","","","","","","","","","","","","","","","","","","","","","","",""
"21585","","image-button-response_instructions","5","36273","0.0-5.0","A2OSK04AGTLY6J","img_art/ins/popularity/ins1.png","0","instructions","","","","","","","","","","","","","","","","","","","","","","","",""
"13607","","image-button-response_instructions","6","49881","0.0-6.0","A2OSK04AGTLY6J","img_art/ins/popularity/ins2.png","0","instructions","","","","","","","","","","","","","","","","","","","","","","","",""
"11485","","image-button-response_instructions","7","61369","0.0-7.0","A2OSK04AGTLY6J","img_art/ins/popularity/ins2Extreme.png","0","instructions","","","","","","","","","","","","","","","","","","","","","","","",""
"18054","","image-button-response_instructions","8","79426","0.0-8.0","A2OSK04AGTLY6J","img_art/ins/popularity/ins3KEEPpop.PNG","0","instructions","","","","","","","","","","","","","","","","","","","","","","","",""
"5384","","image-button-response_instructions","9","84813","0.0-9.0","A2OSK04AGTLY6J","img_art/ins/popularity/ins3ANamepop.PNG","0","instructions","","","","","","","","","","","","","","","","","","","","","","","",""
"5602","","image-button-response_instructions","10","90417","0.0-10.0","A2OSK04AGTLY6J","img_art/ins/popularity/ins3ARatingpop.png","0","instructions","","","","","","","","","","","","","","","","","","","","","","","",""
"3928","","image-button-response_instructions","11","94347","0.0-11.0","A2OSK04AGTLY6J","img_art/ins/popularity/ins3ATextpop.png","0","instructions","","","","","","","","","","","","","","","","","","","","","","","",""
"7211","","image-button-response_instructions","12","101559","0.0-12.0","A2OSK04AGTLY6J","img_art/ins/popularity/ins3ALikespop.png","0","instructions","","","","","","","","","","","","","","","","","","","","","","","",""
"33185","","image-button-response_instructions","13","134746","0.0-13.0","A2OSK04AGTLY6J","img_art/ins/popularity/ins3KEEPpop.PNG","0","instructions","","","","","","","","","","","","","","","","","","","","","","","",""
"40698","","image-button-response_instructions","14","175446","0.0-14.0","A2OSK04AGTLY6J","img_art/ins/popularity/ins3_5RED.png","0","instructions","","","","","","","","","","","","","","","","","","","","","","","",""
"18242","","image-button-response_instructions","15","193690","0.0-15.0","A2OSK04AGTLY6J","img_art/ins/popularity/ins3KEEPpop.PNG","0","instructions","","","","","","","","","","","","","","","","","","","","","","","",""
"16913","","image-button-response_instructions","16","210605","0.0-16.0","A2OSK04AGTLY6J","img_art/ins/popularity/ins4KEEPpop.PNG","0","instructions","","","","","","","","","","","","","","","","","","","","","","","",""
"7090","","image-button-response_instructions","17","217696","0.0-17.0","A2OSK04AGTLY6J","img_art/ins/popularity/ins5KEEPpop.PNG","0","instructions","","","","","","","","","","","","","","","","","","","","","","","",""
"1580","","image-button-response_instructions","18","219278","0.0-18.0","A2OSK04AGTLY6J","","0","instructions","","","","","","","","","","","","","","","","","","","","","","","",""
"8608","","survey-text","19","227912","0.0-19.0-0.0","A2OSK04AGTLY6J","","","","{""Q0"":""but""}","","","","","","","","","","","","","","","","","","","","","","",""
"41975","","survey-text","20","269891","0.0-20.0-0.0","A2OSK04AGTLY6J","","","","{""Q0"":""stormy component with interesting color strokes""}","","","","","","","","","","","","","","","","","","","","","","",""
"10262.90000000596","","image-slider-response","21","280158","0.0-21.0","A2OSK04AGTLY6J","","","","","9","","","","","","","","","","","","","","","","","","","","","",""
"null","","image-button-response","22","285165","0.0-22.0","A2OSK04AGTLY6J","img_art/ins/1.jpg","null","","","","","","","","","","","","","","","","","","","","","","","","",""
"5807","","image-button-response","23","290976","0.0-23.0","A2OSK04AGTLY6J","img_art/ins/1.jpg","4","","","","","","","","","","","","","","","","","","","","","","","","",""
"7372","","image-button-response","24","298352","0.0-24.0-0.0","A2OSK04AGTLY6J","img_art/ins/1.jpg","0","","","","","","","","","","","","","","","","","","","","","","","","",""
"2045","","image-button-response","25","300402","0.0-25.0-0.0","A2OSK04AGTLY6J","img_art/ins/1.jpg","5","","","","","","","","","","","","","","","","","","","","","","","","",""
"null","","html-keyboard-response","26","300909","0.0-26.0","A2OSK04AGTLY6J","<p style=""font-size: 48px;"">+</p>","","","","","null","allTrialResponses","500","1","-2","img_art/ins/1.jpg","9","stormy component with interesting color strokes","Allison,Ashley,Beth,Dora,Erika,Jen","looks like a lot of things going on in the mist,20,20,20","I just don't get why these type of art would be popular,-32,40,20","This color reminds me of poo,-46,60,20","looks like what my niece in 3rd grade did this afternoon,-50,80,20","I like the sophisticated brushwork,40,100,20","It reminds me of a candy land dream I had,36,120,20","Erika","I like the sophisticated brushwork,40,100,20","Allison","looks like a lot of things going on in the mist,20,20,20","Jen","It reminds me of a candy land dream I had,36,120,20","0"
"37427","","survey-text","27","338343","0.0-27.0-0.0","A2OSK04AGTLY6J","","","","{""Q0"":""bold, vivid and passionate colors in layers""}","","","","","","","","","","","","","","","","","","","","","","",""
"8702.699999988079","","image-slider-response","28","347049","0.0-28.0","A2OSK04AGTLY6J","","","","","8","","","","","","","","","","","","","","","","","","","","","",""
"null","","image-button-response","29","352054","0.0-29.0","A2OSK04AGTLY6J","img_art/ins/2.jpg","null","","","","","","","","","","","","","","","","","","","","","","","","",""
"6031","","image-button-response","30","358088","0.0-30.0","A2OSK04AGTLY6J","img_art/ins/2.jpg","5","","","","","","","","","","","","","","","","","","","","","","","","",""
"1882","","image-button-response","31","359974","0.0-31.0-0.0","A2OSK04AGTLY6J","img_art/ins/2.jpg","1","","","","","","","","","","","","","","","","","","","","","","","","",""
"2567","","image-button-response","32","362545","0.0-32.0-0.0","A2OSK04AGTLY6J","img_art/ins/2.jpg","4","","","","","","","","","","","","","","","","","","","","","","","","",""
"null","","html-keyboard-response","33","363551","0.0-33.0","A2OSK04AGTLY6J","<p style=""font-size: 48px;"">+</p>","","","","","null","allTrialResponses","1000","1","-1","img_art/ins/2.jpg","8","bold, vivid and passionate colors in layers","Allison,Kara,Katie,Jenna,Erika,Jen","I don't have strong feelings about this,10,20,20","I like the blocks of color arrangements,30,160,20","too much color!,-28,180,20","One of my pet peevs,-48,140,20","I would never be able to compose a sophisticated pallete like this,48,100,20","It reminds me of a fireplace,36,120,20","Jen","It reminds me of a fireplace,36,120,20","Kara","I like the blocks of color arrangements,30,160,20","Erika","I would never be able to compose a sophisticated pallete like this,48,100,20","0"
"38361","","survey-text","34","401920","0.0-34.0-0.0","A2OSK04AGTLY6J","","","","{""Q0"":""Study in blues with interesting brush strokes""}","","","","","","","","","","","","","","","","","","","","","","",""
"4663","","image-slider-response","35","406586","0.0-35.0","A2OSK04AGTLY6J","","","","","-13","","","","","","","","","","","","","","","","","","","","","",""
"null","","image-button-response","36","411590","0.0-36.0","A2OSK04AGTLY6J","img_art/ins/3.jpg","null","","","","","","","","","","","","","","","","","","","","","","","","",""
"17834","","image-button-response","37","429427","0.0-37.0","A2OSK04AGTLY6J","img_art/ins/3.jpg","0","","","","","","","","","","","","","","","","","","","","","","","","",""
"2616","","image-button-response","38","432046","0.0-38.0-0.0","A2OSK04AGTLY6J","img_art/ins/3.jpg","2","","","","","","","","","","","","","","","","","","","","","","","","",""
"7731","","image-button-response","39","439781","0.0-39.0-0.0","A2OSK04AGTLY6J","img_art/ins/3.jpg","4","","","","","","","","","","","","","","","","","","","","","","","","",""
"null","","html-keyboard-response","40","441285","0.0-40.0","A2OSK04AGTLY6J","<p style=""font-size: 48px;"">+</p>","","","","","null","allTrialResponses","1500","1","0","img_art/ins/3.jpg","-13","Study in blues with interesting brush strokes","Mary,Kara,Rose,Leslie,Erika,Jen","I like the overlapping of brushes,41,220,20","calming blue is very nice,36,160,20","My daily routine, it's depressing,-20,240,20","It's an alright work,15,200,20","I feel connected to the artist,40,100,20","I can feel a rainy day from this painting,18,120,20","Mary","I like the overlapping of brushes,41,220,20","Rose","My daily routine, it's depressing,-20,240,20","Erika","I feel connected to the artist,40,100,20","0"
"6762","","image-button-response_instructions","41","448055","0.0-41.0","A2OSK04AGTLY6J","","0","instructions","","","","","","","","","","","","","","","","","","","","","","","",""
"10074","","survey-likert","42","458132","0.0-42.0-0.0","A2OSK04AGTLY6J","","","","{""Q0"":"""",""Q1"":0,""Q2"":1}","","","","","","","","","","","","","","","","","","","","","","",""
"7902","","survey-text","43","466042","0.0-43.0-0.0","A2OSK04AGTLY6J","","","","{""Q0"":""rock""}","","","","","","","","","","","","","","","","","","","","","","",""
"43518","","survey-text","44","509563","0.0-44.0-0.0","A2OSK04AGTLY6J","","","","{""Q0"":""emotional and messy work done in therapy""}","","","","","","","","","","","","","","","","","","","","","","",""
"4774.300000011921","","image-slider-response","45","514341","0.0-45.0","A2OSK04AGTLY6J","","","","","-27","","","","","","","","","","","","","","","","","","","","","",""
"null","","image-button-response","46","519369","0.0-46.0","A2OSK04AGTLY6J","img_art/9.jpg","null","","","","","","","","","","","","","","","","","","","","","","","","",""
"3868","","image-button-response","47","523241","0.0-47.0","A2OSK04AGTLY6J","img_art/9.jpg","5","","","","","","","","","","","","","","","","","","","","","","","","",""
"12468","","image-button-response","48","535712","0.0-48.0-0.0","A2OSK04AGTLY6J","img_art/9.jpg","2","","","","","","","","","","","","","","","","","","","","","","","","",""
"5083","","image-button-response","49","540799","0.0-49.0-0.0","A2OSK04AGTLY6J","img_art/9.jpg","0","","","","","","","","","","","","","","","","","","","","","","","","",""
"null","","html-keyboard-response","50","542307","0.0-50.0","A2OSK04AGTLY6J","<p style=""font-size: 48px;"">+</p>","","","","","null","allTrialResponses","1500","1","1","img_art/9.jpg","-27","emotional and messy work done in therapy","Alexandria,Mariah,Crystal,Kaitlyn,Catherine,Kimberly","it makes me feel excited and draws my eye around,24,80,20","Pleasant in all ways.,27,140,20","Evokes triumph of a mountain over powering a drowning sea,24,300,20","Focal point is interesting,2,80,20","Cozy, In her own world. feminine .,30,160,20","It's too all over the place,-37,260,20","Kimberly","It's too all over the place,-37,260,20","Crystal","Evokes triumph of a mountain over powering a drowning sea,24,300,20","Alexandria","it makes me feel excited and draws my eye around,24,80,20","0"
"32669","","survey-text","51","574983","0.0-51.0-0.0","A2OSK04AGTLY6J","","","","{""Q0"":""powerful color and a component of red rage""}","","","","","","","","","","","","","","","","","","","","","","",""
"4982.5999999940395","","image-slider-response","52","579968","0.0-52.0","A2OSK04AGTLY6J","","","","","-27","","","","","","","","","","","","","","","","","","","","","",""
"null","","image-button-response","53","584973","0.0-53.0","A2OSK04AGTLY6J","img_art/3.jpg","null","","","","","","","","","","","","","","","","","","","","","","","","",""
"16297","","image-button-response","54","601273","0.0-54.0","A2OSK04AGTLY6J","img_art/3.jpg","4","","","","","","","","","","","","","","","","","","","","","","","","",""
"6160","","image-button-response","55","607436","0.0-55.0-0.0","A2OSK04AGTLY6J","img_art/3.jpg","3","","","","","","","","","","","","","","","","","","","","","","","","",""
"3284","","image-button-response","56","610724","0.0-56.0-0.0","A2OSK04AGTLY6J","img_art/3.jpg","1","","","","","","","","","","","","","","","","","","","","","","","","",""
"null","","html-keyboard-response","57","611731","0.0-57.0","A2OSK04AGTLY6J","<p style=""font-size: 48px;"">+</p>","","","","","null","allTrialResponses","1000","1","2","img_art/3.jpg","-27","powerful color and a component of red rage","Alexandria,Grace,Crystal,Rachel,Monica,Kimberly","it makes me feel really angry,-20,80,20","Just no. I love red but this looks like blood splatter on a wall from a horrific killing.,-45,180,20","I like the abstract flowing lines. It lacks hard rigid marks and flow nicely into a piece of calamity.,32,300,20","Too red and chaotic. Not calming.,-41,80,20","It looks like random scribbles by a child and not appealing,-38,360,20","I like that it feels kind of simple but still chaotic,6,260,20","Monica","It looks like random scribbles by a child and not appealing,-38,360,20","Rachel","Too red and chaotic. Not calming.,-41,80,20","Grace","Just no. I love red but this looks like blood splatter on a wall from a horrific killing.,-45,180,20","0"
"41721","","survey-text","58","653459","0.0-58.0-0.0","A2OSK04AGTLY6J","","","","{""Q0"":""love the use of color and patterns, feel good painting""}","","","","","","","","","","","","","","","","","","","","","","",""
"6445.899999976158","","image-slider-response","59","659908","0.0-59.0","A2OSK04AGTLY6J","","","","","25","","","","","","","","","","","","","","","","","","","","","",""
"null","","image-button-response","60","664915","0.0-60.0","A2OSK04AGTLY6J","img_art/2.jpg","null","","","","","","","","","","","","","","","","","","","","","","","","",""
"12189","","image-button-response","61","677107","0.0-61.0","A2OSK04AGTLY6J","img_art/2.jpg","2","","","","","","","","","","","","","","","","","","","","","","","","",""
"3628","","image-button-response","62","680739","0.0-62.0-0.0","A2OSK04AGTLY6J","img_art/2.jpg","0","","","","","","","","","","","","","","","","","","","","","","","","",""
"8511","","image-button-response","63","689255","0.0-63.0-0.0","A2OSK04AGTLY6J","img_art/2.jpg","1","","","","","","","","","","","","","","","","","","","","","","","","",""
"null","","html-keyboard-response","64","690260","0.0-64.0","A2OSK04AGTLY6J","<p style=""font-size: 48px;"">+</p>","","","","","null","allTrialResponses","1000","1","3","img_art/2.jpg","25","love the use of color and patterns, feel good painting","Alexa,Grace,Dominique,Rachel,Monica,Lindsey","Not my favorite but I can see this being hung in a art museum,25,40,20","Like the colors but reminds me of a kids show done in cubism.,0,180,20","This reminds me of a peaceful day out alone shopping and spending some me time,41,400,20","I am not a fan of the color story. I am confused by the piece and therefore do not like it.,-21,80,20","I like the blue color in the center but that's it, the green is a gross color,-3,360,20","Not a fan of the colors or the style.,-31,400,20","Dominique","This reminds me of a peaceful day out alone shopping and spending some me time,41,400,20","Alexa","Not my favorite but I can see this being hung in a art museum,25,40,20","Grace","Like the colors but reminds me of a kids show done in cubism.,0,180,20","0"
"31604","","survey-text","65","721871","0.0-65.0-0.0","A2OSK04AGTLY6J","","","","{""Q0"":""the white figures seem like they are dancing in the color""}","","","","","","","","","","","","","","","","","","","","","","",""
"4406.5","","image-slider-response","66","726280","0.0-66.0","A2OSK04AGTLY6J","","","","","38","","","","","","","","","","","","","","","","","","","","","",""
"null","","image-button-response","67","731288","0.0-67.0","A2OSK04AGTLY6J","img_art/23.jpg","null","","","","","","","","","","","","","","","","","","","","","","","","",""
"1968","","image-button-response","68","733262","0.0-68.0","A2OSK04AGTLY6J","img_art/23.jpg","2","","","","","","","","","","","","","","","","","","","","","","","","",""
"4492","","image-button-response","69","737759","0.0-69.0-0.0","A2OSK04AGTLY6J","img_art/23.jpg","0","","","","","","","","","","","","","","","","","","","","","","","","",""
"1433","","image-button-response","70","739196","0.0-70.0-0.0","A2OSK04AGTLY6J","img_art/23.jpg","3","","","","","","","","","","","","","","","","","","","","","","","","",""
"null","","html-keyboard-response","71","739699","0.0-71.0","A2OSK04AGTLY6J","<p style=""font-size: 48px;"">+</p>","","","","","null","allTrialResponses","500","1","4","img_art/23.jpg","38","the white figures seem like they are dancing in the color","Alexa,Grace,Dominique,Taylor,Kaylee,Madeline","Very colorful and wild. It's cool and I like it,32,40,20","Looks like fireworks.,21,180,20","Very happy , busy , free, and full of Hope,28,400,20","The color contrast makes me happy,40,340,20","i completely dont get it,-47,200,20","background is great but the white is a bit weird,3,40,20","Dominique","Very happy , busy , free, and full of Hope,28,400,20","Alexa","Very colorful and wild. It's cool and I like it,32,40,20","Taylor","The color contrast makes me happy,40,340,20","0"
"24664","","survey-text","72","764372","0.0-72.0-0.0","A2OSK04AGTLY6J","","","","{""Q0"":""a toddler goes wild in the bathroom in a bad way""}","","","","","","","","","","","","","","","","","","","","","","",""
"5405.5999999940395","","image-slider-response","73","769781","0.0-73.0","A2OSK04AGTLY6J","","","","","-45","","","","","","","","","","","","","","","","","","","","","",""
"null","","image-button-response","74","774787","0.0-74.0","A2OSK04AGTLY6J","img_art/4.jpg","null","","","","","","","","","","","","","","","","","","","","","","","","",""
"12524","","image-button-response","75","787313","0.0-75.0","A2OSK04AGTLY6J","img_art/4.jpg","1","","","","","","","","","","","","","","","","","","","","","","","","",""
"3902","","image-button-response","76","791219","0.0-76.0-0.0","A2OSK04AGTLY6J","img_art/4.jpg","5","","","","","","","","","","","","","","","","","","","","","","","","",""
"7630","","image-button-response","77","798853","0.0-77.0-0.0","A2OSK04AGTLY6J","img_art/4.jpg","4","","","","","","","","","","","","","","","","","","","","","","","","",""
"null","","html-keyboard-response","78","800362","0.0-78.0","A2OSK04AGTLY6J","<p style=""font-size: 48px;"">+</p>","","","","","null","allTrialResponses","1500","1","5","img_art/4.jpg","-45","a toddler goes wild in the bathroom in a bad way","Alexa,Vanessa,Dominique,Taylor,Mikayla,Rebecca","A bit too plain for my tastes,-10,40,20","Again, this is too abstract and I really don't like the colors.,-21,380,20","I like it not sure much of how I feel about it,7,400,20","Reminds me of a first place trophy,30,340,20","Not very interesting to look at.,-34,300,20","no sorry i can't really understand,-18,100,20","Vanessa","Again, this is too abstract and I really don't like the colors.,-21,380,20","Rebecca","no sorry i can't really understand,-18,100,20","Mikayla","Not very interesting to look at.,-34,300,20","0"
"5235","","survey-text","79","805608","0.0-79.0-0.0","A2OSK04AGTLY6J","","","","{""Q0"":""sky""}","","","","","","","","","","","","","","","","","","","","","","",""
"62383","","survey-text","80","867994","0.0-80.0-0.0","A2OSK04AGTLY6J","","","","{""Q0"":""painterly pastel, doesn't evoke any pleasant feeling""}","","","","","","","","","","","","","","","","","","","","","","",""
"5956.299999982119","","image-slider-response","81","873954","0.0-81.0","A2OSK04AGTLY6J","","","","","-33","","","","","","","","","","","","","","","","","","","","","",""
"null","","image-button-response","82","878962","0.0-82.0","A2OSK04AGTLY6J","img_art/26.jpg","null","","","","","","","","","","","","","","","","","","","","","","","","",""
"3116","","image-button-response","83","882082","0.0-83.0","A2OSK04AGTLY6J","img_art/26.jpg","1","","","","","","","","","","","","","","","","","","","","","","","","",""
"13082","","image-button-response","84","895167","0.0-84.0-0.0","A2OSK04AGTLY6J","img_art/26.jpg","3","","","","","","","","","","","","","","","","","","","","","","","","",""
"6008","","image-button-response","85","901180","0.0-85.0-0.0","A2OSK04AGTLY6J","img_art/26.jpg","5","","","","","","","","","","","","","","","","","","","","","","","","",""
"null","","html-keyboard-response","86","901684","0.0-86.0","A2OSK04AGTLY6J","<p style=""font-size: 48px;"">+</p>","","","","","null","allTrialResponses","500","1","6","img_art/26.jpg","-33","painterly pastel, doesn't evoke any pleasant feeling","Kelsey,Vanessa,Julia,Lauren,Mikayla,Rebecca","this is nice!! i like the muted colors,34,240,20","Something I'd see in a thrift store. It looks like not much effort was used to paint this.,9,380,20","I'm not really into landscapes unless I have a personal connection to them,-21,40,20","The piece doesn't really invoke anything for me.,0,340,20","Love the colors in this one.,22,300,20","love the ""lowkey"" vibrant colors that are colorful but at the same time greyscale,12,100,20","Vanessa","Something I'd see in a thrift store. It looks like not much effort was used to paint this.,9,380,20","Lauren","The piece doesn't really invoke anything for me.,0,340,20","Rebecca","love the ""lowkey"" vibrant colors that are colorful but at the same time greyscale,12,100,20","0"
"68685","","survey-text","87","970376","0.0-87.0-0.0","A2OSK04AGTLY6J","","","","{""Q0"":""just can't call it art, no resonance between objects""}","","","","","","","","","","","","","","","","","","","","","","",""
"8992.40000000596","","image-slider-response","88","979371","0.0-88.0","A2OSK04AGTLY6J","","","","","-40","","","","","","","","","","","","","","","","","","","","","",""
"null","","image-button-response","89","984376","0.0-89.0","A2OSK04AGTLY6J","img_art/5.jpg","null","","","","","","","","","","","","","","","","","","","","","","","","",""
"2898","","image-button-response","90","987276","0.0-90.0","A2OSK04AGTLY6J","img_art/5.jpg","1","","","","","","","","","","","","","","","","","","","","","","","","",""
"5639","","image-button-response","91","992918","0.0-91.0-0.0","A2OSK04AGTLY6J","img_art/5.jpg","2","","","","","","","","","","","","","","","","","","","","","","","","",""
"17098","","image-button-response","92","1010022","0.0-92.0-0.0","A2OSK04AGTLY6J","img_art/5.jpg","3","","","","","","","","","","","","","","","","","","","","","","","","",""
"null","","html-keyboard-response","93","1011025","0.0-93.0","A2OSK04AGTLY6J","<p style=""font-size: 48px;"">+</p>","","","","","null","allTrialResponses","1000","1","7","img_art/5.jpg","-40","just can't call it art, no resonance between objects","Caitlin,Vanessa,Andrea,Lauren,Michaela,Rebecca","More kindergarten art class. Who buys this stuff?,-45,80,20","The yellow is garish and the picture doesn't look liked anything.,-49,380,20","Perfume bottle, reminds of fancy nights out.,11,240,20","I like the simplicity of the design, but I can't tell what the image is trying to depict.,10,340,20","Pretty simple, I'm not sure what it's supposed to mean,14,260,20","sorry not my style,-37,100,20","Vanessa","The yellow is garish and the picture doesn't look liked anything.,-49,380,20","Andrea","Perfume bottle, reminds of fancy nights out.,11,240,20","Lauren","I like the simplicity of the design, but I can't tell what the image is trying to depict.,10,340,20","0"
"22317","","survey-text","94","1033349","0.0-94.0-0.0","A2OSK04AGTLY6J","","","","{""Q0"":""I see a guitar and musical turbulence""}","","","","","","","","","","","","","","","","","","","","","","",""
"4341.899999976158","","image-slider-response","95","1037694","0.0-95.0","A2OSK04AGTLY6J","","","","","-21","","","","","","","","","","","","","","","","","","","","","",""
"null","","image-button-response","96","1042702","0.0-96.0","A2OSK04AGTLY6J","img_art/10.jpg","null","","","","","","","","","","","","","","","","","","","","","","","","",""
"10605","","image-button-response","97","1053310","0.0-97.0","A2OSK04AGTLY6J","img_art/10.jpg","3","","","","","","","","","","","","","","","","","","","","","","","","",""
"6193","","image-button-response","98","1059507","0.0-98.0-0.0","A2OSK04AGTLY6J","img_art/10.jpg","0","","","","","","","","","","","","","","","","","","","","","","","","",""
"2330","","image-button-response","99","1061843","0.0-99.0-0.0","A2OSK04AGTLY6J","img_art/10.jpg","4","","","","","","","","","","","","","","","","","","","","","","","","",""
"null","","html-keyboard-response","100","1063350","0.0-100.0","A2OSK04AGTLY6J","<p style=""font-size: 48px;"">+</p>","","","","","null","allTrialResponses","1500","1","8","img_art/10.jpg","-21","I see a guitar and musical turbulence","Cheyenne,Vanessa,Andrea,Lauren,Angela,Chloe","Very nice painting, would like it more with different color choice.,6,200,20","It's interesting and my eyes keep being drawn to different parts of the picture.,11,380,20","Kraken, and I love it.,39,240,20","I can't really tell what this is suppose to represent, but overall I don't like the design.,-20,340,20","This makes me think of a city, specifically London.,20,260,20","Don't like the colorblock but the lines are nice,-20,220,20","Lauren","I can't really tell what this is suppose to represent, but overall I don't like the design.,-20,340,20","Cheyenne","Very nice painting, would like it more with different color choice.,6,200,20","Angela","This makes me think of a city, specifically London.,20,260,20","0"
"50536","","survey-text","101","1113891","0.0-101.0-0.0","A2OSK04AGTLY6J","","","","{""Q0"":""the different texture is fascinating but its too dark for my taste""}","","","","","","","","","","","","","","","","","","","","","","",""
"3116.5999999940395","","image-slider-response","102","1117011","0.0-102.0","A2OSK04AGTLY6J","","","","","-32","","","","","","","","","","","","","","","","","","","","","",""
"null","","image-button-response","103","1122015","0.0-103.0","A2OSK04AGTLY6J","img_art/29.jpg","null","","","","","","","","","","","","","","","","","","","","","","","","",""
"8555","","image-button-response","104","1130574","0.0-104.0","A2OSK04AGTLY6J","img_art/29.jpg","3","","","","","","","","","","","","","","","","","","","","","","","","",""
"1919","","image-button-response","105","1132496","0.0-105.0-0.0","A2OSK04AGTLY6J","img_art/29.jpg","4","","","","","","","","","","","","","","","","","","","","","","","","",""
"5851","","image-button-response","106","1138351","0.0-106.0-0.0","A2OSK04AGTLY6J","img_art/29.jpg","1","","","","","","","","","","","","","","","","","","","","","","","","",""
"null","","html-keyboard-response","107","1139857","0.0-107.0","A2OSK04AGTLY6J","<p style=""font-size: 48px;"">+</p>","","","","","null","allTrialResponses","1500","1","9","img_art/29.jpg","-32","the different texture is fascinating but its too dark for my taste","Cheyenne,Sydney,Erica,Lauren,Angela,Alexandra","Really enjoy everything about this one.,50,200,20","I like that the colors are toned down even though they're everywhere.,5,320,20","Looks like an accident more than an art to me,-26,80,20","Don't really like the red x. It gives the impression that this a discarded piece.,-10,340,20","I would like this piece better without the red X across it,-10,260,20","I don't like this. It is ugly and dark,-29,60,20","Lauren","Don't really like the red x. It gives the impression that this a discarded piece.,-10,340,20","Angela","I would like this piece better without the red X across it,-10,260,20","Sydney","I like that the colors are toned down even though they're everywhere.,5,320,20","0"
"39671","","survey-text","108","1179535","0.0-108.0-0.0","A2OSK04AGTLY6J","","","","{""Q0"":""this makes me feel lonely. I like the simplicity in color and design""}","","","","","","","","","","","","","","","","","","","","","","",""
"4670.699999988079","","image-slider-response","109","1184209","0.0-109.0","A2OSK04AGTLY6J","","","","","13","","","","","","","","","","","","","","","","","","","","","",""
"null","","image-button-response","110","1189217","0.0-110.0","A2OSK04AGTLY6J","img_art/6.jpg","null","","","","","","","","","","","","","","","","","","","","","","","","",""
"957","","image-button-response","111","1190176","0.0-111.0","A2OSK04AGTLY6J","img_art/6.jpg","3","","","","","","","","","","","","","","","","","","","","","","","","",""
"1990","","image-button-response","112","1192171","0.0-112.0-0.0","A2OSK04AGTLY6J","img_art/6.jpg","4","","","","","","","","","","","","","","","","","","","","","","","","",""
"7237","","image-button-response","113","1199412","0.0-113.0-0.0","A2OSK04AGTLY6J","img_art/6.jpg","5","","","","","","","","","","","","","","","","","","","","","","","","",""
"null","","html-keyboard-response","114","1199916","0.0-114.0","A2OSK04AGTLY6J","<p style=""font-size: 48px;"">+</p>","","","","","null","allTrialResponses","500","1","10","img_art/6.jpg","13","this makes me feel lonely. I like the simplicity in color and design","Jessica,Sydney,Kayla,Lauren,Angela,Laura","Is this a leaf?,4,400,20","This piece reminds me of the lorax.,5,320,20","Little birdie in a desert. Seeking better frontiers.,13,180,20","I like the simplicity of the piece.,10,340,20","I like the orange color, and I don't know why but I like this piece.,22,260,20","graceful and light,35,320,20","Lauren","I like the simplicity of the piece.,10,340,20","Angela","I like the orange color, and I don't know why but I like this piece.,22,260,20","Laura","graceful and light,35,320,20","0"
"3964","","survey-text","115","1203891","0.0-115.0-0.0","A2OSK04AGTLY6J","","","","{""Q0"":""our""}","","","","","","","","","","","","","","","","","","","","","","",""
"21504","","survey-text","116","1225398","0.0-116.0-0.0","A2OSK04AGTLY6J","","","","{""Q0"":""love the color and the bleeding effect, very artsy""}","","","","","","","","","","","","","","","","","","","","","","",""
"3281.300000011921","","image-slider-response","117","1228682","0.0-117.0","A2OSK04AGTLY6J","","","","","50","","","","","","","","","","","","","","","","","","","","","",""
"null","","image-button-response","118","1233690","0.0-118.0","A2OSK04AGTLY6J","img_art/21.jpg","null","","","","","","","","","","","","","","","","","","","","","","","","",""
"846","","image-button-response","119","1234539","0.0-119.0","A2OSK04AGTLY6J","img_art/21.jpg","2","","","","","","","","","","","","","","","","","","","","","","","","",""
"7786","","image-button-response","120","1242328","0.0-120.0-0.0","A2OSK04AGTLY6J","img_art/21.jpg","0","","","","","","","","","","","","","","","","","","","","","","","","",""
"7426","","image-button-response","121","1249758","0.0-121.0-0.0","A2OSK04AGTLY6J","img_art/21.jpg","3","","","","","","","","","","","","","","","","","","","","","","","","",""
"null","","html-keyboard-response","122","1250764","0.0-122.0","A2OSK04AGTLY6J","<p style=""font-size: 48px;"">+</p>","","","","","null","allTrialResponses","1000","1","11","img_art/21.jpg","50","love the color and the bleeding effect, very artsy","Megan,Nicole,Maria,Lauren,Angela,Laura","Nice asymmetry with maritime colors city meets the sea,34,200,20","Makes me think of a natural disaster but I love how it looks. Makes you think,30,20,20","brings up imagery of the sea and clashing, though not in a negative way,31,120,20","I like how the piece has the possibility of depicting some type of story.,30,340,20","I feel like I'm looking at two different paintings mashed together in the middle.,20,260,20","a serene, calm and eloquent storm,9,320,20","Maria","brings up imagery of the sea and clashing, though not in a negative way,31,120,20","Megan","Nice asymmetry with maritime colors city meets the sea,34,200,20","Lauren","I like how the piece has the possibility of depicting some type of story.,30,340,20","0"
"59761","","survey-text","123","1310532","0.0-123.0-0.0","A2OSK04AGTLY6J","","","","{""Q0"":""like the geometry and the random teal color, inspiring""}","","","","","","","","","","","","","","","","","","","","","","",""
"6640.9000000059605","","image-slider-response","124","1317175","0.0-124.0","A2OSK04AGTLY6J","","","","","27","","","","","","","","","","","","","","","","","","","","","",""
"null","","image-button-response","125","1322182","0.0-125.0","A2OSK04AGTLY6J","img_art/12.jpg","null","","","","","","","","","","","","","","","","","","","","","","","","",""
"2891","","image-button-response","126","1325075","0.0-126.0","A2OSK04AGTLY6J","img_art/12.jpg","5","","","","","","","","","","","","","","","","","","","","","","","","",""
"8610","","image-button-response","127","1333688","0.0-127.0-0.0","A2OSK04AGTLY6J","img_art/12.jpg","3","","","","","","","","","","","","","","","","","","","","","","","","",""
"20310","","image-button-response","128","1354002","0.0-128.0-0.0","A2OSK04AGTLY6J","img_art/12.jpg","4","","","","","","","","","","","","","","","","","","","","","","","","",""
"null","","html-keyboard-response","129","1355006","0.0-129.0","A2OSK04AGTLY6J","<p style=""font-size: 48px;"">+</p>","","","","","null","allTrialResponses","1000","1","12","img_art/12.jpg","27","like the geometry and the random teal color, inspiring","Megan,Kristen,Maria,Lauren,Shelby,Jamie","Blocky windowed, safe and selfish,-41,200,20","stressful, upsetting,-10,280,20","evokes the 80s, and not in a necessarily good way,-10,120,20","This doesn't invoke anything. Just a mosaic of random images.,0,340,20","The shapes make me feel a bit uncomfortable,-10,240,20","Black and white contrast with color looks nice,15,320,20","Jamie","Black and white contrast with color looks nice,15,320,20","Lauren","This doesn't invoke anything. Just a mosaic of random images.,0,340,20","Shelby","The shapes make me feel a bit uncomfortable,-10,240,20","0"
"35871","","survey-text","130","1390885","0.0-130.0-0.0","A2OSK04AGTLY6J","","","","{""Q0"":""after the storm there is this serenity in the mess""}","","","","","","","","","","","","","","","","","","","","","","",""
"4078.5999999940395","","image-slider-response","131","1394966","0.0-131.0","A2OSK04AGTLY6J","","","","","28","","","","","","","","","","","","","","","","","","","","","",""
"null","","image-button-response","132","1399975","0.0-132.0","A2OSK04AGTLY6J","img_art/17.jpg","null","","","","","","","","","","","","","","","","","","","","","","","","",""
"1287","","image-button-response","133","1401264","0.0-133.0","A2OSK04AGTLY6J","img_art/17.jpg","1","","","","","","","","","","","","","","","","","","","","","","","","",""
"2800","","image-button-response","134","1404067","0.0-134.0-0.0","A2OSK04AGTLY6J","img_art/17.jpg","2","","","","","","","","","","","","","","","","","","","","","","","","",""
"4381","","image-button-response","135","1408452","0.0-135.0-0.0","A2OSK04AGTLY6J","img_art/17.jpg","4","","","","","","","","","","","","","","","","","","","","","","","","",""
"null","","html-keyboard-response","136","1409959","0.0-136.0","A2OSK04AGTLY6J","<p style=""font-size: 48px;"">+</p>","","","","","null","allTrialResponses","1500","1","13","img_art/17.jpg","28","after the storm there is this serenity in the mess","Hannah,Melissa,Alyssa,Lauren,Shelby,Jamie","Looks like an abandoned building that is being overtaken by nature.,-10,240,20","impressive attention to subtleties,15,240,20","It gorgeous and i love how the tree is almost 3 dimensional.So many elements to it.,50,160,20","I like how the image gives an impression of gaseous tree.,15,340,20","This feels like creativity and limitlessness,30,240,20","Looks like some fantasy tree. Nice,30,320,20","Melissa","impressive attention to subtleties,15,240,20","Alyssa","It gorgeous and i love how the tree is almost 3 dimensional.So many elements to it.,50,160,20","Shelby","This feels like creativity and limitlessness,30,240,20","0"
"23422","","survey-text","137","1433389","0.0-137.0-0.0","A2OSK04AGTLY6J","","","","{""Q0"":""are we building a bomb?""}","","","","","","","","","","","","","","","","","","","","","","",""
"4168","","image-slider-response","138","1437559","0.0-138.0","A2OSK04AGTLY6J","","","","","-34","","","","","","","","","","","","","","","","","","","","","",""
"3241","","image-button-response","139","1442565","0.0-139.0","A2OSK04AGTLY6J","img_art/18.jpg","0","","","","","","","","","","","","","","","","","","","","","","","","",""
"2412","","image-button-response","140","1444981","0.0-140.0","A2OSK04AGTLY6J","img_art/18.jpg","4","","","","","","","","","","","","","","","","","","","","","","","","",""
"3677","","image-button-response","141","1448662","0.0-141.0-0.0","A2OSK04AGTLY6J","img_art/18.jpg","5","","","","","","","","","","","","","","","","","","","","","","","","",""
"9395","","image-button-response","142","1458060","0.0-142.0-0.0","A2OSK04AGTLY6J","img_art/18.jpg","0","","","","","","","","","","","","","","","","","","","","","","","","",""
"null","","html-keyboard-response","143","1458565","0.0-143.0","A2OSK04AGTLY6J","<p style=""font-size: 48px;"">+</p>","","","","","null","allTrialResponses","500","1","14","img_art/18.jpg","-34","are we building a bomb?","Kylie,Melissa,Alyssa,Cassidy,Shelby,Samantha","Kind of weird in a confusing way,10,300,20","creamy color, feels like organized chaos,23,240,20","There are alot of elements to this painting and a good mix of colors,32,160,20","nice balance of color. The different sizes and types of strokes give a lot to look at,18,140,20","This gives a very ominous feeling,-30,240,20","Id love to see this piece closer. So much extra details hidden it it.,50,140,20","Shelby","This gives a very ominous feeling,-30,240,20","Samantha","Id love to see this piece closer. So much extra details hidden it it.,50,140,20","Kylie","Kind of weird in a confusing way,10,300,20","0"
"35908","","survey-text","144","1494482","0.0-144.0-0.0","A2OSK04AGTLY6J","","","","{""Q0"":""non appetizing with caramelly notes""}","","","","","","","","","","","","","","","","","","","","","","",""
"3196.9000000059605","","image-slider-response","145","1497682","0.0-145.0","A2OSK04AGTLY6J","","","","","-50","","","","","","","","","","","","","","","","","","","","","",""
"4899","","image-button-response","146","1502690","0.0-146.0","A2OSK04AGTLY6J","img_art/7.jpg","2","","","","","","","","","","","","","","","","","","","","","","","","",""
"5119","","image-button-response","147","1507812","0.0-147.0","A2OSK04AGTLY6J","img_art/7.jpg","3","","","","","","","","","","","","","","","","","","","","","","","","",""
"4262","","image-button-response","148","1512077","0.0-148.0-0.0","A2OSK04AGTLY6J","img_art/7.jpg","1","","","","","","","","","","","","","","","","","","","","","","","","",""
"6244","","image-button-response","149","1518325","0.0-149.0-0.0","A2OSK04AGTLY6J","img_art/7.jpg","2","","","","","","","","","","","","","","","","","","","","","","","","",""
"null","","html-keyboard-response","150","1519333","0.0-150.0","A2OSK04AGTLY6J","<p style=""font-size: 48px;"">+</p>","","","","","null","allTrialResponses","1000","1","15","img_art/7.jpg","-50","non appetizing with caramelly notes","Kylie,Emily,Jordan,Marissa,Shelby,Samantha","No particular reaction to this,10,300,20","Ugly. I don't like the colors or the scattering.,-50,40,20","looks like the surface of the moon.,1,20,20","I feel confused, am I looking at a painting or a close up picture of some sort of fly stone?,-19,160,20","This feels very earthy and grounded,20,240,20","Makes me want to feel it,19,140,20","Marissa","I feel confused, am I looking at a painting or a close up picture of some sort of fly stone?,-19,160,20","Emily","Ugly. I don't like the colors or the scattering.,-50,40,20","Jordan","looks like the surface of the moon.,1,20,20","0"
"4798","","survey-text","151","1524143","0.0-151.0-0.0","A2OSK04AGTLY6J","","","","{""Q0"":""course""}","","","","","","","","","","","","","","","","","","","","","","",""
"62748","","survey-text","152","1586894","0.0-152.0-0.0","A2OSK04AGTLY6J","","","","{""Q0"":""the red makes it feel like blood following violence""}","","","","","","","","","","","","","","","","","","","","","","",""
"3209.699999988079","","image-slider-response","153","1590107","0.0-153.0","A2OSK04AGTLY6J","","","","","5","","","","","","","","","","","","","","","","","","","","","",""
"4407","","image-button-response","154","1595111","0.0-154.0","A2OSK04AGTLY6J","img_art/22.jpg","0","","","","","","","","","","","","","","","","","","","","","","","","",""
"1200","","image-button-response","155","1596316","0.0-155.0","A2OSK04AGTLY6J","img_art/22.jpg","0","","","","","","","","","","","","","","","","","","","","","","","","",""
"8271","","image-button-response","156","1604590","0.0-156.0-0.0","A2OSK04AGTLY6J","img_art/22.jpg","4","","","","","","","","","","","","","","","","","","","","","","","","",""
"2218","","image-button-response","157","1606812","0.0-157.0-0.0","A2OSK04AGTLY6J","img_art/22.jpg","0","","","","","","","","","","","","","","","","","","","","","","","","",""
"6648","","image-button-response","158","1617430","0.0-157.1-0.1","A2OSK04AGTLY6J","img_art/22.jpg","5","","","","","","","","","","","","","","","","","","","","","","","","",""
"null","","html-keyboard-response","159","1618932","0.0-158.0","A2OSK04AGTLY6J","<p style=""font-size: 48px;"">+</p>","","","","","null","allTrialResponses","1500","1","16","img_art/22.jpg","5","the red makes it feel like blood following violence","Amy,Emily,Jordan,Marissa,Anna,Diana","I appreciate the shapes but the abundance of primary colors make it seem garrish.,-10,220,20","There is some flow and organization.,10,40,20","not a fan of this, it's boring,1,20,20","I enjoy the vibrant colors,23,160,20","Boring, typical abstract art,-30,300,20","I think the colors are beautiful they remind me of a sunset.,13,380,20","Amy","I appreciate the shapes but the abundance of primary colors make it seem garrish.,-10,220,20","Anna","Boring, typical abstract art,-30,300,20","Diana","I think the colors are beautiful they remind me of a sunset.,13,380,20","2"
"46105","","survey-text","160","1665046","0.0-159.0-0.0","A2OSK04AGTLY6J","","","","{""Q0"":""First glance, its sort of upsetting, simmering anger""}","","","","","","","","","","","","","","","","","","","","","","",""
"6480.700000017881","","image-slider-response","161","1671530","0.0-160.0","A2OSK04AGTLY6J","","","","","-34","","","","","","","","","","","","","","","","","","","","","",""
"3711","","image-button-response","162","1676535","0.0-161.0","A2OSK04AGTLY6J","img_art/20.jpg","2","","","","","","","","","","","","","","","","","","","","","","","","",""
"1137","","image-button-response","163","1677675","0.0-162.0","A2OSK04AGTLY6J","img_art/20.jpg","2","","","","","","","","","","","","","","","","","","","","","","","","",""
"3377","","image-button-response","164","1681056","0.0-163.0-0.0","A2OSK04AGTLY6J","img_art/20.jpg","5","","","","","","","","","","","","","","","","","","","","","","","","",""
"5952","","image-button-response","165","1687012","0.0-164.0-0.0","A2OSK04AGTLY6J","img_art/20.jpg","3","","","","","","","","","","","","","","","","","","","","","","","","",""
"null","","html-keyboard-response","166","1687517","0.0-165.0","A2OSK04AGTLY6J","<p style=""font-size: 48px;"">+</p>","","","","","null","allTrialResponses","500","1","17","img_art/20.jpg","-34","First glance, its sort of upsetting, simmering anger","Amy,Brianna,Katie,Jennifer,Anna,Diana","Elements that are more defined are incongruous to the soft and melting nature of this painting,5,220,20","It looks like a motorcycle and I like cars and motorcycles,30,20,20","I don't like it. Dark sky and black figures. White objects remind me of bones.,-30,160,20","Neutral, this piece doesn't strike me as particularly bad or good,0,380,20","I would like it more without the frame.,10,300,20","I'm not sure why this reminds me of surrealism. It might be the colors used.,16,380,20","Katie","I don't like it. Dark sky and black figures. White objects remind me of bones.,-30,160,20","Diana","I'm not sure why this reminds me of surrealism. It might be the colors used.,16,380,20","Jennifer","Neutral, this piece doesn't strike me as particularly bad or good,0,380,20","2"
"71277","","survey-text","167","1758801","0.0-166.0-0.0","A2OSK04AGTLY6J","","","","{""Q0"":""the style and colors appeal to me - it defies logic but thats appealing too""}","","","","","","","","","","","","","","","","","","","","","","",""
"4126.199999988079","","image-slider-response","168","1762931","0.0-167.0","A2OSK04AGTLY6J","","","","","50","","","","","","","","","","","","","","","","","","","","","",""
"null","","image-button-response","169","1767935","0.0-168.0","A2OSK04AGTLY6J","img_art/13.jpg","null","","","","","","","","","","","","","","","","","","","","","","","","",""
"2025","","image-button-response","170","1769962","0.0-169.0","A2OSK04AGTLY6J","img_art/13.jpg","2","","","","","","","","","","","","","","","","","","","","","","","","",""
"2516","","image-button-response","171","1772482","0.0-170.0-0.0","A2OSK04AGTLY6J","img_art/13.jpg","4","","","","","","","","","","","","","","","","","","","","","","","","",""
"1815","","image-button-response","172","1774300","0.0-171.0-0.0","A2OSK04AGTLY6J","img_art/13.jpg","5","","","","","","","","","","","","","","","","","","","","","","","","",""
"null","","html-keyboard-response","173","1774807","0.0-172.0","A2OSK04AGTLY6J","<p style=""font-size: 48px;"">+</p>","","","","","null","allTrialResponses","500","1","18","img_art/13.jpg","50","the style and colors appeal to me - it defies logic but thats appealing too","Mary,Chelsea,Katie,Jennifer,Claire,Diana","I do not care for the colors in this art. it doesnt go well at all.,-15,180,20","The colors are okay but I don't like the shapes here.,-18,180,20","Cool and calming colors. I like splatter art.,10,160,20","I like the color scheme,41,380,20","love the colors and splatters,44,260,20","I really loved the color contrast. Having the white stripe in the center makes the it appear 3D.,11,380,20","Katie","Cool and calming colors. I like splatter art.,10,160,20","Claire","love the colors and splatters,44,260,20","Diana","I really loved the color contrast. Having the white stripe in the center makes the it appear 3D.,11,380,20","2"
"54927","","survey-text","174","1829742","0.0-173.0-0.0","A2OSK04AGTLY6J","","","","{""Q0"":""dark blobs with a few strokes - very dark and a bit crazy""}","","","","","","","","","","","","","","","","","","","","","","",""
"3245.7999999821186","","image-slider-response","175","1832991","0.0-174.0","A2OSK04AGTLY6J","","","","","-50","","","","","","","","","","","","","","","","","","","","","",""
"3922","","image-button-response","176","1837995","0.0-175.0","A2OSK04AGTLY6J","img_art/15.jpg","2","","","","","","","","","","","","","","","","","","","","","","","","",""
"4490","","image-button-response","177","1842489","0.0-176.0","A2OSK04AGTLY6J","img_art/15.jpg","5","","","","","","","","","","","","","","","","","","","","","","","","",""
"2652","","image-button-response","178","1845145","0.0-177.0-0.0","A2OSK04AGTLY6J","img_art/15.jpg","2","","","","","","","","","","","","","","","","","","","","","","","","",""
"7586","","image-button-response","179","1852736","0.0-178.0-0.0","A2OSK04AGTLY6J","img_art/15.jpg","4","","","","","","","","","","","","","","","","","","","","","","","","",""
"null","","html-keyboard-response","180","1853243","0.0-179.0","A2OSK04AGTLY6J","<p style=""font-size: 48px;"">+</p>","","","","","null","allTrialResponses","500","1","19","img_art/15.jpg","-50","dark blobs with a few strokes - very dark and a bit crazy","Mackenzie,Jenna,Katie,Amber,Claire,Diana","I like the colors and textures.,32,20,20","interesting technique. the blue is very pretty,18,360,20","Too much black. I see weeds or dead/dying flowers.,-40,160,20","Reminds me of blueberry bushes.,7,200,20","it's alright but a little cluttered,14,260,20","There should be more space between the black marks. The black comes off harsh and the blue between the trees can barely be seen.,-21,380,20","Diana","There should be more space between the black marks. The black comes off harsh and the blue between the trees can barely be seen.,-21,380,20","Katie","Too much black. I see weeds or dead/dying flowers.,-40,160,20","Claire","it's alright but a little cluttered,14,260,20","2"
"56425","","survey-text","181","1909678","0.0-180.0-0.0","A2OSK04AGTLY6J","","","","{""Q0"":""It feels like the moodiness is moving upward,like the use of color and texture""}","","","","","","","","","","","","","","","","","","","","","","",""
"4021.100000023842","","image-slider-response","182","1913702","0.0-181.0","A2OSK04AGTLY6J","","","","","39","","","","","","","","","","","","","","","","","","","","","",""
"4062","","image-button-response","183","1918709","0.0-182.0","A2OSK04AGTLY6J","img_art/14.jpg","0","","","","","","","","","","","","","","","","","","","","","","","","",""
"1751","","image-button-response","184","1920463","0.0-183.0","A2OSK04AGTLY6J","img_art/14.jpg","0","","","","","","","","","","","","","","","","","","","","","","","","",""
"3154","","image-button-response","185","1923621","0.0-184.0-0.0","A2OSK04AGTLY6J","img_art/14.jpg","2","","","","","","","","","","","","","","","","","","","","","","","","",""
"2788","","image-button-response","186","1926413","0.0-185.0-0.0","A2OSK04AGTLY6J","img_art/14.jpg","5","","","","","","","","","","","","","","","","","","","","","","","","",""
"null","","html-keyboard-response","187","1927419","0.0-186.0","A2OSK04AGTLY6J","<p style=""font-size: 48px;"">+</p>","","","","","null","allTrialResponses","1000","1","20","img_art/14.jpg","39","It feels like the moodiness is moving upward,like the use of color and texture","Molly,Miranda,Katie,Sara,Claire,Diana","In my opinion it's spectacular.,35,340,20","This just looks like a kids watercolor painting.,-30,320,20","It represents growth. I see a plant/tree growing out of the ground. I like the rainbow of color in the painting.,31,160,20","It uplifts my mood due to the color scheme,32,160,20","mythical and nature like,37,260,20","This piece feels inviting. It's like opening up the pages of your favorite book for the first time.,26,380,20","Molly","In my opinion it's spectacular.,35,340,20","Katie","It represents growth. I see a plant/tree growing out of the ground. I like the rainbow of color in the painting.,31,160,20","Diana","This piece feels inviting. It's like opening up the pages of your favorite book for the first time.,26,380,20","2"
"4181","","survey-text","188","1931614","0.0-187.0-0.0","A2OSK04AGTLY6J","","","","{""Q0"":""we""}","","","","","","","","","","","","","","","","","","","","","","",""
"28019","","survey-text","189","1959636","0.0-188.0-0.0","A2OSK04AGTLY6J","","","","{""Q0"":""childish but complex at the same time, not for my taste""}","","","","","","","","","","","","","","","","","","","","","","",""
"3565.2999999821186","","image-slider-response","190","1963204","0.0-189.0","A2OSK04AGTLY6J","","","","","-45","","","","","","","","","","","","","","","","","","","","","",""
"null","","image-button-response","191","1968213","0.0-190.0","A2OSK04AGTLY6J","img_art/16.jpg","null","","","","","","","","","","","","","","","","","","","","","","","","",""
"376","","image-button-response","192","1968591","0.0-191.0","A2OSK04AGTLY6J","img_art/16.jpg","2","","","","","","","","","","","","","","","","","","","","","","","","",""
"6177","","image-button-response","193","1974772","0.0-192.0-0.0","A2OSK04AGTLY6J","img_art/16.jpg","5","","","","","","","","","","","","","","","","","","","","","","","","",""
"1148","","image-button-response","194","1975924","0.0-193.0-0.0","A2OSK04AGTLY6J","img_art/16.jpg","4","","","","","","","","","","","","","","","","","","","","","","","","",""
"null","","html-keyboard-response","195","1976927","0.0-194.0","A2OSK04AGTLY6J","<p style=""font-size: 48px;"">+</p>","","","","","null","allTrialResponses","1000","1","21","img_art/16.jpg","-45","childish but complex at the same time, not for my taste","Molly,Briana,Katie,Margaret,Natalie,Diana","It's frightening.,30,340,20","Weird mixed media piece,-50,400,20","Upsetting and disturbing. Random bear and indistinguishable objects. None of it goes together. Too chaotic and random,-50,160,20","i like how it incorporates mixed visual art with the photo of the bear and the drawings,30,100,20","my reaction is that the picture is creepy,-19,400,20","This one isn't for me. It came off as strange but not in a good way.,-44,380,20","Katie","Upsetting and disturbing. Random bear and indistinguishable objects. None of it goes together. Too chaotic and random,-50,160,20","Diana","This one isn't for me. It came off as strange but not in a good way.,-44,380,20","Natalie","my reaction is that the picture is creepy,-19,400,20","2"
"31310","","survey-text","196","2008245","0.0-195.0-0.0","A2OSK04AGTLY6J","","","","{""Q0"":""Art isn't suppose to make sense so I don't know why I love it so much""}","","","","","","","","","","","","","","","","","","","","","","",""
"3324.5999999940395","","image-slider-response","197","2011572","0.0-196.0","A2OSK04AGTLY6J","","","","","50","","","","","","","","","","","","","","","","","","","","","",""
"null","","image-button-response","198","2016576","0.0-197.0","A2OSK04AGTLY6J","img_art/8.jpg","null","","","","","","","","","","","","","","","","","","","","","","","","",""
"2168","","image-button-response","199","2018747","0.0-198.0","A2OSK04AGTLY6J","img_art/8.jpg","5","","","","","","","","","","","","","","","","","","","","","","","","",""
"2677","","image-button-response","200","2021427","0.0-199.0-0.0","A2OSK04AGTLY6J","img_art/8.jpg","3","","","","","","","","","","","","","","","","","","","","","","","","",""
"3582","","image-button-response","201","2025012","0.0-200.0-0.0","A2OSK04AGTLY6J","img_art/8.jpg","0","","","","","","","","","","","","","","","","","","","","","","","","",""
"null","","html-keyboard-response","202","2026519","0.0-201.0","A2OSK04AGTLY6J","<p style=""font-size: 48px;"">+</p>","","","","","null","allTrialResponses","1500","1","22","img_art/8.jpg","50","Art isn't suppose to make sense so I don't know why I love it so much","Jasmine,Christina,Katie,Sierra,Natalie,Diana","Not too bad despite the chaos.,16,340,20","it looks very 80's and kind of scary,-11,240,20","I like the colors. But I don't like the faces, they look distraught. Faces and sharp shapes make me anxious,1,160,20","i love the colors, the church and the face,42,260,20","looks nice, like the details,25,400,20","I don't care for the piece, but I appreciate the talent that it took to create it.,22,380,20","Diana","I don't care for the piece, but I appreciate the talent that it took to create it.,22,380,20","Sierra","i love the colors, the church and the face,42,260,20","Jasmine","Not too bad despite the chaos.,16,340,20","2"
"47271","","survey-text","203","2073799","0.0-202.0-0.0","A2OSK04AGTLY6J","","","","{""Q0"":""sort of a moody piece with random warm shades intersecting it""}","","","","","","","","","","","","","","","","","","","","","","",""
"3364.2999999821186","","image-slider-response","204","2077167","0.0-203.0","A2OSK04AGTLY6J","","","","","14","","","","","","","","","","","","","","","","","","","","","",""
"null","","image-button-response","205","2082176","0.0-204.0","A2OSK04AGTLY6J","img_art/27.jpg","null","","","","","","","","","","","","","","","","","","","","","","","","",""
"7460","","image-button-response","206","2089638","0.0-205.0","A2OSK04AGTLY6J","img_art/27.jpg","4","","","","","","","","","","","","","","","","","","","","","","","","",""
"3420","","image-button-response","207","2093063","0.0-206.0-0.0","A2OSK04AGTLY6J","img_art/27.jpg","1","","","","","","","","","","","","","","","","","","","","","","","","",""
"8068","","image-button-response","208","2101135","0.0-207.0-0.0","A2OSK04AGTLY6J","img_art/27.jpg","2","","","","","","","","","","","","","","","","","","","","","","","","",""
"null","","html-keyboard-response","209","2102638","0.0-208.0","A2OSK04AGTLY6J","<p style=""font-size: 48px;"">+</p>","","","","","null","allTrialResponses","1500","1","23","img_art/27.jpg","14","sort of a moody piece with random warm shades intersecting it","Jasmine,Angelica,Shannon,Sierra,Erika,Diana","I have no strong reactions to this,-1,340,20","This looks like a poor copy of Cy Twombly's style.,-3,280,20","This image could do a better job of showing what is going on and it could use more colors.,-42,220,20","meh. it is neutral to me.,1,260,20","Nice color, but too vague,-12,100,20","I don't care for the green scribbles; not sure what they are. But I adore the colors in the background.,24,380,20","Erika","Nice color, but too vague,-12,100,20","Angelica","This looks like a poor copy of Cy Twombly's style.,-3,280,20","Shannon","This image could do a better job of showing what is going on and it could use more colors.,-42,220,20","2"
"47816","","survey-text","210","2150463","0.0-209.0-0.0","A2OSK04AGTLY6J","","","","{""Q0"":""hieroglyphics telling a story, not sure about the green background, feels like a blacklight in use""}","","","","","","","","","","","","","","","","","","","","","","",""
"3862.199999988079","","image-slider-response","211","2154328","0.0-210.0","A2OSK04AGTLY6J","","","","","7","","","","","","","","","","","","","","","","","","","","","",""
"null","","image-button-response","212","2159337","0.0-211.0","A2OSK04AGTLY6J","img_art/25.jpg","null","","","","","","","","","","","","","","","","","","","","","","","","",""
"6357","","image-button-response","213","2165698","0.0-212.0","A2OSK04AGTLY6J","img_art/25.jpg","4","","","","","","","","","","","","","","","","","","","","","","","","",""
"4982","","image-button-response","214","2170684","0.0-213.0-0.0","A2OSK04AGTLY6J","img_art/25.jpg","0","","","","","","","","","","","","","","","","","","","","","","","","",""
"2811","","image-button-response","215","2173500","0.0-214.0-0.0","A2OSK04AGTLY6J","img_art/25.jpg","5","","","","","","","","","","","","","","","","","","","","","","","","",""
"null","","html-keyboard-response","216","2174006","0.0-215.0","A2OSK04AGTLY6J","<p style=""font-size: 48px;"">+</p>","","","","","null","allTrialResponses","500","1","24","img_art/25.jpg","7","hieroglyphics telling a story, not sure about the green background, feels like a blacklight in use","Caroline,Angelica,Shannon,Stephanie,Erika,Katherine","Makes me think of Baphomet, As above so below and is scary,-50,100,20","This is strange and poorly done.,-2,280,20","I like the way the persons clothes look, there could be more color though.,10,220,20","It made me think of healing.,22,300,20","Very cryptic and ancient,36,100,20","That's pretty awesome. I love the green and black combo, reminds me of one of those cartoon creepy movies,47,120,20","Erika","Very cryptic and ancient,36,100,20","Caroline","Makes me think of Baphomet, As above so below and is scary,-50,100,20","Katherine","That's pretty awesome. I love the green and black combo, reminds me of one of those cartoon creepy movies,47,120,20","2"
"23532","","survey-text","217","2197547","0.0-216.0-0.0","A2OSK04AGTLY6J","","","","{""Q0"":""I've actually done this a few time but only when angry and frustrated.""}","","","","","","","","","","","","","","","","","","","","","","",""
"3925.600000023842","","image-slider-response","218","2201476","0.0-217.0","A2OSK04AGTLY6J","","","","","-33","","","","","","","","","","","","","","","","","","","","","",""
"3402","","image-button-response","219","2206480","0.0-218.0","A2OSK04AGTLY6J","img_art/30.jpg","0","","","","","","","","","","","","","","","","","","","","","","","","",""
"1246","","image-button-response","220","2207729","0.0-219.0","A2OSK04AGTLY6J","img_art/30.jpg","0","","","","","","","","","","","","","","","","","","","","","","","","",""
"2128","","image-button-response","221","2209860","0.0-220.0-0.0","A2OSK04AGTLY6J","img_art/30.jpg","2","","","","","","","","","","","","","","","","","","","","","","","","",""
"6722","","image-button-response","222","2216585","0.0-221.0-0.0","A2OSK04AGTLY6J","img_art/30.jpg","4","","","","","","","","","","","","","","","","","","","","","","","","",""
"null","","html-keyboard-response","223","2217588","0.0-222.0","A2OSK04AGTLY6J","<p style=""font-size: 48px;"">+</p>","","","","","null","allTrialResponses","1000","1","25","img_art/30.jpg","-33","I've actually done this a few time but only when angry and frustrated.","Caroline,Erin,Breanna,Heather,Erika,Katherine","Fear. It looks like snakes in the picture,13,100,20","Layers are interesting,22,120,20","Paint scribbled on canvas,-25,380,20","beautiful paint brush strokes,1,260,20","I can't parse any intention or emotion,-17,100,20","For some reason I like the red in this one. Maybe it's the style of lines/blurs,46,120,20","Caroline","Fear. It looks like snakes in the picture,13,100,20","Breanna","Paint scribbled on canvas,-25,380,20","Erika","I can't parse any intention or emotion,-17,100,20","2"
"3938","","survey-text","224","2221543","0.0-223.0-0.0","A2OSK04AGTLY6J","","","","{""Q0"":""table""}","","","","","","","","","","","","","","","","","","","","","","",""
"21578","","survey-text","225","2243123","0.0-224.0-0.0","A2OSK04AGTLY6J","","","","{""Q0"":""I love the flow, the colors and the shading.""}","","","","","","","","","","","","","","","","","","","","","","",""
"3541.399999976158","","image-slider-response","226","2246668","0.0-225.0","A2OSK04AGTLY6J","","","","","37","","","","","","","","","","","","","","","","","","","","","",""
"3607","","image-button-response","227","2251672","0.0-226.0","A2OSK04AGTLY6J","img_art/11.jpg","0","","","","","","","","","","","","","","","","","","","","","","","","",""
"2361","","image-button-response","228","2254039","0.0-227.0","A2OSK04AGTLY6J","img_art/11.jpg","1","","","","","","","","","","","","","","","","","","","","","","","","",""
"6193","","image-button-response","229","2260236","0.0-228.0-0.0","A2OSK04AGTLY6J","img_art/11.jpg","5","","","","","","","","","","","","","","","","","","","","","","","","",""
"2696","","image-button-response","230","2262938","0.0-229.0-0.0","A2OSK04AGTLY6J","img_art/11.jpg","0","","","","","","","","","","","","","","","","","","","","","","","","",""
"null","","html-keyboard-response","231","2264441","0.0-230.0","A2OSK04AGTLY6J","<p style=""font-size: 48px;"">+</p>","","","","","null","allTrialResponses","1500","1","26","img_art/11.jpg","37","I love the flow, the colors and the shading.","Caroline,Allison,Breanna,Amanda,Erika,Ashley","Makes me think of far away places and traveling. Makes me feel like wandering,20,100,20","Kind of reminds me of DNA.,9,140,20","Very cool, makes me feel good,39,380,20","It makes me feel angry and overwhelmed,-29,180,20","I want to know which skyline the artist is depicting,26,100,20","Dark but bright, city but ocean, musical scales.,50,320,20","Allison","Kind of reminds me of DNA.,9,140,20","Ashley","Dark but bright, city but ocean, musical scales.,50,320,20","Caroline","Makes me think of far away places and traveling. Makes me feel like wandering,20,100,20","2"
"23633","","survey-text","232","2288084","0.0-231.0-0.0","A2OSK04AGTLY6J","","","","{""Q0"":""too much color and not enough depth to make sense to me""}","","","","","","","","","","","","","","","","","","","","","","",""
"3272.699999988079","","image-slider-response","233","2291360","0.0-232.0","A2OSK04AGTLY6J","","","","","-20","","","","","","","","","","","","","","","","","","","","","",""
"null","","image-button-response","234","2296364","0.0-233.0","A2OSK04AGTLY6J","img_art/1.jpg","null","","","","","","","","","","","","","","","","","","","","","","","","",""
"5186","","image-button-response","235","2301554","0.0-234.0","A2OSK04AGTLY6J","img_art/1.jpg","5","","","","","","","","","","","","","","","","","","","","","","","","",""
"4690","","image-button-response","236","2306247","0.0-235.0-0.0","A2OSK04AGTLY6J","img_art/1.jpg","1","","","","","","","","","","","","","","","","","","","","","","","","",""
"4317","","image-button-response","237","2310569","0.0-236.0-0.0","A2OSK04AGTLY6J","img_art/1.jpg","4","","","","","","","","","","","","","","","","","","","","","","","","",""
"null","","html-keyboard-response","238","2311072","0.0-237.0","A2OSK04AGTLY6J","<p style=""font-size: 48px;"">+</p>","","","","","null","allTrialResponses","500","1","27","img_art/1.jpg","-20","too much color and not enough depth to make sense to me","Caroline,Allison,Autumn,Alexis,Kaitlin,Ashley","Felt nothing in response to this painting,3,100,20","Messy mix of primary colors.,-10,140,20","Doesn't represent anything in particular.,-47,340,20","Taco Bell wallpaper. Doesn't really make me feel anything,3,100,20","I see happiness from different aspects of life,31,60,20","More passable, colorful, abstract.,13,320,20","Ashley","More passable, colorful, abstract.,13,320,20","Allison","Messy mix of primary colors.,-10,140,20","Kaitlin","I see happiness from different aspects of life,31,60,20","2"
"25803","","survey-text","239","2336887","0.0-238.0-0.0","A2OSK04AGTLY6J","","","","{""Q0"":""this looks futuristic and war zone like, disturbing""}","","","","","","","","","","","","","","","","","","","","","","",""
"4782.0999999940395","","image-slider-response","240","2341671","0.0-239.0","A2OSK04AGTLY6J","","","","","-20","","","","","","","","","","","","","","","","","","","","","",""
"null","","image-button-response","241","2346675","0.0-240.0","A2OSK04AGTLY6J","img_art/19.jpg","null","","","","","","","","","","","","","","","","","","","","","","","","",""
"10808","","image-button-response","242","2357486","0.0-241.0","A2OSK04AGTLY6J","img_art/19.jpg","1","","","","","","","","","","","","","","","","","","","","","","","","",""
"3461","","image-button-response","243","2360951","0.0-242.0-0.0","A2OSK04AGTLY6J","img_art/19.jpg","2","","","","","","","","","","","","","","","","","","","","","","","","",""
"4248","","image-button-response","244","2365203","0.0-243.0-0.0","A2OSK04AGTLY6J","img_art/19.jpg","0","","","","","","","","","","","","","","","","","","","","","","","","",""
"null","","html-keyboard-response","245","2366207","0.0-244.0","A2OSK04AGTLY6J","<p style=""font-size: 48px;"">+</p>","","","","","null","allTrialResponses","1000","1","28","img_art/19.jpg","-20","this looks futuristic and war zone like, disturbing","Elizabeth,Allison,Leah,Katelyn,Kaitlin,Ashley","Like the painting strokes,39,20,20","Messy mix of colors.,-5,140,20","Very abstract but I like it, it's busy, lots of colors,43,360,20","I dont like the smudge effect,-7,100,20","this looks like a busy city lifestyle,24,60,20","someone at the beach maybe?,27,320,20","Allison","Messy mix of colors.,-5,140,20","Leah","Very abstract but I like it, it's busy, lots of colors,43,360,20","Elizabeth","Like the painting strokes,39,20,20","2"
"31632","","survey-text","246","2397853","0.0-245.0-0.0","A2OSK04AGTLY6J","","","","{""Q0"":""very modern with surprising detail""}","","","","","","","","","","","","","","","","","","","","","","",""
"5471.299999982119","","image-slider-response","247","2403328","0.0-246.0","A2OSK04AGTLY6J","","","","","-6","","","","","","","","","","","","","","","","","","","","","",""
"4670","","image-button-response","248","2408337","0.0-247.0","A2OSK04AGTLY6J","img_art/28.jpg","2","","","","","","","","","","","","","","","","","","","","","","","","",""
"9013","","image-button-response","249","2417353","0.0-248.0","A2OSK04AGTLY6J","img_art/28.jpg","2","","","","","","","","","","","","","","","","","","","","","","","","",""
"1848","","image-button-response","250","2419204","0.0-249.0-0.0","A2OSK04AGTLY6J","img_art/28.jpg","4","","","","","","","","","","","","","","","","","","","","","","","","",""
"485","","image-button-response","251","2419693","0.0-250.0-0.0","A2OSK04AGTLY6J","img_art/28.jpg","4","","","","","","","","","","","","","","","","","","","","","","","","",""
"2109","","image-button-response","252","2425976","0.0-250.1-0.1","A2OSK04AGTLY6J","img_art/28.jpg","3","","","","","","","","","","","","","","","","","","","","","","","","",""
"null","","html-keyboard-response","253","2426480","0.0-251.0","A2OSK04AGTLY6J","<p style=""font-size: 48px;"">+</p>","","","","","null","allTrialResponses","500","1","29","img_art/28.jpg","-6","very modern with surprising detail","Elizabeth,Allison,Leah,Cassandra,Sabrina,Brooke","Not really exciting,23,20,20","Dislike the colors.,-20,140,20","Too me it's a mish mash, true abstract,-37,360,20","Hate it...brown and drab,-37,120,20","Self-hate and abuse at home, unsafe and torturing,-30,120,20","dislike the colors. it looks like a bike, but misshapen wheels like it was wrecked.,-10,60,20","Leah","Too me it's a mish mash, true abstract,-37,360,20","Sabrina","Self-hate and abuse at home, unsafe and torturing,-30,120,20","Cassandra","Hate it...brown and drab,-37,120,20","4"
"13913","","survey-text","254","2440404","0.0-252.0-0.0","A2OSK04AGTLY6J","","","","{""Q0"":""alive and energetic""}","","","","","","","","","","","","","","","","","","","","","","",""
"4030.300000011921","","image-slider-response","255","2444438","0.0-253.0","A2OSK04AGTLY6J","","","","","28","","","","","","","","","","","","","","","","","","","","","",""
"3633","","image-button-response","256","2449442","0.0-254.0","A2OSK04AGTLY6J","img_art/24.jpg","1","","","","","","","","","","","","","","","","","","","","","","","","",""
"4243","","image-button-response","257","2453688","0.0-255.0","A2OSK04AGTLY6J","img_art/24.jpg","1","","","","","","","","","","","","","","","","","","","","","","","","",""
"2572","","image-button-response","258","2456264","0.0-256.0-0.0","A2OSK04AGTLY6J","img_art/24.jpg","2","","","","","","","","","","","","","","","","","","","","","","","","",""
"2907","","image-button-response","259","2459175","0.0-257.0-0.0","A2OSK04AGTLY6J","img_art/24.jpg","4","","","","","","","","","","","","","","","","","","","","","","","","",""
"null","","html-keyboard-response","260","2460678","0.0-258.0","A2OSK04AGTLY6J","<p style=""font-size: 48px;"">+</p>","","","","","null","allTrialResponses","1500","1","30","img_art/24.jpg","28","alive and energetic","Leslie,Paige,Leah,Cassandra,Sabrina,Jacqueline","The colors look nice, but the painting bores me.,-20,380,20","somewhat happy. I like the colors,38,60,20","Happy, the forest as I would love to see it,50,360,20","I like it...looks like a waterfall.,11,120,20","Love the natural vibe,50,120,20","This one isn't that abstract. It clearly looks like a waterfall.,31,300,20","Paige","somewhat happy. I like the colors,38,60,20","Leah","Happy, the forest as I would love to see it,50,360,20","Sabrina","Love the natural vibe,50,120,20","4"
"4708","","image-button-response_instructions","261","2465395","0.0-259.0","A2OSK04AGTLY6J","","0","instructions","","","","","","","","","","","","","","","","","","","","","","","",""
"1721","","image-button-response","262","2467124","0.0-260.0","A2OSK04AGTLY6J","","0","","","","","","","","","","","","","","","","","","","","","","","","",""
