"rt","url","trial_type","trial_index","time_elapsed","internal_node_id","participant_id","stimulus","button_pressed","Name","responses","response","key_press","variableName","fixationTime","condition","trial","photo","subjectRating","subjectResponse","agentsNames","agent_1_Response","agent_2_Response","agent_3_Response","agent_4_Response","agent_5_Response","agent_6_Response","kept_1_name","kept_1_response","kept_2_name","kept_2_response","kept_3_name","kept_3_response","errorCounter"
"26302","external_page_harvard.html","external-html","0","26395","0.0-0.0","A2OU4EI5K6LZ0Z","","","","","","","","","","","","","","","","","","","","","","","","","","",""
"2635","","image-button-response","1","29033","0.0-1.0","A2OU4EI5K6LZ0Z","","0","","","","","","","","","","","","","","","","","","","","","","","","",""
"3284","","image-button-response","2","32329","0.0-2.0-0.0","A2OU4EI5K6LZ0Z","","1","phone","","","","","","","","","","","","","","","","","","","","","","","",""
"8312","","survey-text","3","40645","0.0-3.0-0.0","A2OU4EI5K6LZ0Z","","","","{""Q0"":""A2OU4EI5K6LZ0Z""}","","","","","","","","","","","","","","","","","","","","","","",""
"9900","","image-button-response_instructions","4","50549","0.0-4.0","A2OU4EI5K6LZ0Z","","0","instructions","","","","","","","","","","","","","","","","","","","","","","","",""
"45833","","image-button-response_instructions","5","96385","0.0-5.0","A2OU4EI5K6LZ0Z","img_art/ins/popularity/ins1.png","0","instructions","","","","","","","","","","","","","","","","","","","","","","","",""
"18349","","image-button-response_instructions","6","114737","0.0-6.0","A2OU4EI5K6LZ0Z","img_art/ins/popularity/ins2.png","0","instructions","","","","","","","","","","","","","","","","","","","","","","","",""
"12700","","image-button-response_instructions","7","127438","0.0-7.0","A2OU4EI5K6LZ0Z","img_art/ins/popularity/ins2Extreme.png","0","instructions","","","","","","","","","","","","","","","","","","","","","","","",""
"9354","","image-button-response_instructions","8","136794","0.0-8.0","A2OU4EI5K6LZ0Z","img_art/ins/popularity/ins3KEEPpop.PNG","0","instructions","","","","","","","","","","","","","","","","","","","","","","","",""
"11697","","image-button-response_instructions","9","148494","0.0-9.0","A2OU4EI5K6LZ0Z","img_art/ins/popularity/ins3ANamepop.PNG","0","instructions","","","","","","","","","","","","","","","","","","","","","","","",""
"4254","","image-button-response_instructions","10","152749","0.0-10.0","A2OU4EI5K6LZ0Z","img_art/ins/popularity/ins3ARatingpop.png","0","instructions","","","","","","","","","","","","","","","","","","","","","","","",""
"3118","","image-button-response_instructions","11","155870","0.0-11.0","A2OU4EI5K6LZ0Z","img_art/ins/popularity/ins3ATextpop.png","0","instructions","","","","","","","","","","","","","","","","","","","","","","","",""
"14653","","image-button-response_instructions","12","170525","0.0-12.0","A2OU4EI5K6LZ0Z","img_art/ins/popularity/ins3ALikespop.png","0","instructions","","","","","","","","","","","","","","","","","","","","","","","",""
"64550","","image-button-response_instructions","13","235078","0.0-13.0","A2OU4EI5K6LZ0Z","img_art/ins/popularity/ins3KEEPpop.PNG","0","instructions","","","","","","","","","","","","","","","","","","","","","","","",""
"28037","","image-button-response_instructions","14","263117","0.0-14.0","A2OU4EI5K6LZ0Z","img_art/ins/popularity/ins3_5RED.png","0","instructions","","","","","","","","","","","","","","","","","","","","","","","",""
"8693","","image-button-response_instructions","15","271813","0.0-15.0","A2OU4EI5K6LZ0Z","img_art/ins/popularity/ins3KEEPpop.PNG","0","instructions","","","","","","","","","","","","","","","","","","","","","","","",""
"106442","","image-button-response_instructions","16","378257","0.0-16.0","A2OU4EI5K6LZ0Z","img_art/ins/popularity/ins4KEEPpop.PNG","0","instructions","","","","","","","","","","","","","","","","","","","","","","","",""
"11954","","image-button-response_instructions","17","390213","0.0-17.0","A2OU4EI5K6LZ0Z","img_art/ins/popularity/ins5KEEPpop.PNG","0","instructions","","","","","","","","","","","","","","","","","","","","","","","",""
"2990","","image-button-response_instructions","18","393205","0.0-18.0","A2OU4EI5K6LZ0Z","","0","instructions","","","","","","","","","","","","","","","","","","","","","","","",""
"10141","","survey-text","19","403384","0.0-19.0-0.0","A2OU4EI5K6LZ0Z","","","","{""Q0"":""but""}","","","","","","","","","","","","","","","","","","","","","","",""
"71209","","survey-text","20","474597","0.0-20.0-0.0","A2OU4EI5K6LZ0Z","","","","{""Q0"":""Nondescript, and I don't really like the color combination.""}","","","","","","","","","","","","","","","","","","","","","","",""
"20012.299999952316","","image-slider-response","21","494613","0.0-21.0","A2OU4EI5K6LZ0Z","","","","","-18","","","","","","","","","","","","","","","","","","","","","",""
"null","","image-button-response","22","499620","0.0-22.0","A2OU4EI5K6LZ0Z","img_art/ins/1.jpg","null","","","","","","","","","","","","","","","","","","","","","","","","",""
"21097","","image-button-response","23","520721","0.0-23.0","A2OU4EI5K6LZ0Z","img_art/ins/1.jpg","2","","","","","","","","","","","","","","","","","","","","","","","","",""
"22740","","image-button-response","24","543465","0.0-24.0-0.0","A2OU4EI5K6LZ0Z","img_art/ins/1.jpg","5","","","","","","","","","","","","","","","","","","","","","","","","",""
"15687","","image-button-response","25","559157","0.0-25.0-0.0","A2OU4EI5K6LZ0Z","img_art/ins/1.jpg","4","","","","","","","","","","","","","","","","","","","","","","","","",""
"null","","html-keyboard-response","26","560664","0.0-26.0","A2OU4EI5K6LZ0Z","<p style=""font-size: 48px;"">+</p>","","","","","null","allTrialResponses","1500","1","-2","img_art/ins/1.jpg","-18","Nondescript, and I don't really like the color combination.","Adam,Alex,Ben,Carl,Daniel,Jack","Seems like doodles,-20,20,20","very creative work.,36,40,20","This color reminds me of poo,-46,60,20","very calming artwork,42,80,20","It looks like a murder scene.,-48,100,20","I like the sophisticated brushwork,40,120,20","Ben","This color reminds me of poo,-46,60,20","Jack","I like the sophisticated brushwork,40,120,20","Daniel","It looks like a murder scene.,-48,100,20","0"
"84306","","survey-text","27","644984","0.0-27.0-0.0","A2OU4EI5K6LZ0Z","","","","{""Q0"":""I appreciate the texture and like the red colors.""}","","","","","","","","","","","","","","","","","","","","","","",""
"17284.900000095367","","image-slider-response","28","662272","0.0-28.0","A2OU4EI5K6LZ0Z","","","","","15","","","","","","","","","","","","","","","","","","","","","",""
"null","","image-button-response","29","667278","0.0-29.0","A2OU4EI5K6LZ0Z","img_art/ins/2.jpg","null","","","","","","","","","","","","","","","","","","","","","","","","",""
"4106","","image-button-response","30","671388","0.0-30.0","A2OU4EI5K6LZ0Z","img_art/ins/2.jpg","1","","","","","","","","","","","","","","","","","","","","","","","","",""
"9573","","image-button-response","31","680964","0.0-31.0-0.0","A2OU4EI5K6LZ0Z","img_art/ins/2.jpg","5","","","","","","","","","","","","","","","","","","","","","","","","",""
"30828","","image-button-response","32","711796","0.0-32.0-0.0","A2OU4EI5K6LZ0Z","img_art/ins/2.jpg","3","","","","","","","","","","","","","","","","","","","","","","","","",""
"null","","html-keyboard-response","33","713300","0.0-33.0","A2OU4EI5K6LZ0Z","<p style=""font-size: 48px;"">+</p>","","","","","null","allTrialResponses","1500","1","-1","img_art/ins/2.jpg","15","I appreciate the texture and like the red colors.","Kyle,John,Ben,James,Daniel,Jack","Idk, it is just annoying,-32,180,20","love the texture of paint,48,160,20","meaningless painting,-45,60,20","looks too angry,-50,140,20","One of my pet peevs,-48,100,20","I would never be able to compose a sophisticated pallete like this,48,120,20","John","love the texture of paint,48,160,20","Jack","I would never be able to compose a sophisticated pallete like this,48,120,20","James","looks too angry,-50,140,20","0"
"26118","","survey-text","34","739432","0.0-34.0-0.0","A2OU4EI5K6LZ0Z","","","","{""Q0"":""I find this relaxing.""}","","","","","","","","","","","","","","","","","","","","","","",""
"13901.200000047684","","image-slider-response","35","753336","0.0-35.0","A2OU4EI5K6LZ0Z","","","","","18","","","","","","","","","","","","","","","","","","","","","",""
"null","","image-button-response","36","758342","0.0-36.0","A2OU4EI5K6LZ0Z","img_art/ins/3.jpg","null","","","","","","","","","","","","","","","","","","","","","","","","",""
"86317","","image-button-response","37","844664","0.0-37.0","A2OU4EI5K6LZ0Z","img_art/ins/3.jpg","2","","","","","","","","","","","","","","","","","","","","","","","","",""
"1385","","image-button-response","38","846052","0.0-38.0-0.0","A2OU4EI5K6LZ0Z","img_art/ins/3.jpg","0","","","","","","","","","","","","","","","","","","","","","","","","",""
"6567","","image-button-response","39","852623","0.0-39.0-0.0","A2OU4EI5K6LZ0Z","img_art/ins/3.jpg","1","","","","","","","","","","","","","","","","","","","","","","","","",""
"null","","html-keyboard-response","40","853636","0.0-40.0","A2OU4EI5K6LZ0Z","<p style=""font-size: 48px;"">+</p>","","","","","null","allTrialResponses","1000","1","0","img_art/ins/3.jpg","18","I find this relaxing.","Sam,John,Mike,James,Ron,Jack","I can feel a rainy day from this painting,18,240,20","I like the overlapping of brushes,41,160,20","enjoy the different shades of blue,22,200,20","My worst nightmare,-42,140,20","It looks depressing,-26,220,20","I feel connected to the artist,40,120,20","Mike","enjoy the different shades of blue,22,200,20","Sam","I can feel a rainy day from this painting,18,240,20","John","I like the overlapping of brushes,41,160,20","0"
"10158","","image-button-response_instructions","41","863807","0.0-41.0","A2OU4EI5K6LZ0Z","","0","instructions","","","","","","","","","","","","","","","","","","","","","","","",""
"21714","","survey-likert","42","885524","0.0-42.0-0.0","A2OU4EI5K6LZ0Z","","","","{""Q0"":"""",""Q1"":0,""Q2"":1}","","","","","","","","","","","","","","","","","","","","","","",""
"7695","","survey-text","43","893227","0.0-43.0-0.0","A2OU4EI5K6LZ0Z","","","","{""Q0"":""rock""}","","","","","","","","","","","","","","","","","","","","","","",""
"58357","","survey-text","44","951587","0.0-44.0-0.0","A2OU4EI5K6LZ0Z","","","","{""Q0"":""Looks like a sea monster.""}","","","","","","","","","","","","","","","","","","","","","","",""
"12985.5","","image-slider-response","45","964575","0.0-45.0","A2OU4EI5K6LZ0Z","","","","","31","","","","","","","","","","","","","","","","","","","","","",""
"null","","image-button-response","46","969625","0.0-46.0","A2OU4EI5K6LZ0Z","img_art/10.jpg","null","","","","","","","","","","","","","","","","","","","","","","","","",""
"17878","","image-button-response","47","987508","0.0-47.0","A2OU4EI5K6LZ0Z","img_art/10.jpg","4","","","","","","","","","","","","","","","","","","","","","","","","",""
"18045","","image-button-response","48","1005556","0.0-48.0-0.0","A2OU4EI5K6LZ0Z","img_art/10.jpg","5","","","","","","","","","","","","","","","","","","","","","","","","",""
"17089","","image-button-response","49","1022648","0.0-49.0-0.0","A2OU4EI5K6LZ0Z","img_art/10.jpg","2","","","","","","","","","","","","","","","","","","","","","","","","",""
"null","","html-keyboard-response","50","1023662","0.0-50.0","A2OU4EI5K6LZ0Z","<p style=""font-size: 48px;"">+</p>","","","","","null","allTrialResponses","1000","1","1","img_art/10.jpg","31","Looks like a sea monster.","Shane,Bryce,Jorge,Kevin,Lucas,Bryan","Like a decision making process,46,80,20","Kinda creepy not my favorite,-26,20,20","cultural with a symphony,40,180,20","Thats a horses head,10,320,20","For me, it looks like a giant ship on the sea and it's astonishing.,30,380,20","First impression was musical instrument then, because of the gray colors, death.,5,400,20","Lucas","For me, it looks like a giant ship on the sea and it's astonishing.,30,380,20","Bryan","First impression was musical instrument then, because of the gray colors, death.,5,400,20","Jorge","cultural with a symphony,40,180,20","0"
"39731","","survey-text","51","1063400","0.0-51.0-0.0","A2OU4EI5K6LZ0Z","","","","{""Q0"":""I wish the bear was holding the gun.""}","","","","","","","","","","","","","","","","","","","","","","",""
"13176.600000143051","","image-slider-response","52","1076579","0.0-52.0","A2OU4EI5K6LZ0Z","","","","","42","","","","","","","","","","","","","","","","","","","","","",""
"null","","image-button-response","53","1081584","0.0-53.0","A2OU4EI5K6LZ0Z","img_art/16.jpg","null","","","","","","","","","","","","","","","","","","","","","","","","",""
"37745","","image-button-response","54","1119332","0.0-54.0","A2OU4EI5K6LZ0Z","img_art/16.jpg","0","","","","","","","","","","","","","","","","","","","","","","","","",""
"3925","","image-button-response","55","1123260","0.0-55.0-0.0","A2OU4EI5K6LZ0Z","img_art/16.jpg","2","","","","","","","","","","","","","","","","","","","","","","","","",""
"13065","","image-button-response","56","1136328","0.0-56.0-0.0","A2OU4EI5K6LZ0Z","img_art/16.jpg","1","","","","","","","","","","","","","","","","","","","","","","","","",""
"null","","html-keyboard-response","57","1136834","0.0-57.0","A2OU4EI5K6LZ0Z","<p style=""font-size: 48px;"">+</p>","","","","","null","allTrialResponses","500","1","2","img_art/16.jpg","42","I wish the bear was holding the gun.","Alex,Luke,Jorge,Sean,Lucas,Bryan","I'm a fan of collage and of reminiscing about childhood so this was nice,10,100,20","while simple, it seems to have a deeper meaning on childhood,33,20,20","Dreamy and chaotic,-9,180,20","my reaction is that the picture is creepy,-19,40,20","It's frightening.,30,380,20","Something terrible happened. Either the figure on the right is the victim or another shredded toy.,-49,400,20","Alex","I'm a fan of collage and of reminiscing about childhood so this was nice,10,100,20","Jorge","Dreamy and chaotic,-9,180,20","Luke","while simple, it seems to have a deeper meaning on childhood,33,20,20","0"
"72619","","survey-text","58","1209467","0.0-58.0-0.0","A2OU4EI5K6LZ0Z","","","","{""Q0"":""A painting I'd see in a mid-price hotel room.""}","","","","","","","","","","","","","","","","","","","","","","",""
"12396.600000143051","","image-slider-response","59","1221867","0.0-59.0","A2OU4EI5K6LZ0Z","","","","","5","","","","","","","","","","","","","","","","","","","","","",""
"null","","image-button-response","60","1226873","0.0-60.0","A2OU4EI5K6LZ0Z","img_art/22.jpg","null","","","","","","","","","","","","","","","","","","","","","","","","",""
"13038","","image-button-response","61","1239916","0.0-61.0","A2OU4EI5K6LZ0Z","img_art/22.jpg","5","","","","","","","","","","","","","","","","","","","","","","","","",""
"3385","","image-button-response","62","1243304","0.0-62.0-0.0","A2OU4EI5K6LZ0Z","img_art/22.jpg","2","","","","","","","","","","","","","","","","","","","","","","","","",""
"25506","","image-button-response","63","1268816","0.0-63.0-0.0","A2OU4EI5K6LZ0Z","img_art/22.jpg","1","","","","","","","","","","","","","","","","","","","","","","","","",""
"null","","html-keyboard-response","64","1270320","0.0-64.0","A2OU4EI5K6LZ0Z","<p style=""font-size: 48px;"">+</p>","","","","","null","allTrialResponses","1500","1","3","img_art/22.jpg","5","A painting I'd see in a mid-price hotel room.","Alex,Luke,Jorge,Andrew,Devon,Blake","Not a huge fan of the blocks, also very abstract, I have no idea what it is,8,100,20","the colors and shapes makes me want to keep looking at it,22,20,20","A key to the unknown,15,180,20","Doesn't make me feel anything,-4,160,20","This represents the hopes in my life.,21,400,20","a lost balloon in outer space,12,280,20","Blake","a lost balloon in outer space,12,280,20","Jorge","A key to the unknown,15,180,20","Luke","the colors and shapes makes me want to keep looking at it,22,20,20","0"
"53454","","survey-text","65","1323787","0.0-65.0-0.0","A2OU4EI5K6LZ0Z","","","","{""Q0"":""Love the colors. Looks like a cliff facing the sea.""}","","","","","","","","","","","","","","","","","","","","","","",""
"17800.700000047684","","image-slider-response","66","1341590","0.0-66.0","A2OU4EI5K6LZ0Z","","","","","37","","","","","","","","","","","","","","","","","","","","","",""
"null","","image-button-response","67","1346597","0.0-67.0","A2OU4EI5K6LZ0Z","img_art/21.jpg","null","","","","","","","","","","","","","","","","","","","","","","","","",""
"28543","","image-button-response","68","1375143","0.0-68.0","A2OU4EI5K6LZ0Z","img_art/21.jpg","0","","","","","","","","","","","","","","","","","","","","","","","","",""
"23101","","image-button-response","69","1398248","0.0-69.0-0.0","A2OU4EI5K6LZ0Z","img_art/21.jpg","4","","","","","","","","","","","","","","","","","","","","","","","","",""
"1969","","image-button-response","70","1400220","0.0-70.0-0.0","A2OU4EI5K6LZ0Z","img_art/21.jpg","2","","","","","","","","","","","","","","","","","","","","","","","","",""
"null","","html-keyboard-response","71","1401225","0.0-71.0","A2OU4EI5K6LZ0Z","<p style=""font-size: 48px;"">+</p>","","","","","null","allTrialResponses","1000","1","4","img_art/21.jpg","37","Love the colors. Looks like a cliff facing the sea.","Dalton,Luke,Jorge,Cole,Angel,Blake","The color spectrum is just beautiful.,32,300,20","the vast colors make me happy,15,20,20","mythical between good and evil,16,180,20","Unfinished. Confusing to look at,-12,200,20","This feels chaotic, like a battle or a storm.,-20,180,20","ocean and rocks at the beach,11,280,20","Dalton","The color spectrum is just beautiful.,32,300,20","Angel","This feels chaotic, like a battle or a storm.,-20,180,20","Jorge","mythical between good and evil,16,180,20","0"
"50540","","survey-text","72","1451775","0.0-72.0-0.0","A2OU4EI5K6LZ0Z","","","","{""Q0"":""Reminds me of a peach or a lonely bird.""}","","","","","","","","","","","","","","","","","","","","","","",""
"34700.39999985695","","image-slider-response","73","1486479","0.0-73.0","A2OU4EI5K6LZ0Z","","","","","15","","","","","","","","","","","","","","","","","","","","","",""
"null","","image-button-response","74","1491485","0.0-74.0","A2OU4EI5K6LZ0Z","img_art/6.jpg","null","","","","","","","","","","","","","","","","","","","","","","","","",""
"16534","","image-button-response","75","1508024","0.0-75.0","A2OU4EI5K6LZ0Z","img_art/6.jpg","1","","","","","","","","","","","","","","","","","","","","","","","","",""
"24727","","image-button-response","76","1532755","0.0-76.0-0.0","A2OU4EI5K6LZ0Z","img_art/6.jpg","2","","","","","","","","","","","","","","","","","","","","","","","","",""
"20972","","image-button-response","77","1553731","0.0-77.0-0.0","A2OU4EI5K6LZ0Z","img_art/6.jpg","4","","","","","","","","","","","","","","","","","","","","","","","","",""
"null","","html-keyboard-response","78","1555235","0.0-78.0","A2OU4EI5K6LZ0Z","<p style=""font-size: 48px;"">+</p>","","","","","null","allTrialResponses","1500","1","5","img_art/6.jpg","15","Reminds me of a peach or a lonely bird.","Dalton,Steven,Jorge,Dakota,Angel,Jordan","it looks like a stick holding a wig on a cliff,21,300,20","This is interesting, I feel solitude, and loneliness from this.,13,160,20","seeds of change,11,180,20","graceful and light,35,280,20","This piece feels hopeful, like an oasis in the desert.,20,180,20","This picture is weird,-6,160,20","Steven","This is interesting, I feel solitude, and loneliness from this.,13,160,20","Jorge","seeds of change,11,180,20","Angel","This piece feels hopeful, like an oasis in the desert.,20,180,20","0"
"6198","","survey-text","79","1561455","0.0-79.0-0.0","A2OU4EI5K6LZ0Z","","","","{""Q0"":""sky""}","","","","","","","","","","","","","","","","","","","","","","",""
"86757","","survey-text","80","1648215","0.0-80.0-0.0","A2OU4EI5K6LZ0Z","","","","{""Q0"":""A building has grown an eye.""}","","","","","","","","","","","","","","","","","","","","","","",""
"11396.599999904633","","image-slider-response","81","1659615","0.0-81.0","A2OU4EI5K6LZ0Z","","","","","15","","","","","","","","","","","","","","","","","","","","","",""
"null","","image-button-response","82","1664620","0.0-82.0","A2OU4EI5K6LZ0Z","img_art/17.jpg","null","","","","","","","","","","","","","","","","","","","","","","","","",""
"2515","","image-button-response","83","1667139","0.0-83.0","A2OU4EI5K6LZ0Z","img_art/17.jpg","1","","","","","","","","","","","","","","","","","","","","","","","","",""
"690","","image-button-response","84","1667831","0.0-84.0-0.0","A2OU4EI5K6LZ0Z","img_art/17.jpg","2","","","","","","","","","","","","","","","","","","","","","","","","",""
"21609","","image-button-response","85","1689443","0.0-85.0-0.0","A2OU4EI5K6LZ0Z","img_art/17.jpg","3","","","","","","","","","","","","","","","","","","","","","","","","",""
"null","","html-keyboard-response","86","1689960","0.0-86.0","A2OU4EI5K6LZ0Z","<p style=""font-size: 48px;"">+</p>","","","","","null","allTrialResponses","500","1","6","img_art/17.jpg","15","A building has grown an eye.","Kenneth,Steven,Jorge,Noah,Angel,Evan","I really like this, especially the tree.,23,300,20","absolutely gorgeous, I feel solitude again, but the beauty is there also,50,160,20","battle between nature and man,31,180,20","feel close to nature,30,260,20","Reminds me of the modern art museum in Rome. I didn't ""get"" many pieces, but had a positive cultural experience overall.,20,180,20","This reminds me of spring,24,140,20","Steven","absolutely gorgeous, I feel solitude again, but the beauty is there also,50,160,20","Jorge","battle between nature and man,31,180,20","Noah","feel close to nature,30,260,20","0"
"80520","","survey-text","87","1770494","0.0-87.0-0.0","A2OU4EI5K6LZ0Z","","","","{""Q0"":""At a lakeside village a man holds a spear.""}","","","","","","","","","","","","","","","","","","","","","","",""
"41880.90000009537","","image-slider-response","88","1812378","0.0-88.0","A2OU4EI5K6LZ0Z","","","","","10","","","","","","","","","","","","","","","","","","","","","",""
"null","","image-button-response","89","1817384","0.0-89.0","A2OU4EI5K6LZ0Z","img_art/19.jpg","null","","","","","","","","","","","","","","","","","","","","","","","","",""
"29382","","image-button-response","90","1846771","0.0-90.0","A2OU4EI5K6LZ0Z","img_art/19.jpg","2","","","","","","","","","","","","","","","","","","","","","","","","",""
"1949","","image-button-response","91","1848723","0.0-91.0-0.0","A2OU4EI5K6LZ0Z","img_art/19.jpg","0","","","","","","","","","","","","","","","","","","","","","","","","",""
"9389","","image-button-response","92","1858115","0.0-92.0-0.0","A2OU4EI5K6LZ0Z","img_art/19.jpg","4","","","","","","","","","","","","","","","","","","","","","","","","",""
"null","","html-keyboard-response","93","1858630","0.0-93.0","A2OU4EI5K6LZ0Z","<p style=""font-size: 48px;"">+</p>","","","","","null","allTrialResponses","500","1","7","img_art/19.jpg","10","At a lakeside village a man holds a spear.","Tyler,Steven,Jorge,Noah,Matthew,Jason","Seems unfinished and sloppy,-11,320,20","I like it, I see someone walking his dog in the early morning time,23,160,20","confused and emotional,-4,180,20","the way the landscape is portrayed captivates me - I enjoy studying the structure,32,260,20","someone at the beach maybe?,27,120,20","The picture contains a lot of brown and weird drips,-4,20,20","Jorge","confused and emotional,-4,180,20","Tyler","Seems unfinished and sloppy,-11,320,20","Matthew","someone at the beach maybe?,27,120,20","0"
"130227","","survey-text","94","1988869","0.0-94.0-0.0","A2OU4EI5K6LZ0Z","","","","{""Q0"":""Evokes trees, but I see letters \""VIX\""""}","","","","","","","","","","","","","","","","","","","","","","",""
"12405.299999952316","","image-slider-response","95","2001277","0.0-95.0","A2OU4EI5K6LZ0Z","","","","","-4","","","","","","","","","","","","","","","","","","","","","",""
"null","","image-button-response","96","2006283","0.0-96.0","A2OU4EI5K6LZ0Z","img_art/15.jpg","null","","","","","","","","","","","","","","","","","","","","","","","","",""
"18479","","image-button-response","97","2024766","0.0-97.0","A2OU4EI5K6LZ0Z","img_art/15.jpg","3","","","","","","","","","","","","","","","","","","","","","","","","",""
"21233","","image-button-response","98","2046002","0.0-98.0-0.0","A2OU4EI5K6LZ0Z","img_art/15.jpg","2","","","","","","","","","","","","","","","","","","","","","","","","",""
"7991","","image-button-response","99","2053998","0.0-99.0-0.0","A2OU4EI5K6LZ0Z","img_art/15.jpg","0","","","","","","","","","","","","","","","","","","","","","","","","",""
"null","","html-keyboard-response","100","2055502","0.0-100.0","A2OU4EI5K6LZ0Z","<p style=""font-size: 48px;"">+</p>","","","","","null","allTrialResponses","1500","1","8","img_art/15.jpg","-4","Evokes trees, but I see letters ""VIX""","Tyler,Isaac,Jorge,Victor,Matthew,Taylor","I am starting to feel description fatigue. This would be pleasant enough in a doctor's office waiting room.,15,320,20","The colors are too busy.,-39,280,20","interested in this transformation,20,180,20","I like the random blue dabs to break up the black, but it looks unfinished.,4,340,20","I think of birds, nature, levels of space.,18,120,20","Getting better.,10,200,20","Victor","I like the random blue dabs to break up the black, but it looks unfinished.,4,340,20","Jorge","interested in this transformation,20,180,20","Tyler","I am starting to feel description fatigue. This would be pleasant enough in a doctor's office waiting room.,15,320,20","0"
"100237","","survey-text","101","2155754","0.0-101.0-0.0","A2OU4EI5K6LZ0Z","","","","{""Q0"":""A little too much grey for my taste here.""}","","","","","","","","","","","","","","","","","","","","","","",""
"15357.5","","image-slider-response","102","2171114","0.0-102.0","A2OU4EI5K6LZ0Z","","","","","-4","","","","","","","","","","","","","","","","","","","","","",""
"null","","image-button-response","103","2176132","0.0-103.0","A2OU4EI5K6LZ0Z","img_art/26.jpg","null","","","","","","","","","","","","","","","","","","","","","","","","",""
"11919","","image-button-response","104","2188055","0.0-104.0","A2OU4EI5K6LZ0Z","img_art/26.jpg","0","","","","","","","","","","","","","","","","","","","","","","","","",""
"6972","","image-button-response","105","2195031","0.0-105.0-0.0","A2OU4EI5K6LZ0Z","img_art/26.jpg","3","","","","","","","","","","","","","","","","","","","","","","","","",""
"18212","","image-button-response","106","2213247","0.0-106.0-0.0","A2OU4EI5K6LZ0Z","img_art/26.jpg","1","","","","","","","","","","","","","","","","","","","","","","","","",""
"null","","html-keyboard-response","107","2214249","0.0-107.0","A2OU4EI5K6LZ0Z","<p style=""font-size: 48px;"">+</p>","","","","","null","allTrialResponses","1000","1","9","img_art/26.jpg","-4","A little too much grey for my taste here.","Tyler,Nicholas,Jorge,Victor,Jeffrey,Scott","Colors look glum; photograph is not properly contrasted and does not reflect the appropriate amount of natural light.,-10,320,20","I like the colors and trees. Seems cheap vintage retail store art but i love it anyways,50,240,20","dull and boring,-6,180,20","the trees are cool,1,340,20","very relaxing and easy going,22,40,20","nothing really special, quite bland,1,20,20","Tyler","Colors look glum; photograph is not properly contrasted and does not reflect the appropriate amount of natural light.,-10,320,20","Victor","the trees are cool,1,340,20","Nicholas","I like the colors and trees. Seems cheap vintage retail store art but i love it anyways,50,240,20","0"
"112951","","survey-text","108","2327214","0.0-108.0-0.0","A2OU4EI5K6LZ0Z","","","","{""Q0"":""The background is far more interesting than the red.""}","","","","","","","","","","","","","","","","","","","","","","",""
"12733.299999952316","","image-slider-response","109","2339949","0.0-109.0","A2OU4EI5K6LZ0Z","","","","","-20","","","","","","","","","","","","","","","","","","","","","",""
"null","","image-button-response","110","2344954","0.0-110.0","A2OU4EI5K6LZ0Z","img_art/3.jpg","null","","","","","","","","","","","","","","","","","","","","","","","","",""
"32125","","image-button-response","111","2377082","0.0-111.0","A2OU4EI5K6LZ0Z","img_art/3.jpg","0","","","","","","","","","","","","","","","","","","","","","","","","",""
"2460","","image-button-response","112","2379545","0.0-112.0-0.0","A2OU4EI5K6LZ0Z","img_art/3.jpg","1","","","","","","","","","","","","","","","","","","","","","","","","",""
"4660","","image-button-response","113","2384210","0.0-113.0-0.0","A2OU4EI5K6LZ0Z","img_art/3.jpg","2","","","","","","","","","","","","","","","","","","","","","","","","",""
"null","","html-keyboard-response","114","2385212","0.0-114.0","A2OU4EI5K6LZ0Z","<p style=""font-size: 48px;"">+</p>","","","","","null","allTrialResponses","1000","1","10","img_art/3.jpg","-20","The background is far more interesting than the red.","Tyler,Nicholas,Jonathan,Victor,Malik,Alexander","This doesn't grab me. Perhaps the red is meant to be provocative; I find it gimmicky.,-9,320,20","Too angry and scribbly,-43,240,20","Something I'd paint when I'm mad. I feel that,20,140,20","Again, looks like a child's work. I don't get these types of pieces. Too simple,-47,340,20","Unaure what the artist  was doing, needs context,11,40,20","Somewhere between a child's art and a poorly drawn battle map.,8,120,20","Tyler","This doesn't grab me. Perhaps the red is meant to be provocative; I find it gimmicky.,-9,320,20","Nicholas","Too angry and scribbly,-43,240,20","Jonathan","Something I'd paint when I'm mad. I feel that,20,140,20","0"
"8872","","survey-text","115","2394097","0.0-115.0-0.0","A2OU4EI5K6LZ0Z","","","","{""Q0"":""our""}","","","","","","","","","","","","","","","","","","","","","","",""
"45593","","survey-text","116","2439693","0.0-116.0-0.0","A2OU4EI5K6LZ0Z","","","","{""Q0"":""I could look at this for hours on end.""}","","","","","","","","","","","","","","","","","","","","","","",""
"34361.10000014305","","image-slider-response","117","2474058","0.0-117.0","A2OU4EI5K6LZ0Z","","","","","45","","","","","","","","","","","","","","","","","","","","","",""
"null","","image-button-response","118","2479076","0.0-118.0","A2OU4EI5K6LZ0Z","img_art/8.jpg","null","","","","","","","","","","","","","","","","","","","","","","","","",""
"23958","","image-button-response","119","2503038","0.0-119.0","A2OU4EI5K6LZ0Z","img_art/8.jpg","5","","","","","","","","","","","","","","","","","","","","","","","","",""
"5644","","image-button-response","120","2508686","0.0-120.0-0.0","A2OU4EI5K6LZ0Z","img_art/8.jpg","0","","","","","","","","","","","","","","","","","","","","","","","","",""
"16429","","image-button-response","121","2525118","0.0-121.0-0.0","A2OU4EI5K6LZ0Z","img_art/8.jpg","2","","","","","","","","","","","","","","","","","","","","","","","","",""
"null","","html-keyboard-response","122","2526627","0.0-122.0","A2OU4EI5K6LZ0Z","<p style=""font-size: 48px;"">+</p>","","","","","null","allTrialResponses","1500","1","11","img_art/8.jpg","45","I could look at this for hours on end.","Tyler,Nicholas,Jonathan,Corey,Samuel,Hunter","The composition is striking, and some of the images are quite dramatic,11,320,20","The face bothers me,-25,240,20","It's very grand and ominous but I like it,25,140,20","its pretty exciting to look at, there is alot going on,15,260,20","being watched over,17,400,20","crisp shapes, find more things the longer you look,17,240,20","Hunter","crisp shapes, find more things the longer you look,17,240,20","Tyler","The composition is striking, and some of the images are quite dramatic,11,320,20","Jonathan","It's very grand and ominous but I like it,25,140,20","0"
"77969","","survey-text","123","2604621","0.0-123.0-0.0","A2OU4EI5K6LZ0Z","","","","{""Q0"":""Death rides a horse, pursued by a ghostly woman.""}","","","","","","","","","","","","","","","","","","","","","","",""
"10932.700000047684","","image-slider-response","124","2615557","0.0-124.0","A2OU4EI5K6LZ0Z","","","","","15","","","","","","","","","","","","","","","","","","","","","",""
"null","","image-button-response","125","2620562","0.0-125.0","A2OU4EI5K6LZ0Z","img_art/18.jpg","null","","","","","","","","","","","","","","","","","","","","","","","","",""
"20856","","image-button-response","126","2641422","0.0-126.0","A2OU4EI5K6LZ0Z","img_art/18.jpg","4","","","","","","","","","","","","","","","","","","","","","","","","",""
"6156","","image-button-response","127","2647582","0.0-127.0-0.0","A2OU4EI5K6LZ0Z","img_art/18.jpg","1","","","","","","","","","","","","","","","","","","","","","","","","",""
"4843","","image-button-response","128","2652430","0.0-128.0-0.0","A2OU4EI5K6LZ0Z","img_art/18.jpg","5","","","","","","","","","","","","","","","","","","","","","","","","",""
"null","","html-keyboard-response","129","2653934","0.0-129.0","A2OU4EI5K6LZ0Z","<p style=""font-size: 48px;"">+</p>","","","","","null","allTrialResponses","1500","1","12","img_art/18.jpg","15","Death rides a horse, pursued by a ghostly woman.","Tyler,Jack,Jonathan,Paul,Seth,Hunter","Pleasant design and composition, unpleasant theme and focus.,-19,320,20","hauntingly beautiful. more things revealed the longer you look. love the spirit-like figure in the top left.,47,320,20","There's danger in this painting and it's awesome,40,140,20","It doesn't look like much, the colors are dark and it doesn't really make me feel anything.,-2,300,20","This painting reminds me of the 4 horsemen of the apocalypse. It feels haunting.,31,60,20","creamy color, feels like organized chaos,23,240,20","Seth","This painting reminds me of the 4 horsemen of the apocalypse. It feels haunting.,31,60,20","Jack","hauntingly beautiful. more things revealed the longer you look. love the spirit-like figure in the top left.,47,320,20","Hunter","creamy color, feels like organized chaos,23,240,20","0"
"84431","","survey-text","130","2738372","0.0-130.0-0.0","A2OU4EI5K6LZ0Z","","","","{""Q0"":""I want to see the Kool-Aid man bust through that wall.""}","","","","","","","","","","","","","","","","","","","","","","",""
"17485.5","","image-slider-response","131","2755860","0.0-131.0","A2OU4EI5K6LZ0Z","","","","","3","","","","","","","","","","","","","","","","","","","","","",""
"null","","image-button-response","132","2760865","0.0-132.0","A2OU4EI5K6LZ0Z","img_art/29.jpg","null","","","","","","","","","","","","","","","","","","","","","","","","",""
"25332","","image-button-response","133","2786201","0.0-133.0","A2OU4EI5K6LZ0Z","img_art/29.jpg","1","","","","","","","","","","","","","","","","","","","","","","","","",""
"6261","","image-button-response","134","2792466","0.0-134.0-0.0","A2OU4EI5K6LZ0Z","img_art/29.jpg","0","","","","","","","","","","","","","","","","","","","","","","","","",""
"2822","","image-button-response","135","2795291","0.0-135.0-0.0","A2OU4EI5K6LZ0Z","img_art/29.jpg","5","","","","","","","","","","","","","","","","","","","","","","","","",""
"null","","html-keyboard-response","136","2795801","0.0-136.0","A2OU4EI5K6LZ0Z","<p style=""font-size: 48px;"">+</p>","","","","","null","allTrialResponses","500","1","13","img_art/29.jpg","3","I want to see the Kool-Aid man bust through that wall.","Carlos,Jack,Vincent,Derek,Seth,Hunter","It feels like looking through layers of frustration.,19,80,20","risks well taken. the brush is hilarious. feels like an artist's frustration, which is relatable.,50,320,20","Another great work of art and very conversational piece,33,360,20","Very wild and I like it,20,360,20","I rated it lower because it looked like a crime scene. It didn't make me feel good.,-44,60,20","abrasive and grotesque textures,-36,240,20","Jack","risks well taken. the brush is hilarious. feels like an artist's frustration, which is relatable.,50,320,20","Carlos","It feels like looking through layers of frustration.,19,80,20","Hunter","abrasive and grotesque textures,-36,240,20","0"
"92326","","survey-text","137","2888145","0.0-137.0-0.0","A2OU4EI5K6LZ0Z","","","","{""Q0"":""Like the squares could be rearranged to show a more coherent and interesting image.""}","","","","","","","","","","","","","","","","","","","","","","",""
"13612.799999952316","","image-slider-response","138","2901760","0.0-138.0","A2OU4EI5K6LZ0Z","","","","","2","","","","","","","","","","","","","","","","","","","","","",""
"null","","image-button-response","139","2906775","0.0-139.0","A2OU4EI5K6LZ0Z","img_art/12.jpg","null","","","","","","","","","","","","","","","","","","","","","","","","",""
"28772","","image-button-response","140","2935550","0.0-140.0","A2OU4EI5K6LZ0Z","img_art/12.jpg","1","","","","","","","","","","","","","","","","","","","","","","","","",""
"23067","","image-button-response","141","2958621","0.0-141.0-0.0","A2OU4EI5K6LZ0Z","img_art/12.jpg","2","","","","","","","","","","","","","","","","","","","","","","","","",""
"1828","","image-button-response","142","2960453","0.0-142.0-0.0","A2OU4EI5K6LZ0Z","img_art/12.jpg","5","","","","","","","","","","","","","","","","","","","","","","","","",""
"null","","html-keyboard-response","143","2961956","0.0-143.0","A2OU4EI5K6LZ0Z","<p style=""font-size: 48px;"">+</p>","","","","","null","allTrialResponses","1500","1","14","img_art/12.jpg","2","Like the squares could be rearranged to show a more coherent and interesting image.","Carlos,Jack,Brendan,Garrett,Thomas,Hunter","It is very bland and the colors are not cohesive.,-20,80,20","interesting, but feels like someone cut up a picture and pasted it together wrong. want to see the original,15,320,20","wtf is that i dont get it,-50,340,20","This image doesn't have anything going on. The top half is really ugly, I kind of like the bottom a little.,-20,180,20","Very interesting. Makes me want to look at it for a long time.,16,220,20","reminds me of a dixie cup,3,240,20","Jack","interesting, but feels like someone cut up a picture and pasted it together wrong. want to see the original,15,320,20","Brendan","wtf is that i dont get it,-50,340,20","Hunter","reminds me of a dixie cup,3,240,20","0"
"82346","","survey-text","144","3044320","0.0-144.0-0.0","A2OU4EI5K6LZ0Z","","","","{""Q0"":""Women would have liked to see this in my dorm room in college.""}","","","","","","","","","","","","","","","","","","","","","","",""
"9448.5","","image-slider-response","145","3053772","0.0-145.0","A2OU4EI5K6LZ0Z","","","","","12","","","","","","","","","","","","","","","","","","","","","",""
"null","","image-button-response","146","3058777","0.0-146.0","A2OU4EI5K6LZ0Z","img_art/24.jpg","null","","","","","","","","","","","","","","","","","","","","","","","","",""
"24324","","image-button-response","147","3083105","0.0-147.0","A2OU4EI5K6LZ0Z","img_art/24.jpg","0","","","","","","","","","","","","","","","","","","","","","","","","",""
"2084","","image-button-response","148","3085193","0.0-148.0-0.0","A2OU4EI5K6LZ0Z","img_art/24.jpg","5","","","","","","","","","","","","","","","","","","","","","","","","",""
"17756","","image-button-response","149","3102952","0.0-149.0-0.0","A2OU4EI5K6LZ0Z","img_art/24.jpg","1","","","","","","","","","","","","","","","","","","","","","","","","",""
"null","","html-keyboard-response","150","3103471","0.0-150.0","A2OU4EI5K6LZ0Z","<p style=""font-size: 48px;"">+</p>","","","","","null","allTrialResponses","500","1","15","img_art/24.jpg","12","Women would have liked to see this in my dorm room in college.","Logan,Jack,Brendan,Marcus,Cody,Hunter","brick wall waterfall girl you think you got it all,50,360,20","colors are a bit cramped together. really unique take on a waterfall though.,32,320,20","lovely forest vibes,36,340,20","Love the colors in this work, and the sense of motion in the water,36,60,20","Beautiful, good colors, love water,50,180,20","feels overdone, but still executed well,0,240,20","Logan","brick wall waterfall girl you think you got it all,50,360,20","Hunter","feels overdone, but still executed well,0,240,20","Jack","colors are a bit cramped together. really unique take on a waterfall though.,32,320,20","0"
"7901","","survey-text","151","3111400","0.0-151.0-0.0","A2OU4EI5K6LZ0Z","","","","{""Q0"":""course""}","","","","","","","","","","","","","","","","","","","","","","",""
"43921","","survey-text","152","3155324","0.0-152.0-0.0","A2OU4EI5K6LZ0Z","","","","{""Q0"":""Love the jade, reminds me of cave painting.""}","","","","","","","","","","","","","","","","","","","","","","",""
"10944.900000095367","","image-slider-response","153","3166272","0.0-153.0","A2OU4EI5K6LZ0Z","","","","","20","","","","","","","","","","","","","","","","","","","","","",""
"null","","image-button-response","154","3171282","0.0-154.0","A2OU4EI5K6LZ0Z","img_art/25.jpg","null","","","","","","","","","","","","","","","","","","","","","","","","",""
"28273","","image-button-response","155","3199561","0.0-155.0","A2OU4EI5K6LZ0Z","img_art/25.jpg","5","","","","","","","","","","","","","","","","","","","","","","","","",""
"1164","","image-button-response","156","3200728","0.0-156.0-0.0","A2OU4EI5K6LZ0Z","img_art/25.jpg","1","","","","","","","","","","","","","","","","","","","","","","","","",""
"2675","","image-button-response","157","3203408","0.0-157.0-0.0","A2OU4EI5K6LZ0Z","img_art/25.jpg","0","","","","","","","","","","","","","","","","","","","","","","","","",""
"null","","html-keyboard-response","158","3203923","0.0-158.0","A2OU4EI5K6LZ0Z","<p style=""font-size: 48px;"">+</p>","","","","","null","allTrialResponses","500","1","16","img_art/25.jpg","20","Love the jade, reminds me of cave painting.","Logan,Jack,Jacob,Mark,Ethan,Hunter","creeeeeppyyyyyyy but mad cool,-26,360,20","beautiful in a primitive way,10,320,20","I really like how the lines form this piece.,8,340,20","Looks like Burning Man, dont care for the colors.,-5,80,20","The artist was daring to create this. Don't love the green and black combo though.,9,120,20","do not like that color of green,-11,240,20","Hunter","do not like that color of green,-11,240,20","Jack","beautiful in a primitive way,10,320,20","Logan","creeeeeppyyyyyyy but mad cool,-26,360,20","0"
"84192","","survey-text","159","3288132","0.0-159.0-0.0","A2OU4EI5K6LZ0Z","","","","{""Q0"":""The artist was inspired by a girlfriend napping on a sofa.""}","","","","","","","","","","","","","","","","","","","","","","",""
"14569.400000095367","","image-slider-response","160","3302704","0.0-160.0","A2OU4EI5K6LZ0Z","","","","","3","","","","","","","","","","","","","","","","","","","","","",""
"null","","image-button-response","161","3307708","0.0-161.0","A2OU4EI5K6LZ0Z","img_art/9.jpg","null","","","","","","","","","","","","","","","","","","","","","","","","",""
"17864","","image-button-response","162","3325576","0.0-162.0","A2OU4EI5K6LZ0Z","img_art/9.jpg","0","","","","","","","","","","","","","","","","","","","","","","","","",""
"13244","","image-button-response","163","3338825","0.0-163.0-0.0","A2OU4EI5K6LZ0Z","img_art/9.jpg","1","","","","","","","","","","","","","","","","","","","","","","","","",""
"21148","","image-button-response","164","3359976","0.0-164.0-0.0","A2OU4EI5K6LZ0Z","img_art/9.jpg","2","","","","","","","","","","","","","","","","","","","","","","","","",""
"null","","html-keyboard-response","165","3360493","0.0-165.0","A2OU4EI5K6LZ0Z","<p style=""font-size: 48px;"">+</p>","","","","","null","allTrialResponses","500","1","17","img_art/9.jpg","3","The artist was inspired by a girlfriend napping on a sofa.","Logan,Jack,Alejandro,Kyle,Miguel,Hunter","is that sleeping beauty,33,360,20","gorgeous colors, love the little details,42,320,20","Evokes triumph of a mountain over powering a drowning sea,24,80,20","I like abstract art that looks that there is more than random brush strokes. This one looks the former,10,340,20","Abstract but not well made,-26,160,20","strong focal point, appealing use of selective line,11,240,20","Logan","is that sleeping beauty,33,360,20","Jack","gorgeous colors, love the little details,42,320,20","Alejandro","Evokes triumph of a mountain over powering a drowning sea,24,80,20","0"
"111696","","survey-text","166","3472203","0.0-166.0-0.0","A2OU4EI5K6LZ0Z","","","","{""Q0"":""There was a time when I wouldn't have liked this. I find it beautiful now.""}","","","","","","","","","","","","","","","","","","","","","","",""
"15765.699999809265","","image-slider-response","167","3487971","0.0-167.0","A2OU4EI5K6LZ0Z","","","","","40","","","","","","","","","","","","","","","","","","","","","",""
"null","","image-button-response","168","3492977","0.0-168.0","A2OU4EI5K6LZ0Z","img_art/13.jpg","null","","","","","","","","","","","","","","","","","","","","","","","","",""
"21943","","image-button-response","169","3514924","0.0-169.0","A2OU4EI5K6LZ0Z","img_art/13.jpg","2","","","","","","","","","","","","","","","","","","","","","","","","",""
"9104","","image-button-response","170","3524032","0.0-170.0-0.0","A2OU4EI5K6LZ0Z","img_art/13.jpg","4","","","","","","","","","","","","","","","","","","","","","","","","",""
"12924","","image-button-response","171","3536960","0.0-171.0-0.0","A2OU4EI5K6LZ0Z","img_art/13.jpg","1","","","","","","","","","","","","","","","","","","","","","","","","",""
"null","","html-keyboard-response","172","3537963","0.0-172.0","A2OU4EI5K6LZ0Z","<p style=""font-size: 48px;"">+</p>","","","","","null","allTrialResponses","1000","1","18","img_art/13.jpg","40","There was a time when I wouldn't have liked this. I find it beautiful now.","Logan,Jack,Alejandro,Eric,Joshua,Jared","so simple and stupid this looks like what I did to my cousins wall when we repainted it for her 13th bday,0,360,20","exciting & chaotic. love the colors.,50,320,20","Reminiscent of Jackson Pollock and gives me a feeling of chaotic satisfaction,50,80,20","I love the style of this piece, but the color choice could've been more eye catching or calming.,40,100,20","Like this a lot and would hang in my house.,27,240,20","the blues are soothing but the splatters are too much,-3,400,20","Alejandro","Reminiscent of Jackson Pollock and gives me a feeling of chaotic satisfaction,50,80,20","Joshua","Like this a lot and would hang in my house.,27,240,20","Jack","exciting & chaotic. love the colors.,50,320,20","0"
"71282","","survey-text","173","3609263","0.0-173.0-0.0","A2OU4EI5K6LZ0Z","","","","{""Q0"":""This reminds me of sex and yoga.""}","","","","","","","","","","","","","","","","","","","","","","",""
"14485","","image-slider-response","174","3623751","0.0-174.0","A2OU4EI5K6LZ0Z","","","","","39","","","","","","","","","","","","","","","","","","","","","",""
"null","","image-button-response","175","3628763","0.0-175.0","A2OU4EI5K6LZ0Z","img_art/30.jpg","null","","","","","","","","","","","","","","","","","","","","","","","","",""
"18185","","image-button-response","176","3646951","0.0-176.0","A2OU4EI5K6LZ0Z","img_art/30.jpg","1","","","","","","","","","","","","","","","","","","","","","","","","",""
"35273","","image-button-response","177","3682227","0.0-177.0-0.0","A2OU4EI5K6LZ0Z","img_art/30.jpg","2","","","","","","","","","","","","","","","","","","","","","","","","",""
"1956","","image-button-response","178","3684187","0.0-178.0-0.0","A2OU4EI5K6LZ0Z","img_art/30.jpg","3","","","","","","","","","","","","","","","","","","","","","","","","",""
"null","","html-keyboard-response","179","3685691","0.0-179.0","A2OU4EI5K6LZ0Z","<p style=""font-size: 48px;"">+</p>","","","","","null","allTrialResponses","1500","1","19","img_art/30.jpg","39","This reminds me of sex and yoga.","Travis,Jack,Alejandro,Dustin,Joshua,Stephen","I didn't like this...it looks like someone just finger painted it.,-10,260,20","love the movement of the brush strokes. very interesting piece.,38,320,20","An interesting design but don't like the colors. I value the time and effort put into it, but not a huge fan.,10,80,20","Soothing color palette, but doesn't look like anything. All I see are random brush strokes.,1,20,20","It's just all right.,5,240,20","A bit too dark for my liking,-10,140,20","Jack","love the movement of the brush strokes. very interesting piece.,38,320,20","Alejandro","An interesting design but don't like the colors. I value the time and effort put into it, but not a huge fan.,10,80,20","Dustin","Soothing color palette, but doesn't look like anything. All I see are random brush strokes.,1,20,20","0"
"87252","","survey-text","180","3772963","0.0-180.0-0.0","A2OU4EI5K6LZ0Z","","","","{""Q0"":""A tractor-trailer has rolled over in the desert.""}","","","","","","","","","","","","","","","","","","","","","","",""
"13477.099999904633","","image-slider-response","181","3786443","0.0-181.0","A2OU4EI5K6LZ0Z","","","","","35","","","","","","","","","","","","","","","","","","","","","",""
"null","","image-button-response","182","3791449","0.0-182.0","A2OU4EI5K6LZ0Z","img_art/20.jpg","null","","","","","","","","","","","","","","","","","","","","","","","","",""
"43073","","image-button-response","183","3834527","0.0-183.0","A2OU4EI5K6LZ0Z","img_art/20.jpg","1","","","","","","","","","","","","","","","","","","","","","","","","",""
"2708","","image-button-response","184","3837240","0.0-184.0-0.0","A2OU4EI5K6LZ0Z","img_art/20.jpg","4","","","","","","","","","","","","","","","","","","","","","","","","",""
"1564","","image-button-response","185","3838807","0.0-185.0-0.0","A2OU4EI5K6LZ0Z","img_art/20.jpg","2","","","","","","","","","","","","","","","","","","","","","","","","",""
"null","","html-keyboard-response","186","3840325","0.0-186.0","A2OU4EI5K6LZ0Z","<p style=""font-size: 48px;"">+</p>","","","","","null","allTrialResponses","1500","1","20","img_art/20.jpg","35","A tractor-trailer has rolled over in the desert.","Timothy,Jack,Alejandro,Dustin,Tristan,Gabriel","Makes me think if a car crash or some sort of disaster,-20,240,20","could look for hours. love the brush work. color choices look like a desert.,50,320,20","The pulling and sagging nature is very beautiful.,30,80,20","I don't like it. Dark sky and black figures. White objects remind me of bones.,-30,20,20","Elements that are more defined are incongruous to the soft and melting nature of this painting,5,300,20","i almost feel like i can recognize what this is,-6,160,20","Jack","could look for hours. love the brush work. color choices look like a desert.,50,320,20","Tristan","Elements that are more defined are incongruous to the soft and melting nature of this painting,5,300,20","Alejandro","The pulling and sagging nature is very beautiful.,30,80,20","0"
"3337","","survey-text","187","3843695","0.0-187.0-0.0","A2OU4EI5K6LZ0Z","","","","{""Q0"":""we""}","","","","","","","","","","","","","","","","","","","","","","",""
"51050","","survey-text","188","3894748","0.0-188.0-0.0","A2OU4EI5K6LZ0Z","","","","{""Q0"":""Gorgeous texture, reminds me of granite.""}","","","","","","","","","","","","","","","","","","","","","","",""
"8828.599999904633","","image-slider-response","189","3903579","0.0-189.0","A2OU4EI5K6LZ0Z","","","","","27","","","","","","","","","","","","","","","","","","","","","",""
"null","","image-button-response","190","3908593","0.0-190.0","A2OU4EI5K6LZ0Z","img_art/7.jpg","null","","","","","","","","","","","","","","","","","","","","","","","","",""
"21212","","image-button-response","191","3929808","0.0-191.0","A2OU4EI5K6LZ0Z","img_art/7.jpg","0","","","","","","","","","","","","","","","","","","","","","","","","",""
"637","","image-button-response","192","3930448","0.0-192.0-0.0","A2OU4EI5K6LZ0Z","img_art/7.jpg","1","","","","","","","","","","","","","","","","","","","","","","","","",""
"693","","image-button-response","193","3931144","0.0-193.0-0.0","A2OU4EI5K6LZ0Z","img_art/7.jpg","2","","","","","","","","","","","","","","","","","","","","","","","","",""
"null","","html-keyboard-response","194","3932647","0.0-194.0","A2OU4EI5K6LZ0Z","<p style=""font-size: 48px;"">+</p>","","","","","null","allTrialResponses","1500","1","21","img_art/7.jpg","27","Gorgeous texture, reminds me of granite.","Trevor,Jack,Alejandro,Connor,Tristan,Jose","looks like the surface of the moon,-28,280,20","reminds me of a desert from far above,23,320,20","I thought I was looking at a satellite image of mars.,21,80,20","Color is bland and looks damaged,-37,240,20","Limited emotional reaction for me. No focus and highly abstract,-20,300,20","Reminds me of bugs, I hate bugs,-7,200,20","Trevor","looks like the surface of the moon,-28,280,20","Jack","reminds me of a desert from far above,23,320,20","Alejandro","I thought I was looking at a satellite image of mars.,21,80,20","0"
"60254","","survey-text","195","3992919","0.0-195.0-0.0","A2OU4EI5K6LZ0Z","","","","{""Q0"":""Someone started paint a smokestack and got bored.""}","","","","","","","","","","","","","","","","","","","","","","",""
"10237.299999952316","","image-slider-response","196","4003159","0.0-196.0","A2OU4EI5K6LZ0Z","","","","","-10","","","","","","","","","","","","","","","","","","","","","",""
"null","","image-button-response","197","4008164","0.0-197.0","A2OU4EI5K6LZ0Z","img_art/4.jpg","null","","","","","","","","","","","","","","","","","","","","","","","","",""
"19092","","image-button-response","198","4027260","0.0-198.0","A2OU4EI5K6LZ0Z","img_art/4.jpg","1","","","","","","","","","","","","","","","","","","","","","","","","",""
"1320","","image-button-response","199","4028583","0.0-199.0-0.0","A2OU4EI5K6LZ0Z","img_art/4.jpg","2","","","","","","","","","","","","","","","","","","","","","","","","",""
"13857","","image-button-response","200","4042444","0.0-200.0-0.0","A2OU4EI5K6LZ0Z","img_art/4.jpg","4","","","","","","","","","","","","","","","","","","","","","","","","",""
"null","","html-keyboard-response","201","4043447","0.0-201.0","A2OU4EI5K6LZ0Z","<p style=""font-size: 48px;"">+</p>","","","","","null","allTrialResponses","1000","1","22","img_art/4.jpg","-10","Someone started paint a smokestack and got bored.","Trevor,Jack,Alejandro,Michael,Jake,Richard","not enough color and too yellow for me. Not my favorite colors,-10,280,20","creepy, looks like a deformed hand, but the background is pretty,5,320,20","Looks like finger nails from the Guinness world record book.,-30,80,20","Looks like a child did it.,-42,140,20","This is ugly in color and in terms of the shape on it.,-32,360,20","too childish, not really art in my world,-50,340,20","Jack","creepy, looks like a deformed hand, but the background is pretty,5,320,20","Alejandro","Looks like finger nails from the Guinness world record book.,-30,80,20","Jake","This is ugly in color and in terms of the shape on it.,-32,360,20","0"
"78801","","survey-text","202","4122267","0.0-202.0-0.0","A2OU4EI5K6LZ0Z","","","","{""Q0"":""This just does nothing for me, unfortunately.""}","","","","","","","","","","","","","","","","","","","","","","",""
"9965.100000143051","","image-slider-response","203","4132235","0.0-203.0","A2OU4EI5K6LZ0Z","","","","","-42","","","","","","","","","","","","","","","","","","","","","",""
"null","","image-button-response","204","4137240","0.0-204.0","A2OU4EI5K6LZ0Z","img_art/2.jpg","null","","","","","","","","","","","","","","","","","","","","","","","","",""
"18831","","image-button-response","205","4156075","0.0-205.0","A2OU4EI5K6LZ0Z","img_art/2.jpg","2","","","","","","","","","","","","","","","","","","","","","","","","",""
"704","","image-button-response","206","4156783","0.0-206.0-0.0","A2OU4EI5K6LZ0Z","img_art/2.jpg","1","","","","","","","","","","","","","","","","","","","","","","","","",""
"1068","","image-button-response","207","4157856","0.0-207.0-0.0","A2OU4EI5K6LZ0Z","img_art/2.jpg","3","","","","","","","","","","","","","","","","","","","","","","","","",""
"null","","html-keyboard-response","208","4158358","0.0-208.0","A2OU4EI5K6LZ0Z","<p style=""font-size: 48px;"">+</p>","","","","","null","allTrialResponses","500","1","23","img_art/2.jpg","-42","This just does nothing for me, unfortunately.","Cameron,Jack,Alejandro,Jesus,Jake,Christian","Ugly version of that park painting.,-31,60,20","the colors are a bit odd, and the squiggly line at the top is distracting,0,320,20","Looks contrived and like someone tried to hard to make it abstract,-31,80,20","Muted green is overpowering,-10,100,20","These colors are ugly.,-40,360,20","do not understand,-21,140,20","Alejandro","Looks contrived and like someone tried to hard to make it abstract,-31,80,20","Jack","the colors are a bit odd, and the squiggly line at the top is distracting,0,320,20","Jesus","Muted green is overpowering,-10,100,20","0"
"56593","","survey-text","209","4214970","0.0-209.0-0.0","A2OU4EI5K6LZ0Z","","","","{""Q0"":""I see a cat's face and a huddled child.""}","","","","","","","","","","","","","","","","","","","","","","",""
"7357.600000143051","","image-slider-response","210","4222331","0.0-210.0","A2OU4EI5K6LZ0Z","","","","","4","","","","","","","","","","","","","","","","","","","","","",""
"null","","image-button-response","211","4227349","0.0-211.0","A2OU4EI5K6LZ0Z","img_art/28.jpg","null","","","","","","","","","","","","","","","","","","","","","","","","",""
"22728","","image-button-response","212","4250079","0.0-212.0","A2OU4EI5K6LZ0Z","img_art/28.jpg","1","","","","","","","","","","","","","","","","","","","","","","","","",""
"1133","","image-button-response","213","4251218","0.0-213.0-0.0","A2OU4EI5K6LZ0Z","img_art/28.jpg","2","","","","","","","","","","","","","","","","","","","","","","","","",""
"3184","","image-button-response","214","4254407","0.0-214.0-0.0","A2OU4EI5K6LZ0Z","img_art/28.jpg","0","","","","","","","","","","","","","","","","","","","","","","","","",""
"null","","html-keyboard-response","215","4255911","0.0-215.0","A2OU4EI5K6LZ0Z","<p style=""font-size: 48px;"">+</p>","","","","","null","allTrialResponses","1500","1","24","img_art/28.jpg","4","I see a cat's face and a huddled child.","Christopher,Jack,Alejandro,Jesus,Elijah,Bradley","something about all the off-greys is pretty interesting,5,160,20","looks like humanoid figures in distress. I like it, but makes me slightly uncomfortable,35,320,20","I like the flow and abstract nature of what seems to be humans,40,80,20","The muted tones aren't my favorite.,-10,100,20","The colors are depressing,-5,80,20","I think this may have to do with humpty dumpty?,-7,300,20","Jack","looks like humanoid figures in distress. I like it, but makes me slightly uncomfortable,35,320,20","Alejandro","I like the flow and abstract nature of what seems to be humans,40,80,20","Christopher","something about all the off-greys is pretty interesting,5,160,20","0"
"132518","","survey-text","216","4388450","0.0-216.0-0.0","A2OU4EI5K6LZ0Z","","","","{""Q0"":""Reminds me of stage projection Kanye used performing Love Lockdown.""}","","","","","","","","","","","","","","","","","","","","","","",""
"7017.400000095367","","image-slider-response","217","4395470","0.0-217.0","A2OU4EI5K6LZ0Z","","","","","8","","","","","","","","","","","","","","","","","","","","","",""
"null","","image-button-response","218","4400483","0.0-218.0","A2OU4EI5K6LZ0Z","img_art/23.jpg","null","","","","","","","","","","","","","","","","","","","","","","","","",""
"21024","","image-button-response","219","4421511","0.0-219.0","A2OU4EI5K6LZ0Z","img_art/23.jpg","2","","","","","","","","","","","","","","","","","","","","","","","","",""
"9911","","image-button-response","220","4431427","0.0-220.0-0.0","A2OU4EI5K6LZ0Z","img_art/23.jpg","0","","","","","","","","","","","","","","","","","","","","","","","","",""
"1124","","image-button-response","221","4432555","0.0-221.0-0.0","A2OU4EI5K6LZ0Z","img_art/23.jpg","1","","","","","","","","","","","","","","","","","","","","","","","","",""
"null","","html-keyboard-response","222","4434059","0.0-222.0","A2OU4EI5K6LZ0Z","<p style=""font-size: 48px;"">+</p>","","","","","null","allTrialResponses","1500","1","25","img_art/23.jpg","8","Reminds me of stage projection Kanye used performing Love Lockdown.","Christopher,Jack,Alejandro,Mason,Chase,Aaron","it's not uninteresting, but i'm not responding to it,-7,160,20","awesome colors. love the white drawing the eye to the center. oddly comforting.,50,320,20","I love the funky colors accompanied by perhaps dancing silhouettes. I love the white against the chaotic surroundings.,50,80,20","No reactions, childish.,-19,100,20","It's kind of neat with the white slash marks.,13,120,20","I love the colors and the contrast.,50,20,20","Alejandro","I love the funky colors accompanied by perhaps dancing silhouettes. I love the white against the chaotic surroundings.,50,80,20","Christopher","it's not uninteresting, but i'm not responding to it,-7,160,20","Jack","awesome colors. love the white drawing the eye to the center. oddly comforting.,50,320,20","0"
"5664","","survey-text","223","4439746","0.0-223.0-0.0","A2OU4EI5K6LZ0Z","","","","{""Q0"":""table""}","","","","","","","","","","","","","","","","","","","","","","",""
"35370","","survey-text","224","4475119","0.0-224.0-0.0","A2OU4EI5K6LZ0Z","","","","{""Q0"":""A shrub of some kind.""}","","","","","","","","","","","","","","","","","","","","","","",""
"6941","","image-slider-response","225","4482063","0.0-225.0","A2OU4EI5K6LZ0Z","","","","","-10","","","","","","","","","","","","","","","","","","","","","",""
"3296","","image-button-response","226","4487068","0.0-226.0","A2OU4EI5K6LZ0Z","img_art/14.jpg","0","","","","","","","","","","","","","","","","","","","","","","","","",""
"1086","","image-button-response","227","4488159","0.0-227.0","A2OU4EI5K6LZ0Z","img_art/14.jpg","2","","","","","","","","","","","","","","","","","","","","","","","","",""
"853","","image-button-response","228","4489015","0.0-228.0-0.0","A2OU4EI5K6LZ0Z","img_art/14.jpg","0","","","","","","","","","","","","","","","","","","","","","","","","",""
"18088","","image-button-response","229","4507107","0.0-229.0-0.0","A2OU4EI5K6LZ0Z","img_art/14.jpg","4","","","","","","","","","","","","","","","","","","","","","","","","",""
"null","","html-keyboard-response","230","4508610","0.0-230.0","A2OU4EI5K6LZ0Z","<p style=""font-size: 48px;"">+</p>","","","","","null","allTrialResponses","1500","1","26","img_art/14.jpg","-10","A shrub of some kind.","Christopher,Jack,Alejandro,Devin,Robert,Patrick","this looks pretty childish,-15,160,20","love the colors. despite their brightness it seems sad somehow.,41,320,20","It looks like a tree but the bleeding water colors lack borders and makes it hard to appreciate the message.,-41,80,20","It looks nice colorwise but detail is lacking,18,380,20","Late Winter when things are just starting to bloom.,21,360,20","It uplifts my mood due to the color scheme,32,280,20","Alejandro","It looks like a tree but the bleeding water colors lack borders and makes it hard to appreciate the message.,-41,80,20","Christopher","this looks pretty childish,-15,160,20","Robert","Late Winter when things are just starting to bloom.,21,360,20","0"
"26718","","survey-text","231","4535338","0.0-231.0-0.0","A2OU4EI5K6LZ0Z","","","","{""Q0"":""looks like a cityscape to me.""}","","","","","","","","","","","","","","","","","","","","","","",""
"6740.399999856949","","image-slider-response","232","4542082","0.0-232.0","A2OU4EI5K6LZ0Z","","","","","4","","","","","","","","","","","","","","","","","","","","","",""
"2269","","image-button-response","233","4547086","0.0-233.0","A2OU4EI5K6LZ0Z","img_art/11.jpg","1","","","","","","","","","","","","","","","","","","","","","","","","",""
"1296","","image-button-response","234","4548387","0.0-234.0","A2OU4EI5K6LZ0Z","img_art/11.jpg","1","","","","","","","","","","","","","","","","","","","","","","","","",""
"7788","","image-button-response","235","4556179","0.0-235.0-0.0","A2OU4EI5K6LZ0Z","img_art/11.jpg","2","","","","","","","","","","","","","","","","","","","","","","","","",""
"2391","","image-button-response","236","4558574","0.0-236.0-0.0","A2OU4EI5K6LZ0Z","img_art/11.jpg","4","","","","","","","","","","","","","","","","","","","","","","","","",""
"null","","html-keyboard-response","237","4559577","0.0-237.0","A2OU4EI5K6LZ0Z","<p style=""font-size: 48px;"">+</p>","","","","","null","allTrialResponses","1000","1","27","img_art/11.jpg","4","looks like a cityscape to me.","Christopher,Brandon,Alejandro,Zachary,Robert,Gregory","i like the gray tones with black lines and bits of color,23,160,20","Don't like cityscapes, which this picture reminds me of,-29,320,20","Enjoyed the lines representing different paths that encompass different entities,20,80,20","Makes me think of a futuristic scene of vehicles flying in the sky in a city.,36,400,20","Rainy dreary day in a town.,7,360,20","Looks like a cityscape,25,220,20","Brandon","Don't like cityscapes, which this picture reminds me of,-29,320,20","Alejandro","Enjoyed the lines representing different paths that encompass different entities,20,80,20","Robert","Rainy dreary day in a town.,7,360,20","0"
"27305","","survey-text","238","4586902","0.0-238.0-0.0","A2OU4EI5K6LZ0Z","","","","{""Q0"":""Does nothing for me.""}","","","","","","","","","","","","","","","","","","","","","","",""
"5245.100000143051","","image-slider-response","239","4592150","0.0-239.0","A2OU4EI5K6LZ0Z","","","","","-40","","","","","","","","","","","","","","","","","","","","","",""
"2557","","image-button-response","240","4597168","0.0-240.0","A2OU4EI5K6LZ0Z","img_art/1.jpg","1","","","","","","","","","","","","","","","","","","","","","","","","",""
"753","","image-button-response","241","4597926","0.0-241.0","A2OU4EI5K6LZ0Z","img_art/1.jpg","1","","","","","","","","","","","","","","","","","","","","","","","","",""
"3317","","image-button-response","242","4601247","0.0-242.0-0.0","A2OU4EI5K6LZ0Z","img_art/1.jpg","2","","","","","","","","","","","","","","","","","","","","","","","","",""
"5011","","image-button-response","243","4606263","0.0-243.0-0.0","A2OU4EI5K6LZ0Z","img_art/1.jpg","4","","","","","","","","","","","","","","","","","","","","","","","","",""
"null","","html-keyboard-response","244","4607766","0.0-244.0","A2OU4EI5K6LZ0Z","<p style=""font-size: 48px;"">+</p>","","","","","null","allTrialResponses","1500","1","28","img_art/1.jpg","-40","Does nothing for me.","John,Brandon,Alejandro,Anthony,Robert,Luis","Its okay,not great.,1,120,20","Taco Bell wallpaper. Doesn't really make me feel anything,3,320,20","Interesting color scheme but to bled to me,11,80,20","Bright and colorful without being overpowering,32,200,20","Pretty colors. Fall day in the East Coast of USA.,42,360,20","I love the calming comfort and safe feeling of this,50,400,20","Brandon","Taco Bell wallpaper. Doesn't really make me feel anything,3,320,20","Alejandro","Interesting color scheme but to bled to me,11,80,20","Robert","Pretty colors. Fall day in the East Coast of USA.,42,360,20","0"
"12911","","survey-text","245","4620698","0.0-245.0-0.0","A2OU4EI5K6LZ0Z","","","","{""Q0"":""I like this more than I should.""}","","","","","","","","","","","","","","","","","","","","","","",""
"5117","","image-slider-response","246","4625818","0.0-246.0","A2OU4EI5K6LZ0Z","","","","","20","","","","","","","","","","","","","","","","","","","","","",""
"null","","image-button-response","247","4631633","0.0-247.0","A2OU4EI5K6LZ0Z","img_art/5.jpg","null","","","","","","","","","","","","","","","","","","","","","","","","",""
"10532","","image-button-response","248","4642170","0.0-248.0","A2OU4EI5K6LZ0Z","img_art/5.jpg","3","","","","","","","","","","","","","","","","","","","","","","","","",""
"3053","","image-button-response","249","4645226","0.0-249.0-0.0","A2OU4EI5K6LZ0Z","img_art/5.jpg","2","","","","","","","","","","","","","","","","","","","","","","","","",""
"3701","","image-button-response","250","4648931","0.0-250.0-0.0","A2OU4EI5K6LZ0Z","img_art/5.jpg","0","","","","","","","","","","","","","","","","","","","","","","","","",""
"null","","html-keyboard-response","251","4650443","0.0-251.0","A2OU4EI5K6LZ0Z","<p style=""font-size: 48px;"">+</p>","","","","","null","allTrialResponses","1500","1","29","img_art/5.jpg","20","I like this more than I should.","Benjamin,Brandon,Alejandro,Brett,Robert,Grant","Missing something,-5,260,20","Kindergarten art. I really don't like this style.,-50,320,20","Confused as to what the artist is attempting to do.,-50,80,20","It reminds me of a piece of lemon candy, which is one of my favorite flavors,20,360,20","This did not do a thing for me.,-50,360,20","This elicits no reaction in me.,0,200,20","Brett","It reminds me of a piece of lemon candy, which is one of my favorite flavors,20,360,20","Alejandro","Confused as to what the artist is attempting to do.,-50,80,20","Benjamin","Missing something,-5,260,20","0"
"17231","","survey-text","252","4667694","0.0-252.0-0.0","A2OU4EI5K6LZ0Z","","","","{""Q0"":""Just ugly and boring.""}","","","","","","","","","","","","","","","","","","","","","","",""
"5068.599999904633","","image-slider-response","253","4672766","0.0-253.0","A2OU4EI5K6LZ0Z","","","","","-46","","","","","","","","","","","","","","","","","","","","","",""
"4881","","image-button-response","254","4677778","0.0-254.0","A2OU4EI5K6LZ0Z","img_art/27.jpg","2","","","","","","","","","","","","","","","","","","","","","","","","",""
"1438","","image-button-response","255","4679222","0.0-255.0","A2OU4EI5K6LZ0Z","img_art/27.jpg","2","","","","","","","","","","","","","","","","","","","","","","","","",""
"3500","","image-button-response","256","4682726","0.0-256.0-0.0","A2OU4EI5K6LZ0Z","img_art/27.jpg","4","","","","","","","","","","","","","","","","","","","","","","","","",""
"5244","","image-button-response","257","4687974","0.0-257.0-0.0","A2OU4EI5K6LZ0Z","img_art/27.jpg","1","","","","","","","","","","","","","","","","","","","","","","","","",""
"null","","html-keyboard-response","258","4688978","0.0-258.0","A2OU4EI5K6LZ0Z","<p style=""font-size: 48px;"">+</p>","","","","","null","allTrialResponses","1000","1","30","img_art/27.jpg","-46","Just ugly and boring.","Benjamin,Nathaniel,Alejandro,Brett,Nathan,Adam","I like the colors.,6,260,20","Looks like a splash of different colors and designs without purpose,-44,220,20","Muddied and directionless. Like someone dragged a brush across the paper for the sake of doing something.,-50,80,20","Soothing in the middle of some confusion,40,360,20","Looks a bit like a child's project with unsatisfying colors,-31,200,20","Warn colors are pretty, but too blotchy for me.,3,40,20","Alejandro","Muddied and directionless. Like someone dragged a brush across the paper for the sake of doing something.,-50,80,20","Nathan","Looks a bit like a child's project with unsatisfying colors,-31,200,20","Nathaniel","Looks like a splash of different colors and designs without purpose,-44,220,20","0"
"4120","","image-button-response_instructions","259","4693117","0.0-259.0","A2OU4EI5K6LZ0Z","","0","instructions","","","","","","","","","","","","","","","","","","","","","","","",""
"1968","","image-button-response","260","4695094","0.0-260.0","A2OU4EI5K6LZ0Z","","0","","","","","","","","","","","","","","","","","","","","","","","","",""
