"rt","url","trial_type","trial_index","time_elapsed","internal_node_id","participant_id","stimulus","button_pressed","Name","responses","response","key_press","variableName","fixationTime","condition","trial","photo","subjectRating","subjectResponse","agentsNames","agent_1_Response","agent_2_Response","agent_3_Response","agent_4_Response","agent_5_Response","agent_6_Response","kept_1_name","kept_1_response","kept_2_name","kept_2_response","kept_3_name","kept_3_response","errorCounter"
"41794","external_page_harvard.html","external-html","0","41916","0.0-0.0","A2PQDK3MLDFXYM","","","","","","","","","","","","","","","","","","","","","","","","","","",""
"2709","","image-button-response","1","44626","0.0-1.0","A2PQDK3MLDFXYM","","1","","","","","","","","","","","","","","","","","","","","","","","","",""
"1556","","image-button-response","2","46186","0.0-2.0-0.0","A2PQDK3MLDFXYM","","1","phone","","","","","","","","","","","","","","","","","","","","","","","",""
"5023","","survey-text","3","51210","0.0-3.0-0.0","A2PQDK3MLDFXYM","","","","{""Q0"":""A2PQDK3MLDFXYM""}","","","","","","","","","","","","","","","","","","","","","","",""
"7272","","image-button-response_instructions","4","58483","0.0-4.0","A2PQDK3MLDFXYM","","0","instructions","","","","","","","","","","","","","","","","","","","","","","","",""
"12167","","image-button-response_instructions","5","70651","0.0-5.0","A2PQDK3MLDFXYM","img_art/ins/popularity/ins1.png","0","instructions","","","","","","","","","","","","","","","","","","","","","","","",""
"3239","","image-button-response_instructions","6","73891","0.0-6.0","A2PQDK3MLDFXYM","img_art/ins/popularity/ins2.png","0","instructions","","","","","","","","","","","","","","","","","","","","","","","",""
"4343","","image-button-response_instructions","7","78235","0.0-7.0","A2PQDK3MLDFXYM","img_art/ins/popularity/ins2Extreme.png","0","instructions","","","","","","","","","","","","","","","","","","","","","","","",""
"6207","","image-button-response_instructions","8","84443","0.0-8.0","A2PQDK3MLDFXYM","img_art/ins/popularity/ins3KEEPpop.PNG","0","instructions","","","","","","","","","","","","","","","","","","","","","","","",""
"5871","","image-button-response_instructions","9","90315","0.0-9.0","A2PQDK3MLDFXYM","img_art/ins/popularity/ins3ANamepop.PNG","0","instructions","","","","","","","","","","","","","","","","","","","","","","","",""
"3935","","image-button-response_instructions","10","94251","0.0-10.0","A2PQDK3MLDFXYM","img_art/ins/popularity/ins3ARatingpop.png","0","instructions","","","","","","","","","","","","","","","","","","","","","","","",""
"2823","","image-button-response_instructions","11","97075","0.0-11.0","A2PQDK3MLDFXYM","img_art/ins/popularity/ins3ATextpop.png","0","instructions","","","","","","","","","","","","","","","","","","","","","","","",""
"9799","","image-button-response_instructions","12","106875","0.0-12.0","A2PQDK3MLDFXYM","img_art/ins/popularity/ins3ALikespop.png","0","instructions","","","","","","","","","","","","","","","","","","","","","","","",""
"13791","","image-button-response_instructions","13","120666","0.0-13.0","A2PQDK3MLDFXYM","img_art/ins/popularity/ins3KEEPpop.PNG","0","instructions","","","","","","","","","","","","","","","","","","","","","","","",""
"6903","","image-button-response_instructions","14","127570","0.0-14.0","A2PQDK3MLDFXYM","img_art/ins/popularity/ins3_5RED.png","0","instructions","","","","","","","","","","","","","","","","","","","","","","","",""
"9327","","image-button-response_instructions","15","136898","0.0-15.0","A2PQDK3MLDFXYM","img_art/ins/popularity/ins3KEEPpop.PNG","0","instructions","","","","","","","","","","","","","","","","","","","","","","","",""
"7055","","image-button-response_instructions","16","143954","0.0-16.0","A2PQDK3MLDFXYM","img_art/ins/popularity/ins4KEEPpop.PNG","0","instructions","","","","","","","","","","","","","","","","","","","","","","","",""
"10735","","image-button-response_instructions","17","154690","0.0-17.0","A2PQDK3MLDFXYM","img_art/ins/popularity/ins5KEEPpop.PNG","0","instructions","","","","","","","","","","","","","","","","","","","","","","","",""
"2559","","image-button-response_instructions","18","157250","0.0-18.0","A2PQDK3MLDFXYM","","0","instructions","","","","","","","","","","","","","","","","","","","","","","","",""
"6260","","survey-text","19","163530","0.0-19.0-0.0","A2PQDK3MLDFXYM","","","","{""Q0"":""but""}","","","","","","","","","","","","","","","","","","","","","","",""
"11607","","survey-text","20","175138","0.0-20.0-0.0","A2PQDK3MLDFXYM","","","","{""Q0"":""I love the soft pink colors.""}","","","","","","","","","","","","","","","","","","","","","","",""
"5014.099999904633","","image-slider-response","21","180153","0.0-21.0","A2PQDK3MLDFXYM","","","","","36","","","","","","","","","","","","","","","","","","","","","",""
"null","","image-button-response","22","185168","0.0-22.0","A2PQDK3MLDFXYM","img_art/ins/1.jpg","null","","","","","","","","","","","","","","","","","","","","","","","","",""
"16447","","image-button-response","23","201618","0.0-23.0","A2PQDK3MLDFXYM","img_art/ins/1.jpg","5","","","","","","","","","","","","","","","","","","","","","","","","",""
"1382","","image-button-response","24","203002","0.0-24.0-0.0","A2PQDK3MLDFXYM","img_art/ins/1.jpg","4","","","","","","","","","","","","","","","","","","","","","","","","",""
"2894","","image-button-response","25","205897","0.0-25.0-0.0","A2PQDK3MLDFXYM","img_art/ins/1.jpg","0","","","","","","","","","","","","","","","","","","","","","","","","",""
"null","","html-keyboard-response","26","207406","0.0-26.0","A2PQDK3MLDFXYM","<p style=""font-size: 48px;"">+</p>","","","","","null","allTrialResponses","1500","1","-2","img_art/ins/1.jpg","36","I love the soft pink colors.","Allison,Ashley,Beth,Dora,Erika,Jen","looks like a lot of things going on in the mist,20,20,20","I just don't get why these type of art would be popular,-32,40,20","This color reminds me of poo,-46,60,20","looks like what my niece in 3rd grade did this afternoon,-50,80,20","I like the sophisticated brushwork,40,100,20","It reminds me of a candy land dream I had,36,120,20","Jen","It reminds me of a candy land dream I had,36,120,20","Erika","I like the sophisticated brushwork,40,100,20","Allison","looks like a lot of things going on in the mist,20,20,20","0"
"12737","","survey-text","27","220153","0.0-27.0-0.0","A2PQDK3MLDFXYM","","","","{""Q0"":""The red in this really stands out to me.""}","","","","","","","","","","","","","","","","","","","","","","",""
"2902.7000000476837","","image-slider-response","28","223057","0.0-28.0","A2PQDK3MLDFXYM","","","","","21","","","","","","","","","","","","","","","","","","","","","",""
"null","","image-button-response","29","228062","0.0-29.0","A2PQDK3MLDFXYM","img_art/ins/2.jpg","null","","","","","","","","","","","","","","","","","","","","","","","","",""
"5369","","image-button-response","30","233434","0.0-30.0","A2PQDK3MLDFXYM","img_art/ins/2.jpg","1","","","","","","","","","","","","","","","","","","","","","","","","",""
"3070","","image-button-response","31","236505","0.0-31.0-0.0","A2PQDK3MLDFXYM","img_art/ins/2.jpg","5","","","","","","","","","","","","","","","","","","","","","","","","",""
"1878","","image-button-response","32","238386","0.0-32.0-0.0","A2PQDK3MLDFXYM","img_art/ins/2.jpg","4","","","","","","","","","","","","","","","","","","","","","","","","",""
"null","","html-keyboard-response","33","238888","0.0-33.0","A2PQDK3MLDFXYM","<p style=""font-size: 48px;"">+</p>","","","","","null","allTrialResponses","500","1","-1","img_art/ins/2.jpg","21","The red in this really stands out to me.","Allison,Kara,Katie,Jenna,Erika,Jen","I don't have strong feelings about this,10,20,20","I like the blocks of color arrangements,30,160,20","too much color!,-28,180,20","One of my pet peevs,-48,140,20","I would never be able to compose a sophisticated pallete like this,48,100,20","It reminds me of a fireplace,36,120,20","Kara","I like the blocks of color arrangements,30,160,20","Jen","It reminds me of a fireplace,36,120,20","Erika","I would never be able to compose a sophisticated pallete like this,48,100,20","0"
"14056","","survey-text","34","252953","0.0-34.0-0.0","A2PQDK3MLDFXYM","","","","{""Q0"":""This reminds me of snow and the cold. ""}","","","","","","","","","","","","","","","","","","","","","","",""
"3846.4000000953674","","image-slider-response","35","256801","0.0-35.0","A2PQDK3MLDFXYM","","","","","33","","","","","","","","","","","","","","","","","","","","","",""
"3983","","image-button-response","36","261808","0.0-36.0","A2PQDK3MLDFXYM","img_art/ins/3.jpg","5","","","","","","","","","","","","","","","","","","","","","","","","",""
"1623","","image-button-response","37","263434","0.0-37.0","A2PQDK3MLDFXYM","img_art/ins/3.jpg","4","","","","","","","","","","","","","","","","","","","","","","","","",""
"455","","image-button-response","38","263889","0.0-38.0-0.0","A2PQDK3MLDFXYM","img_art/ins/3.jpg","5","","","","","","","","","","","","","","","","","","","","","","","","",""
"5894","","image-button-response","39","269785","0.0-39.0-0.0","A2PQDK3MLDFXYM","img_art/ins/3.jpg","1","","","","","","","","","","","","","","","","","","","","","","","","",""
"null","","html-keyboard-response","40","270288","0.0-40.0","A2PQDK3MLDFXYM","<p style=""font-size: 48px;"">+</p>","","","","","null","allTrialResponses","500","1","0","img_art/ins/3.jpg","33","This reminds me of snow and the cold. ","Mary,Kara,Rose,Leslie,Erika,Jen","I like the overlapping of brushes,41,220,20","calming blue is very nice,36,160,20","My daily routine, it's depressing,-20,240,20","It's an alright work,15,200,20","I feel connected to the artist,40,100,20","I can feel a rainy day from this painting,18,120,20","Erika","I feel connected to the artist,40,100,20","Jen","I can feel a rainy day from this painting,18,120,20","Kara","calming blue is very nice,36,160,20","0"
"8630","","image-button-response_instructions","41","278929","0.0-41.0","A2PQDK3MLDFXYM","","0","instructions","","","","","","","","","","","","","","","","","","","","","","","",""
"14663","","survey-likert","42","293594","0.0-42.0-0.0","A2PQDK3MLDFXYM","","","","{""Q0"":"""",""Q1"":0,""Q2"":1}","","","","","","","","","","","","","","","","","","","","","","",""
"4292","","survey-text","43","297889","0.0-43.0-0.0","A2PQDK3MLDFXYM","","","","{""Q0"":""rock""}","","","","","","","","","","","","","","","","","","","","","","",""
"11927","","survey-text","44","309817","0.0-44.0-0.0","A2PQDK3MLDFXYM","","","","{""Q0"":""Beautiful soft watercolors. ""}","","","","","","","","","","","","","","","","","","","","","","",""
"3286.9000000953674","","image-slider-response","45","313105","0.0-45.0","A2PQDK3MLDFXYM","","","","","22","","","","","","","","","","","","","","","","","","","","","",""
"null","","image-button-response","46","318132","0.0-46.0","A2PQDK3MLDFXYM","img_art/26.jpg","null","","","","","","","","","","","","","","","","","","","","","","","","",""
"7482","","image-button-response","47","325618","0.0-47.0","A2PQDK3MLDFXYM","img_art/26.jpg","0","","","","","","","","","","","","","","","","","","","","","","","","",""
"8982","","image-button-response","48","334602","0.0-48.0-0.0","A2PQDK3MLDFXYM","img_art/26.jpg","4","","","","","","","","","","","","","","","","","","","","","","","","",""
"2982","","image-button-response","49","337586","0.0-49.0-0.0","A2PQDK3MLDFXYM","img_art/26.jpg","3","","","","","","","","","","","","","","","","","","","","","","","","",""
"null","","html-keyboard-response","50","338588","0.0-50.0","A2PQDK3MLDFXYM","<p style=""font-size: 48px;"">+</p>","","","","","null","allTrialResponses","1000","1","1","img_art/26.jpg","22","Beautiful soft watercolors. ","Dominique,Alexa,Brittany,Angela,Stephanie,Madeline","Small town and home feel on A nice day.,28,400,20","Looks messy and like it was painted by a small child,-48,40,20","It looks boring and too rough.,-9,40,20","Nice, but not very interesting. I do like the blue tree though.,6,260,20","Day just begun in the city and the stores are opening their doors.,41,300,20","I like the shapes but needs more detail i think,3,40,20","Dominique","Small town and home feel on A nice day.,28,400,20","Stephanie","Day just begun in the city and the stores are opening their doors.,41,300,20","Angela","Nice, but not very interesting. I do like the blue tree though.,6,260,20","0"
"18123","","survey-text","51","356721","0.0-51.0-0.0","A2PQDK3MLDFXYM","","","","{""Q0"":""This is very unique and the color green is stunning. ""}","","","","","","","","","","","","","","","","","","","","","","",""
"3902.300000190735","","image-slider-response","52","360624","0.0-52.0","A2PQDK3MLDFXYM","","","","","37","","","","","","","","","","","","","","","","","","","","","",""
"null","","image-button-response","53","365627","0.0-53.0","A2PQDK3MLDFXYM","img_art/25.jpg","null","","","","","","","","","","","","","","","","","","","","","","","","",""
"4914","","image-button-response","54","370545","0.0-54.0","A2PQDK3MLDFXYM","img_art/25.jpg","0","","","","","","","","","","","","","","","","","","","","","","","","",""
"2182","","image-button-response","55","372729","0.0-55.0-0.0","A2PQDK3MLDFXYM","img_art/25.jpg","2","","","","","","","","","","","","","","","","","","","","","","","","",""
"8470","","image-button-response","56","381201","0.0-56.0-0.0","A2PQDK3MLDFXYM","img_art/25.jpg","4","","","","","","","","","","","","","","","","","","","","","","","","",""
"null","","html-keyboard-response","57","382713","0.0-57.0","A2PQDK3MLDFXYM","<p style=""font-size: 48px;"">+</p>","","","","","null","allTrialResponses","1500","1","2","img_art/25.jpg","37","This is very unique and the color green is stunning. ","Dominique,Ashley,Sabrina,Angela,Stephanie,Miranda","Iike this picture; it speaks to me on a personal level. But seems to scare the ones around me.,7,400,20","haunting, a lovely impression.,50,320,20","New life, rising from your personal battles,50,120,20","Ugly green color and don't like it at all,-30,260,20","It made me think of healing.,22,300,20","This looks cool but I don't really care for it. Some sort or religious figure?,16,320,20","Dominique","Iike this picture; it speaks to me on a personal level. But seems to scare the ones around me.,7,400,20","Sabrina","New life, rising from your personal battles,50,120,20","Stephanie","It made me think of healing.,22,300,20","0"
"21397","","survey-text","58","404121","0.0-58.0-0.0","A2PQDK3MLDFXYM","","","","{""Q0"":""This is very interesting but I don't like the red smudge at the top. ""}","","","","","","","","","","","","","","","","","","","","","","",""
"2350.7000000476837","","image-slider-response","59","406473","0.0-59.0","A2PQDK3MLDFXYM","","","","","10","","","","","","","","","","","","","","","","","","","","","",""
"null","","image-button-response","60","411489","0.0-60.0","A2PQDK3MLDFXYM","img_art/21.jpg","null","","","","","","","","","","","","","","","","","","","","","","","","",""
"6349","","image-button-response","61","417841","0.0-61.0","A2PQDK3MLDFXYM","img_art/21.jpg","0","","","","","","","","","","","","","","","","","","","","","","","","",""
"5503","","image-button-response","62","423345","0.0-62.0-0.0","A2PQDK3MLDFXYM","img_art/21.jpg","2","","","","","","","","","","","","","","","","","","","","","","","","",""
"1655","","image-button-response","63","425001","0.0-63.0-0.0","A2PQDK3MLDFXYM","img_art/21.jpg","5","","","","","","","","","","","","","","","","","","","","","","","","",""
"null","","html-keyboard-response","64","425503","0.0-64.0","A2PQDK3MLDFXYM","<p style=""font-size: 48px;"">+</p>","","","","","null","allTrialResponses","500","1","3","img_art/21.jpg","10","This is very interesting but I don't like the red smudge at the top. ","Dominique,Brianna,Sabrina,Paige,Stephanie,Shelby","Love the colors have to say this is my favorite above all,37,400,20","Don't really lean either way.,1,20,20","I like the representation of love and hate in this,43,120,20","the picture is boring,1,60,20","A battle at sea, the red is a bomb exploding.,-31,300,20","Very calming and soft, makes me feel good,31,240,20","Dominique","Love the colors have to say this is my favorite above all,37,400,20","Sabrina","I like the representation of love and hate in this,43,120,20","Shelby","Very calming and soft, makes me feel good,31,240,20","0"
"19466","","survey-text","65","444977","0.0-65.0-0.0","A2PQDK3MLDFXYM","","","","{""Q0"":""Splattered paint is always lovely to look at. ""}","","","","","","","","","","","","","","","","","","","","","","",""
"6582.399999856949","","image-slider-response","66","451561","0.0-66.0","A2PQDK3MLDFXYM","","","","","9","","","","","","","","","","","","","","","","","","","","","",""
"3510","","image-button-response","67","456563","0.0-67.0","A2PQDK3MLDFXYM","img_art/13.jpg","2","","","","","","","","","","","","","","","","","","","","","","","","",""
"2778","","image-button-response","68","459345","0.0-68.0","A2PQDK3MLDFXYM","img_art/13.jpg","0","","","","","","","","","","","","","","","","","","","","","","","","",""
"1774","","image-button-response","69","461121","0.0-69.0-0.0","A2PQDK3MLDFXYM","img_art/13.jpg","2","","","","","","","","","","","","","","","","","","","","","","","","",""
"670","","image-button-response","70","461793","0.0-70.0-0.0","A2PQDK3MLDFXYM","img_art/13.jpg","0","","","","","","","","","","","","","","","","","","","","","","","","",""
"2351","","image-button-response","71","467777","0.0-70.1-0.1","A2PQDK3MLDFXYM","img_art/13.jpg","4","","","","","","","","","","","","","","","","","","","","","","","","",""
"null","","html-keyboard-response","72","468279","0.0-71.0","A2PQDK3MLDFXYM","<p style=""font-size: 48px;"">+</p>","","","","","null","allTrialResponses","500","1","4","img_art/13.jpg","9","Splattered paint is always lovely to look at. ","Dominique,Marissa,Sabrina,Alicia,Amber,Shelby","I love the colors reminds me of a rainy day..it's calm and relaxing,32,400,20","It reminds me of looking out the window on a stormy night at cars drive by,21,160,20","I love the edgy nature,50,120,20","meh, 80's. retro,-9,120,20","Reminds me of rain running down a window.,35,200,20","Doesnt really provoke an emotional responce,0,240,20","Dominique","I love the colors reminds me of a rainy day..it's calm and relaxing,32,400,20","Sabrina","I love the edgy nature,50,120,20","Amber","Reminds me of rain running down a window.,35,200,20","2"
"14763","","survey-text","73","483057","0.0-72.0-0.0","A2PQDK3MLDFXYM","","","","{""Q0"":""Reminds me of clay and the grand canyons. ""}","","","","","","","","","","","","","","","","","","","","","","",""
"10590.400000095367","","image-slider-response","74","493648","0.0-73.0","A2PQDK3MLDFXYM","","","","","1","","","","","","","","","","","","","","","","","","","","","",""
"null","","image-button-response","75","498654","0.0-74.0","A2PQDK3MLDFXYM","img_art/29.jpg","null","","","","","","","","","","","","","","","","","","","","","","","","",""
"3152","","image-button-response","76","501809","0.0-75.0","A2PQDK3MLDFXYM","img_art/29.jpg","2","","","","","","","","","","","","","","","","","","","","","","","","",""
"2374","","image-button-response","77","504185","0.0-76.0-0.0","A2PQDK3MLDFXYM","img_art/29.jpg","1","","","","","","","","","","","","","","","","","","","","","","","","",""
"3438","","image-button-response","78","507624","0.0-77.0-0.0","A2PQDK3MLDFXYM","img_art/29.jpg","0","","","","","","","","","","","","","","","","","","","","","","","","",""
"null","","html-keyboard-response","79","508626","0.0-78.0","A2PQDK3MLDFXYM","<p style=""font-size: 48px;"">+</p>","","","","","null","allTrialResponses","1000","1","5","img_art/29.jpg","1","Reminds me of clay and the grand canyons. ","Dominique,Sara,Sabrina,Kelly,Amber,Shannon","Another great work of art and very conversational piece,33,400,20","I don't like the black,-50,160,20","I love the representation of a mess,50,120,20","Too much going on, and I don't like the colors. It looks like a crime scene.,-50,220,20","Don't like the red X across the painting.,-15,200,20","I think this image looks ugly and needs more colors so it looks nicer.,-30,220,20","Sabrina","I love the representation of a mess,50,120,20","Sara","I don't like the black,-50,160,20","Dominique","Another great work of art and very conversational piece,33,400,20","2"
"4428","","survey-text","80","513073","0.0-79.0-0.0","A2PQDK3MLDFXYM","","","","{""Q0"":""sky""}","","","","","","","","","","","","","","","","","","","","","","",""
"22407","","survey-text","81","535480","0.0-80.0-0.0","A2PQDK3MLDFXYM","","","","{""Q0"":""I love all of the details that overlap one another. The face is very intriguing as well. ""}","","","","","","","","","","","","","","","","","","","","","","",""
"3150.5","","image-slider-response","82","538632","0.0-81.0","A2PQDK3MLDFXYM","","","","","34","","","","","","","","","","","","","","","","","","","","","",""
"null","","image-button-response","83","543635","0.0-82.0","A2PQDK3MLDFXYM","img_art/8.jpg","null","","","","","","","","","","","","","","","","","","","","","","","","",""
"586","","image-button-response","84","544224","0.0-83.0","A2PQDK3MLDFXYM","img_art/8.jpg","0","","","","","","","","","","","","","","","","","","","","","","","","",""
"1615","","image-button-response","85","545840","0.0-84.0-0.0","A2PQDK3MLDFXYM","img_art/8.jpg","0","","","","","","","","","","","","","","","","","","","","","","","","",""
"3207","","image-button-response","86","553520","0.0-84.1-0.1","A2PQDK3MLDFXYM","img_art/8.jpg","3","","","","","","","","","","","","","","","","","","","","","","","","",""
"1143","","image-button-response","87","554664","0.0-85.0-0.0","A2PQDK3MLDFXYM","img_art/8.jpg","2","","","","","","","","","","","","","","","","","","","","","","","","",""
"null","","html-keyboard-response","88","555166","0.0-86.0","A2PQDK3MLDFXYM","<p style=""font-size: 48px;"">+</p>","","","","","null","allTrialResponses","500","1","6","img_art/8.jpg","34","I love all of the details that overlap one another. The face is very intriguing as well. ","Dominique,Sara,Sabrina,Kaitlin,Kristen,Jennifer","This speaks volumes to me and is another favorite I'm sure by many,40,400,20","Very interesting use of blocks,21,160,20","I love the expressiveness of this,50,120,20","wow - the colors were very well mixed,12,60,20","mothe nature/godess, watching over you,21,280,20","Not my favorite but has an interesting concept,32,380,20","Dominique","This speaks volumes to me and is another favorite I'm sure by many,40,400,20","Kaitlin","wow - the colors were very well mixed,12,60,20","Sabrina","I love the expressiveness of this,50,120,20","4"
"20766","","survey-text","89","575944","0.0-87.0-0.0","A2PQDK3MLDFXYM","","","","{""Q0"":""This reminds me of beautiful blue birds on branches.""}","","","","","","","","","","","","","","","","","","","","","","",""
"3006.9000000953674","","image-slider-response","90","578952","0.0-88.0","A2PQDK3MLDFXYM","","","","","9","","","","","","","","","","","","","","","","","","","","","",""
"4487","","image-button-response","91","583954","0.0-89.0","A2PQDK3MLDFXYM","img_art/15.jpg","1","","","","","","","","","","","","","","","","","","","","","","","","",""
"3202","","image-button-response","92","587160","0.0-90.0","A2PQDK3MLDFXYM","img_art/15.jpg","4","","","","","","","","","","","","","","","","","","","","","","","","",""
"4319","","image-button-response","93","591480","0.0-91.0-0.0","A2PQDK3MLDFXYM","img_art/15.jpg","0","","","","","","","","","","","","","","","","","","","","","","","","",""
"1006","","image-button-response","94","592488","0.0-92.0-0.0","A2PQDK3MLDFXYM","img_art/15.jpg","1","","","","","","","","","","","","","","","","","","","","","","","","",""
"null","","html-keyboard-response","95","592989","0.0-93.0","A2PQDK3MLDFXYM","<p style=""font-size: 48px;"">+</p>","","","","","null","allTrialResponses","500","1","7","img_art/15.jpg","9","This reminds me of beautiful blue birds on branches.","Dominique,Erin,Sabrina,Kaitlin,Erika,Autumn","I like the colors and the different style This brings,7,400,20","Neat to explore meaning, blue is interesting,11,120,20","Extreme darkness and sadness,-30,120,20","This one seems a bit frightening,-19,60,20","I like the dense patterns and the splashes  of blue,38,100,20","Simple but not good,-34,340,20","Erika","I like the dense patterns and the splashes  of blue,38,100,20","Dominique","I like the colors and the different style This brings,7,400,20","Erin","Neat to explore meaning, blue is interesting,11,120,20","4"
"19149","","survey-text","96","612152","0.0-94.0-0.0","A2PQDK3MLDFXYM","","","","{""Q0"":""This one is confusing because I don't know what I am looking at. ""}","","","","","","","","","","","","","","","","","","","","","","",""
"3990.7000000476837","","image-slider-response","97","616144","0.0-95.0","A2PQDK3MLDFXYM","","","","","-10","","","","","","","","","","","","","","","","","","","","","",""
"4830","","image-button-response","98","621147","0.0-96.0","A2PQDK3MLDFXYM","img_art/2.jpg","1","","","","","","","","","","","","","","","","","","","","","","","","",""
"6282","","image-button-response","99","627433","0.0-97.0","A2PQDK3MLDFXYM","img_art/2.jpg","5","","","","","","","","","","","","","","","","","","","","","","","","",""
"5877","","image-button-response","100","633313","0.0-98.0-0.0","A2PQDK3MLDFXYM","img_art/2.jpg","2","","","","","","","","","","","","","","","","","","","","","","","","",""
"2246","","image-button-response","101","635560","0.0-99.0-0.0","A2PQDK3MLDFXYM","img_art/2.jpg","0","","","","","","","","","","","","","","","","","","","","","","","","",""
"null","","html-keyboard-response","102","636563","0.0-100.0","A2PQDK3MLDFXYM","<p style=""font-size: 48px;"">+</p>","","","","","null","allTrialResponses","1000","1","8","img_art/2.jpg","-10","This one is confusing because I don't know what I am looking at. ","Dominique,Erin,Mackenzie,Brooke,Erika,Hailey","This reminds me of a peaceful day out alone shopping and spending some me time,41,400,20","There is an odd face here that is creepy,-4,120,20","Muted green is overpowering,-10,20,20","Ugly version of that park painting.,-31,60,20","Indistinct and too bright,-21,100,20","ugly green color and makes me sick,-29,200,20","Hailey","ugly green color and makes me sick,-29,200,20","Mackenzie","Muted green is overpowering,-10,20,20","Dominique","This reminds me of a peaceful day out alone shopping and spending some me time,41,400,20","4"
"23197","","survey-text","103","659768","0.0-101.0-0.0","A2PQDK3MLDFXYM","","","","{""Q0"":""The green scribbles I find to be unappealing in this painting.""}","","","","","","","","","","","","","","","","","","","","","","",""
"2054.5999999046326","","image-slider-response","104","661824","0.0-102.0","A2PQDK3MLDFXYM","","","","","-15","","","","","","","","","","","","","","","","","","","","","",""
"3943","","image-button-response","105","666826","0.0-103.0","A2PQDK3MLDFXYM","img_art/27.jpg","3","","","","","","","","","","","","","","","","","","","","","","","","",""
"3659","","image-button-response","106","670488","0.0-104.0","A2PQDK3MLDFXYM","img_art/27.jpg","4","","","","","","","","","","","","","","","","","","","","","","","","",""
"2895","","image-button-response","107","673384","0.0-105.0-0.0","A2PQDK3MLDFXYM","img_art/27.jpg","2","","","","","","","","","","","","","","","","","","","","","","","","",""
"959","","image-button-response","108","674344","0.0-106.0-0.0","A2PQDK3MLDFXYM","img_art/27.jpg","3","","","","","","","","","","","","","","","","","","","","","","","","",""
"null","","html-keyboard-response","109","675346","0.0-107.0","A2PQDK3MLDFXYM","<p style=""font-size: 48px;"">+</p>","","","","","null","allTrialResponses","1000","1","9","img_art/27.jpg","-15","The green scribbles I find to be unappealing in this painting.","Dominique,Kathryn,Mackenzie,Claire,Katelyn,Hailey","A beautiful day full of Hope and Inspiritation. The warmth of hot cocoa with the family gathering around,33,400,20","Makes me think of Japanese food. I perceive it as comfortable and healthy.,20,140,20","The color palette isn't my taste,-24,20,20","looks like a little kid did it,-30,260,20","Doesnt look like anything to me. Doesnt capture my attention.,-25,100,20","fruity and sweet. warm and juicy,10,200,20","Katelyn","Doesnt look like anything to me. Doesnt capture my attention.,-25,100,20","Mackenzie","The color palette isn't my taste,-24,20,20","Claire","looks like a little kid did it,-30,260,20","4"
"14658","","survey-text","110","690016","0.0-108.0-0.0","A2PQDK3MLDFXYM","","","","{""Q0"":""So many different colors all in one painting. ""}","","","","","","","","","","","","","","","","","","","","","","",""
"2758.399999856949","","image-slider-response","111","692776","0.0-109.0","A2PQDK3MLDFXYM","","","","","7","","","","","","","","","","","","","","","","","","","","","",""
"4103","","image-button-response","112","697779","0.0-110.0","A2PQDK3MLDFXYM","img_art/19.jpg","0","","","","","","","","","","","","","","","","","","","","","","","","",""
"2322","","image-button-response","113","700104","0.0-111.0","A2PQDK3MLDFXYM","img_art/19.jpg","0","","","","","","","","","","","","","","","","","","","","","","","","",""
"6519","","image-button-response","114","706624","0.0-112.0-0.0","A2PQDK3MLDFXYM","img_art/19.jpg","5","","","","","","","","","","","","","","","","","","","","","","","","",""
"2047","","image-button-response","115","708672","0.0-113.0-0.0","A2PQDK3MLDFXYM","img_art/19.jpg","2","","","","","","","","","","","","","","","","","","","","","","","","",""
"null","","html-keyboard-response","116","709674","0.0-114.0","A2PQDK3MLDFXYM","<p style=""font-size: 48px;"">+</p>","","","","","null","allTrialResponses","1000","1","10","img_art/19.jpg","7","So many different colors all in one painting. ","Heather,Vanessa,Mackenzie,Claire,Katelyn,Chloe","love the images I can pick out of this art,1,260,20","Again, this is too abstract.,-10,380,20","Shapes give it a feeling of being crowded,-18,20,20","way too much going on,-33,260,20","I dont like the smudge effect,-7,100,20","The use of space isn't my favorite.,-20,220,20","Heather","love the images I can pick out of this art,1,260,20","Chloe","The use of space isn't my favorite.,-20,220,20","Mackenzie","Shapes give it a feeling of being crowded,-18,20,20","4"
"3880","","survey-text","117","713560","0.0-115.0-0.0","A2PQDK3MLDFXYM","","","","{""Q0"":""our""}","","","","","","","","","","","","","","","","","","","","","","",""
"11463","","survey-text","118","725024","0.0-116.0-0.0","A2PQDK3MLDFXYM","","","","{""Q0"":""It is unpleasant to look at.""}","","","","","","","","","","","","","","","","","","","","","","",""
"5502.799999952316","","image-slider-response","119","730528","0.0-117.0","A2PQDK3MLDFXYM","","","","","-50","","","","","","","","","","","","","","","","","","","","","",""
"4167","","image-button-response","120","735533","0.0-118.0","A2PQDK3MLDFXYM","img_art/4.jpg","2","","","","","","","","","","","","","","","","","","","","","","","","",""
"2480","","image-button-response","121","738016","0.0-119.0","A2PQDK3MLDFXYM","img_art/4.jpg","2","","","","","","","","","","","","","","","","","","","","","","","","",""
"2886","","image-button-response","122","740904","0.0-120.0-0.0","A2PQDK3MLDFXYM","img_art/4.jpg","4","","","","","","","","","","","","","","","","","","","","","","","","",""
"1966","","image-button-response","123","742872","0.0-121.0-0.0","A2PQDK3MLDFXYM","img_art/4.jpg","3","","","","","","","","","","","","","","","","","","","","","","","","",""
"null","","html-keyboard-response","124","744380","0.0-122.0","A2PQDK3MLDFXYM","<p style=""font-size: 48px;"">+</p>","","","","","null","allTrialResponses","1500","1","11","img_art/4.jpg","-50","It is unpleasant to look at.","Heather,Allison,Mackenzie,Caroline,Olivia,Chloe","looks like an award from an award show.,22,260,20","McDonald's French Fries.,-10,140,20","I don't enjoy the colors, or texture, it seems like mustard,-23,20,20","Blah feeling, nothing,-8,100,20","The muted tones,-11,40,20","Great movement but don't love the yellowy tones.,31,220,20","Mackenzie","I don't enjoy the colors, or texture, it seems like mustard,-23,20,20","Olivia","The muted tones,-11,40,20","Caroline","Blah feeling, nothing,-8,100,20","4"
"25135","","survey-text","125","769528","0.0-123.0-0.0","A2PQDK3MLDFXYM","","","","{""Q0"":""I love paintings that you have to really look at it to figure out what is going on.""}","","","","","","","","","","","","","","","","","","","","","","",""
"3494.7000000476837","","image-slider-response","126","773024","0.0-124.0","A2PQDK3MLDFXYM","","","","","12","","","","","","","","","","","","","","","","","","","","","",""
"2599","","image-button-response","127","778027","0.0-125.0","A2PQDK3MLDFXYM","img_art/28.jpg","3","","","","","","","","","","","","","","","","","","","","","","","","",""
"842","","image-button-response","128","778872","0.0-126.0","A2PQDK3MLDFXYM","img_art/28.jpg","3","","","","","","","","","","","","","","","","","","","","","","","","",""
"5750","","image-button-response","129","784624","0.0-127.0-0.0","A2PQDK3MLDFXYM","img_art/28.jpg","5","","","","","","","","","","","","","","","","","","","","","","","","",""
"4318","","image-button-response","130","788944","0.0-128.0-0.0","A2PQDK3MLDFXYM","img_art/28.jpg","4","","","","","","","","","","","","","","","","","","","","","","","","",""
"null","","html-keyboard-response","131","789952","0.0-129.0","A2PQDK3MLDFXYM","<p style=""font-size: 48px;"">+</p>","","","","","null","allTrialResponses","1000","1","12","img_art/28.jpg","12","I love paintings that you have to really look at it to figure out what is going on.","Catherine,Bailey,Mackenzie,Caroline,Olivia,Michelle","A mom protecting her child because something scary, (perhaps imaginary) wants to take the child.,-10,160,20","Has an air of darkness to it, but no real substance besides the mouse-like thing.,-38,360,20","The muted tones aren't my favorite.,-10,20,20","Colors are pleasing. Made me think of two people kneeling and talking. A curious feeling.,15,100,20","conversating means hope,15,40,20","This piece is depressing to me, reminds me of German paintings,-6,280,20","Caroline","Colors are pleasing. Made me think of two people kneeling and talking. A curious feeling.,15,100,20","Michelle","This piece is depressing to me, reminds me of German paintings,-6,280,20","Olivia","conversating means hope,15,40,20","4"
"27121","","survey-text","132","817087","0.0-130.0-0.0","A2PQDK3MLDFXYM","","","","{""Q0"":""Girly, Outgoing, Calming painting. ""}","","","","","","","","","","","","","","","","","","","","","","",""
"1959.1000001430511","","image-slider-response","133","819048","0.0-131.0","A2PQDK3MLDFXYM","","","","","20","","","","","","","","","","","","","","","","","","","","","",""
"2014","","image-button-response","134","824051","0.0-132.0","A2PQDK3MLDFXYM","img_art/1.jpg","1","","","","","","","","","","","","","","","","","","","","","","","","",""
"963","","image-button-response","135","825016","0.0-133.0","A2PQDK3MLDFXYM","img_art/1.jpg","1","","","","","","","","","","","","","","","","","","","","","","","","",""
"4095","","image-button-response","136","829112","0.0-134.0-0.0","A2PQDK3MLDFXYM","img_art/1.jpg","4","","","","","","","","","","","","","","","","","","","","","","","","",""
"3702","","image-button-response","137","832816","0.0-135.0-0.0","A2PQDK3MLDFXYM","img_art/1.jpg","0","","","","","","","","","","","","","","","","","","","","","","","","",""
"null","","html-keyboard-response","138","834317","0.0-136.0","A2PQDK3MLDFXYM","<p style=""font-size: 48px;"">+</p>","","","","","null","allTrialResponses","1500","1","13","img_art/1.jpg","20","Girly, Outgoing, Calming painting. ","Alexandria,Leslie,Molly,Caroline,Olivia,Michelle","it is very colorful and makes me happy,44,80,20","The use of reds, blues, and yellows together reminds me of fire. Very interesting to look at.,40,380,20","The colors match and create a nice artistic disorder.,20,340,20","Felt nothing in response to this painting,3,100,20","feels like there is meaning,9,40,20","Random paint does not make art,-5,280,20","Leslie","The use of reds, blues, and yellows together reminds me of fire. Very interesting to look at.,40,380,20","Olivia","feels like there is meaning,9,40,20","Alexandria","it is very colorful and makes me happy,44,80,20","4"
"13036","","survey-text","139","847367","0.0-137.0-0.0","A2PQDK3MLDFXYM","","","","{""Q0"":""This painting is beautiful. I would buy this one.""}","","","","","","","","","","","","","","","","","","","","","","",""
"3542.2000000476837","","image-slider-response","140","850911","0.0-138.0","A2PQDK3MLDFXYM","","","","","41","","","","","","","","","","","","","","","","","","","","","",""
"3567","","image-button-response","141","855914","0.0-139.0","A2PQDK3MLDFXYM","img_art/24.jpg","0","","","","","","","","","","","","","","","","","","","","","","","","",""
"818","","image-button-response","142","856735","0.0-140.0","A2PQDK3MLDFXYM","img_art/24.jpg","0","","","","","","","","","","","","","","","","","","","","","","","","",""
"2423","","image-button-response","143","859159","0.0-141.0-0.0","A2PQDK3MLDFXYM","img_art/24.jpg","2","","","","","","","","","","","","","","","","","","","","","","","","",""
"2687","","image-button-response","144","861847","0.0-142.0-0.0","A2PQDK3MLDFXYM","img_art/24.jpg","4","","","","","","","","","","","","","","","","","","","","","","","","",""
"null","","html-keyboard-response","145","863349","0.0-143.0","A2PQDK3MLDFXYM","<p style=""font-size: 48px;"">+</p>","","","","","null","allTrialResponses","1500","1","14","img_art/24.jpg","41","This painting is beautiful. I would buy this one.","Alexandria,Leslie,Caitlin,Leah,Olivia,Cheyenne","very colorful and intricate and makes me feel at peace,50,80,20","The colors look nice, but the painting bores me.,-20,380,20","I actually like this one. You can tell what it is.,25,80,20","Happy, the forest as I would love to see it,50,360,20","tranquility in the stream,34,40,20","I like how the colors mix in this one.,20,200,20","Alexandria","very colorful and intricate and makes me feel at peace,50,80,20","Caitlin","I actually like this one. You can tell what it is.,25,80,20","Olivia","tranquility in the stream,34,40,20","4"
"23324","","survey-text","146","886687","0.0-144.0-0.0","A2PQDK3MLDFXYM","","","","{""Q0"":""I don't like the scribbles and the weird figures in the middle.""}","","","","","","","","","","","","","","","","","","","","","","",""
"2174.7000000476837","","image-slider-response","147","888863","0.0-145.0","A2PQDK3MLDFXYM","","","","","-30","","","","","","","","","","","","","","","","","","","","","",""
"2014","","image-button-response","148","893870","0.0-146.0","A2PQDK3MLDFXYM","img_art/9.jpg","1","","","","","","","","","","","","","","","","","","","","","","","","",""
"957","","image-button-response","149","894831","0.0-147.0","A2PQDK3MLDFXYM","img_art/9.jpg","1","","","","","","","","","","","","","","","","","","","","","","","","",""
"1943","","image-button-response","150","896775","0.0-148.0-0.0","A2PQDK3MLDFXYM","img_art/9.jpg","2","","","","","","","","","","","","","","","","","","","","","","","","",""
"2111","","image-button-response","151","898887","0.0-149.0-0.0","A2PQDK3MLDFXYM","img_art/9.jpg","5","","","","","","","","","","","","","","","","","","","","","","","","",""
"null","","html-keyboard-response","152","899893","0.0-150.0","A2PQDK3MLDFXYM","<p style=""font-size: 48px;"">+</p>","","","","","null","allTrialResponses","1000","1","15","img_art/9.jpg","-30","I don't like the scribbles and the weird figures in the middle.","Alexandria,Anna,Caitlin,Destiny,Olivia,Laura","it makes me feel excited and draws my eye around,24,80,20","It looks like a child's crayon drawing.,-10,300,20","Caveman. Not for my walls.,-5,80,20","is that sleeping beauty,33,360,20","what a wild ride,11,40,20","autopsy, morgue, dead corpses - don't like the flesh tones,-43,320,20","Anna","It looks like a child's crayon drawing.,-10,300,20","Caitlin","Caveman. Not for my walls.,-5,80,20","Laura","autopsy, morgue, dead corpses - don't like the flesh tones,-43,320,20","4"
"4368","","survey-text","153","904271","0.0-151.0-0.0","A2PQDK3MLDFXYM","","","","{""Q0"":""course""}","","","","","","","","","","","","","","","","","","","","","","",""
"22479","","survey-text","154","926751","0.0-152.0-0.0","A2PQDK3MLDFXYM","","","","{""Q0"":""I love all of the dark and bright colors together. This reminds me of bright different colored flowers.""}","","","","","","","","","","","","","","","","","","","","","","",""
"2910.7000000476837","","image-slider-response","155","929663","0.0-153.0","A2PQDK3MLDFXYM","","","","","28","","","","","","","","","","","","","","","","","","","","","",""
"1646","","image-button-response","156","934668","0.0-154.0","A2PQDK3MLDFXYM","img_art/23.jpg","1","","","","","","","","","","","","","","","","","","","","","","","","",""
"1904","","image-button-response","157","936575","0.0-155.0","A2PQDK3MLDFXYM","img_art/23.jpg","1","","","","","","","","","","","","","","","","","","","","","","","","",""
"807","","image-button-response","158","937383","0.0-156.0-0.0","A2PQDK3MLDFXYM","img_art/23.jpg","2","","","","","","","","","","","","","","","","","","","","","","","","",""
"1990","","image-button-response","159","939375","0.0-157.0-0.0","A2PQDK3MLDFXYM","img_art/23.jpg","4","","","","","","","","","","","","","","","","","","","","","","","","",""
"null","","html-keyboard-response","160","939878","0.0-158.0","A2PQDK3MLDFXYM","<p style=""font-size: 48px;"">+</p>","","","","","null","allTrialResponses","500","1","16","img_art/23.jpg","28","I love all of the dark and bright colors together. This reminds me of bright different colored flowers.","Jasmine,Anna,Caitlin,Rebecca,Victoria,Laura","Mostly neutral but a bit too guady with the brash colors,-6,340,20","I love the colors and the contrast.,50,300,20","SOME thought was put into this one.,5,80,20","love the contrast (was this painted by a left-handed artist?),7,100,20","enjoy the colors,23,400,20","teeth! dancing people, celebrations,-39,320,20","Anna","I love the colors and the contrast.,50,300,20","Caitlin","SOME thought was put into this one.,5,80,20","Victoria","enjoy the colors,23,400,20","4"
"6348","","survey-text","161","946239","0.0-159.0-0.0","A2PQDK3MLDFXYM","","","","{""Q0"":""Too much red.""}","","","","","","","","","","","","","","","","","","","","","","",""
"2710.5999999046326","","image-slider-response","162","948951","0.0-160.0","A2PQDK3MLDFXYM","","","","","-37","","","","","","","","","","","","","","","","","","","","","",""
"2455","","image-button-response","163","953958","0.0-161.0","A2PQDK3MLDFXYM","img_art/3.jpg","0","","","","","","","","","","","","","","","","","","","","","","","","",""
"366","","image-button-response","164","954327","0.0-162.0","A2PQDK3MLDFXYM","img_art/3.jpg","0","","","","","","","","","","","","","","","","","","","","","","","","",""
"1535","","image-button-response","165","955863","0.0-163.0-0.0","A2PQDK3MLDFXYM","img_art/3.jpg","4","","","","","","","","","","","","","","","","","","","","","","","","",""
"1343","","image-button-response","166","957208","0.0-164.0-0.0","A2PQDK3MLDFXYM","img_art/3.jpg","5","","","","","","","","","","","","","","","","","","","","","","","","",""
"null","","html-keyboard-response","167","958710","0.0-165.0","A2PQDK3MLDFXYM","<p style=""font-size: 48px;"">+</p>","","","","","null","allTrialResponses","1500","1","17","img_art/3.jpg","-37","Too much red.","Courtney,Anna,Caitlin,Alyssa,Victoria,Gabriela","That just looks like a mess..,-18,280,20","Definition of mediocre abstract art,-12,300,20","Why kids with color crayons is called art is beyond me. People pay for this???,-40,80,20","Looks like someone spilled ketchup and forgot to clean it up,-30,160,20","makes me think of anger,-33,400,20","It looks like a child drawing,-29,140,20","Courtney","That just looks like a mess..,-18,280,20","Victoria","makes me think of anger,-33,400,20","Gabriela","It looks like a child drawing,-29,140,20","4"
"16692","","survey-text","168","975415","0.0-166.0-0.0","A2PQDK3MLDFXYM","","","","{""Q0"":""I like the shading done in this painting.""}","","","","","","","","","","","","","","","","","","","","","","",""
"2022.7000000476837","","image-slider-response","169","977439","0.0-167.0","A2PQDK3MLDFXYM","","","","","18","","","","","","","","","","","","","","","","","","","","","",""
"2374","","image-button-response","170","982455","0.0-168.0","A2PQDK3MLDFXYM","img_art/20.jpg","0","","","","","","","","","","","","","","","","","","","","","","","","",""
"1156","","image-button-response","171","983615","0.0-169.0","A2PQDK3MLDFXYM","img_art/20.jpg","3","","","","","","","","","","","","","","","","","","","","","","","","",""
"1198","","image-button-response","172","984815","0.0-170.0-0.0","A2PQDK3MLDFXYM","img_art/20.jpg","0","","","","","","","","","","","","","","","","","","","","","","","","",""
"1718","","image-button-response","173","986535","0.0-171.0-0.0","A2PQDK3MLDFXYM","img_art/20.jpg","4","","","","","","","","","","","","","","","","","","","","","","","","",""
"null","","html-keyboard-response","174","988046","0.0-172.0","A2PQDK3MLDFXYM","<p style=""font-size: 48px;"">+</p>","","","","","null","allTrialResponses","1500","1","18","img_art/20.jpg","18","I like the shading done in this painting.","Courtney,Kelsey,Savannah,Abigail,Victoria,Gabriela","The beast is running after you.,33,280,20","i almost feel like i can recognize what this is,-6,240,20","Lovely composition, colors, and message.,35,200,20","A mountain vacation,46,20,20","like the colors and desert feel,7,400,20","it is a bit disturbing, like a monster or ghost floating away from a bleak building,-8,140,20","Abigail","A mountain vacation,46,20,20","Courtney","The beast is running after you.,33,280,20","Victoria","like the colors and desert feel,7,400,20","4"
"11336","","survey-text","175","999399","0.0-173.0-0.0","A2PQDK3MLDFXYM","","","","{""Q0"":""Torn up wall paper.""}","","","","","","","","","","","","","","","","","","","","","","",""
"1870.6999998092651","","image-slider-response","176","1001271","0.0-174.0","A2PQDK3MLDFXYM","","","","","-37","","","","","","","","","","","","","","","","","","","","","",""
"2366","","image-button-response","177","1006273","0.0-175.0","A2PQDK3MLDFXYM","img_art/7.jpg","1","","","","","","","","","","","","","","","","","","","","","","","","",""
"2778","","image-button-response","178","1009055","0.0-176.0","A2PQDK3MLDFXYM","img_art/7.jpg","1","","","","","","","","","","","","","","","","","","","","","","","","",""
"934","","image-button-response","179","1009991","0.0-177.0-0.0","A2PQDK3MLDFXYM","img_art/7.jpg","2","","","","","","","","","","","","","","","","","","","","","","","","",""
"5423","","image-button-response","180","1015415","0.0-178.0-0.0","A2PQDK3MLDFXYM","img_art/7.jpg","3","","","","","","","","","","","","","","","","","","","","","","","","",""
"null","","html-keyboard-response","181","1015917","0.0-179.0","A2PQDK3MLDFXYM","<p style=""font-size: 48px;"">+</p>","","","","","null","allTrialResponses","500","1","19","img_art/7.jpg","-37","Torn up wall paper.","Courtney,Monica,Christina,Abigail,Victoria,Crystal","That a desert floor,16,280,20","It looks like bloody scabs on skin, I don't like it,-42,360,20","looks like the surface of the moon,-28,240,20","Looks like a skin disease,-31,20,20","looks like a photograph,-4,400,20","I thought I was looking at a satellite image of mars.,21,300,20","Monica","It looks like bloody scabs on skin, I don't like it,-42,360,20","Christina","looks like the surface of the moon,-28,240,20","Abigail","Looks like a skin disease,-31,20,20","4"
"9318","","survey-text","182","1025247","0.0-180.0-0.0","A2PQDK3MLDFXYM","","","","{""Q0"":""not very artistic.""}","","","","","","","","","","","","","","","","","","","","","","",""
"3199","","image-slider-response","183","1028447","0.0-181.0","A2PQDK3MLDFXYM","","","","","-50","","","","","","","","","","","","","","","","","","","","","",""
"2790","","image-button-response","184","1033456","0.0-182.0","A2PQDK3MLDFXYM","img_art/5.jpg","2","","","","","","","","","","","","","","","","","","","","","","","","",""
"1380","","image-button-response","185","1034839","0.0-183.0","A2PQDK3MLDFXYM","img_art/5.jpg","2","","","","","","","","","","","","","","","","","","","","","","","","",""
"831","","image-button-response","186","1035671","0.0-184.0-0.0","A2PQDK3MLDFXYM","img_art/5.jpg","5","","","","","","","","","","","","","","","","","","","","","","","","",""
"1477","","image-button-response","187","1037151","0.0-185.0-0.0","A2PQDK3MLDFXYM","img_art/5.jpg","4","","","","","","","","","","","","","","","","","","","","","","","","",""
"null","","html-keyboard-response","188","1038667","0.0-186.0","A2PQDK3MLDFXYM","<p style=""font-size: 48px;"">+</p>","","","","","null","allTrialResponses","1500","1","20","img_art/5.jpg","-50","not very artistic.","Taylor,Monica,Christina,Abigail,Jessica,Danielle","Doesn't make me think anything,-1,340,20","I like how simple it is and the pink brushstrokes are nice,27,360,20","looks like a little kids painting,-50,240,20","Reminds me of a broken umbrella,-9,20,20","Don't really know the point of this one.,-11,400,20","Not a fan of the themes,-30,340,20","Christina","looks like a little kids painting,-50,240,20","Danielle","Not a fan of the themes,-30,340,20","Jessica","Don't really know the point of this one.,-11,400,20","4"
"4042","","survey-text","189","1042735","0.0-187.0-0.0","A2PQDK3MLDFXYM","","","","{""Q0"":""we""}","","","","","","","","","","","","","","","","","","","","","","",""
"14510","","survey-text","190","1057247","0.0-188.0-0.0","A2PQDK3MLDFXYM","","","","{""Q0"":""I don't see anything beautiful here.""}","","","","","","","","","","","","","","","","","","","","","","",""
"2526.7000000476837","","image-slider-response","191","1059775","0.0-189.0","A2PQDK3MLDFXYM","","","","","-46","","","","","","","","","","","","","","","","","","","","","",""
"null","","image-button-response","192","1064789","0.0-190.0","A2PQDK3MLDFXYM","img_art/10.jpg","null","","","","","","","","","","","","","","","","","","","","","","","","",""
"2406","","image-button-response","193","1067199","0.0-191.0","A2PQDK3MLDFXYM","img_art/10.jpg","2","","","","","","","","","","","","","","","","","","","","","","","","",""
"6246","","image-button-response","194","1073447","0.0-192.0-0.0","A2PQDK3MLDFXYM","img_art/10.jpg","0","","","","","","","","","","","","","","","","","","","","","","","","",""
"1550","","image-button-response","195","1074999","0.0-193.0-0.0","A2PQDK3MLDFXYM","img_art/10.jpg","3","","","","","","","","","","","","","","","","","","","","","","","","",""
"null","","html-keyboard-response","196","1075500","0.0-194.0","A2PQDK3MLDFXYM","<p style=""font-size: 48px;"">+</p>","","","","","null","allTrialResponses","500","1","21","img_art/10.jpg","-46","I don't see anything beautiful here.","Kylie,Sophia,Christina,Morgan,Jessica,Danielle","Musical guitar whimsy,45,300,20","This piece is very intriguing to me.,3,280,20","It's very dark and angry looking,-31,240,20","Roller coaster on an island.,9,380,20","I feel like this has a cool concept behind it.,11,400,20","Seems very lovecraftian, which I love that style,25,340,20","Christina","It's very dark and angry looking,-31,240,20","Kylie","Musical guitar whimsy,45,300,20","Morgan","Roller coaster on an island.,9,380,20","4"
"14552","","survey-text","197","1090063","0.0-195.0-0.0","A2PQDK3MLDFXYM","","","","{""Q0"":""Beautiful colorful tree blooming. ""}","","","","","","","","","","","","","","","","","","","","","","",""
"1590.5","","image-slider-response","198","1091655","0.0-196.0","A2PQDK3MLDFXYM","","","","","28","","","","","","","","","","","","","","","","","","","","","",""
"4559","","image-button-response","199","1096657","0.0-197.0","A2PQDK3MLDFXYM","img_art/14.jpg","4","","","","","","","","","","","","","","","","","","","","","","","","",""
"1028","","image-button-response","200","1097687","0.0-198.0","A2PQDK3MLDFXYM","img_art/14.jpg","4","","","","","","","","","","","","","","","","","","","","","","","","",""
"2111","","image-button-response","201","1099799","0.0-199.0-0.0","A2PQDK3MLDFXYM","img_art/14.jpg","5","","","","","","","","","","","","","","","","","","","","","","","","",""
"2846","","image-button-response","202","1102647","0.0-200.0-0.0","A2PQDK3MLDFXYM","img_art/14.jpg","5","","","","","","","","","","","","","","","","","","","","","","","","",""
"734","","image-button-response","203","1108567","0.0-200.1-0.1","A2PQDK3MLDFXYM","img_art/14.jpg","1","","","","","","","","","","","","","","","","","","","","","","","","",""
"null","","html-keyboard-response","204","1109069","0.0-201.0","A2PQDK3MLDFXYM","<p style=""font-size: 48px;"">+</p>","","","","","null","allTrialResponses","500","1","22","img_art/14.jpg","28","Beautiful colorful tree blooming. ","Kylie,Diana,Christina,Morgan,Alexandra,Kimberly","Confusion or an explosion,40,300,20","This piece feels inviting. It's like opening up the pages of your favorite book for the first time.,26,380,20","has a tree look to it and it's colors are happy,9,240,20","Angled, colored, boxy.,10,380,20","Pretty, dainty, unique,22,60,20","In some ways it looks natural, but I'm just not feeling it,0,260,20","Alexandra","Pretty, dainty, unique,22,60,20","Kimberly","In some ways it looks natural, but I'm just not feeling it,0,260,20","Diana","This piece feels inviting. It's like opening up the pages of your favorite book for the first time.,26,380,20","6"
"15188","","survey-text","205","1124271","0.0-202.0-0.0","A2PQDK3MLDFXYM","","","","{""Q0"":""finger painting fun""}","","","","","","","","","","","","","","","","","","","","","","",""
"2182.5","","image-slider-response","206","1126454","0.0-203.0","A2PQDK3MLDFXYM","","","","","-26","","","","","","","","","","","","","","","","","","","","","",""
"null","","image-button-response","207","1131457","0.0-204.0","A2PQDK3MLDFXYM","img_art/30.jpg","null","","","","","","","","","","","","","","","","","","","","","","","","",""
"3395","","image-button-response","208","1134855","0.0-205.0","A2PQDK3MLDFXYM","img_art/30.jpg","0","","","","","","","","","","","","","","","","","","","","","","","","",""
"3726","","image-button-response","209","1138583","0.0-206.0-0.0","A2PQDK3MLDFXYM","img_art/30.jpg","5","","","","","","","","","","","","","","","","","","","","","","","","",""
"1718","","image-button-response","210","1140303","0.0-207.0-0.0","A2PQDK3MLDFXYM","img_art/30.jpg","2","","","","","","","","","","","","","","","","","","","","","","","","",""
"null","","html-keyboard-response","211","1140805","0.0-208.0","A2PQDK3MLDFXYM","<p style=""font-size: 48px;"">+</p>","","","","","null","allTrialResponses","500","1","23","img_art/30.jpg","-26","finger painting fun","Isabella,Diana,Andrea,Nicole,Alexandra,Kimberly","I like the back but the red lines in the front distress me,-7,280,20","I love the color contrast of the red against the blue.,9,380,20","It feels like graffiti and the dark colors do nothing for the mood.,-5,240,20","I like the softness of this but it doesn't make me feel that nice,5,20,20","I really love the pastel colors and the 3D design in this,43,60,20","looks like eels,-20,260,20","Isabella","I like the back but the red lines in the front distress me,-7,280,20","Kimberly","looks like eels,-20,260,20","Andrea","It feels like graffiti and the dark colors do nothing for the mood.,-5,240,20","6"
"25849","","survey-text","212","1166670","0.0-209.0-0.0","A2PQDK3MLDFXYM","","","","{""Q0"":""So many cool things in this painting, the lady to the top left. ""}","","","","","","","","","","","","","","","","","","","","","","",""
"1974.6000001430511","","image-slider-response","213","1168646","0.0-210.0","A2PQDK3MLDFXYM","","","","","30","","","","","","","","","","","","","","","","","","","","","",""
"3319","","image-button-response","214","1173650","0.0-211.0","A2PQDK3MLDFXYM","img_art/18.jpg","0","","","","","","","","","","","","","","","","","","","","","","","","",""
"921","","image-button-response","215","1174575","0.0-212.0","A2PQDK3MLDFXYM","img_art/18.jpg","0","","","","","","","","","","","","","","","","","","","","","","","","",""
"7230","","image-button-response","216","1181807","0.0-213.0-0.0","A2PQDK3MLDFXYM","img_art/18.jpg","5","","","","","","","","","","","","","","","","","","","","","","","","",""
"1638","","image-button-response","217","1183446","0.0-214.0-0.0","A2PQDK3MLDFXYM","img_art/18.jpg","2","","","","","","","","","","","","","","","","","","","","","","","","",""
"null","","html-keyboard-response","218","1184956","0.0-215.0","A2PQDK3MLDFXYM","<p style=""font-size: 48px;"">+</p>","","","","","null","allTrialResponses","1500","1","24","img_art/18.jpg","30","So many cool things in this painting, the lady to the top left. ","Isabella,Kaitlyn,Andrea,Amanda,Emily,Kimberly","Feels like a story of ancient war of the gods,26,280,20","Umclear what is present in the picture,0,80,20","I see an artistic representation of the riding of last of the four horseman. Its stunning.,45,240,20","Too political, not my cup of tea,-50,180,20","Not my style but I can see some serious skill went int it.,21,40,20","I enjoy the detailed line work in this one,21,260,20","Isabella","Feels like a story of ancient war of the gods,26,280,20","Kimberly","I enjoy the detailed line work in this one,21,260,20","Andrea","I see an artistic representation of the riding of last of the four horseman. Its stunning.,45,240,20","6"
"12316","","survey-text","219","1197286","0.0-216.0-0.0","A2PQDK3MLDFXYM","","","","{""Q0"":""A tree in the desert.""}","","","","","","","","","","","","","","","","","","","","","","",""
"5734.700000047684","","image-slider-response","220","1203022","0.0-217.0","A2PQDK3MLDFXYM","","","","","2","","","","","","","","","","","","","","","","","","","","","",""
"2630","","image-button-response","221","1208026","0.0-218.0","A2PQDK3MLDFXYM","img_art/6.jpg","1","","","","","","","","","","","","","","","","","","","","","","","","",""
"1904","","image-button-response","222","1209934","0.0-219.0","A2PQDK3MLDFXYM","img_art/6.jpg","1","","","","","","","","","","","","","","","","","","","","","","","","",""
"3071","","image-button-response","223","1213006","0.0-220.0-0.0","A2PQDK3MLDFXYM","img_art/6.jpg","5","","","","","","","","","","","","","","","","","","","","","","","","",""
"5543","","image-button-response","224","1218550","0.0-221.0-0.0","A2PQDK3MLDFXYM","img_art/6.jpg","3","","","","","","","","","","","","","","","","","","","","","","","","",""
"null","","html-keyboard-response","225","1219052","0.0-222.0","A2PQDK3MLDFXYM","<p style=""font-size: 48px;"">+</p>","","","","","null","allTrialResponses","500","1","25","img_art/6.jpg","2","A tree in the desert.","Isabella,Kaylee,Andrea,Alexis,Chelsea,Kimberly","A bird standing in the sun,37,280,20","just an another tree on a desert?,9,200,20","So forlorn, and beauty amid desolation.,25,240,20","The feeling of isolation with so little objects. Great,20,100,20","It looks like one tall ugly bird.,-43,180,20","It's pretty dour,-10,260,20","Kaylee","just an another tree on a desert?,9,200,20","Kimberly","It's pretty dour,-10,260,20","Alexis","The feeling of isolation with so little objects. Great,20,100,20","6"
"3888","","survey-text","226","1222966","0.0-223.0-0.0","A2PQDK3MLDFXYM","","","","{""Q0"":""table""}","","","","","","","","","","","","","","","","","","","","","","",""
"15199","","survey-text","227","1238166","0.0-224.0-0.0","A2PQDK3MLDFXYM","","","","{""Q0"":""Love the different colors. Blue stands out to me.""}","","","","","","","","","","","","","","","","","","","","","","",""
"1982.7000000476837","","image-slider-response","228","1240150","0.0-225.0","A2PQDK3MLDFXYM","","","","","11","","","","","","","","","","","","","","","","","","","","","",""
"3951","","image-button-response","229","1245168","0.0-226.0","A2PQDK3MLDFXYM","img_art/22.jpg","0","","","","","","","","","","","","","","","","","","","","","","","","",""
"1627","","image-button-response","230","1246798","0.0-227.0","A2PQDK3MLDFXYM","img_art/22.jpg","2","","","","","","","","","","","","","","","","","","","","","","","","",""
"2335","","image-button-response","231","1249134","0.0-228.0-0.0","A2PQDK3MLDFXYM","img_art/22.jpg","5","","","","","","","","","","","","","","","","","","","","","","","","",""
"1318","","image-button-response","232","1250454","0.0-229.0-0.0","A2PQDK3MLDFXYM","img_art/22.jpg","4","","","","","","","","","","","","","","","","","","","","","","","","",""
"null","","html-keyboard-response","233","1251469","0.0-230.0","A2PQDK3MLDFXYM","<p style=""font-size: 48px;"">+</p>","","","","","null","allTrialResponses","1000","1","26","img_art/22.jpg","11","Love the different colors. Blue stands out to me.","Makayla,Kaylee,Melissa,Alexis,Grace,Kimberly","Just neutral no feelings,2,80,20","its just ugly for me,-50,200,20","strong blending skills,7,240,20","Don't like this type of abstract work,-39,100,20","Love vibrant colors & the abstractness.,43,180,20","I like the key near the sphere in the center,19,260,20","Melissa","strong blending skills,7,240,20","Kimberly","I like the key near the sphere in the center,19,260,20","Grace","Love vibrant colors & the abstractness.,43,180,20","6"
"27550","","survey-text","234","1279038","0.0-231.0-0.0","A2PQDK3MLDFXYM","","","","{""Q0"":""The painting if very intriguing. ""}","","","","","","","","","","","","","","","","","","","","","","",""
"2142.7999999523163","","image-slider-response","235","1281182","0.0-232.0","A2PQDK3MLDFXYM","","","","","31","","","","","","","","","","","","","","","","","","","","","",""
"1702","","image-button-response","236","1286195","0.0-233.0","A2PQDK3MLDFXYM","img_art/11.jpg","1","","","","","","","","","","","","","","","","","","","","","","","","",""
"654","","image-button-response","237","1286854","0.0-234.0","A2PQDK3MLDFXYM","img_art/11.jpg","1","","","","","","","","","","","","","","","","","","","","","","","","",""
"1582","","image-button-response","238","1288438","0.0-235.0-0.0","A2PQDK3MLDFXYM","img_art/11.jpg","2","","","","","","","","","","","","","","","","","","","","","","","","",""
"1510","","image-button-response","239","1289950","0.0-236.0-0.0","A2PQDK3MLDFXYM","img_art/11.jpg","5","","","","","","","","","","","","","","","","","","","","","","","","",""
"null","","html-keyboard-response","240","1291454","0.0-237.0","A2PQDK3MLDFXYM","<p style=""font-size: 48px;"">+</p>","","","","","null","allTrialResponses","1500","1","27","img_art/11.jpg","31","The painting if very intriguing. ","Megan,Julia,Melissa,Natalie,Grace,Kimberly","Some interesting color but scratchy train mess.,-14,200,20","this looks like a beautiful rainy day in a hellish urban mountain city,14,40,20","reminds me of home,5,240,20","pic looks alright,8,400,20","Rainy asian city scape.,31,180,20","It's cables in a city,21,260,20","Julia","this looks like a beautiful rainy day in a hellish urban mountain city,14,40,20","Melissa","reminds me of home,5,240,20","Kimberly","It's cables in a city,21,260,20","6"
"12195","","survey-text","241","1303670","0.0-238.0-0.0","A2PQDK3MLDFXYM","","","","{""Q0"":""The good vs. the bad.""}","","","","","","","","","","","","","","","","","","","","","","",""
"2350.600000143051","","image-slider-response","242","1306022","0.0-239.0","A2PQDK3MLDFXYM","","","","","40","","","","","","","","","","","","","","","","","","","","","",""
"4014","","image-button-response","243","1311027","0.0-240.0","A2PQDK3MLDFXYM","img_art/12.jpg","0","","","","","","","","","","","","","","","","","","","","","","","","",""
"671","","image-button-response","244","1311702","0.0-241.0","A2PQDK3MLDFXYM","img_art/12.jpg","0","","","","","","","","","","","","","","","","","","","","","","","","",""
"4174","","image-button-response","245","1315878","0.0-242.0-0.0","A2PQDK3MLDFXYM","img_art/12.jpg","3","","","","","","","","","","","","","","","","","","","","","","","","",""
"1134","","image-button-response","246","1317014","0.0-243.0-0.0","A2PQDK3MLDFXYM","img_art/12.jpg","2","","","","","","","","","","","","","","","","","","","","","","","","",""
"null","","html-keyboard-response","247","1318516","0.0-244.0","A2PQDK3MLDFXYM","<p style=""font-size: 48px;"">+</p>","","","","","null","allTrialResponses","1500","1","28","img_art/12.jpg","40","The good vs. the bad.","Jamie,Julia,Melissa,Katie,Emma,Kimberly","Black and white contrast with color looks nice,15,320,20","this is pretty, but I wouldn't hang it on my wall.,15,40,20","reminds me of a dixie cup,3,240,20","Squares are rigid. I'm ambivalent.,1,160,20","Pretty but not a huge fan of the colors,20,60,20","Just not a fan, I can't figure out why,-17,260,20","Jamie","Black and white contrast with color looks nice,15,320,20","Katie","Squares are rigid. I'm ambivalent.,1,160,20","Melissa","reminds me of a dixie cup,3,240,20","6"
"13136","","survey-text","248","1331669","0.0-245.0-0.0","A2PQDK3MLDFXYM","","","","{""Q0"":""This would take time and skill, I love it.""}","","","","","","","","","","","","","","","","","","","","","","",""
"3134.9000000953674","","image-slider-response","249","1334805","0.0-246.0","A2PQDK3MLDFXYM","","","","","50","","","","","","","","","","","","","","","","","","","","","",""
"2462","","image-button-response","250","1339821","0.0-247.0","A2PQDK3MLDFXYM","img_art/17.jpg","0","","","","","","","","","","","","","","","","","","","","","","","","",""
"1387","","image-button-response","251","1341214","0.0-248.0","A2PQDK3MLDFXYM","img_art/17.jpg","0","","","","","","","","","","","","","","","","","","","","","","","","",""
"1679","","image-button-response","252","1342894","0.0-249.0-0.0","A2PQDK3MLDFXYM","img_art/17.jpg","4","","","","","","","","","","","","","","","","","","","","","","","","",""
"1086","","image-button-response","253","1343981","0.0-250.0-0.0","A2PQDK3MLDFXYM","img_art/17.jpg","5","","","","","","","","","","","","","","","","","","","","","","","","",""
"null","","html-keyboard-response","254","1344494","0.0-251.0","A2PQDK3MLDFXYM","<p style=""font-size: 48px;"">+</p>","","","","","null","allTrialResponses","500","1","29","img_art/17.jpg","50","This would take time and skill, I love it.","Jamie,Angelica,Melissa,Katie,Tiffany,Amy","Looks like some fantasy tree. Nice,30,320,20","This could have been good but was poorly done.,-5,280,20","impressive attention to subtleties,15,240,20","Is it a tree/plant of some sort?  Or, I see hair?  I don't get it. But, the colors are pleasing to me.,1,160,20","The painting makes me feel relaxed, and a bit lonely, like I'm sitting at a park waiting for someone.,30,360,20","peaceful. contemplative. balanced. old,10,220,20","Jamie","Looks like some fantasy tree. Nice,30,320,20","Tiffany","The painting makes me feel relaxed, and a bit lonely, like I'm sitting at a park waiting for someone.,30,360,20","Amy","peaceful. contemplative. balanced. old,10,220,20","6"
"26596","","survey-text","255","1371109","0.0-252.0-0.0","A2PQDK3MLDFXYM","","","","{""Q0"":""Weirdness is the painting.""}","","","","","","","","","","","","","","","","","","","","","","",""
"2790.5999999046326","","image-slider-response","256","1373901","0.0-253.0","A2PQDK3MLDFXYM","","","","","18","","","","","","","","","","","","","","","","","","","","","",""
"4782","","image-button-response","257","1378904","0.0-254.0","A2PQDK3MLDFXYM","img_art/16.jpg","1","","","","","","","","","","","","","","","","","","","","","","","","",""
"883","","image-button-response","258","1379789","0.0-255.0","A2PQDK3MLDFXYM","img_art/16.jpg","1","","","","","","","","","","","","","","","","","","","","","","","","",""
"631","","image-button-response","259","1380421","0.0-256.0-0.0","A2PQDK3MLDFXYM","img_art/16.jpg","0","","","","","","","","","","","","","","","","","","","","","","","","",""
"1607","","image-button-response","260","1382029","0.0-257.0-0.0","A2PQDK3MLDFXYM","img_art/16.jpg","3","","","","","","","","","","","","","","","","","","","","","","","","",""
"null","","html-keyboard-response","261","1382531","0.0-258.0","A2PQDK3MLDFXYM","<p style=""font-size: 48px;"">+</p>","","","","","null","allTrialResponses","500","1","30","img_art/16.jpg","18","Weirdness is the painting.","Jamie,Katherine,Samantha,Haley,Tiffany,Amy","Weird and funny,40,320,20","Super weird. Id like to know more about it,24,120,20","Creepy teddybear,-50,140,20","Makes me want to know more,5,220,20","I feel irked, like somehow the items in this painting just happened to fall on the page together.,-44,360,20","visceral and a little disturbing.,10,220,20","Katherine","Super weird. Id like to know more about it,24,120,20","Jamie","Weird and funny,40,320,20","Haley","Makes me want to know more,5,220,20","6"
"5114","","image-button-response_instructions","262","1387653","0.0-259.0","A2PQDK3MLDFXYM","","0","instructions","","","","","","","","","","","","","","","","","","","","","","","",""
"939","","image-button-response","263","1388598","0.0-260.0","A2PQDK3MLDFXYM","","0","","","","","","","","","","","","","","","","","","","","","","","","",""
