"rt","url","trial_type","trial_index","time_elapsed","internal_node_id","participant_id","stimulus","button_pressed","Name","responses","response","key_press","variableName","fixationTime","condition","trial","photo","subjectRating","subjectResponse","agentsNames","agent_1_Response","agent_2_Response","agent_3_Response","agent_4_Response","agent_5_Response","agent_6_Response","kept_1_name","kept_1_response","kept_2_name","kept_2_response","kept_3_name","kept_3_response","errorCounter"
"15490","external_page_harvard.html","external-html","0","15573","0.0-0.0","A2QOB4FDI8ZHOB","","","","","","","","","","","","","","","","","","","","","","","","","","",""
"2174","","image-button-response","1","17749","0.0-1.0","A2QOB4FDI8ZHOB","","0","","","","","","","","","","","","","","","","","","","","","","","","",""
"2352","","image-button-response","2","20106","0.0-2.0-0.0","A2QOB4FDI8ZHOB","","1","phone","","","","","","","","","","","","","","","","","","","","","","","",""
"4712","","survey-text","3","24819","0.0-3.0-0.0","A2QOB4FDI8ZHOB","","","","{""Q0"":""A2QOB4FDI8ZHOB""}","","","","","","","","","","","","","","","","","","","","","","",""
"13000","","image-button-response_instructions","4","37822","0.0-4.0","A2QOB4FDI8ZHOB","","0","instructions","","","","","","","","","","","","","","","","","","","","","","","",""
"35822","","image-button-response_instructions","5","73645","0.0-5.0","A2QOB4FDI8ZHOB","img_art/ins/popularity/ins1.png","0","instructions","","","","","","","","","","","","","","","","","","","","","","","",""
"13276","","image-button-response_instructions","6","86922","0.0-6.0","A2QOB4FDI8ZHOB","img_art/ins/popularity/ins2.png","0","instructions","","","","","","","","","","","","","","","","","","","","","","","",""
"5755","","image-button-response_instructions","7","92678","0.0-7.0","A2QOB4FDI8ZHOB","img_art/ins/popularity/ins2Extreme.png","0","instructions","","","","","","","","","","","","","","","","","","","","","","","",""
"19657","","image-button-response_instructions","8","112336","0.0-8.0","A2QOB4FDI8ZHOB","img_art/ins/popularity/ins3KEEPpop.PNG","0","instructions","","","","","","","","","","","","","","","","","","","","","","","",""
"7765","","image-button-response_instructions","9","120102","0.0-9.0","A2QOB4FDI8ZHOB","img_art/ins/popularity/ins3ANamepop.PNG","0","instructions","","","","","","","","","","","","","","","","","","","","","","","",""
"4220","","image-button-response_instructions","10","124324","0.0-10.0","A2QOB4FDI8ZHOB","img_art/ins/popularity/ins3ARatingpop.png","0","instructions","","","","","","","","","","","","","","","","","","","","","","","",""
"2125","","image-button-response_instructions","11","126449","0.0-11.0","A2QOB4FDI8ZHOB","img_art/ins/popularity/ins3ATextpop.png","0","instructions","","","","","","","","","","","","","","","","","","","","","","","",""
"5471","","image-button-response_instructions","12","131922","0.0-12.0","A2QOB4FDI8ZHOB","img_art/ins/popularity/ins3ALikespop.png","0","instructions","","","","","","","","","","","","","","","","","","","","","","","",""
"23059","","image-button-response_instructions","13","154982","0.0-13.0","A2QOB4FDI8ZHOB","img_art/ins/popularity/ins3KEEPpop.PNG","0","instructions","","","","","","","","","","","","","","","","","","","","","","","",""
"14830","","image-button-response_instructions","14","169812","0.0-14.0","A2QOB4FDI8ZHOB","img_art/ins/popularity/ins3_5RED.png","0","instructions","","","","","","","","","","","","","","","","","","","","","","","",""
"6568","","image-button-response_instructions","15","176381","0.0-15.0","A2QOB4FDI8ZHOB","img_art/ins/popularity/ins3KEEPpop.PNG","0","instructions","","","","","","","","","","","","","","","","","","","","","","","",""
"12208","","image-button-response_instructions","16","188591","0.0-16.0","A2QOB4FDI8ZHOB","img_art/ins/popularity/ins4KEEPpop.PNG","0","instructions","","","","","","","","","","","","","","","","","","","","","","","",""
"8170","","image-button-response_instructions","17","196762","0.0-17.0","A2QOB4FDI8ZHOB","img_art/ins/popularity/ins5KEEPpop.PNG","0","instructions","","","","","","","","","","","","","","","","","","","","","","","",""
"2433","","image-button-response_instructions","18","199196","0.0-18.0","A2QOB4FDI8ZHOB","","0","instructions","","","","","","","","","","","","","","","","","","","","","","","",""
"9143","","survey-text","19","208365","0.0-19.0-0.0","A2QOB4FDI8ZHOB","","","","{""Q0"":""but""}","","","","","","","","","","","","","","","","","","","","","","",""
"24679","","survey-text","20","233045","0.0-20.0-0.0","A2QOB4FDI8ZHOB","","","","{""Q0"":""looks like an ice cream sundae on a sunny day""}","","","","","","","","","","","","","","","","","","","","","","",""
"7666.700000286102","","image-slider-response","21","240716","0.0-21.0","A2QOB4FDI8ZHOB","","","","","12","","","","","","","","","","","","","","","","","","","","","",""
"null","","image-button-response","22","245720","0.0-22.0","A2QOB4FDI8ZHOB","img_art/ins/1.jpg","null","","","","","","","","","","","","","","","","","","","","","","","","",""
"12180","","image-button-response","23","257902","0.0-23.0","A2QOB4FDI8ZHOB","img_art/ins/1.jpg","5","","","","","","","","","","","","","","","","","","","","","","","","",""
"10570","","image-button-response","24","268474","0.0-24.0-0.0","A2QOB4FDI8ZHOB","img_art/ins/1.jpg","3","","","","","","","","","","","","","","","","","","","","","","","","",""
"9375","","image-button-response","25","277852","0.0-25.0-0.0","A2QOB4FDI8ZHOB","img_art/ins/1.jpg","1","","","","","","","","","","","","","","","","","","","","","","","","",""
"null","","html-keyboard-response","26","278355","0.0-26.0","A2QOB4FDI8ZHOB","<p style=""font-size: 48px;"">+</p>","","","","","null","allTrialResponses","500","1","-2","img_art/ins/1.jpg","12","looks like an ice cream sundae on a sunny day","Adam,Alex,Ben,Carl,Daniel,Jack","Seems like doodles,-20,20,20","very creative work.,36,40,20","This color reminds me of poo,-46,60,20","very calming artwork,42,80,20","It looks like a murder scene.,-48,100,20","I like the sophisticated brushwork,40,120,20","Jack","I like the sophisticated brushwork,40,120,20","Carl","very calming artwork,42,80,20","Alex","very creative work.,36,40,20","0"
"21297","","survey-text","27","299657","0.0-27.0-0.0","A2QOB4FDI8ZHOB","","","","{""Q0"":""Very dark, something out of Hell""}","","","","","","","","","","","","","","","","","","","","","","",""
"7272.799999713898","","image-slider-response","28","306932","0.0-28.0","A2QOB4FDI8ZHOB","","","","","-27","","","","","","","","","","","","","","","","","","","","","",""
"null","","image-button-response","29","311935","0.0-29.0","A2QOB4FDI8ZHOB","img_art/ins/2.jpg","null","","","","","","","","","","","","","","","","","","","","","","","","",""
"10944","","image-button-response","30","322881","0.0-30.0","A2QOB4FDI8ZHOB","img_art/ins/2.jpg","0","","","","","","","","","","","","","","","","","","","","","","","","",""
"9992","","image-button-response","31","332876","0.0-31.0-0.0","A2QOB4FDI8ZHOB","img_art/ins/2.jpg","3","","","","","","","","","","","","","","","","","","","","","","","","",""
"7839","","image-button-response","32","340717","0.0-32.0-0.0","A2QOB4FDI8ZHOB","img_art/ins/2.jpg","4","","","","","","","","","","","","","","","","","","","","","","","","",""
"null","","html-keyboard-response","33","341219","0.0-33.0","A2QOB4FDI8ZHOB","<p style=""font-size: 48px;"">+</p>","","","","","null","allTrialResponses","500","1","-1","img_art/ins/2.jpg","-27","Very dark, something out of Hell","James,Alex,Kyle,Carl,John,Jack","looks too angry,-50,140,20","I like the blocks of color arrangements,30,40,20","Idk, it is just annoying,-32,180,20","I can feel the artist's passion in it,45,80,20","love the texture of paint,48,160,20","I would never be able to compose a sophisticated pallete like this,48,120,20","James","looks too angry,-50,140,20","Carl","I can feel the artist's passion in it,45,80,20","John","love the texture of paint,48,160,20","0"
"32918","","survey-text","34","374143","0.0-34.0-0.0","A2QOB4FDI8ZHOB","","","","{""Q0"":""Chilly.  The blue paints a portrait of depression and anxiety""}","","","","","","","","","","","","","","","","","","","","","","",""
"5959.199999809265","","image-slider-response","35","380104","0.0-35.0","A2QOB4FDI8ZHOB","","","","","19","","","","","","","","","","","","","","","","","","","","","",""
"null","","image-button-response","36","385107","0.0-36.0","A2QOB4FDI8ZHOB","img_art/ins/3.jpg","null","","","","","","","","","","","","","","","","","","","","","","","","",""
"8896","","image-button-response","37","394006","0.0-37.0","A2QOB4FDI8ZHOB","img_art/ins/3.jpg","5","","","","","","","","","","","","","","","","","","","","","","","","",""
"8466","","image-button-response","38","402474","0.0-38.0-0.0","A2QOB4FDI8ZHOB","img_art/ins/3.jpg","0","","","","","","","","","","","","","","","","","","","","","","","","",""
"8859","","image-button-response","39","411335","0.0-39.0-0.0","A2QOB4FDI8ZHOB","img_art/ins/3.jpg","2","","","","","","","","","","","","","","","","","","","","","","","","",""
"null","","html-keyboard-response","40","411837","0.0-40.0","A2QOB4FDI8ZHOB","<p style=""font-size: 48px;"">+</p>","","","","","null","allTrialResponses","500","1","0","img_art/ins/3.jpg","19","Chilly.  The blue paints a portrait of depression and anxiety","James,Mike,Ron,Carl,John,Sam","My worst nightmare,-42,140,20","enjoy the different shades of blue,22,200,20","It looks depressing,-26,220,20","It's an alright work,15,80,20","I like the overlapping of brushes,41,160,20","I can feel a rainy day from this painting,18,240,20","Sam","I can feel a rainy day from this painting,18,240,20","James","My worst nightmare,-42,140,20","Ron","It looks depressing,-26,220,20","0"
"11835","","image-button-response_instructions","41","423678","0.0-41.0","A2QOB4FDI8ZHOB","","0","instructions","","","","","","","","","","","","","","","","","","","","","","","",""
"13432","","survey-likert","42","437112","0.0-42.0-0.0","A2QOB4FDI8ZHOB","","","","{""Q0"":"""",""Q1"":0,""Q2"":1}","","","","","","","","","","","","","","","","","","","","","","",""
"5991","","survey-text","43","443111","0.0-43.0-0.0","A2QOB4FDI8ZHOB","","","","{""Q0"":""rock""}","","","","","","","","","","","","","","","","","","","","","","",""
"20942","","survey-text","44","464054","0.0-44.0-0.0","A2QOB4FDI8ZHOB","","","","{""Q0"":""Very dynamic.  Love the colors.""}","","","","","","","","","","","","","","","","","","","","","","",""
"9467.400000095367","","image-slider-response","45","473523","0.0-45.0","A2QOB4FDI8ZHOB","","","","","20","","","","","","","","","","","","","","","","","","","","","",""
"null","","image-button-response","46","478561","0.0-46.0","A2QOB4FDI8ZHOB","img_art/22.jpg","null","","","","","","","","","","","","","","","","","","","","","","","","",""
"11621","","image-button-response","47","490184","0.0-47.0","A2QOB4FDI8ZHOB","img_art/22.jpg","2","","","","","","","","","","","","","","","","","","","","","","","","",""
"7222","","image-button-response","48","497409","0.0-48.0-0.0","A2QOB4FDI8ZHOB","img_art/22.jpg","3","","","","","","","","","","","","","","","","","","","","","","","","",""
"4807","","image-button-response","49","502218","0.0-49.0-0.0","A2QOB4FDI8ZHOB","img_art/22.jpg","5","","","","","","","","","","","","","","","","","","","","","","","","",""
"null","","html-keyboard-response","50","502721","0.0-50.0","A2QOB4FDI8ZHOB","<p style=""font-size: 48px;"">+</p>","","","","","null","allTrialResponses","500","1","1","img_art/22.jpg","20","Very dynamic.  Love the colors.","Evan,Luke,Mason,Jesus,Kevin,Anthony","I enjoy the vibrant colors,23,140,20","the colors and shapes makes me want to keep looking at it,22,20,20","Could be interpreted so many ways, bold. I like it.,29,100,20","Different shapes within the image make it interesting to look at,20,100,20","Looks hot where ever that is.,-8,320,20","Colors are subdued yet vibrant,30,200,20","Mason","Could be interpreted so many ways, bold. I like it.,29,100,20","Jesus","Different shapes within the image make it interesting to look at,20,100,20","Anthony","Colors are subdued yet vibrant,30,200,20","0"
"31306","","survey-text","51","534032","0.0-51.0-0.0","A2QOB4FDI8ZHOB","","","","{""Q0"":""Reminds me of a spring morning with squiggles""}","","","","","","","","","","","","","","","","","","","","","","",""
"4301.700000286102","","image-slider-response","52","538335","0.0-52.0","A2QOB4FDI8ZHOB","","","","","9","","","","","","","","","","","","","","","","","","","","","",""
"null","","image-button-response","53","543340","0.0-53.0","A2QOB4FDI8ZHOB","img_art/27.jpg","null","","","","","","","","","","","","","","","","","","","","","","","","",""
"17389","","image-button-response","54","560731","0.0-54.0","A2QOB4FDI8ZHOB","img_art/27.jpg","0","","","","","","","","","","","","","","","","","","","","","","","","",""
"9477","","image-button-response","55","570210","0.0-55.0-0.0","A2QOB4FDI8ZHOB","img_art/27.jpg","4","","","","","","","","","","","","","","","","","","","","","","","","",""
"6273","","image-button-response","56","576486","0.0-56.0-0.0","A2QOB4FDI8ZHOB","img_art/27.jpg","5","","","","","","","","","","","","","","","","","","","","","","","","",""
"null","","html-keyboard-response","57","576988","0.0-57.0","A2QOB4FDI8ZHOB","<p style=""font-size: 48px;"">+</p>","","","","","null","allTrialResponses","500","1","2","img_art/27.jpg","9","Reminds me of a spring morning with squiggles","Isaiah,Michael,Mason,Jesus,Zachary,Anthony","I feel peaceful and a little nervous at the same time.,11,300,20","Anyone could do that.,-31,140,20","dont like it, don't hate it, meh.,2,100,20","The color palette isn't my taste,-24,100,20","Color story is boring in nature, and I feel nothing but boredom from this piece.,-20,400,20","Somewhat boring piece,-3,200,20","Isaiah","I feel peaceful and a little nervous at the same time.,11,300,20","Zachary","Color story is boring in nature, and I feel nothing but boredom from this piece.,-20,400,20","Anthony","Somewhat boring piece,-3,200,20","0"
"54002","","survey-text","58","630995","0.0-58.0-0.0","A2QOB4FDI8ZHOB","","","","{""Q0"":""Interesting shapes and emotions and yet foreboding""}","","","","","","","","","","","","","","","","","","","","","","",""
"5740","","image-slider-response","59","636737","0.0-59.0","A2QOB4FDI8ZHOB","","","","","18","","","","","","","","","","","","","","","","","","","","","",""
"null","","image-button-response","60","641739","0.0-60.0","A2QOB4FDI8ZHOB","img_art/8.jpg","null","","","","","","","","","","","","","","","","","","","","","","","","",""
"16011","","image-button-response","61","657752","0.0-61.0","A2QOB4FDI8ZHOB","img_art/8.jpg","5","","","","","","","","","","","","","","","","","","","","","","","","",""
"5222","","image-button-response","62","662976","0.0-62.0-0.0","A2QOB4FDI8ZHOB","img_art/8.jpg","0","","","","","","","","","","","","","","","","","","","","","","","","",""
"7202","","image-button-response","63","670181","0.0-63.0-0.0","A2QOB4FDI8ZHOB","img_art/8.jpg","4","","","","","","","","","","","","","","","","","","","","","","","","",""
"null","","html-keyboard-response","64","670684","0.0-64.0","A2QOB4FDI8ZHOB","<p style=""font-size: 48px;"">+</p>","","","","","null","allTrialResponses","500","1","3","img_art/8.jpg","18","Interesting shapes and emotions and yet foreboding","Isaiah,Isaac,Taylor,Devin,Zachary,Anthony","It makes me feel nervous. I can't tell ifI'm looking at an apartment, or a hellscape.,-18,300,20","It looks like it took a lot of time to complete.,34,280,20","And I'll huff and I'll puff and I'll blow your town down!!,20,200,20","Very nice detail and colors!,10,380,20","I like all of the faces that can be found in this piece. Interesting.,35,400,20","Not my favorite but has an interesting concept,32,200,20","Anthony","Not my favorite but has an interesting concept,32,200,20","Isaiah","It makes me feel nervous. I can't tell ifI'm looking at an apartment, or a hellscape.,-18,300,20","Zachary","I like all of the faces that can be found in this piece. Interesting.,35,400,20","0"
"25211","","survey-text","65","695899","0.0-65.0-0.0","A2QOB4FDI8ZHOB","","","","{""Q0"":""Very trashy.  Art?""}","","","","","","","","","","","","","","","","","","","","","","",""
"7314.599999904633","","image-slider-response","66","703216","0.0-66.0","A2QOB4FDI8ZHOB","","","","","-41","","","","","","","","","","","","","","","","","","","","","",""
"null","","image-button-response","67","708219","0.0-67.0","A2QOB4FDI8ZHOB","img_art/5.jpg","null","","","","","","","","","","","","","","","","","","","","","","","","",""
"10459","","image-button-response","68","718678","0.0-68.0","A2QOB4FDI8ZHOB","img_art/5.jpg","1","","","","","","","","","","","","","","","","","","","","","","","","",""
"9006","","image-button-response","69","727687","0.0-69.0-0.0","A2QOB4FDI8ZHOB","img_art/5.jpg","5","","","","","","","","","","","","","","","","","","","","","","","","",""
"1922","","image-button-response","70","729610","0.0-70.0-0.0","A2QOB4FDI8ZHOB","img_art/5.jpg","4","","","","","","","","","","","","","","","","","","","","","","","","",""
"null","","html-keyboard-response","71","731113","0.0-71.0","A2QOB4FDI8ZHOB","<p style=""font-size: 48px;"">+</p>","","","","","null","allTrialResponses","1500","1","4","img_art/5.jpg","-41","Very trashy.  Art?","Isaiah,Travis,Alexander,Derek,Zachary,Anthony","I feel nothing looking at this.,-5,300,20","This was awful and it looked like someone took minimul effort with it... no time at all.,-49,260,20","Dull pyramid that says nothing.,7,120,20","It's okay. Don't hate it but don't love it either,0,360,20","Not sure what to make of this one.,-1,400,20","This piece doesn't really stand out.,0,200,20","Travis","This was awful and it looked like someone took minimul effort with it... no time at all.,-49,260,20","Anthony","This piece doesn't really stand out.,0,200,20","Zachary","Not sure what to make of this one.,-1,400,20","0"
"48435","","survey-text","72","779553","0.0-72.0-0.0","A2QOB4FDI8ZHOB","","","","{""Q0"":""Dark colors indicate artist angst about his world""}","","","","","","","","","","","","","","","","","","","","","","",""
"7952","","image-slider-response","73","787507","0.0-73.0","A2QOB4FDI8ZHOB","","","","","-13","","","","","","","","","","","","","","","","","","","","","",""
"null","","image-button-response","74","792510","0.0-74.0","A2QOB4FDI8ZHOB","img_art/19.jpg","null","","","","","","","","","","","","","","","","","","","","","","","","",""
"4940","","image-button-response","75","797452","0.0-75.0","A2QOB4FDI8ZHOB","img_art/19.jpg","4","","","","","","","","","","","","","","","","","","","","","","","","",""
"7756","","image-button-response","76","805210","0.0-76.0-0.0","A2QOB4FDI8ZHOB","img_art/19.jpg","0","","","","","","","","","","","","","","","","","","","","","","","","",""
"11024","","image-button-response","77","816236","0.0-77.0-0.0","A2QOB4FDI8ZHOB","img_art/19.jpg","5","","","","","","","","","","","","","","","","","","","","","","","","",""
"null","","html-keyboard-response","78","817738","0.0-78.0","A2QOB4FDI8ZHOB","<p style=""font-size: 48px;"">+</p>","","","","","null","allTrialResponses","1500","1","5","img_art/19.jpg","-13","Dark colors indicate artist angst about his world","Dustin,Travis,Seth,Cody,Zachary,Anthony","Too busy, makes me anxious and frustrated. Lots of movement in the brush strokes.,-9,20,20","Nuetral...can't think of anything to say,4,260,20","I wasn't sure if I liked it or hated it. It oddly reminds me of a clothing store.,11,60,20","Interesting, leaves you wondering what it is,40,180,20","Reminds me of a busy town. Chaotic in nature.,-11,400,20","Very, very ugly and sloppy,-31,200,20","Zachary","Reminds me of a busy town. Chaotic in nature.,-11,400,20","Dustin","Too busy, makes me anxious and frustrated. Lots of movement in the brush strokes.,-9,20,20","Anthony","Very, very ugly and sloppy,-31,200,20","0"
"5718","","survey-text","79","823462","0.0-79.0-0.0","A2QOB4FDI8ZHOB","","","","{""Q0"":""sky""}","","","","","","","","","","","","","","","","","","","","","","",""
"34396","","survey-text","80","857859","0.0-80.0-0.0","A2QOB4FDI8ZHOB","","","","{""Q0"":""Looks like a map of a future dark Utopia.  Depressing.""}","","","","","","","","","","","","","","","","","","","","","","",""
"5895","","image-slider-response","81","863756","0.0-81.0","A2QOB4FDI8ZHOB","","","","","-26","","","","","","","","","","","","","","","","","","","","","",""
"null","","image-button-response","82","868759","0.0-82.0","A2QOB4FDI8ZHOB","img_art/18.jpg","null","","","","","","","","","","","","","","","","","","","","","","","","",""
"7082","","image-button-response","83","875843","0.0-83.0","A2QOB4FDI8ZHOB","img_art/18.jpg","5","","","","","","","","","","","","","","","","","","","","","","","","",""
"2161","","image-button-response","84","878006","0.0-84.0-0.0","A2QOB4FDI8ZHOB","img_art/18.jpg","4","","","","","","","","","","","","","","","","","","","","","","","","",""
"12818","","image-button-response","85","890827","0.0-85.0-0.0","A2QOB4FDI8ZHOB","img_art/18.jpg","0","","","","","","","","","","","","","","","","","","","","","","","","",""
"null","","html-keyboard-response","86","891828","0.0-86.0","A2QOB4FDI8ZHOB","<p style=""font-size: 48px;"">+</p>","","","","","null","allTrialResponses","1000","1","6","img_art/18.jpg","-26","Looks like a map of a future dark Utopia.  Depressing.","Dustin,Elijah,Tyler,Richard,Zachary,Anthony","Looks messy. Reminds me of a battle or war. I have an unpleasant feeling the more I look.,-20,20,20","Makes me feel confused,16,80,20","Pleasant design and composition, unpleasant theme and focus.,-19,320,20","interesting piece, I like the horse and people inserted in spots,22,340,20","This one seems rather ghoulish to me.,-41,400,20","I have no strong feelings about this image,1,200,20","Anthony","I have no strong feelings about this image,1,200,20","Zachary","This one seems rather ghoulish to me.,-41,400,20","Dustin","Looks messy. Reminds me of a battle or war. I have an unpleasant feeling the more I look.,-20,20,20","0"
"67402","","survey-text","87","959235","0.0-87.0-0.0","A2QOB4FDI8ZHOB","","","","{""Q0"":""Makes me think about trash pollution and how it effects everyone""}","","","","","","","","","","","","","","","","","","","","","","",""
"4860","","image-slider-response","88","964097","0.0-88.0","A2QOB4FDI8ZHOB","","","","","-20","","","","","","","","","","","","","","","","","","","","","",""
"null","","image-button-response","89","969101","0.0-89.0","A2QOB4FDI8ZHOB","img_art/29.jpg","null","","","","","","","","","","","","","","","","","","","","","","","","",""
"9600","","image-button-response","90","978702","0.0-90.0","A2QOB4FDI8ZHOB","img_art/29.jpg","4","","","","","","","","","","","","","","","","","","","","","","","","",""
"1436","","image-button-response","91","980141","0.0-91.0-0.0","A2QOB4FDI8ZHOB","img_art/29.jpg","5","","","","","","","","","","","","","","","","","","","","","","","","",""
"10043","","image-button-response","92","990187","0.0-92.0-0.0","A2QOB4FDI8ZHOB","img_art/29.jpg","1","","","","","","","","","","","","","","","","","","","","","","","","",""
"null","","html-keyboard-response","93","991188","0.0-93.0","A2QOB4FDI8ZHOB","<p style=""font-size: 48px;"">+</p>","","","","","null","allTrialResponses","1000","1","7","img_art/29.jpg","-20","Makes me think about trash pollution and how it effects everyone","Dustin,John,Matthew,Bradley,Zachary,Anthony","Don't get it! Too dark and random. Perhaps it was the start of something but the artist stopped and cancelled out the work.,-50,20,20","Its interesting although doesnt illicit any strong emotions from me,10,120,20","It that an actual PAINTBUSH! Love it.,50,120,20","It's creative. It's just not my thing.,-32,300,20","It looks like someone did not like their art and drew an x over it.,-32,400,20","Very interesting composition,41,200,20","Zachary","It looks like someone did not like their art and drew an x over it.,-32,400,20","Anthony","Very interesting composition,41,200,20","John","Its interesting although doesnt illicit any strong emotions from me,10,120,20","0"
"20000","","survey-text","94","1011192","0.0-94.0-0.0","A2QOB4FDI8ZHOB","","","","{""Q0"":""Very peaceful.  Can hear the water flowing.""}","","","","","","","","","","","","","","","","","","","","","","",""
"7874.700000286102","","image-slider-response","95","1019068","0.0-95.0","A2QOB4FDI8ZHOB","","","","","50","","","","","","","","","","","","","","","","","","","","","",""
"null","","image-button-response","96","1024072","0.0-96.0","A2QOB4FDI8ZHOB","img_art/24.jpg","null","","","","","","","","","","","","","","","","","","","","","","","","",""
"3261","","image-button-response","97","1027335","0.0-97.0","A2QOB4FDI8ZHOB","img_art/24.jpg","0","","","","","","","","","","","","","","","","","","","","","","","","",""
"4435","","image-button-response","98","1031771","0.0-98.0-0.0","A2QOB4FDI8ZHOB","img_art/24.jpg","1","","","","","","","","","","","","","","","","","","","","","","","","",""
"8322","","image-button-response","99","1040096","0.0-99.0-0.0","A2QOB4FDI8ZHOB","img_art/24.jpg","4","","","","","","","","","","","","","","","","","","","","","","","","",""
"null","","html-keyboard-response","100","1041599","0.0-100.0","A2QOB4FDI8ZHOB","<p style=""font-size: 48px;"">+</p>","","","","","null","allTrialResponses","1500","1","8","img_art/24.jpg","50","Very peaceful.  Can hear the water flowing.","Robert,John,Carlos,Sean,Zachary,Anthony","A beautiful waterfall in the springtime.,40,360,20","Beautiful.Nice use of colors and invokes feelings of serene and peace,40,120,20","It is like a really bad impressionist painting.,-40,80,20","I like the waterfall,22,40,20","Looks like a beautiful stream rolling through terrain of rocks and flowers.,43,400,20","This piece resembles a waterfall surrounded by trees.,21,200,20","Robert","A beautiful waterfall in the springtime.,40,360,20","John","Beautiful.Nice use of colors and invokes feelings of serene and peace,40,120,20","Zachary","Looks like a beautiful stream rolling through terrain of rocks and flowers.,43,400,20","0"
"22811","","survey-text","101","1064416","0.0-101.0-0.0","A2QOB4FDI8ZHOB","","","","{""Q0"":""War is coming.  Scary.""}","","","","","","","","","","","","","","","","","","","","","","",""
"3385.199999809265","","image-slider-response","102","1067803","0.0-102.0","A2QOB4FDI8ZHOB","","","","","15","","","","","","","","","","","","","","","","","","","","","",""
"null","","image-button-response","103","1072805","0.0-103.0","A2QOB4FDI8ZHOB","img_art/21.jpg","null","","","","","","","","","","","","","","","","","","","","","","","","",""
"8237","","image-button-response","104","1081044","0.0-104.0","A2QOB4FDI8ZHOB","img_art/21.jpg","5","","","","","","","","","","","","","","","","","","","","","","","","",""
"2128","","image-button-response","105","1083173","0.0-105.0-0.0","A2QOB4FDI8ZHOB","img_art/21.jpg","0","","","","","","","","","","","","","","","","","","","","","","","","",""
"6350","","image-button-response","106","1089526","0.0-106.0-0.0","A2QOB4FDI8ZHOB","img_art/21.jpg","1","","","","","","","","","","","","","","","","","","","","","","","","",""
"null","","html-keyboard-response","107","1090528","0.0-107.0","A2QOB4FDI8ZHOB","<p style=""font-size: 48px;"">+</p>","","","","","null","allTrialResponses","1000","1","9","img_art/21.jpg","15","War is coming.  Scary.","Robert,John,Ryan,Antonio,Zachary,Kyle","A battle at sea, the red is a bomb exploding.,-31,360,20","I like the colors that were used and the stark contrast between the two sides,25,120,20","Very calming and nice to look at,30,380,20","the colors are pretty but I did not feel any thing looking at it,33,220,20","Looks like a body of water during a sunset. I like this piece.,21,400,20","The blues make me feel sadder as my mood is already not the best right now,-10,340,20","Kyle","The blues make me feel sadder as my mood is already not the best right now,-10,340,20","Robert","A battle at sea, the red is a bomb exploding.,-31,360,20","John","I like the colors that were used and the stark contrast between the two sides,25,120,20","0"
"26851","","survey-text","108","1117383","0.0-108.0-0.0","A2QOB4FDI8ZHOB","","","","{""Q0"":""Doodles with a paintbrush""}","","","","","","","","","","","","","","","","","","","","","","",""
"6226.699999809265","","image-slider-response","109","1123612","0.0-109.0","A2QOB4FDI8ZHOB","","","","","-28","","","","","","","","","","","","","","","","","","","","","",""
"3045","","image-button-response","110","1128614","0.0-110.0","A2QOB4FDI8ZHOB","img_art/30.jpg","0","","","","","","","","","","","","","","","","","","","","","","","","",""
"1008","","image-button-response","111","1129624","0.0-111.0","A2QOB4FDI8ZHOB","img_art/30.jpg","0","","","","","","","","","","","","","","","","","","","","","","","","",""
"9528","","image-button-response","112","1139153","0.0-112.0-0.0","A2QOB4FDI8ZHOB","img_art/30.jpg","4","","","","","","","","","","","","","","","","","","","","","","","","",""
"3169","","image-button-response","113","1142325","0.0-113.0-0.0","A2QOB4FDI8ZHOB","img_art/30.jpg","3","","","","","","","","","","","","","","","","","","","","","","","","",""
"null","","html-keyboard-response","114","1143326","0.0-114.0","A2QOB4FDI8ZHOB","<p style=""font-size: 48px;"">+</p>","","","","","null","allTrialResponses","1000","1","10","img_art/30.jpg","-28","Doodles with a paintbrush","Robert,John,Jack,Jake,Steven,Kyle","My kindergarten class could do this,-50,360,20","ugly nasty colors,-10,120,20","love the movement of the brush strokes. very interesting piece.,38,320,20","This is just simple and ugly.,-2,360,20","cant see the meaning behind it,-20,160,20","Pretty neutral about this one,0,340,20","Robert","My kindergarten class could do this,-50,360,20","Steven","cant see the meaning behind it,-20,160,20","Jake","This is just simple and ugly.,-2,360,20","0"
"5738","","survey-text","115","1149077","0.0-115.0-0.0","A2QOB4FDI8ZHOB","","","","{""Q0"":""our""}","","","","","","","","","","","","","","","","","","","","","","",""
"26388","","survey-text","116","1175467","0.0-116.0-0.0","A2QOB4FDI8ZHOB","","","","{""Q0"":""Scribbles on a refrigerator.  Manic maybe?""}","","","","","","","","","","","","","","","","","","","","","","",""
"6361.099999904633","","image-slider-response","117","1181830","0.0-117.0","A2QOB4FDI8ZHOB","","","","","-41","","","","","","","","","","","","","","","","","","","","","",""
"3373","","image-button-response","118","1186833","0.0-118.0","A2QOB4FDI8ZHOB","img_art/3.jpg","0","","","","","","","","","","","","","","","","","","","","","","","","",""
"2226","","image-button-response","119","1189061","0.0-119.0","A2QOB4FDI8ZHOB","img_art/3.jpg","0","","","","","","","","","","","","","","","","","","","","","","","","",""
"5796","","image-button-response","120","1194858","0.0-120.0-0.0","A2QOB4FDI8ZHOB","img_art/3.jpg","4","","","","","","","","","","","","","","","","","","","","","","","","",""
"3147","","image-button-response","121","1198008","0.0-121.0-0.0","A2QOB4FDI8ZHOB","img_art/3.jpg","5","","","","","","","","","","","","","","","","","","","","","","","","",""
"null","","html-keyboard-response","122","1199510","0.0-122.0","A2QOB4FDI8ZHOB","<p style=""font-size: 48px;"">+</p>","","","","","null","allTrialResponses","1500","1","11","img_art/3.jpg","-41","Scribbles on a refrigerator.  Manic maybe?","Robert,Dalton,Marcus,Jake,Steven,Adrian","I think of an angry child,-50,360,20","Blood splatter and one black spot.,1,300,20","Like the colors and energy of this work.,10,60,20","This is angry and childish looking.,-49,360,20","i don't like this, just looks like scribbles,-50,160,20","Angry red crayons, like a child throwing a tantrum. No thanks.,-10,60,20","Robert","I think of an angry child,-50,360,20","Steven","i don't like this, just looks like scribbles,-50,160,20","Adrian","Angry red crayons, like a child throwing a tantrum. No thanks.,-10,60,20","0"
"48000","","survey-text","123","1247516","0.0-123.0-0.0","A2QOB4FDI8ZHOB","","","","{""Q0"":""Depressing is all I can say here.""}","","","","","","","","","","","","","","","","","","","","","","",""
"6831","","image-slider-response","124","1254348","0.0-124.0","A2QOB4FDI8ZHOB","","","","","-20","","","","","","","","","","","","","","","","","","","","","",""
"null","","image-button-response","125","1259351","0.0-125.0","A2QOB4FDI8ZHOB","img_art/11.jpg","null","","","","","","","","","","","","","","","","","","","","","","","","",""
"8012","","image-button-response","126","1267365","0.0-126.0","A2QOB4FDI8ZHOB","img_art/11.jpg","0","","","","","","","","","","","","","","","","","","","","","","","","",""
"6375","","image-button-response","127","1273742","0.0-127.0-0.0","A2QOB4FDI8ZHOB","img_art/11.jpg","2","","","","","","","","","","","","","","","","","","","","","","","","",""
"2458","","image-button-response","128","1276201","0.0-128.0-0.0","A2QOB4FDI8ZHOB","img_art/11.jpg","5","","","","","","","","","","","","","","","","","","","","","","","","",""
"null","","html-keyboard-response","129","1276703","0.0-129.0","A2QOB4FDI8ZHOB","<p style=""font-size: 48px;"">+</p>","","","","","null","allTrialResponses","500","1","12","img_art/11.jpg","-20","Depressing is all I can say here.","Robert,Dakota,Tristan,Connor,Steven,Adrian","Rainy dreary day in a town.,7,360,20","i think of beatnik music and dark piano lounges,25,280,20","Simple and complex. Hopeful yet dark. I love this,35,300,20","Frank Lloyd Wright, music,24,240,20","Oh, I love this one, it says to me that life is very busy,50,160,20","Not a fan of the colors but it looks interesting.,-31,60,20","Robert","Rainy dreary day in a town.,7,360,20","Tristan","Simple and complex. Hopeful yet dark. I love this,35,300,20","Adrian","Not a fan of the colors but it looks interesting.,-31,60,20","0"
"32236","","survey-text","130","1308945","0.0-130.0-0.0","A2QOB4FDI8ZHOB","","","","{""Q0"":""Under the sea in a somewhat peaceful configuration.""}","","","","","","","","","","","","","","","","","","","","","","",""
"4418.199999809265","","image-slider-response","131","1313365","0.0-131.0","A2QOB4FDI8ZHOB","","","","","24","","","","","","","","","","","","","","","","","","","","","",""
"null","","image-button-response","132","1318368","0.0-132.0","A2QOB4FDI8ZHOB","img_art/9.jpg","null","","","","","","","","","","","","","","","","","","","","","","","","",""
"25229","","image-button-response","133","1343599","0.0-133.0","A2QOB4FDI8ZHOB","img_art/9.jpg","4","","","","","","","","","","","","","","","","","","","","","","","","",""
"5012","","image-button-response","134","1348613","0.0-134.0-0.0","A2QOB4FDI8ZHOB","img_art/9.jpg","0","","","","","","","","","","","","","","","","","","","","","","","","",""
"15141","","image-button-response","135","1363756","0.0-135.0-0.0","A2QOB4FDI8ZHOB","img_art/9.jpg","2","","","","","","","","","","","","","","","","","","","","","","","","",""
"null","","html-keyboard-response","136","1364258","0.0-136.0","A2QOB4FDI8ZHOB","<p style=""font-size: 48px;"">+</p>","","","","","null","allTrialResponses","500","1","13","img_art/9.jpg","24","Under the sea in a somewhat peaceful configuration.","Robert,Gregory,Tristan,Christopher,Alex,Adrian","Someone sleeping in a cave. Dont like the scribble look.,-30,360,20","Mash up of colors and designs don't really go together,-5,220,20","The busyness and harsh nature of the lines in this painting  mute my emotional response.,-10,300,20","I really like the color balance but the image is odd,-5,160,20","Alright, I can see a reclining lady, I'm just glad to be able to tell what's in the picture,5,100,20","Looks like my niece's doodles.,-50,60,20","Alex","Alright, I can see a reclining lady, I'm just glad to be able to tell what's in the picture,5,100,20","Robert","Someone sleeping in a cave. Dont like the scribble look.,-30,360,20","Tristan","The busyness and harsh nature of the lines in this painting  mute my emotional response.,-10,300,20","0"
"146679","","survey-text","137","1510942","0.0-137.0-0.0","A2QOB4FDI8ZHOB","","","","{""Q0"":""Dancing in a fiesta.  Has a kind of happy mood to it.""}","","","","","","","","","","","","","","","","","","","","","","",""
"2799.9000000953674","","image-slider-response","138","1513744","0.0-138.0","A2QOB4FDI8ZHOB","","","","","15","","","","","","","","","","","","","","","","","","","","","",""
"null","","image-button-response","139","1518747","0.0-139.0","A2QOB4FDI8ZHOB","img_art/23.jpg","null","","","","","","","","","","","","","","","","","","","","","","","","",""
"1370","","image-button-response","140","1520119","0.0-140.0","A2QOB4FDI8ZHOB","img_art/23.jpg","0","","","","","","","","","","","","","","","","","","","","","","","","",""
"4512","","image-button-response","141","1524633","0.0-141.0-0.0","A2QOB4FDI8ZHOB","img_art/23.jpg","4","","","","","","","","","","","","","","","","","","","","","","","","",""
"4816","","image-button-response","142","1529452","0.0-142.0-0.0","A2QOB4FDI8ZHOB","img_art/23.jpg","2","","","","","","","","","","","","","","","","","","","","","","","","",""
"null","","html-keyboard-response","143","1529954","0.0-143.0","A2QOB4FDI8ZHOB","<p style=""font-size: 48px;"">+</p>","","","","","null","allTrialResponses","500","1","14","img_art/23.jpg","15","Dancing in a fiesta.  Has a kind of happy mood to it.","Robert,Lucas,Tristan,Jason,Alex,Caleb","This makes me think of an orchestra playing a forth of july song,12,360,20","Shocked, beautiful.,20,380,20","So exciting and full of the night.,20,300,20","Interesting contrast,9,20,20","This is nice, the colorful background is fun and the white looks like dancing figures,5,100,20","Very colorful. Nice contrasts.,26,40,20","Robert","This makes me think of an orchestra playing a forth of july song,12,360,20","Alex","This is nice, the colorful background is fun and the white looks like dancing figures,5,100,20","Tristan","So exciting and full of the night.,20,300,20","0"
"28026","","survey-text","144","1557985","0.0-144.0-0.0","A2QOB4FDI8ZHOB","","","","{""Q0"":""Colors thrown together.  Don't know what artist was going for.""}","","","","","","","","","","","","","","","","","","","","","","",""
"4194","","image-slider-response","145","1562181","0.0-145.0","A2QOB4FDI8ZHOB","","","","","-38","","","","","","","","","","","","","","","","","","","","","",""
"null","","image-button-response","146","1567184","0.0-146.0","A2QOB4FDI8ZHOB","img_art/1.jpg","null","","","","","","","","","","","","","","","","","","","","","","","","",""
"9262","","image-button-response","147","1576447","0.0-147.0","A2QOB4FDI8ZHOB","img_art/1.jpg","4","","","","","","","","","","","","","","","","","","","","","","","","",""
"9090","","image-button-response","148","1585540","0.0-148.0-0.0","A2QOB4FDI8ZHOB","img_art/1.jpg","2","","","","","","","","","","","","","","","","","","","","","","","","",""
"13291","","image-button-response","149","1598834","0.0-149.0-0.0","A2QOB4FDI8ZHOB","img_art/1.jpg","0","","","","","","","","","","","","","","","","","","","","","","","","",""
"null","","html-keyboard-response","150","1599335","0.0-150.0","A2QOB4FDI8ZHOB","<p style=""font-size: 48px;"">+</p>","","","","","null","allTrialResponses","500","1","15","img_art/1.jpg","-38","Colors thrown together.  Don't know what artist was going for.","Robert,Devon,Tristan,Vincent,Alex,Christian","Pretty colors. Fall day in the East Coast of USA.,42,360,20","I see happiness from different aspects of life,31,400,20","Unpleasing palette. I see a figure but it seems incongrous to the highly abstract background.,-20,300,20","I love the detail and colors like a beautiful autumn day,35,360,20","Random paint does not make art,-5,100,20","bamboo boat in sunset,12,140,20","Alex","Random paint does not make art,-5,100,20","Tristan","Unpleasing palette. I see a figure but it seems incongrous to the highly abstract background.,-20,300,20","Robert","Pretty colors. Fall day in the East Coast of USA.,42,360,20","0"
"7420","","survey-text","151","1606771","0.0-151.0-0.0","A2QOB4FDI8ZHOB","","","","{""Q0"":""course""}","","","","","","","","","","","","","","","","","","","","","","",""
"44513","","survey-text","152","1651285","0.0-152.0-0.0","A2QOB4FDI8ZHOB","","","","{""Q0"":""Dali nightmare.  This one is creeping me out.""}","","","","","","","","","","","","","","","","","","","","","","",""
"6721.300000190735","","image-slider-response","153","1658008","0.0-153.0","A2QOB4FDI8ZHOB","","","","","-34","","","","","","","","","","","","","","","","","","","","","",""
"null","","image-button-response","154","1663013","0.0-154.0","A2QOB4FDI8ZHOB","img_art/16.jpg","null","","","","","","","","","","","","","","","","","","","","","","","","",""
"6413","","image-button-response","155","1669428","0.0-155.0","A2QOB4FDI8ZHOB","img_art/16.jpg","5","","","","","","","","","","","","","","","","","","","","","","","","",""
"2195","","image-button-response","156","1671625","0.0-156.0-0.0","A2QOB4FDI8ZHOB","img_art/16.jpg","2","","","","","","","","","","","","","","","","","","","","","","","","",""
"1617","","image-button-response","157","1673244","0.0-157.0-0.0","A2QOB4FDI8ZHOB","img_art/16.jpg","0","","","","","","","","","","","","","","","","","","","","","","","","",""
"null","","html-keyboard-response","158","1674246","0.0-158.0","A2QOB4FDI8ZHOB","<p style=""font-size: 48px;"">+</p>","","","","","null","allTrialResponses","1000","1","16","img_art/16.jpg","-34","Dali nightmare.  This one is creeping me out.","Robert,Hunter,Tristan,William,Alex,Ian","It looks violent.,-30,360,20","so close to feeling intentional,-4,240,20","visceral and a little disturbing.,10,300,20","liked the bear, nothing else made sense,10,380,20","I'm a fan of collage and of reminiscing about childhood so this was nice,10,100,20","This looks like it was made by an art student filled with angst,-30,260,20","Ian","This looks like it was made by an art student filled with angst,-30,260,20","Tristan","visceral and a little disturbing.,10,300,20","Robert","It looks violent.,-30,360,20","0"
"58212","","survey-text","159","1732464","0.0-159.0-0.0","A2QOB4FDI8ZHOB","","","","{""Q0"":""Sad rabbit in pain and lonely.  ""}","","","","","","","","","","","","","","","","","","","","","","",""
"4641.599999904633","","image-slider-response","160","1737107","0.0-160.0","A2QOB4FDI8ZHOB","","","","","-39","","","","","","","","","","","","","","","","","","","","","",""
"null","","image-button-response","161","1742110","0.0-161.0","A2QOB4FDI8ZHOB","img_art/28.jpg","null","","","","","","","","","","","","","","","","","","","","","","","","",""
"11063","","image-button-response","162","1753175","0.0-162.0","A2QOB4FDI8ZHOB","img_art/28.jpg","5","","","","","","","","","","","","","","","","","","","","","","","","",""
"4854","","image-button-response","163","1758030","0.0-163.0-0.0","A2QOB4FDI8ZHOB","img_art/28.jpg","2","","","","","","","","","","","","","","","","","","","","","","","","",""
"3177","","image-button-response","164","1761210","0.0-164.0-0.0","A2QOB4FDI8ZHOB","img_art/28.jpg","0","","","","","","","","","","","","","","","","","","","","","","","","",""
"null","","html-keyboard-response","165","1761711","0.0-165.0","A2QOB4FDI8ZHOB","<p style=""font-size: 48px;"">+</p>","","","","","null","allTrialResponses","500","1","17","img_art/28.jpg","-39","Sad rabbit in pain and lonely.  ","Robert,Blake,Tristan,Peter,Jorge,Ian","The colors are neutral but I see a mother helping her child,31,360,20","an old woman in a wheelchair. sad,-35,280,20","Contemplative and a little dark. The muted colors and subject create a sense of mystery.,15,300,20","The earthy colors smeared around looks like prison food tray,-17,320,20","nostalgic from a memory,11,180,20","This one looks very dark and seems like it has a lot of depth to it.,31,260,20","Ian","This one looks very dark and seems like it has a lot of depth to it.,31,260,20","Tristan","Contemplative and a little dark. The muted colors and subject create a sense of mystery.,15,300,20","Robert","The colors are neutral but I see a mother helping her child,31,360,20","0"
"52284","","survey-text","166","1814002","0.0-166.0-0.0","A2QOB4FDI8ZHOB","","","","{""Q0"":""Reminds me of the slenderman legend.  Frightening yet oddly beautiful""}","","","","","","","","","","","","","","","","","","","","","","",""
"5802.900000095367","","image-slider-response","167","1819807","0.0-167.0","A2QOB4FDI8ZHOB","","","","","20","","","","","","","","","","","","","","","","","","","","","",""
"null","","image-button-response","168","1824810","0.0-168.0","A2QOB4FDI8ZHOB","img_art/25.jpg","null","","","","","","","","","","","","","","","","","","","","","","","","",""
"10567","","image-button-response","169","1835379","0.0-169.0","A2QOB4FDI8ZHOB","img_art/25.jpg","3","","","","","","","","","","","","","","","","","","","","","","","","",""
"3615","","image-button-response","170","1838996","0.0-170.0-0.0","A2QOB4FDI8ZHOB","img_art/25.jpg","2","","","","","","","","","","","","","","","","","","","","","","","","",""
"9279","","image-button-response","171","1848277","0.0-171.0-0.0","A2QOB4FDI8ZHOB","img_art/25.jpg","5","","","","","","","","","","","","","","","","","","","","","","","","",""
"null","","html-keyboard-response","172","1848779","0.0-172.0","A2QOB4FDI8ZHOB","<p style=""font-size: 48px;"">+</p>","","","","","null","allTrialResponses","500","1","18","img_art/25.jpg","20","Reminds me of the slenderman legend.  Frightening yet oddly beautiful","Robert,Miguel,Tristan,Kenneth,Thomas,Ian","It made me think of healing.,22,360,20","This is too simple,-22,160,20","The limited palette make this figure mysterious and interpret-able.,20,300,20","I love the color. I don't know what exactly is going on but I like it.,24,300,20","I like the design but the brightness of the color feels almost blinding to me.,-3,220,20","This looks cool but I don't really care for it. Some sort or religious figure?,16,260,20","Kenneth","I love the color. I don't know what exactly is going on but I like it.,24,300,20","Tristan","The limited palette make this figure mysterious and interpret-able.,20,300,20","Ian","This looks cool but I don't really care for it. Some sort or religious figure?,16,260,20","0"
"43361","","survey-text","173","1892145","0.0-173.0-0.0","A2QOB4FDI8ZHOB","","","","{""Q0"":""Nice landscape imagery, relaxing.""}","","","","","","","","","","","","","","","","","","","","","","",""
"4310.10000038147","","image-slider-response","174","1896457","0.0-174.0","A2QOB4FDI8ZHOB","","","","","23","","","","","","","","","","","","","","","","","","","","","",""
"null","","image-button-response","175","1901460","0.0-175.0","A2QOB4FDI8ZHOB","img_art/26.jpg","null","","","","","","","","","","","","","","","","","","","","","","","","",""
"10944","","image-button-response","176","1912406","0.0-176.0","A2QOB4FDI8ZHOB","img_art/26.jpg","5","","","","","","","","","","","","","","","","","","","","","","","","",""
"3765","","image-button-response","177","1916173","0.0-177.0-0.0","A2QOB4FDI8ZHOB","img_art/26.jpg","0","","","","","","","","","","","","","","","","","","","","","","","","",""
"10325","","image-button-response","178","1926500","0.0-178.0-0.0","A2QOB4FDI8ZHOB","img_art/26.jpg","3","","","","","","","","","","","","","","","","","","","","","","","","",""
"null","","html-keyboard-response","179","1928002","0.0-179.0","A2QOB4FDI8ZHOB","<p style=""font-size: 48px;"">+</p>","","","","","null","allTrialResponses","1500","1","19","img_art/26.jpg","23","Nice landscape imagery, relaxing.","Brett,Dylan,Tristan,Kenneth,Edward,Ian","Picturesque little town,45,360,20","I like the colors but it is still a little boring,22,40,20","The feeling that I am looking at the world through a dingy filter makes this unpleasant for me.,-20,300,20","Very subdued, but wouldn't give it a 2nd notice.,4,300,20","Elevator art but the watercolors are good,29,60,20","This seems pretty and sweet, it's something I would like to actually see.,31,260,20","Ian","This seems pretty and sweet, it's something I would like to actually see.,31,260,20","Brett","Picturesque little town,45,360,20","Kenneth","Very subdued, but wouldn't give it a 2nd notice.,4,300,20","0"
"43584","","survey-text","180","1971591","0.0-180.0-0.0","A2QOB4FDI8ZHOB","","","","{""Q0"":""Deep colors on pastel, looks like a forest out of a book.""}","","","","","","","","","","","","","","","","","","","","","","",""
"4192.800000190735","","image-slider-response","181","1975786","0.0-181.0","A2QOB4FDI8ZHOB","","","","","-7","","","","","","","","","","","","","","","","","","","","","",""
"null","","image-button-response","182","1980789","0.0-182.0","A2QOB4FDI8ZHOB","img_art/14.jpg","null","","","","","","","","","","","","","","","","","","","","","","","","",""
"1371","","image-button-response","183","1982162","0.0-183.0","A2QOB4FDI8ZHOB","img_art/14.jpg","2","","","","","","","","","","","","","","","","","","","","","","","","",""
"8129","","image-button-response","184","1990293","0.0-184.0-0.0","A2QOB4FDI8ZHOB","img_art/14.jpg","4","","","","","","","","","","","","","","","","","","","","","","","","",""
"11937","","image-button-response","185","2002233","0.0-185.0-0.0","A2QOB4FDI8ZHOB","img_art/14.jpg","0","","","","","","","","","","","","","","","","","","","","","","","","",""
"null","","html-keyboard-response","186","2002735","0.0-186.0","A2QOB4FDI8ZHOB","<p style=""font-size: 48px;"">+</p>","","","","","null","allTrialResponses","500","1","20","img_art/14.jpg","-7","Deep colors on pastel, looks like a forest out of a book.","Brett,Cole,Victor,Kenneth,Grant,Ian","Confusion or an explosion,40,360,20","Simplistic. Looks like a child did it,14,200,20","Meh. Pleasant to look at. Colors are nice,6,340,20","Its cute, but not my favorite.,8,300,20","This elicits no reaction in me.,0,200,20","This just looks like a kids watercolor painting.,-30,260,20","Victor","Meh. Pleasant to look at. Colors are nice,6,340,20","Grant","This elicits no reaction in me.,0,200,20","Brett","Confusion or an explosion,40,360,20","0"
"3212","","survey-text","187","2005959","0.0-187.0-0.0","A2QOB4FDI8ZHOB","","","","{""Q0"":""we""}","","","","","","","","","","","","","","","","","","","","","","",""
"22206","","survey-text","188","2028167","0.0-188.0-0.0","A2QOB4FDI8ZHOB","","","","{""Q0"":""Too chaotic and kind of somber""}","","","","","","","","","","","","","","","","","","","","","","",""
"7239.900000095367","","image-slider-response","189","2035408","0.0-189.0","A2QOB4FDI8ZHOB","","","","","-27","","","","","","","","","","","","","","","","","","","","","",""
"null","","image-button-response","190","2040411","0.0-190.0","A2QOB4FDI8ZHOB","img_art/2.jpg","null","","","","","","","","","","","","","","","","","","","","","","","","",""
"3374","","image-button-response","191","2043787","0.0-191.0","A2QOB4FDI8ZHOB","img_art/2.jpg","0","","","","","","","","","","","","","","","","","","","","","","","","",""
"4171","","image-button-response","192","2047960","0.0-192.0-0.0","A2QOB4FDI8ZHOB","img_art/2.jpg","4","","","","","","","","","","","","","","","","","","","","","","","","",""
"5207","","image-button-response","193","2053170","0.0-193.0-0.0","A2QOB4FDI8ZHOB","img_art/2.jpg","1","","","","","","","","","","","","","","","","","","","","","","","","",""
"null","","html-keyboard-response","194","2054672","0.0-194.0","A2QOB4FDI8ZHOB","<p style=""font-size: 48px;"">+</p>","","","","","null","allTrialResponses","1500","1","21","img_art/2.jpg","-27","Too chaotic and kind of somber","Brett,Alejandro,Victor,Bryce,Grant,Andrew","Not very appealing,-5,360,20","Looks contrived and like someone tried to hard to make it abstract,-31,80,20","It's interesting. The chunks of black here and there are nice,13,340,20","I love the colors in this.,29,20,20","The colors are entirely unappealing and very unpleasant to look at.,-20,200,20","Doesn't give me a reaction,10,160,20","Brett","Not very appealing,-5,360,20","Grant","The colors are entirely unappealing and very unpleasant to look at.,-20,200,20","Alejandro","Looks contrived and like someone tried to hard to make it abstract,-31,80,20","0"
"51654","","survey-text","195","2106332","0.0-195.0-0.0","A2QOB4FDI8ZHOB","","","","{""Q0"":""Hand with loops as fingers, weird...""}","","","","","","","","","","","","","","","","","","","","","","",""
"4683.10000038147","","image-slider-response","196","2111017","0.0-196.0","A2QOB4FDI8ZHOB","","","","","-30","","","","","","","","","","","","","","","","","","","","","",""
"4856","","image-button-response","197","2116020","0.0-197.0","A2QOB4FDI8ZHOB","img_art/4.jpg","1","","","","","","","","","","","","","","","","","","","","","","","","",""
"2137","","image-button-response","198","2118160","0.0-198.0","A2QOB4FDI8ZHOB","img_art/4.jpg","1","","","","","","","","","","","","","","","","","","","","","","","","",""
"5189","","image-button-response","199","2123351","0.0-199.0-0.0","A2QOB4FDI8ZHOB","img_art/4.jpg","5","","","","","","","","","","","","","","","","","","","","","","","","",""
"10081","","image-button-response","200","2133434","0.0-200.0-0.0","A2QOB4FDI8ZHOB","img_art/4.jpg","3","","","","","","","","","","","","","","","","","","","","","","","","",""
"null","","html-keyboard-response","201","2133936","0.0-201.0","A2QOB4FDI8ZHOB","<p style=""font-size: 48px;"">+</p>","","","","","null","allTrialResponses","500","1","22","img_art/4.jpg","-30","Hand with loops as fingers, weird...","Brett,Alejandro,Tanner,James,Grant,Nathan","I just have no clue,26,360,20","Looks like finger nails from the Guinness world record book.,-30,80,20","stresses me out, uncomfortable,-18,180,20","Really don't care for the yellowish brown color in the center.,-19,380,20","This elicits no reaction in me.,0,200,20","Not my preference when it comes to art styles or subjects,-10,200,20","Alejandro","Looks like finger nails from the Guinness world record book.,-30,80,20","Nathan","Not my preference when it comes to art styles or subjects,-10,200,20","James","Really don't care for the yellowish brown color in the center.,-19,380,20","0"
"26675","","survey-text","202","2160618","0.0-202.0-0.0","A2QOB4FDI8ZHOB","","","","{""Q0"":""Sand on a beach, gritty.""}","","","","","","","","","","","","","","","","","","","","","","",""
"3550.699999809265","","image-slider-response","203","2164170","0.0-203.0","A2QOB4FDI8ZHOB","","","","","-35","","","","","","","","","","","","","","","","","","","","","",""
"4945","","image-button-response","204","2169173","0.0-204.0","A2QOB4FDI8ZHOB","img_art/7.jpg","2","","","","","","","","","","","","","","","","","","","","","","","","",""
"1030","","image-button-response","205","2170205","0.0-205.0","A2QOB4FDI8ZHOB","img_art/7.jpg","2","","","","","","","","","","","","","","","","","","","","","","","","",""
"5412","","image-button-response","206","2175619","0.0-206.0-0.0","A2QOB4FDI8ZHOB","img_art/7.jpg","5","","","","","","","","","","","","","","","","","","","","","","","","",""
"1322","","image-button-response","207","2176944","0.0-207.0-0.0","A2QOB4FDI8ZHOB","img_art/7.jpg","3","","","","","","","","","","","","","","","","","","","","","","","","",""
"null","","html-keyboard-response","208","2177446","0.0-208.0","A2QOB4FDI8ZHOB","<p style=""font-size: 48px;"">+</p>","","","","","null","allTrialResponses","500","1","23","img_art/7.jpg","-35","Sand on a beach, gritty.","Noah,Alejandro,Joshua,James,Nathaniel,Nathan","elicits no real response,0,260,20","I thought I was looking at a satellite image of mars.,21,80,20","Looks almost like a photograph of nature.,11,240,20","Looks plain and dull, sorry.,-31,380,20","It gives off an alien-like vastness of space vibe which I like,9,220,20","I don't like this kind of color scheme or look they went for,-50,200,20","Joshua","Looks almost like a photograph of nature.,11,240,20","Nathan","I don't like this kind of color scheme or look they went for,-50,200,20","James","Looks plain and dull, sorry.,-31,380,20","0"
"59536","","survey-text","209","2236987","0.0-209.0-0.0","A2QOB4FDI8ZHOB","","","","{""Q0"":""Very futuristic IMO with some sinister undertones.""}","","","","","","","","","","","","","","","","","","","","","","",""
"5074.900000095367","","image-slider-response","210","2242064","0.0-210.0","A2QOB4FDI8ZHOB","","","","","11","","","","","","","","","","","","","","","","","","","","","",""
"4330","","image-button-response","211","2247068","0.0-211.0","A2QOB4FDI8ZHOB","img_art/20.jpg","1","","","","","","","","","","","","","","","","","","","","","","","","",""
"3108","","image-button-response","212","2250177","0.0-212.0","A2QOB4FDI8ZHOB","img_art/20.jpg","1","","","","","","","","","","","","","","","","","","","","","","","","",""
"5174","","image-button-response","213","2255354","0.0-213.0-0.0","A2QOB4FDI8ZHOB","img_art/20.jpg","5","","","","","","","","","","","","","","","","","","","","","","","","",""
"16353","","image-button-response","214","2271708","0.0-214.0-0.0","A2QOB4FDI8ZHOB","img_art/20.jpg","0","","","","","","","","","","","","","","","","","","","","","","","","",""
"null","","html-keyboard-response","215","2273211","0.0-215.0","A2QOB4FDI8ZHOB","<p style=""font-size: 48px;"">+</p>","","","","","null","allTrialResponses","1500","1","24","img_art/20.jpg","11","Very futuristic IMO with some sinister undertones.","Jared,David,Joshua,James,Jordan,Nathan","i like the rounded edges,18,400,20","I like how the image is depicting a scene.,10,340,20","Reminds me of the Southwest; i.e. New Mexico or Arizona. It's interesting.,12,240,20","It looks like a motorcycle and I like cars and motorcycles,30,380,20","A mountain vacation,46,160,20","Don't really like the subject it focuses on, however the color usage is great,-10,200,20","David","I like how the image is depicting a scene.,10,340,20","Nathan","Don't really like the subject it focuses on, however the color usage is great,-10,200,20","Jared","i like the rounded edges,18,400,20","0"
"21202","","survey-text","216","2294420","0.0-216.0-0.0","A2QOB4FDI8ZHOB","","","","{""Q0"":""Refreshing splashes that look like water in a tube""}","","","","","","","","","","","","","","","","","","","","","","",""
"6921","","image-slider-response","217","2301343","0.0-217.0","A2QOB4FDI8ZHOB","","","","","23","","","","","","","","","","","","","","","","","","","","","",""
"null","","image-button-response","218","2306345","0.0-218.0","A2QOB4FDI8ZHOB","img_art/13.jpg","null","","","","","","","","","","","","","","","","","","","","","","","","",""
"13437","","image-button-response","219","2319784","0.0-219.0","A2QOB4FDI8ZHOB","img_art/13.jpg","4","","","","","","","","","","","","","","","","","","","","","","","","",""
"4297","","image-button-response","220","2324083","0.0-220.0-0.0","A2QOB4FDI8ZHOB","img_art/13.jpg","4","","","","","","","","","","","","","","","","","","","","","","","","",""
"2844","","image-button-response","221","2331832","0.0-220.1-0.1","A2QOB4FDI8ZHOB","img_art/13.jpg","0","","","","","","","","","","","","","","","","","","","","","","","","",""
"4090","","image-button-response","222","2335923","0.0-221.0-0.0","A2QOB4FDI8ZHOB","img_art/13.jpg","1","","","","","","","","","","","","","","","","","","","","","","","","",""
"null","","html-keyboard-response","223","2337426","0.0-222.0","A2QOB4FDI8ZHOB","<p style=""font-size: 48px;"">+</p>","","","","","null","allTrialResponses","1500","1","25","img_art/13.jpg","23","Refreshing splashes that look like water in a tube","Jared,David,Scott,Malik,Cameron,Nathan","the blues are soothing but the splatters are too much,-3,400,20","I like the color coordination between the foreground and background.,10,340,20","I like the transition to other colors,24,20,20","Gorgeous contrast and color choice, very pleasing,50,40,20","Like the use of color, not a fan of the splatter,29,60,20","While it is a bit basic and doesn't speak to me much, I like the feeling it gives,40,200,20","Cameron","Like the use of color, not a fan of the splatter,29,60,20","Jared","the blues are soothing but the splatters are too much,-3,400,20","David","I like the color coordination between the foreground and background.,10,340,20","2"
"6028","","survey-text","224","2343465","0.0-223.0-0.0","A2QOB4FDI8ZHOB","","","","{""Q0"":""table""}","","","","","","","","","","","","","","","","","","","","","","",""
"57197","","survey-text","225","2400663","0.0-224.0-0.0","A2QOB4FDI8ZHOB","","","","{""Q0"":""Monotone, what looks like a racetrack of sorts.""}","","","","","","","","","","","","","","","","","","","","","","",""
"5497","","image-slider-response","226","2406163","0.0-225.0","A2QOB4FDI8ZHOB","","","","","-21","","","","","","","","","","","","","","","","","","","","","",""
"null","","image-button-response","227","2411166","0.0-226.0","A2QOB4FDI8ZHOB","img_art/10.jpg","null","","","","","","","","","","","","","","","","","","","","","","","","",""
"1073","","image-button-response","228","2412241","0.0-227.0","A2QOB4FDI8ZHOB","img_art/10.jpg","1","","","","","","","","","","","","","","","","","","","","","","","","",""
"8561","","image-button-response","229","2420804","0.0-228.0-0.0","A2QOB4FDI8ZHOB","img_art/10.jpg","4","","","","","","","","","","","","","","","","","","","","","","","","",""
"4647","","image-button-response","230","2425457","0.0-229.0-0.0","A2QOB4FDI8ZHOB","img_art/10.jpg","3","","","","","","","","","","","","","","","","","","","","","","","","",""
"null","","html-keyboard-response","231","2426958","0.0-230.0","A2QOB4FDI8ZHOB","<p style=""font-size: 48px;"">+</p>","","","","","null","allTrialResponses","1500","1","26","img_art/10.jpg","-21","Monotone, what looks like a racetrack of sorts.","Jared,David,Bryan,Justin,Cameron,Jeffrey","it just doesnt appeal to me.,-10,400,20","I can't really tell what this is suppose to represent, but overall I don't like the design.,-20,340,20","First impression was musical instrument then, because of the gray colors, death.,5,400,20","The design is dynamic and interesting.,14,280,20","artistic cello piece?,30,60,20","Relaxing; a lot of going on but colours make it easy to look at,20,40,20","David","I can't really tell what this is suppose to represent, but overall I don't like the design.,-20,340,20","Cameron","artistic cello piece?,30,60,20","Justin","The design is dynamic and interesting.,14,280,20","2"
"40296","","survey-text","232","2467260","0.0-231.0-0.0","A2QOB4FDI8ZHOB","","","","{""Q0"":""I like the subtle colors in this one.""}","","","","","","","","","","","","","","","","","","","","","","",""
"6468.199999809265","","image-slider-response","233","2473730","0.0-232.0","A2QOB4FDI8ZHOB","","","","","16","","","","","","","","","","","","","","","","","","","","","",""
"null","","image-button-response","234","2478733","0.0-233.0","A2QOB4FDI8ZHOB","img_art/17.jpg","null","","","","","","","","","","","","","","","","","","","","","","","","",""
"6545","","image-button-response","235","2485280","0.0-234.0","A2QOB4FDI8ZHOB","img_art/17.jpg","5","","","","","","","","","","","","","","","","","","","","","","","","",""
"2482","","image-button-response","236","2487765","0.0-235.0-0.0","A2QOB4FDI8ZHOB","img_art/17.jpg","3","","","","","","","","","","","","","","","","","","","","","","","","",""
"3461","","image-button-response","237","2491228","0.0-236.0-0.0","A2QOB4FDI8ZHOB","img_art/17.jpg","0","","","","","","","","","","","","","","","","","","","","","","","","",""
"null","","html-keyboard-response","238","2491730","0.0-237.0","A2QOB4FDI8ZHOB","<p style=""font-size: 48px;"">+</p>","","","","","null","allTrialResponses","500","1","27","img_art/17.jpg","16","I like the subtle colors in this one.","Juan,David,Patrick,Justin,Cameron,Eric","I want to know more about this picture and where it leads if you could get inside it.,27,260,20","I like how the image gives an impression of gaseous tree.,15,340,20","Beautiful patterns but evokes sad emotions in me due to the color shades,31,280,20","I like the colors and the design.,20,280,20","doorways and trees are pleasant,30,60,20","This picture is calming to me, and I love the colors.,45,100,20","Eric","This picture is calming to me, and I love the colors.,45,100,20","Justin","I like the colors and the design.,20,280,20","Juan","I want to know more about this picture and where it leads if you could get inside it.,27,260,20","2"
"36642","","survey-text","239","2528380","0.0-238.0-0.0","A2QOB4FDI8ZHOB","","","","{""Q0"":""Nothing on this for me emotionally...""}","","","","","","","","","","","","","","","","","","","","","","",""
"4286.299999713898","","image-slider-response","240","2532668","0.0-239.0","A2QOB4FDI8ZHOB","","","","","-34","","","","","","","","","","","","","","","","","","","","","",""
"3267","","image-button-response","241","2537670","0.0-240.0","A2QOB4FDI8ZHOB","img_art/6.jpg","1","","","","","","","","","","","","","","","","","","","","","","","","",""
"3141","","image-button-response","242","2540814","0.0-241.0","A2QOB4FDI8ZHOB","img_art/6.jpg","1","","","","","","","","","","","","","","","","","","","","","","","","",""
"6758","","image-button-response","243","2547574","0.0-242.0-0.0","A2QOB4FDI8ZHOB","img_art/6.jpg","3","","","","","","","","","","","","","","","","","","","","","","","","",""
"14066","","image-button-response","244","2561643","0.0-243.0-0.0","A2QOB4FDI8ZHOB","img_art/6.jpg","0","","","","","","","","","","","","","","","","","","","","","","","","",""
"null","","html-keyboard-response","245","2563145","0.0-244.0","A2QOB4FDI8ZHOB","<p style=""font-size: 48px;"">+</p>","","","","","null","allTrialResponses","1500","1","28","img_art/6.jpg","-34","Nothing on this for me emotionally...","Juan,Timothy,Joseph,Justin,Brandon,Eric","I don't like the colors and the dark shape at the top makes me think of a buzzard.,-28,260,20","I dont feel much of a responce or connection to this one,0,240,20","Little birdie in a desert. Seeking better frontiers.,13,220,20","It's alright. I imagined the peach from James and the Giant Peach.,1,280,20","The feeling of isolation with so little objects. Great,20,320,20","This piece reminds me of the lorax.,5,100,20","Timothy","I dont feel much of a responce or connection to this one,0,240,20","Justin","It's alright. I imagined the peach from James and the Giant Peach.,1,280,20","Juan","I don't like the colors and the dark shape at the top makes me think of a buzzard.,-28,260,20","2"
"41433","","survey-text","246","2604585","0.0-245.0-0.0","A2QOB4FDI8ZHOB","","","","{""Q0"":""The black makes this a depressing piece.""}","","","","","","","","","","","","","","","","","","","","","","",""
"4547.400000095367","","image-slider-response","247","2609134","0.0-246.0","A2QOB4FDI8ZHOB","","","","","-27","","","","","","","","","","","","","","","","","","","","","",""
"null","","image-button-response","248","2614137","0.0-247.0","A2QOB4FDI8ZHOB","img_art/15.jpg","null","","","","","","","","","","","","","","","","","","","","","","","","",""
"8754","","image-button-response","249","2622893","0.0-248.0","A2QOB4FDI8ZHOB","img_art/15.jpg","3","","","","","","","","","","","","","","","","","","","","","","","","",""
"8265","","image-button-response","250","2631160","0.0-249.0-0.0","A2QOB4FDI8ZHOB","img_art/15.jpg","0","","","","","","","","","","","","","","","","","","","","","","","","",""
"2022","","image-button-response","251","2633185","0.0-250.0-0.0","A2QOB4FDI8ZHOB","img_art/15.jpg","1","","","","","","","","","","","","","","","","","","","","","","","","",""
"null","","html-keyboard-response","252","2634686","0.0-251.0","A2QOB4FDI8ZHOB","<p style=""font-size: 48px;"">+</p>","","","","","null","allTrialResponses","1500","1","29","img_art/15.jpg","-27","The black makes this a depressing piece.","Juan,Timothy,Austin,Justin,Trevor,Gabriel","I don't even know what's going on here. Again, this is too abstract.,-21,260,20","This painting gives a calm vibe but no stronger emotions than that,10,240,20","Perfect Abstract painting,50,240,20","Color scheme and design are rather boring.,-10,280,20","I really like the colors,14,280,20","i kinda like this one but wouldnt buy it for myself,17,160,20","Justin","Color scheme and design are rather boring.,-10,280,20","Juan","I don't even know what's going on here. Again, this is too abstract.,-21,260,20","Timothy","This painting gives a calm vibe but no stronger emotions than that,10,240,20","2"
"49255","","survey-text","253","2683948","0.0-252.0-0.0","A2QOB4FDI8ZHOB","","","","{""Q0"":""Dynamic with a good gradient between happy and sad.""}","","","","","","","","","","","","","","","","","","","","","","",""
"6183.299999713898","","image-slider-response","254","2690133","0.0-253.0","A2QOB4FDI8ZHOB","","","","","7","","","","","","","","","","","","","","","","","","","","","",""
"null","","image-button-response","255","2695136","0.0-254.0","A2QOB4FDI8ZHOB","img_art/12.jpg","null","","","","","","","","","","","","","","","","","","","","","","","","",""
"9239","","image-button-response","256","2704376","0.0-255.0","A2QOB4FDI8ZHOB","img_art/12.jpg","5","","","","","","","","","","","","","","","","","","","","","","","","",""
"5725","","image-button-response","257","2710103","0.0-256.0-0.0","A2QOB4FDI8ZHOB","img_art/12.jpg","1","","","","","","","","","","","","","","","","","","","","","","","","",""
"4013","","image-button-response","258","2714119","0.0-257.0-0.0","A2QOB4FDI8ZHOB","img_art/12.jpg","4","","","","","","","","","","","","","","","","","","","","","","","","",""
"null","","html-keyboard-response","259","2715621","0.0-258.0","A2QOB4FDI8ZHOB","<p style=""font-size: 48px;"">+</p>","","","","","null","allTrialResponses","1500","1","30","img_art/12.jpg","7","Dynamic with a good gradient between happy and sad.","Juan,Timothy,Adam,Justin,Garrett,Jose","This is too abstract and the colors are too worn out.,-23,260,20","The shapes make me feel a bit uncomfortable,-10,240,20","Minimalist colors and shapes.,-5,40,20","Too blocky and not interesting enough.,-15,280,20","This image doesn't have anything going on. The top half is really ugly, I kind of like the bottom a little.,-20,180,20","Not sure why but this is my favorite. I'd put it on my wall,50,200,20","Jose","Not sure why but this is my favorite. I'd put it on my wall,50,200,20","Timothy","The shapes make me feel a bit uncomfortable,-10,240,20","Garrett","This image doesn't have anything going on. The top half is really ugly, I kind of like the bottom a little.,-20,180,20","2"
"5063","","image-button-response_instructions","260","2720690","0.0-259.0","A2QOB4FDI8ZHOB","","0","instructions","","","","","","","","","","","","","","","","","","","","","","","",""
"2156","","image-button-response","261","2722852","0.0-260.0","A2QOB4FDI8ZHOB","","0","","","","","","","","","","","","","","","","","","","","","","","","",""
