"rt","url","trial_type","trial_index","time_elapsed","internal_node_id","participant_id","stimulus","button_pressed","Name","responses","response","key_press","variableName","fixationTime","condition","trial","photo","subjectRating","subjectResponse","agentsNames","agent_1_Response","agent_2_Response","agent_3_Response","agent_4_Response","agent_5_Response","agent_6_Response","kept_1_name","kept_1_response","kept_2_name","kept_2_response","kept_3_name","kept_3_response","errorCounter"
"159431","external_page_harvard.html","external-html","0","159491","0.0-0.0","A2R6UQCQ8T3RZE","","","","","","","","","","","","","","","","","","","","","","","","","","",""
"2841","","image-button-response","1","162334","0.0-1.0","A2R6UQCQ8T3RZE","","0","","","","","","","","","","","","","","","","","","","","","","","","",""
"2896","","image-button-response","2","165231","0.0-2.0-0.0","A2R6UQCQ8T3RZE","","1","phone","","","","","","","","","","","","","","","","","","","","","","","",""
"5760","","survey-text","3","170992","0.0-3.0-0.0","A2R6UQCQ8T3RZE","","","","{""Q0"":""A2R6UQCQ8T3RZE""}","","","","","","","","","","","","","","","","","","","","","","",""
"29628","","image-button-response_instructions","4","200621","0.0-4.0","A2R6UQCQ8T3RZE","","0","instructions","","","","","","","","","","","","","","","","","","","","","","","",""
"18512","","image-button-response_instructions","5","219134","0.0-5.0","A2R6UQCQ8T3RZE","img_art/ins/popularity/ins1.png","0","instructions","","","","","","","","","","","","","","","","","","","","","","","",""
"3313","","image-button-response_instructions","6","222449","0.0-6.0","A2R6UQCQ8T3RZE","img_art/ins/popularity/ins2.png","0","instructions","","","","","","","","","","","","","","","","","","","","","","","",""
"2174","","image-button-response_instructions","7","224623","0.0-7.0","A2R6UQCQ8T3RZE","img_art/ins/popularity/ins2Extreme.png","0","instructions","","","","","","","","","","","","","","","","","","","","","","","",""
"6183","","image-button-response_instructions","8","230807","0.0-8.0","A2R6UQCQ8T3RZE","img_art/ins/popularity/ins3KEEPpop.PNG","0","instructions","","","","","","","","","","","","","","","","","","","","","","","",""
"3349","","image-button-response_instructions","9","234156","0.0-9.0","A2R6UQCQ8T3RZE","img_art/ins/popularity/ins3ANamepop.PNG","0","instructions","","","","","","","","","","","","","","","","","","","","","","","",""
"2222","","image-button-response_instructions","10","236379","0.0-10.0","A2R6UQCQ8T3RZE","img_art/ins/popularity/ins3ARatingpop.png","0","instructions","","","","","","","","","","","","","","","","","","","","","","","",""
"1532","","image-button-response_instructions","11","237911","0.0-11.0","A2R6UQCQ8T3RZE","img_art/ins/popularity/ins3ATextpop.png","0","instructions","","","","","","","","","","","","","","","","","","","","","","","",""
"6424","","image-button-response_instructions","12","244336","0.0-12.0","A2R6UQCQ8T3RZE","img_art/ins/popularity/ins3ALikespop.png","0","instructions","","","","","","","","","","","","","","","","","","","","","","","",""
"9931","","image-button-response_instructions","13","254267","0.0-13.0","A2R6UQCQ8T3RZE","img_art/ins/popularity/ins3KEEPpop.PNG","0","instructions","","","","","","","","","","","","","","","","","","","","","","","",""
"5985","","image-button-response_instructions","14","260252","0.0-14.0","A2R6UQCQ8T3RZE","img_art/ins/popularity/ins3_5RED.png","0","instructions","","","","","","","","","","","","","","","","","","","","","","","",""
"2704","","image-button-response_instructions","15","262956","0.0-15.0","A2R6UQCQ8T3RZE","img_art/ins/popularity/ins3KEEPpop.PNG","0","instructions","","","","","","","","","","","","","","","","","","","","","","","",""
"7983","","image-button-response_instructions","16","270939","0.0-16.0","A2R6UQCQ8T3RZE","img_art/ins/popularity/ins4KEEPpop.PNG","0","instructions","","","","","","","","","","","","","","","","","","","","","","","",""
"6072","","image-button-response_instructions","17","277012","0.0-17.0","A2R6UQCQ8T3RZE","img_art/ins/popularity/ins5KEEPpop.PNG","0","instructions","","","","","","","","","","","","","","","","","","","","","","","",""
"1361","","image-button-response_instructions","18","278374","0.0-18.0","A2R6UQCQ8T3RZE","","0","instructions","","","","","","","","","","","","","","","","","","","","","","","",""
"5374","","survey-text","19","283761","0.0-19.0-0.0","A2R6UQCQ8T3RZE","","","","{""Q0"":""but""}","","","","","","","","","","","","","","","","","","","","","","",""
"20527","","survey-text","20","304288","0.0-20.0-0.0","A2R6UQCQ8T3RZE","","","","{""Q0"":""This does not look like anything, and I do not like the color composition.""}","","","","","","","","","","","","","","","","","","","","","","",""
"8082","","image-slider-response","21","312373","0.0-21.0","A2R6UQCQ8T3RZE","","","","","-45","","","","","","","","","","","","","","","","","","","","","",""
"null","","image-button-response","22","317392","0.0-22.0","A2R6UQCQ8T3RZE","img_art/ins/1.jpg","null","","","","","","","","","","","","","","","","","","","","","","","","",""
"209","","image-button-response","23","317602","0.0-23.0","A2R6UQCQ8T3RZE","img_art/ins/1.jpg","2","","","","","","","","","","","","","","","","","","","","","","","","",""
"3402","","image-button-response","24","321004","0.0-24.0-0.0","A2R6UQCQ8T3RZE","img_art/ins/1.jpg","4","","","","","","","","","","","","","","","","","","","","","","","","",""
"781","","image-button-response","25","321786","0.0-25.0-0.0","A2R6UQCQ8T3RZE","img_art/ins/1.jpg","0","","","","","","","","","","","","","","","","","","","","","","","","",""
"null","","html-keyboard-response","26","322301","0.0-26.0","A2R6UQCQ8T3RZE","<p style=""font-size: 48px;"">+</p>","","","","","null","allTrialResponses","500","1","-2","img_art/ins/1.jpg","-45","This does not look like anything, and I do not like the color composition.","Adam,Alex,Ben,Carl,Daniel,Jack","Seems like doodles,-20,20,20","very creative work.,36,40,20","This color reminds me of poo,-46,60,20","very calming artwork,42,80,20","It looks like a murder scene.,-48,100,20","I like the sophisticated brushwork,40,120,20","Ben","This color reminds me of poo,-46,60,20","Daniel","It looks like a murder scene.,-48,100,20","Adam","Seems like doodles,-20,20,20","0"
"25335","","survey-text","27","347638","0.0-27.0-0.0","A2R6UQCQ8T3RZE","","","","{""Q0"":""This is ugly, but I like the red swath in the center.""}","","","","","","","","","","","","","","","","","","","","","","",""
"5284","","image-slider-response","28","352922","0.0-28.0","A2R6UQCQ8T3RZE","","","","","-25","","","","","","","","","","","","","","","","","","","","","",""
"3334","","image-button-response","29","357942","0.0-29.0","A2R6UQCQ8T3RZE","img_art/ins/2.jpg","2","","","","","","","","","","","","","","","","","","","","","","","","",""
"2116","","image-button-response","30","360058","0.0-30.0","A2R6UQCQ8T3RZE","img_art/ins/2.jpg","2","","","","","","","","","","","","","","","","","","","","","","","","",""
"2996","","image-button-response","31","363054","0.0-31.0-0.0","A2R6UQCQ8T3RZE","img_art/ins/2.jpg","3","","","","","","","","","","","","","","","","","","","","","","","","",""
"578","","image-button-response","32","363633","0.0-32.0-0.0","A2R6UQCQ8T3RZE","img_art/ins/2.jpg","4","","","","","","","","","","","","","","","","","","","","","","","","",""
"null","","html-keyboard-response","33","364642","0.0-33.0","A2R6UQCQ8T3RZE","<p style=""font-size: 48px;"">+</p>","","","","","null","allTrialResponses","1000","1","-1","img_art/ins/2.jpg","-25","This is ugly, but I like the red swath in the center.","Adam,John,Ben,James,Daniel,Kyle","too much color,-18,20,20","love the texture of paint,48,160,20","meaningless painting,-45,60,20","looks too angry,-50,140,20","One of my pet peevs,-48,100,20","Idk, it is just annoying,-32,180,20","Ben","meaningless painting,-45,60,20","James","looks too angry,-50,140,20","Daniel","One of my pet peevs,-48,100,20","0"
"16945","","survey-text","34","381590","0.0-34.0-0.0","A2R6UQCQ8T3RZE","","","","{""Q0"":""Totally meaningless, but cool colors.""}","","","","","","","","","","","","","","","","","","","","","","",""
"3906","","image-slider-response","35","385497","0.0-35.0","A2R6UQCQ8T3RZE","","","","","-10","","","","","","","","","","","","","","","","","","","","","",""
"null","","image-button-response","36","390512","0.0-36.0","A2R6UQCQ8T3RZE","img_art/ins/3.jpg","null","","","","","","","","","","","","","","","","","","","","","","","","",""
"7201","","image-button-response","37","397713","0.0-37.0","A2R6UQCQ8T3RZE","img_art/ins/3.jpg","2","","","","","","","","","","","","","","","","","","","","","","","","",""
"1412","","image-button-response","38","399125","0.0-38.0-0.0","A2R6UQCQ8T3RZE","img_art/ins/3.jpg","3","","","","","","","","","","","","","","","","","","","","","","","","",""
"673","","image-button-response","39","399799","0.0-39.0-0.0","A2R6UQCQ8T3RZE","img_art/ins/3.jpg","4","","","","","","","","","","","","","","","","","","","","","","","","",""
"null","","html-keyboard-response","40","400312","0.0-40.0","A2R6UQCQ8T3RZE","<p style=""font-size: 48px;"">+</p>","","","","","null","allTrialResponses","500","1","0","img_art/ins/3.jpg","-10","Totally meaningless, but cool colors.","Mike,Ron,Ben,James,Daniel,Sam","enjoy the different shades of blue,22,200,20","It looks depressing,-26,220,20","This thing gives me anxiety,-41,60,20","My worst nightmare,-42,140,20","looks like a murder room,-35,100,20","I can feel a rainy day from this painting,18,240,20","Ben","This thing gives me anxiety,-41,60,20","James","My worst nightmare,-42,140,20","Daniel","looks like a murder room,-35,100,20","0"
"5948","","image-button-response_instructions","41","406263","0.0-41.0","A2R6UQCQ8T3RZE","","0","instructions","","","","","","","","","","","","","","","","","","","","","","","",""
"8171","","survey-likert","42","414434","0.0-42.0-0.0","A2R6UQCQ8T3RZE","","","","{""Q0"":"""",""Q1"":0,""Q2"":1}","","","","","","","","","","","","","","","","","","","","","","",""
"3623","","survey-text","43","418058","0.0-43.0-0.0","A2R6UQCQ8T3RZE","","","","{""Q0"":""rock""}","","","","","","","","","","","","","","","","","","","","","","",""
"21791","","survey-text","44","439850","0.0-44.0-0.0","A2R6UQCQ8T3RZE","","","","{""Q0"":""It looks like a forest fire.""}","","","","","","","","","","","","","","","","","","","","","","",""
"10440","","image-slider-response","45","450291","0.0-45.0","A2R6UQCQ8T3RZE","","","","","-30","","","","","","","","","","","","","","","","","","","","","",""
"null","","image-button-response","46","455311","0.0-46.0","A2R6UQCQ8T3RZE","img_art/1.jpg","null","","","","","","","","","","","","","","","","","","","","","","","","",""
"2294","","image-button-response","47","457608","0.0-47.0","A2R6UQCQ8T3RZE","img_art/1.jpg","5","","","","","","","","","","","","","","","","","","","","","","","","",""
"2088","","image-button-response","48","459697","0.0-48.0-0.0","A2R6UQCQ8T3RZE","img_art/1.jpg","1","","","","","","","","","","","","","","","","","","","","","","","","",""
"6125","","image-button-response","49","465822","0.0-49.0-0.0","A2R6UQCQ8T3RZE","img_art/1.jpg","3","","","","","","","","","","","","","","","","","","","","","","","","",""
"null","","html-keyboard-response","50","466332","0.0-50.0","A2R6UQCQ8T3RZE","<p style=""font-size: 48px;"">+</p>","","","","","null","allTrialResponses","500","1","1","img_art/1.jpg","-30","It looks like a forest fire.","Evan,Patrick,Eric,Justin,Scott,Adrian","It is beautiful, I really enjoy the colors,32,140,20","I feel uneasy looking at this,-41,280,20","I like the way that the colors blend.,35,100,20","It reminds me of a sunset I once saw.,16,280,20","good colors and contrast,31,20,20","Not a fan of the colors. Makes me think of the Australian bush fires.,-5,60,20","Adrian","Not a fan of the colors. Makes me think of the Australian bush fires.,-5,60,20","Patrick","I feel uneasy looking at this,-41,280,20","Justin","It reminds me of a sunset I once saw.,16,280,20","0"
"34898","","survey-text","51","501231","0.0-51.0-0.0","A2R6UQCQ8T3RZE","","","","{""Q0"":""It's like watching a boat made of staff paper sink.""}","","","","","","","","","","","","","","","","","","","","","","",""
"2612","","image-slider-response","52","503843","0.0-52.0","A2R6UQCQ8T3RZE","","","","","-50","","","","","","","","","","","","","","","","","","","","","",""
"null","","image-button-response","53","508850","0.0-53.0","A2R6UQCQ8T3RZE","img_art/10.jpg","null","","","","","","","","","","","","","","","","","","","","","","","","",""
"5079","","image-button-response","54","513929","0.0-54.0","A2R6UQCQ8T3RZE","img_art/10.jpg","0","","","","","","","","","","","","","","","","","","","","","","","","",""
"406","","image-button-response","55","514336","0.0-55.0-0.0","A2R6UQCQ8T3RZE","img_art/10.jpg","1","","","","","","","","","","","","","","","","","","","","","","","","",""
"454","","image-button-response","56","514790","0.0-56.0-0.0","A2R6UQCQ8T3RZE","img_art/10.jpg","2","","","","","","","","","","","","","","","","","","","","","","","","",""
"null","","html-keyboard-response","57","516292","0.0-57.0","A2R6UQCQ8T3RZE","<p style=""font-size: 48px;"">+</p>","","","","","null","allTrialResponses","1500","1","2","img_art/10.jpg","-50","It's like watching a boat made of staff paper sink.","Noah,Patrick,Alejandro,Justin,Blake,Adrian","not sure what to make of this one,0,260,20","I don't like the colors,-20,280,20","The contrast between the messy dots/dabs vs the straight affluent lines is unappealing,-20,80,20","The design is dynamic and interesting.,14,280,20","a fast racetrack. go, go, go,5,280,20","Looks like a violin. Not a fan of the smudges and smears, but my initial reaction was positive.,11,60,20","Noah","not sure what to make of this one,0,260,20","Patrick","I don't like the colors,-20,280,20","Alejandro","The contrast between the messy dots/dabs vs the straight affluent lines is unappealing,-20,80,20","0"
"15925","","survey-text","58","532220","0.0-58.0-0.0","A2R6UQCQ8T3RZE","","","","{""Q0"":""This looks like a child's interpretation of a plane crash.""}","","","","","","","","","","","","","","","","","","","","","","",""
"2843","","image-slider-response","59","535062","0.0-59.0","A2R6UQCQ8T3RZE","","","","","-50","","","","","","","","","","","","","","","","","","","","","",""
"null","","image-button-response","60","540072","0.0-60.0","A2R6UQCQ8T3RZE","img_art/14.jpg","null","","","","","","","","","","","","","","","","","","","","","","","","",""
"1219","","image-button-response","61","541292","0.0-61.0","A2R6UQCQ8T3RZE","img_art/14.jpg","2","","","","","","","","","","","","","","","","","","","","","","","","",""
"1793","","image-button-response","62","543086","0.0-62.0-0.0","A2R6UQCQ8T3RZE","img_art/14.jpg","4","","","","","","","","","","","","","","","","","","","","","","","","",""
"511","","image-button-response","63","543597","0.0-63.0-0.0","A2R6UQCQ8T3RZE","img_art/14.jpg","5","","","","","","","","","","","","","","","","","","","","","","","","",""
"null","","html-keyboard-response","64","544600","0.0-64.0","A2R6UQCQ8T3RZE","<p style=""font-size: 48px;"">+</p>","","","","","null","allTrialResponses","1000","1","3","img_art/14.jpg","-50","This looks like a child's interpretation of a plane crash.","Noah,Patrick,Alejandro,Trevor,Mason,James","I enjoy what comes across as a playful take on nature themes,26,260,20","It uplifts my mood due to the color scheme,32,280,20","It looks like a tree but the bleeding water colors lack borders and makes it hard to appreciate the message.,-41,80,20","has a tree look to it and it's colors are happy,9,280,20","ok, gloomy though.,12,100,20","It uses interesting techniques on this picture, but I have no feelings for or against.,1,380,20","Alejandro","It looks like a tree but the bleeding water colors lack borders and makes it hard to appreciate the message.,-41,80,20","Mason","ok, gloomy though.,12,100,20","James","It uses interesting techniques on this picture, but I have no feelings for or against.,1,380,20","0"
"27812","","survey-text","65","572413","0.0-65.0-0.0","A2R6UQCQ8T3RZE","","","","{""Q0"":""Cityscape by Fingerpaint""}","","","","","","","","","","","","","","","","","","","","","","",""
"4666","","image-slider-response","66","577081","0.0-66.0","A2R6UQCQ8T3RZE","","","","","-45","","","","","","","","","","","","","","","","","","","","","",""
"null","","image-button-response","67","582092","0.0-67.0","A2R6UQCQ8T3RZE","img_art/22.jpg","null","","","","","","","","","","","","","","","","","","","","","","","","",""
"5445","","image-button-response","68","587537","0.0-68.0","A2R6UQCQ8T3RZE","img_art/22.jpg","0","","","","","","","","","","","","","","","","","","","","","","","","",""
"420","","image-button-response","69","587957","0.0-69.0-0.0","A2R6UQCQ8T3RZE","img_art/22.jpg","1","","","","","","","","","","","","","","","","","","","","","","","","",""
"1335","","image-button-response","70","589293","0.0-70.0-0.0","A2R6UQCQ8T3RZE","img_art/22.jpg","3","","","","","","","","","","","","","","","","","","","","","","","","",""
"null","","html-keyboard-response","71","590802","0.0-71.0","A2R6UQCQ8T3RZE","<p style=""font-size: 48px;"">+</p>","","","","","null","allTrialResponses","1500","1","4","img_art/22.jpg","-45","Cityscape by Fingerpaint","Chase,Kevin,Alejandro,Joshua,Mason,James","I feel like I've seen this one already.,-9,120,20","Looks hot where ever that is.,-8,320,20","Beautiful use of chalk or pastels. Love the abstract nature.,35,80,20","This one would work in the right frame. It's nice.,20,240,20","Could be interpreted so many ways, bold. I like it.,29,100,20","Like the black key and the rainbow color theme.,31,380,20","Chase","I feel like I've seen this one already.,-9,120,20","Kevin","Looks hot where ever that is.,-8,320,20","Joshua","This one would work in the right frame. It's nice.,20,240,20","0"
"37206","","survey-text","72","628010","0.0-72.0-0.0","A2R6UQCQ8T3RZE","","","","{""Q0"":""Pagan Goddess on Cool Green""}","","","","","","","","","","","","","","","","","","","","","","",""
"4387","","image-slider-response","73","632399","0.0-73.0","A2R6UQCQ8T3RZE","","","","","5","","","","","","","","","","","","","","","","","","","","","",""
"null","","image-button-response","74","637400","0.0-74.0","A2R6UQCQ8T3RZE","img_art/25.jpg","null","","","","","","","","","","","","","","","","","","","","","","","","",""
"689","","image-button-response","75","638089","0.0-75.0","A2R6UQCQ8T3RZE","img_art/25.jpg","3","","","","","","","","","","","","","","","","","","","","","","","","",""
"1424","","image-button-response","76","639514","0.0-76.0-0.0","A2R6UQCQ8T3RZE","img_art/25.jpg","2","","","","","","","","","","","","","","","","","","","","","","","","",""
"969","","image-button-response","77","640484","0.0-77.0-0.0","A2R6UQCQ8T3RZE","img_art/25.jpg","0","","","","","","","","","","","","","","","","","","","","","","","","",""
"null","","html-keyboard-response","78","642000","0.0-78.0","A2R6UQCQ8T3RZE","<p style=""font-size: 48px;"">+</p>","","","","","null","allTrialResponses","1500","1","5","img_art/25.jpg","5","Pagan Goddess on Cool Green","Chase,Kevin,Jack,Joshua,Bryce,Corey","Not particularly interesting for me. The green color is strange mixed with this.,-11,120,20","That on i find a bit creapy.,-19,320,20","beautiful in a primitive way,10,320,20","Looks like a voodoo figure in a New Orleans cemetery at night.,-5,240,20","I LOVE fhe scary skeleton.,28,20,20","love the color and the contrast of the black on teal,50,260,20","Joshua","Looks like a voodoo figure in a New Orleans cemetery at night.,-5,240,20","Jack","beautiful in a primitive way,10,320,20","Chase","Not particularly interesting for me. The green color is strange mixed with this.,-11,120,20","0"
"3796","","survey-text","79","645798","0.0-79.0-0.0","A2R6UQCQ8T3RZE","","","","{""Q0"":""sky""}","","","","","","","","","","","","","","","","","","","","","","",""
"15746","","survey-text","80","661544","0.0-80.0-0.0","A2R6UQCQ8T3RZE","","","","{""Q0"":""Satellite Photo of Mars""}","","","","","","","","","","","","","","","","","","","","","","",""
"3947","","image-slider-response","81","665493","0.0-81.0","A2R6UQCQ8T3RZE","","","","","-15","","","","","","","","","","","","","","","","","","","","","",""
"2846","","image-button-response","82","670501","0.0-82.0","A2R6UQCQ8T3RZE","img_art/7.jpg","1","","","","","","","","","","","","","","","","","","","","","","","","",""
"1194","","image-button-response","83","671697","0.0-83.0","A2R6UQCQ8T3RZE","img_art/7.jpg","1","","","","","","","","","","","","","","","","","","","","","","","","",""
"607","","image-button-response","84","672305","0.0-84.0-0.0","A2R6UQCQ8T3RZE","img_art/7.jpg","5","","","","","","","","","","","","","","","","","","","","","","","","",""
"1281","","image-button-response","85","673586","0.0-85.0-0.0","A2R6UQCQ8T3RZE","img_art/7.jpg","0","","","","","","","","","","","","","","","","","","","","","","","","",""
"null","","html-keyboard-response","86","674102","0.0-86.0","A2R6UQCQ8T3RZE","<p style=""font-size: 48px;"">+</p>","","","","","null","allTrialResponses","500","1","6","img_art/7.jpg","-15","Satellite Photo of Mars","Chase,Gabriel,Jack,Joshua,Richard,Benjamin","Just looks like rocks or some kind of mineral.,0,120,20","its like oatmeal with granola,-47,160,20","reminds me of a desert from far above,23,320,20","Looks almost like a photograph of nature.,11,240,20","looks like wallpaper,-6,340,20","Dull and confusing,-24,260,20","Gabriel","its like oatmeal with granola,-47,160,20","Benjamin","Dull and confusing,-24,260,20","Chase","Just looks like rocks or some kind of mineral.,0,120,20","0"
"13295","","survey-text","87","687399","0.0-87.0-0.0","A2R6UQCQ8T3RZE","","","","{""Q0"":""Ugly and Horrifying""}","","","","","","","","","","","","","","","","","","","","","","",""
"2615","","image-slider-response","88","690016","0.0-88.0","A2R6UQCQ8T3RZE","","","","","-50","","","","","","","","","","","","","","","","","","","","","",""
"4829","","image-button-response","89","695021","0.0-89.0","A2R6UQCQ8T3RZE","img_art/8.jpg","4","","","","","","","","","","","","","","","","","","","","","","","","",""
"3591","","image-button-response","90","698613","0.0-90.0","A2R6UQCQ8T3RZE","img_art/8.jpg","4","","","","","","","","","","","","","","","","","","","","","","","","",""
"787","","image-button-response","91","699400","0.0-91.0-0.0","A2R6UQCQ8T3RZE","img_art/8.jpg","5","","","","","","","","","","","","","","","","","","","","","","","","",""
"7169","","image-button-response","92","706569","0.0-92.0-0.0","A2R6UQCQ8T3RZE","img_art/8.jpg","3","","","","","","","","","","","","","","","","","","","","","","","","",""
"null","","html-keyboard-response","93","707082","0.0-93.0","A2R6UQCQ8T3RZE","<p style=""font-size: 48px;"">+</p>","","","","","null","allTrialResponses","500","1","7","img_art/8.jpg","-50","Ugly and Horrifying","Chase,Gabriel,David,Hunter,Dylan,Benjamin","This is kind of neat. I really like how things are oriented and the shapes used.,18,120,20","i like all the different faces,19,160,20","I like how the piece is showcasing emotion in relation to something.,25,340,20","crisp shapes, find more things the longer you look,17,240,20","The colors are nice but the big face in the sky is creepy,-11,40,20","Very colorful. Looks like the hustle and bustle of a city.,11,260,20","Dylan","The colors are nice but the big face in the sky is creepy,-11,40,20","Benjamin","Very colorful. Looks like the hustle and bustle of a city.,11,260,20","Hunter","crisp shapes, find more things the longer you look,17,240,20","0"
"33032","","survey-text","94","740116","0.0-94.0-0.0","A2R6UQCQ8T3RZE","","","","{""Q0"":""A Child's Doodle of Vesuvius""}","","","","","","","","","","","","","","","","","","","","","","",""
"3630","","image-slider-response","95","743747","0.0-95.0","A2R6UQCQ8T3RZE","","","","","-50","","","","","","","","","","","","","","","","","","","","","",""
"null","","image-button-response","96","748750","0.0-96.0","A2R6UQCQ8T3RZE","img_art/5.jpg","null","","","","","","","","","","","","","","","","","","","","","","","","",""
"1295","","image-button-response","97","750045","0.0-97.0","A2R6UQCQ8T3RZE","img_art/5.jpg","4","","","","","","","","","","","","","","","","","","","","","","","","",""
"783","","image-button-response","98","750828","0.0-98.0-0.0","A2R6UQCQ8T3RZE","img_art/5.jpg","0","","","","","","","","","","","","","","","","","","","","","","","","",""
"686","","image-button-response","99","751516","0.0-99.0-0.0","A2R6UQCQ8T3RZE","img_art/5.jpg","2","","","","","","","","","","","","","","","","","","","","","","","","",""
"null","","html-keyboard-response","100","752516","0.0-100.0","A2R6UQCQ8T3RZE","<p style=""font-size: 48px;"">+</p>","","","","","null","allTrialResponses","1000","1","8","img_art/5.jpg","-50","A Child's Doodle of Vesuvius","Marcus,Samuel,Jonathan,Hunter,Dylan,Benjamin","I really dislike this. It's ugly and looks dirty.,-44,60,20","a brush in time,-14,400,20","I hate the shapes,-30,140,20","strong appeal in contrast,27,240,20","This looks like a twelve year old did it,-40,40,20","Missing something,-5,260,20","Dylan","This looks like a twelve year old did it,-40,40,20","Marcus","I really dislike this. It's ugly and looks dirty.,-44,60,20","Jonathan","I hate the shapes,-30,140,20","0"
"11223","","survey-text","101","763741","0.0-101.0-0.0","A2R6UQCQ8T3RZE","","","","{""Q0"":""Did the artist cut himself?""}","","","","","","","","","","","","","","","","","","","","","","",""
"3029","","image-slider-response","102","766771","0.0-102.0","A2R6UQCQ8T3RZE","","","","","-50","","","","","","","","","","","","","","","","","","","","","",""
"null","","image-button-response","103","771772","0.0-103.0","A2R6UQCQ8T3RZE","img_art/3.jpg","null","","","","","","","","","","","","","","","","","","","","","","","","",""
"799","","image-button-response","104","772571","0.0-104.0","A2R6UQCQ8T3RZE","img_art/3.jpg","1","","","","","","","","","","","","","","","","","","","","","","","","",""
"886","","image-button-response","105","773457","0.0-105.0-0.0","A2R6UQCQ8T3RZE","img_art/3.jpg","4","","","","","","","","","","","","","","","","","","","","","","","","",""
"513","","image-button-response","106","773970","0.0-106.0-0.0","A2R6UQCQ8T3RZE","img_art/3.jpg","5","","","","","","","","","","","","","","","","","","","","","","","","",""
"null","","html-keyboard-response","107","775472","0.0-107.0","A2R6UQCQ8T3RZE","<p style=""font-size: 48px;"">+</p>","","","","","null","allTrialResponses","1500","1","9","img_art/3.jpg","-50","Did the artist cut himself?","Marcus,Mitchell,Jonathan,Andrew,Dylan,William","Like the colors and energy of this work.,10,60,20","Anger, like something a serial killer may paint.,-30,180,20","Something I'd paint when I'm mad. I feel that,20,140,20","It doesn't make me think of art,-20,160,20","I could scribble on paper and mimic this,-48,40,20","makes me think of anger,-33,380,20","Mitchell","Anger, like something a serial killer may paint.,-30,180,20","Dylan","I could scribble on paper and mimic this,-48,40,20","William","makes me think of anger,-33,380,20","0"
"13445","","survey-text","108","788919","0.0-108.0-0.0","A2R6UQCQ8T3RZE","","","","{""Q0"":""Oops, I spilled my mustard!""}","","","","","","","","","","","","","","","","","","","","","","",""
"2502","","image-slider-response","109","791422","0.0-109.0","A2R6UQCQ8T3RZE","","","","","-50","","","","","","","","","","","","","","","","","","","","","",""
"null","","image-button-response","110","796431","0.0-110.0","A2R6UQCQ8T3RZE","img_art/4.jpg","null","","","","","","","","","","","","","","","","","","","","","","","","",""
"2972","","image-button-response","111","799404","0.0-111.0","A2R6UQCQ8T3RZE","img_art/4.jpg","4","","","","","","","","","","","","","","","","","","","","","","","","",""
"799","","image-button-response","112","800203","0.0-112.0-0.0","A2R6UQCQ8T3RZE","img_art/4.jpg","5","","","","","","","","","","","","","","","","","","","","","","","","",""
"1761","","image-button-response","113","801964","0.0-113.0-0.0","A2R6UQCQ8T3RZE","img_art/4.jpg","0","","","","","","","","","","","","","","","","","","","","","","","","",""
"null","","html-keyboard-response","114","802972","0.0-114.0","A2R6UQCQ8T3RZE","<p style=""font-size: 48px;"">+</p>","","","","","null","allTrialResponses","1000","1","10","img_art/4.jpg","-50","Oops, I spilled my mustard!","Jesus,Mitchell,Carlos,Jeffrey,Dylan,William","I don't enjoy the colors, or texture, it seems like mustard,-23,100,20","Hearts, family connected. They are standing on a narrow base and could fall to pieces at anytime.,40,180,20","Movement. Snakes. Hair. The uncertainty makes my eye return.,21,80,20","Easy and relaxing,23,40,20","This artwork looks like a child did it,-41,40,20","dont like the colors,-31,380,20","Dylan","This artwork looks like a child did it,-41,40,20","William","dont like the colors,-31,380,20","Jesus","I don't enjoy the colors, or texture, it seems like mustard,-23,100,20","0"
"5187","","survey-text","115","808163","0.0-115.0-0.0","A2R6UQCQ8T3RZE","","","","{""Q0"":""our""}","","","","","","","","","","","","","","","","","","","","","","",""
"37723","","survey-text","116","845887","0.0-116.0-0.0","A2R6UQCQ8T3RZE","","","","{""Q0"":""Simple.  Not great, but not terrible either.""}","","","","","","","","","","","","","","","","","","","","","","",""
"3428","","image-slider-response","117","849317","0.0-117.0","A2R6UQCQ8T3RZE","","","","","0","","","","","","","","","","","","","","","","","","","","","",""
"null","","image-button-response","118","854321","0.0-118.0","A2R6UQCQ8T3RZE","img_art/6.jpg","null","","","","","","","","","","","","","","","","","","","","","","","","",""
"1230","","image-button-response","119","855552","0.0-119.0","A2R6UQCQ8T3RZE","img_art/6.jpg","3","","","","","","","","","","","","","","","","","","","","","","","","",""
"3854","","image-button-response","120","859406","0.0-120.0-0.0","A2R6UQCQ8T3RZE","img_art/6.jpg","1","","","","","","","","","","","","","","","","","","","","","","","","",""
"1422","","image-button-response","121","860829","0.0-121.0-0.0","A2R6UQCQ8T3RZE","img_art/6.jpg","4","","","","","","","","","","","","","","","","","","","","","","","","",""
"null","","html-keyboard-response","122","861333","0.0-122.0","A2R6UQCQ8T3RZE","<p style=""font-size: 48px;"">+</p>","","","","","null","allTrialResponses","500","1","11","img_art/6.jpg","0","Simple.  Not great, but not terrible either.","Jesus,Christopher,Isaiah,Lucas,Dylan,William","I enjoy the color contrast.,20,100,20","it's interesting but I don't love it,10,160,20","The painting makes me happy. Like I'm looking at a little bird.,6,300,20","Nothing special.,-20,380,20","this is interesting and unique,11,40,20","makes me think of nature,30,380,20","Lucas","Nothing special.,-20,380,20","Christopher","it's interesting but I don't love it,10,160,20","Dylan","this is interesting and unique,11,40,20","0"
"22970","","survey-text","123","884305","0.0-123.0-0.0","A2R6UQCQ8T3RZE","","","","{""Q0"":""It looks like someone painted a car accident.""}","","","","","","","","","","","","","","","","","","","","","","",""
"7848","","image-slider-response","124","892153","0.0-124.0","A2R6UQCQ8T3RZE","","","","","-40","","","","","","","","","","","","","","","","","","","","","",""
"null","","image-button-response","125","897162","0.0-125.0","A2R6UQCQ8T3RZE","img_art/20.jpg","null","","","","","","","","","","","","","","","","","","","","","","","","",""
"727","","image-button-response","126","897889","0.0-126.0","A2R6UQCQ8T3RZE","img_art/20.jpg","2","","","","","","","","","","","","","","","","","","","","","","","","",""
"2274","","image-button-response","127","900163","0.0-127.0-0.0","A2R6UQCQ8T3RZE","img_art/20.jpg","4","","","","","","","","","","","","","","","","","","","","","","","","",""
"2942","","image-button-response","128","903107","0.0-128.0-0.0","A2R6UQCQ8T3RZE","img_art/20.jpg","5","","","","","","","","","","","","","","","","","","","","","","","","",""
"null","","html-keyboard-response","129","904631","0.0-129.0","A2R6UQCQ8T3RZE","<p style=""font-size: 48px;"">+</p>","","","","","null","allTrialResponses","1500","1","12","img_art/20.jpg","-40","It looks like someone painted a car accident.","John,Christopher,Alex,Lucas,Dylan,Jesse","Its interesting.It almost seems like a painting of a landscape,14,120,20","i ind of like this, it's saying something but not my style,6,160,20","Reminds me of Dali for some reason, whom I don't like,-7,100,20","Phenomenal painting of building.,25,380,20","The white blob looks like a face and it's creepy,-30,40,20","I do at least like the dark colors blending,6,80,20","Alex","Reminds me of Dali for some reason, whom I don't like,-7,100,20","Dylan","The white blob looks like a face and it's creepy,-30,40,20","Jesse","I do at least like the dark colors blending,6,80,20","0"
"28613","","survey-text","130","933247","0.0-130.0-0.0","A2R6UQCQ8T3RZE","","","","{""Q0"":""Puerile.""}","","","","","","","","","","","","","","","","","","","","","","",""
"2288","","image-slider-response","131","935535","0.0-131.0","A2R6UQCQ8T3RZE","","","","","-50","","","","","","","","","","","","","","","","","","","","","",""
"3246","","image-button-response","132","940544","0.0-132.0","A2R6UQCQ8T3RZE","img_art/30.jpg","1","","","","","","","","","","","","","","","","","","","","","","","","",""
"2747","","image-button-response","133","943292","0.0-133.0","A2R6UQCQ8T3RZE","img_art/30.jpg","2","","","","","","","","","","","","","","","","","","","","","","","","",""
"515","","image-button-response","134","943809","0.0-134.0-0.0","A2R6UQCQ8T3RZE","img_art/30.jpg","1","","","","","","","","","","","","","","","","","","","","","","","","",""
"734","","image-button-response","135","944543","0.0-135.0-0.0","A2R6UQCQ8T3RZE","img_art/30.jpg","3","","","","","","","","","","","","","","","","","","","","","","","","",""
"null","","html-keyboard-response","136","946051","0.0-136.0","A2R6UQCQ8T3RZE","<p style=""font-size: 48px;"">+</p>","","","","","null","allTrialResponses","1500","1","13","img_art/30.jpg","-50","Puerile.","Joseph,Brendan,Alex,Cole,Dylan,Jesse","It's soothing- the page is full, but there aren't too many things happening.,23,220,20","i cant really get it,-35,340,20","Don't like it at all, looks like a someone smeared paint with their fingers,-25,100,20","Its ugly. Too simple,-23,200,20","I really love the pastel colors and the 3D design in this,43,40,20","I do like the multi-dimensional aspect of this piece,10,80,20","Alex","Don't like it at all, looks like a someone smeared paint with their fingers,-25,100,20","Brendan","i cant really get it,-35,340,20","Cole","Its ugly. Too simple,-23,200,20","0"
"28463","","survey-text","137","974517","0.0-137.0-0.0","A2R6UQCQ8T3RZE","","","","{""Q0"":""Awful.""}","","","","","","","","","","","","","","","","","","","","","","",""
"2362","","image-slider-response","138","976880","0.0-138.0","A2R6UQCQ8T3RZE","","","","","-50","","","","","","","","","","","","","","","","","","","","","",""
"4208","","image-button-response","139","981881","0.0-139.0","A2R6UQCQ8T3RZE","img_art/15.jpg","4","","","","","","","","","","","","","","","","","","","","","","","","",""
"648","","image-button-response","140","982529","0.0-140.0","A2R6UQCQ8T3RZE","img_art/15.jpg","4","","","","","","","","","","","","","","","","","","","","","","","","",""
"659","","image-button-response","141","983190","0.0-141.0-0.0","A2R6UQCQ8T3RZE","img_art/15.jpg","5","","","","","","","","","","","","","","","","","","","","","","","","",""
"3295","","image-button-response","142","986485","0.0-142.0-0.0","A2R6UQCQ8T3RZE","img_art/15.jpg","2","","","","","","","","","","","","","","","","","","","","","","","","",""
"null","","html-keyboard-response","143","987995","0.0-143.0","A2R6UQCQ8T3RZE","<p style=""font-size: 48px;"">+</p>","","","","","null","allTrialResponses","1500","1","14","img_art/15.jpg","-50","Awful.","Cameron,Brendan,Alex,Cole,Daniel,Miguel","This one reminds me of a postage stamp, but branches and leaves. Kind of fun.,15,60,20","some trees in the forest,15,340,20","Interesting to look at but I don't appreciate the abstraction,2,100,20","It reminds me of when you look up into a tree,21,200,20","Dark, drab asymmetrical floral piece,-26,320,20","Simple but not good,-34,160,20","Daniel","Dark, drab asymmetrical floral piece,-26,320,20","Miguel","Simple but not good,-34,160,20","Alex","Interesting to look at but I don't appreciate the abstraction,2,100,20","0"
"60035","","survey-text","144","1048034","0.0-144.0-0.0","A2R6UQCQ8T3RZE","","","","{""Q0"":""Like van Gogh's Bedroom, but from a hell dimension.""}","","","","","","","","","","","","","","","","","","","","","","",""
"3431","","image-slider-response","145","1051465","0.0-145.0","A2R6UQCQ8T3RZE","","","","","-50","","","","","","","","","","","","","","","","","","","","","",""
"3483","","image-button-response","146","1056470","0.0-146.0","A2R6UQCQ8T3RZE","img_art/28.jpg","5","","","","","","","","","","","","","","","","","","","","","","","","",""
"3773","","image-button-response","147","1060244","0.0-147.0","A2R6UQCQ8T3RZE","img_art/28.jpg","0","","","","","","","","","","","","","","","","","","","","","","","","",""
"1109","","image-button-response","148","1061353","0.0-148.0-0.0","A2R6UQCQ8T3RZE","img_art/28.jpg","5","","","","","","","","","","","","","","","","","","","","","","","","",""
"1643","","image-button-response","149","1062996","0.0-149.0-0.0","A2R6UQCQ8T3RZE","img_art/28.jpg","4","","","","","","","","","","","","","","","","","","","","","","","","",""
"null","","html-keyboard-response","150","1063999","0.0-150.0","A2R6UQCQ8T3RZE","<p style=""font-size: 48px;"">+</p>","","","","","null","allTrialResponses","1000","1","15","img_art/28.jpg","-50","Like van Gogh's Bedroom, but from a hell dimension.","Brian,Sean,Alex,Logan,Daniel,Miguel","the people kind of scare me in this one,-15,380,20","it looks alright,-1,40,20","This piece is depressing to me, reminds me of German paintings,-6,100,20","I wish I knew why I liked it, maybes its the pinky tones,36,360,20","Compact grey mess lack negative space,-10,320,20","Looks yucky and poor.,-33,160,20","Brian","the people kind of scare me in this one,-15,380,20","Miguel","Looks yucky and poor.,-33,160,20","Daniel","Compact grey mess lack negative space,-10,320,20","0"
"7221","","survey-text","151","1071224","0.0-151.0-0.0","A2R6UQCQ8T3RZE","","","","{""Q0"":""course""}","","","","","","","","","","","","","","","","","","","","","","",""
"35498","","survey-text","152","1106722","0.0-152.0-0.0","A2R6UQCQ8T3RZE","","","","{""Q0"":""Finally, a decent painting.  Satisfying colors and imagery!""}","","","","","","","","","","","","","","","","","","","","","","",""
"4440","","image-slider-response","153","1111163","0.0-153.0","A2R6UQCQ8T3RZE","","","","","40","","","","","","","","","","","","","","","","","","","","","",""
"3626","","image-button-response","154","1116167","0.0-154.0","A2R6UQCQ8T3RZE","img_art/24.jpg","1","","","","","","","","","","","","","","","","","","","","","","","","",""
"860","","image-button-response","155","1117027","0.0-155.0","A2R6UQCQ8T3RZE","img_art/24.jpg","3","","","","","","","","","","","","","","","","","","","","","","","","",""
"1106","","image-button-response","156","1118134","0.0-156.0-0.0","A2R6UQCQ8T3RZE","img_art/24.jpg","1","","","","","","","","","","","","","","","","","","","","","","","","",""
"4677","","image-button-response","157","1122813","0.0-157.0-0.0","A2R6UQCQ8T3RZE","img_art/24.jpg","2","","","","","","","","","","","","","","","","","","","","","","","","",""
"null","","html-keyboard-response","158","1124322","0.0-158.0","A2R6UQCQ8T3RZE","<p style=""font-size: 48px;"">+</p>","","","","","null","allTrialResponses","1500","1","16","img_art/24.jpg","40","Finally, a decent painting.  Satisfying colors and imagery!","Brian,Robert,Taylor,Mark,Daniel,Miguel","it's a nice stream, but I don't care for plain nature,-15,380,20","A beautiful waterfall in the springtime.,40,360,20","I actually like this one. You can tell what it is.,25,200,20","Waterfall, and I love the coloring.,48,80,20","Classic palette lacks real world 3d construction,19,320,20","Very cute amateur piece.,18,160,20","Mark","Waterfall, and I love the coloring.,48,80,20","Robert","A beautiful waterfall in the springtime.,40,360,20","Taylor","I actually like this one. You can tell what it is.,25,200,20","0"
"60998","","survey-text","159","1185322","0.0-159.0-0.0","A2R6UQCQ8T3RZE","","","","{""Q0"":""I see naval ships in the fog with flags hanging from their masts.""}","","","","","","","","","","","","","","","","","","","","","","",""
"6263","","image-slider-response","160","1191586","0.0-160.0","A2R6UQCQ8T3RZE","","","","","10","","","","","","","","","","","","","","","","","","","","","",""
"null","","image-button-response","161","1196601","0.0-161.0","A2R6UQCQ8T3RZE","img_art/11.jpg","null","","","","","","","","","","","","","","","","","","","","","","","","",""
"3727","","image-button-response","162","1200328","0.0-162.0","A2R6UQCQ8T3RZE","img_art/11.jpg","3","","","","","","","","","","","","","","","","","","","","","","","","",""
"5836","","image-button-response","163","1206165","0.0-163.0-0.0","A2R6UQCQ8T3RZE","img_art/11.jpg","1","","","","","","","","","","","","","","","","","","","","","","","","",""
"1515","","image-button-response","164","1207680","0.0-164.0-0.0","A2R6UQCQ8T3RZE","img_art/11.jpg","5","","","","","","","","","","","","","","","","","","","","","","","","",""
"null","","html-keyboard-response","165","1208691","0.0-165.0","A2R6UQCQ8T3RZE","<p style=""font-size: 48px;"">+</p>","","","","","null","allTrialResponses","1000","1","17","img_art/11.jpg","10","I see naval ships in the fog with flags hanging from their masts.","Jorge,Robert,Taylor,Mark,Tyler,Ian","Sad but hopeful,43,180,20","Rainy dreary day in a town.,7,360,20","Busy, busy oceanside city.,-10,200,20","My initial thought was roller coasters but I see ship masts on a cloudy day too.,35,80,20","Rainy day at an urban sea port. Portugal?,30,320,20","This one is a little erie, gives me post-apocalyptic feeling,27,260,20","Mark","My initial thought was roller coasters but I see ship masts on a cloudy day too.,35,80,20","Robert","Rainy dreary day in a town.,7,360,20","Ian","This one is a little erie, gives me post-apocalyptic feeling,27,260,20","0"
"36120","","survey-text","166","1244814","0.0-166.0-0.0","A2R6UQCQ8T3RZE","","","","{""Q0"":""This is the sort of terrible collage a serial killer would leave at a crime scene.""}","","","","","","","","","","","","","","","","","","","","","","",""
"2300","","image-slider-response","167","1247113","0.0-167.0","A2R6UQCQ8T3RZE","","","","","-50","","","","","","","","","","","","","","","","","","","","","",""
"null","","image-button-response","168","1252131","0.0-168.0","A2R6UQCQ8T3RZE","img_art/16.jpg","null","","","","","","","","","","","","","","","","","","","","","","","","",""
"4284","","image-button-response","169","1256416","0.0-169.0","A2R6UQCQ8T3RZE","img_art/16.jpg","5","","","","","","","","","","","","","","","","","","","","","","","","",""
"981","","image-button-response","170","1257398","0.0-170.0-0.0","A2R6UQCQ8T3RZE","img_art/16.jpg","2","","","","","","","","","","","","","","","","","","","","","","","","",""
"571","","image-button-response","171","1257970","0.0-171.0-0.0","A2R6UQCQ8T3RZE","img_art/16.jpg","1","","","","","","","","","","","","","","","","","","","","","","","","",""
"null","","html-keyboard-response","172","1259484","0.0-172.0","A2R6UQCQ8T3RZE","<p style=""font-size: 48px;"">+</p>","","","","","null","allTrialResponses","1500","1","18","img_art/16.jpg","-50","This is the sort of terrible collage a serial killer would leave at a crime scene.","Shane,Robert,Alexis,Mark,Zachary,Ian","This looks chaotic,-25,80,20","It looks violent.,-30,360,20","It looks very generic, like items were pasted onto the background,-38,140,20","I think it's about child abuse. The teddy bear represents innocence and the dark shape is approaching it.,40,80,20","Not pleasing to the eyes. I do like that the gun is broken though.,-28,400,20","This looks like it was made by an art student filled with angst,-30,260,20","Ian","This looks like it was made by an art student filled with angst,-30,260,20","Alexis","It looks very generic, like items were pasted onto the background,-38,140,20","Robert","It looks violent.,-30,360,20","0"
"36140","","survey-text","173","1295627","0.0-173.0-0.0","A2R6UQCQ8T3RZE","","","","{""Q0"":""The colors are ok, but the juvenile lines are distracting.""}","","","","","","","","","","","","","","","","","","","","","","",""
"3388","","image-slider-response","174","1299016","0.0-174.0","A2R6UQCQ8T3RZE","","","","","-15","","","","","","","","","","","","","","","","","","","","","",""
"null","","image-button-response","175","1304031","0.0-175.0","A2R6UQCQ8T3RZE","img_art/27.jpg","null","","","","","","","","","","","","","","","","","","","","","","","","",""
"99","","image-button-response","176","1304130","0.0-176.0","A2R6UQCQ8T3RZE","img_art/27.jpg","3","","","","","","","","","","","","","","","","","","","","","","","","",""
"3032","","image-button-response","177","1307164","0.0-177.0-0.0","A2R6UQCQ8T3RZE","img_art/27.jpg","5","","","","","","","","","","","","","","","","","","","","","","","","",""
"915","","image-button-response","178","1308081","0.0-178.0-0.0","A2R6UQCQ8T3RZE","img_art/27.jpg","4","","","","","","","","","","","","","","","","","","","","","","","","",""
"null","","html-keyboard-response","179","1309083","0.0-179.0","A2R6UQCQ8T3RZE","<p style=""font-size: 48px;"">+</p>","","","","","null","allTrialResponses","1000","1","19","img_art/27.jpg","-15","The colors are ok, but the juvenile lines are distracting.","Vincent,Robert,Alexis,Colton,Stephen,Ian","A beautiful day full of Hope and Inspiritation. The warmth of hot cocoa with the family gathering around,33,360,20","The black sketchy over the colors doesn't fit.,-4,360,20","I like hoe it looks like a fall day in a city,45,140,20","looks like a little kid did it,-30,220,20","This one does nothing for me.,2,140,20","I'm not a fan. It looks like something my nephews (1 and 2) would make,-8,260,20","Colton","looks like a little kid did it,-30,220,20","Ian","I'm not a fan. It looks like something my nephews (1 and 2) would make,-8,260,20","Stephen","This one does nothing for me.,2,140,20","0"
"14114","","survey-text","180","1323199","0.0-180.0-0.0","A2R6UQCQ8T3RZE","","","","{""Q0"":""A cosmic conga line!""}","","","","","","","","","","","","","","","","","","","","","","",""
"8831","","image-slider-response","181","1332031","0.0-181.0","A2R6UQCQ8T3RZE","","","","","-40","","","","","","","","","","","","","","","","","","","","","",""
"3222","","image-button-response","182","1337052","0.0-182.0","A2R6UQCQ8T3RZE","img_art/23.jpg","1","","","","","","","","","","","","","","","","","","","","","","","","",""
"3117","","image-button-response","183","1340169","0.0-183.0","A2R6UQCQ8T3RZE","img_art/23.jpg","2","","","","","","","","","","","","","","","","","","","","","","","","",""
"500","","image-button-response","184","1340670","0.0-184.0-0.0","A2R6UQCQ8T3RZE","img_art/23.jpg","1","","","","","","","","","","","","","","","","","","","","","","","","",""
"650","","image-button-response","185","1341321","0.0-185.0-0.0","A2R6UQCQ8T3RZE","img_art/23.jpg","4","","","","","","","","","","","","","","","","","","","","","","","","",""
"null","","html-keyboard-response","186","1342341","0.0-186.0","A2R6UQCQ8T3RZE","<p style=""font-size: 48px;"">+</p>","","","","","null","allTrialResponses","1000","1","20","img_art/23.jpg","-40","A cosmic conga line!","Bryan,Shawn,Devin,Colton,Stephen,Ian","Looks like fireworks.,21,400,20","Poster shop camp.,-40,100,20","background is great but the white is a bit weird,3,380,20","the pattern is pleasing to the eye,28,220,20","Solid colors but the white throws it off for me.,4,140,20","It's very colorful and different, the white looks like people dancing,26,260,20","Devin","background is great but the white is a bit weird,3,380,20","Shawn","Poster shop camp.,-40,100,20","Stephen","Solid colors but the white throws it off for me.,4,140,20","0"
"2661","","survey-text","187","1345006","0.0-187.0-0.0","A2R6UQCQ8T3RZE","","","","{""Q0"":""we""}","","","","","","","","","","","","","","","","","","","","","","",""
"20328","","survey-text","188","1365335","0.0-188.0-0.0","A2R6UQCQ8T3RZE","","","","{""Q0"":""After your eyes focus, it's not so bad.""}","","","","","","","","","","","","","","","","","","","","","","",""
"6617","","image-slider-response","189","1371953","0.0-189.0","A2R6UQCQ8T3RZE","","","","","25","","","","","","","","","","","","","","","","","","","","","",""
"null","","image-button-response","190","1376961","0.0-190.0","A2R6UQCQ8T3RZE","img_art/9.jpg","null","","","","","","","","","","","","","","","","","","","","","","","","",""
"239","","image-button-response","191","1377200","0.0-191.0","A2R6UQCQ8T3RZE","img_art/9.jpg","2","","","","","","","","","","","","","","","","","","","","","","","","",""
"3173","","image-button-response","192","1380373","0.0-192.0-0.0","A2R6UQCQ8T3RZE","img_art/9.jpg","5","","","","","","","","","","","","","","","","","","","","","","","","",""
"959","","image-button-response","193","1381333","0.0-193.0-0.0","A2R6UQCQ8T3RZE","img_art/9.jpg","3","","","","","","","","","","","","","","","","","","","","","","","","",""
"null","","html-keyboard-response","194","1382841","0.0-194.0","A2R6UQCQ8T3RZE","<p style=""font-size: 48px;"">+</p>","","","","","null","allTrialResponses","1500","1","21","img_art/9.jpg","25","After your eyes focus, it's not so bad.","Nathaniel,Shawn,Devin,Antonio,Stephen,Grant","Not very enticing. No real substance other than a lady laying down,-35,220,20","Cheesy. Looks unprofessional,-20,100,20","I really like the colors and details.,8,380,20","Stirs up emotions of watching someone sleep which is relaxing,11,220,20","Too much going on, don't know what the focus is,-11,140,20","The colors are pretty, and remind me of a circus.,5,200,20","Devin","I really like the colors and details.,8,380,20","Grant","The colors are pretty, and remind me of a circus.,5,200,20","Antonio","Stirs up emotions of watching someone sleep which is relaxing,11,220,20","0"
"39896","","survey-text","195","1422739","0.0-195.0-0.0","A2R6UQCQ8T3RZE","","","","{""Q0"":""Feels like a storm's coming in off the coast.""}","","","","","","","","","","","","","","","","","","","","","","",""
"3704","","image-slider-response","196","1426445","0.0-196.0","A2R6UQCQ8T3RZE","","","","","5","","","","","","","","","","","","","","","","","","","","","",""
"null","","image-button-response","197","1431450","0.0-197.0","A2R6UQCQ8T3RZE","img_art/21.jpg","null","","","","","","","","","","","","","","","","","","","","","","","","",""
"1960","","image-button-response","198","1433410","0.0-198.0","A2R6UQCQ8T3RZE","img_art/21.jpg","4","","","","","","","","","","","","","","","","","","","","","","","","",""
"681","","image-button-response","199","1434092","0.0-199.0-0.0","A2R6UQCQ8T3RZE","img_art/21.jpg","5","","","","","","","","","","","","","","","","","","","","","","","","",""
"1515","","image-button-response","200","1435608","0.0-200.0-0.0","A2R6UQCQ8T3RZE","img_art/21.jpg","2","","","","","","","","","","","","","","","","","","","","","","","","",""
"null","","html-keyboard-response","201","1436117","0.0-201.0","A2R6UQCQ8T3RZE","<p style=""font-size: 48px;"">+</p>","","","","","null","allTrialResponses","500","1","22","img_art/21.jpg","5","Feels like a storm's coming in off the coast.","Derek,Aaron,Devin,Antonio,Adam,Grant","I love the colors in this painting,30,360,20","I love the colors and the differences between the left and right sides.,22,20,20","Evokes a strong colorful sense,8,380,20","the colors are pretty but I did not feel any thing looking at it,33,220,20","I like color mix here,15,40,20","The colors make me think of a perilous scene at sea, and are pretty interesting.,15,200,20","Adam","I like color mix here,15,40,20","Grant","The colors make me think of a perilous scene at sea, and are pretty interesting.,15,200,20","Devin","Evokes a strong colorful sense,8,380,20","0"
"17962","","survey-text","202","1454082","0.0-202.0-0.0","A2R6UQCQ8T3RZE","","","","{""Q0"":""Colorful Tree Scene is OK by me.""}","","","","","","","","","","","","","","","","","","","","","","",""
"3044","","image-slider-response","203","1457128","0.0-203.0","A2R6UQCQ8T3RZE","","","","","5","","","","","","","","","","","","","","","","","","","","","",""
"null","","image-button-response","204","1462141","0.0-204.0","A2R6UQCQ8T3RZE","img_art/17.jpg","null","","","","","","","","","","","","","","","","","","","","","","","","",""
"2607","","image-button-response","205","1464748","0.0-205.0","A2R6UQCQ8T3RZE","img_art/17.jpg","1","","","","","","","","","","","","","","","","","","","","","","","","",""
"5030","","image-button-response","206","1469779","0.0-206.0-0.0","A2R6UQCQ8T3RZE","img_art/17.jpg","5","","","","","","","","","","","","","","","","","","","","","","","","",""
"470","","image-button-response","207","1470249","0.0-207.0-0.0","A2R6UQCQ8T3RZE","img_art/17.jpg","3","","","","","","","","","","","","","","","","","","","","","","","","",""
"null","","html-keyboard-response","208","1471750","0.0-208.0","A2R6UQCQ8T3RZE","<p style=""font-size: 48px;"">+</p>","","","","","null","allTrialResponses","1500","1","23","img_art/17.jpg","5","Colorful Tree Scene is OK by me.","Dalton,Jacob,Devin,Angel,Adam,Grant","Beautiful simply beautiful. i would love this,,50,300,20","The way they painted the trees is so cool.,27,340,20","So expressive and wonderful wow!,17,380,20","Reminds me of the modern art museum in Rome. I didn't ""get"" many pieces, but had a positive cultural experience overall.,20,180,20","Very washed out.,-10,40,20","This makes me feel trapped.,5,200,20","Jacob","The way they painted the trees is so cool.,27,340,20","Grant","This makes me feel trapped.,5,200,20","Angel","Reminds me of the modern art museum in Rome. I didn't ""get"" many pieces, but had a positive cultural experience overall.,20,180,20","0"
"15148","","survey-text","209","1486900","0.0-209.0-0.0","A2R6UQCQ8T3RZE","","","","{""Q0"":""Childish.  Resembles vomit.""}","","","","","","","","","","","","","","","","","","","","","","",""
"2202","","image-slider-response","210","1489102","0.0-210.0","A2R6UQCQ8T3RZE","","","","","-50","","","","","","","","","","","","","","","","","","","","","",""
"null","","image-button-response","211","1494122","0.0-211.0","A2R6UQCQ8T3RZE","img_art/2.jpg","null","","","","","","","","","","","","","","","","","","","","","","","","",""
"536","","image-button-response","212","1494658","0.0-212.0","A2R6UQCQ8T3RZE","img_art/2.jpg","3","","","","","","","","","","","","","","","","","","","","","","","","",""
"1536","","image-button-response","213","1496194","0.0-213.0-0.0","A2R6UQCQ8T3RZE","img_art/2.jpg","5","","","","","","","","","","","","","","","","","","","","","","","","",""
"2932","","image-button-response","214","1499127","0.0-214.0-0.0","A2R6UQCQ8T3RZE","img_art/2.jpg","2","","","","","","","","","","","","","","","","","","","","","","","","",""
"null","","html-keyboard-response","215","1499633","0.0-215.0","A2R6UQCQ8T3RZE","<p style=""font-size: 48px;"">+</p>","","","","","null","allTrialResponses","500","1","24","img_art/2.jpg","-50","Childish.  Resembles vomit.","Dustin,Jacob,Luis,Angel,Isaac,Grant","Doesn't look like anything. Just a blob of colors.,1,20,20","I don't get the meaning of this piece either.,-13,340,20","I dont like the expression of this,-19,400,20","I think I'm put off by the clashing colors here. It feels discombobulated and sick.,-10,180,20","Not sure what is happening. I'm not a big fan of the colors but they don't bother me either.,1,280,20","The colors are entirely unappealing and very unpleasant to look at.,-20,200,20","Angel","I think I'm put off by the clashing colors here. It feels discombobulated and sick.,-10,180,20","Grant","The colors are entirely unappealing and very unpleasant to look at.,-20,200,20","Luis","I dont like the expression of this,-19,400,20","0"
"16444","","survey-text","216","1516080","0.0-216.0-0.0","A2R6UQCQ8T3RZE","","","","{""Q0"":""Meaningless, but the colors are pleasant.""}","","","","","","","","","","","","","","","","","","","","","","",""
"6729","","image-slider-response","217","1522810","0.0-217.0","A2R6UQCQ8T3RZE","","","","","-15","","","","","","","","","","","","","","","","","","","","","",""
"null","","image-button-response","218","1527811","0.0-218.0","A2R6UQCQ8T3RZE","img_art/13.jpg","null","","","","","","","","","","","","","","","","","","","","","","","","",""
"549","","image-button-response","219","1528361","0.0-219.0","A2R6UQCQ8T3RZE","img_art/13.jpg","3","","","","","","","","","","","","","","","","","","","","","","","","",""
"931","","image-button-response","220","1529293","0.0-220.0-0.0","A2R6UQCQ8T3RZE","img_art/13.jpg","5","","","","","","","","","","","","","","","","","","","","","","","","",""
"2336","","image-button-response","221","1531630","0.0-221.0-0.0","A2R6UQCQ8T3RZE","img_art/13.jpg","4","","","","","","","","","","","","","","","","","","","","","","","","",""
"null","","html-keyboard-response","222","1532631","0.0-222.0","A2R6UQCQ8T3RZE","<p style=""font-size: 48px;"">+</p>","","","","","null","allTrialResponses","1000","1","25","img_art/13.jpg","-15","Meaningless, but the colors are pleasant.","Peter,Ethan,Luis,Angel,Jason,Grant","Reminds me of the aquarium,4,320,20","I do not care for the colors in this art. it doesnt go well at all.,-15,120,20","I love the edgy nature,50,400,20","Reminds me of depression anxiety, but negativity is dampened by motion. It's trying to release itself through expression.,-10,180,20","Like the color choices,7,20,20","This elicits no reaction in me.,0,200,20","Angel","Reminds me of depression anxiety, but negativity is dampened by motion. It's trying to release itself through expression.,-10,180,20","Grant","This elicits no reaction in me.,0,200,20","Jason","Like the color choices,7,20,20","0"
"4097","","survey-text","223","1536732","0.0-223.0-0.0","A2R6UQCQ8T3RZE","","","","{""Q0"":""table""}","","","","","","","","","","","","","","","","","","","","","","",""
"38983","","survey-text","224","1575716","0.0-224.0-0.0","A2R6UQCQ8T3RZE","","","","{""Q0"":""Am I crazy, or is that a herald of death riding a white horse?""}","","","","","","","","","","","","","","","","","","","","","","",""
"6428","","image-slider-response","225","1582145","0.0-225.0","A2R6UQCQ8T3RZE","","","","","-40","","","","","","","","","","","","","","","","","","","","","",""
"2540","","image-button-response","226","1587160","0.0-226.0","A2R6UQCQ8T3RZE","img_art/18.jpg","1","","","","","","","","","","","","","","","","","","","","","","","","",""
"3601","","image-button-response","227","1590762","0.0-227.0","A2R6UQCQ8T3RZE","img_art/18.jpg","1","","","","","","","","","","","","","","","","","","","","","","","","",""
"449","","image-button-response","228","1591213","0.0-228.0-0.0","A2R6UQCQ8T3RZE","img_art/18.jpg","0","","","","","","","","","","","","","","","","","","","","","","","","",""
"735","","image-button-response","229","1591948","0.0-229.0-0.0","A2R6UQCQ8T3RZE","img_art/18.jpg","3","","","","","","","","","","","","","","","","","","","","","","","","",""
"null","","html-keyboard-response","230","1593450","0.0-230.0","A2R6UQCQ8T3RZE","<p style=""font-size: 48px;"">+</p>","","","","","null","allTrialResponses","1500","1","26","img_art/18.jpg","-40","Am I crazy, or is that a herald of death riding a white horse?","Gregory,Cody,Brandon,Angel,Jason,Grant","Mash up of colors and don't see a grander picture,-10,220,20","Vaguely creepy ........,-20,180,20","Crusade-feel, but a little too abstract for my taste,23,320,20","Like riding into battle. A sense of confidence, but also trepidation for what's coming. Could be a personification of death.,-10,180,20","Umclear what is present in the picture,0,20,20","This is a very energetic painting, and brings to mind scenes of battle.,50,200,20","Cody","Vaguely creepy ........,-20,180,20","Gregory","Mash up of colors and don't see a grander picture,-10,220,20","Angel","Like riding into battle. A sense of confidence, but also trepidation for what's coming. Could be a personification of death.,-10,180,20","0"
"20731","","survey-text","231","1614184","0.0-231.0-0.0","A2R6UQCQ8T3RZE","","","","{""Q0"":""An ugly patchwork that resembles a young girl's first attempt at a quilt.""}","","","","","","","","","","","","","","","","","","","","","","",""
"2759","","image-slider-response","232","1616943","0.0-232.0","A2R6UQCQ8T3RZE","","","","","-50","","","","","","","","","","","","","","","","","","","","","",""
"null","","image-button-response","233","1621950","0.0-233.0","A2R6UQCQ8T3RZE","img_art/12.jpg","null","","","","","","","","","","","","","","","","","","","","","","","","",""
"2108","","image-button-response","234","1624058","0.0-234.0","A2R6UQCQ8T3RZE","img_art/12.jpg","4","","","","","","","","","","","","","","","","","","","","","","","","",""
"701","","image-button-response","235","1624759","0.0-235.0-0.0","A2R6UQCQ8T3RZE","img_art/12.jpg","5","","","","","","","","","","","","","","","","","","","","","","","","",""
"806","","image-button-response","236","1625565","0.0-236.0-0.0","A2R6UQCQ8T3RZE","img_art/12.jpg","2","","","","","","","","","","","","","","","","","","","","","","","","",""
"null","","html-keyboard-response","237","1626067","0.0-237.0","A2R6UQCQ8T3RZE","<p style=""font-size: 48px;"">+</p>","","","","","null","allTrialResponses","500","1","27","img_art/12.jpg","-50","An ugly patchwork that resembles a young girl's first attempt at a quilt.","Gregory,Cody,Jared,Angel,Steven,Kenneth","Black and white contrast with color looks nice,15,220,20","Pretty but not a huge fan of the colors,20,180,20","i dont see the point.,-19,400,20","This feels cosmopolitan. Like looking at a high rise apartment at night and seeing into everyone's windows.,20,180,20","not my kind of thing,1,160,20","It's pretty, I find it interesting to look at.,10,300,20","Steven","not my kind of thing,1,160,20","Kenneth","It's pretty, I find it interesting to look at.,10,300,20","Jared","i dont see the point.,-19,400,20","0"
"11368","","survey-text","238","1637438","0.0-238.0-0.0","A2R6UQCQ8T3RZE","","","","{""Q0"":""Ugly and childish.""}","","","","","","","","","","","","","","","","","","","","","","",""
"2950","","image-slider-response","239","1640389","0.0-239.0","A2R6UQCQ8T3RZE","","","","","-50","","","","","","","","","","","","","","","","","","","","","",""
"null","","image-button-response","240","1645401","0.0-240.0","A2R6UQCQ8T3RZE","img_art/29.jpg","null","","","","","","","","","","","","","","","","","","","","","","","","",""
"638","","image-button-response","241","1646039","0.0-241.0","A2R6UQCQ8T3RZE","img_art/29.jpg","5","","","","","","","","","","","","","","","","","","","","","","","","",""
"379","","image-button-response","242","1646420","0.0-242.0-0.0","A2R6UQCQ8T3RZE","img_art/29.jpg","4","","","","","","","","","","","","","","","","","","","","","","","","",""
"833","","image-button-response","243","1647253","0.0-243.0-0.0","A2R6UQCQ8T3RZE","img_art/29.jpg","0","","","","","","","","","","","","","","","","","","","","","","","","",""
"null","","html-keyboard-response","244","1647761","0.0-244.0","A2R6UQCQ8T3RZE","<p style=""font-size: 48px;"">+</p>","","","","","null","allTrialResponses","500","1","28","img_art/29.jpg","-50","Ugly and childish.","Jordan,Tristan,Jared,Nicholas,Steven,Kenneth","Messy and disorganized, to odark,-31,160,20","The textures bring this painting alive. A window to another existence with infinite possibility.,25,300,20","not digging the paintbrush,1,400,20","I love this things almost hidden in it like paint brush and other details,50,240,20","Yeah, I don't know. It's clearly a situation where art is the reject of something more,-27,160,20","Too much going on, and I don't like the colors. It looks like a crime scene.,-50,300,20","Kenneth","Too much going on, and I don't like the colors. It looks like a crime scene.,-50,300,20","Steven","Yeah, I don't know. It's clearly a situation where art is the reject of something more,-27,160,20","Jordan","Messy and disorganized, to odark,-31,160,20","0"
"15688","","survey-text","245","1663453","0.0-245.0-0.0","A2R6UQCQ8T3RZE","","","","{""Q0"":""Child-like water color.  Not for me.""}","","","","","","","","","","","","","","","","","","","","","","",""
"3730","","image-slider-response","246","1667183","0.0-246.0","A2R6UQCQ8T3RZE","","","","","-45","","","","","","","","","","","","","","","","","","","","","",""
"3284","","image-button-response","247","1672195","0.0-247.0","A2R6UQCQ8T3RZE","img_art/19.jpg","5","","","","","","","","","","","","","","","","","","","","","","","","",""
"3703","","image-button-response","248","1675899","0.0-248.0","A2R6UQCQ8T3RZE","img_art/19.jpg","0","","","","","","","","","","","","","","","","","","","","","","","","",""
"1187","","image-button-response","249","1677086","0.0-249.0-0.0","A2R6UQCQ8T3RZE","img_art/19.jpg","5","","","","","","","","","","","","","","","","","","","","","","","","",""
"3158","","image-button-response","250","1680244","0.0-250.0-0.0","A2R6UQCQ8T3RZE","img_art/19.jpg","1","","","","","","","","","","","","","","","","","","","","","","","","",""
"null","","html-keyboard-response","251","1681761","0.0-251.0","A2R6UQCQ8T3RZE","<p style=""font-size: 48px;"">+</p>","","","","","null","allTrialResponses","1500","1","29","img_art/19.jpg","-45","Child-like water color.  Not for me.","Jordan,Edward,Devon,Brett,Steven,Kenneth","I dont like the gray shadows, ruins it,-7,160,20","It's ok but it's nothing I would hang on my wall,11,60,20","this looks like a busy city lifestyle,24,400,20","Reminds me of a quaint little town I once visited in Italy,50,360,20","I like it, I see someone walking his dog in the early morning time,23,160,20","TOo much brown.,-24,300,20","Jordan","I dont like the gray shadows, ruins it,-7,160,20","Kenneth","TOo much brown.,-24,300,20","Edward","It's ok but it's nothing I would hang on my wall,11,60,20","0"
"17036","","survey-text","252","1698801","0.0-252.0-0.0","A2R6UQCQ8T3RZE","","","","{""Q0"":""Child-like water color, but at least resembles something.""}","","","","","","","","","","","","","","","","","","","","","","",""
"3176","","image-slider-response","253","1701979","0.0-253.0","A2R6UQCQ8T3RZE","","","","","-30","","","","","","","","","","","","","","","","","","","","","",""
"null","","image-button-response","254","1706984","0.0-254.0","A2R6UQCQ8T3RZE","img_art/26.jpg","null","","","","","","","","","","","","","","","","","","","","","","","","",""
"1113","","image-button-response","255","1708097","0.0-255.0","A2R6UQCQ8T3RZE","img_art/26.jpg","5","","","","","","","","","","","","","","","","","","","","","","","","",""
"839","","image-button-response","256","1708936","0.0-256.0-0.0","A2R6UQCQ8T3RZE","img_art/26.jpg","4","","","","","","","","","","","","","","","","","","","","","","","","",""
"932","","image-button-response","257","1709870","0.0-257.0-0.0","A2R6UQCQ8T3RZE","img_art/26.jpg","2","","","","","","","","","","","","","","","","","","","","","","","","",""
"null","","html-keyboard-response","258","1711371","0.0-258.0","A2R6UQCQ8T3RZE","<p style=""font-size: 48px;"">+</p>","","","","","null","allTrialResponses","1500","1","30","img_art/26.jpg","-30","Child-like water color, but at least resembles something.","Jordan,Edward,Caleb,Thomas,Jake,Kenneth","Reminds me of walks in my dads city when I was little,22,160,20","Elevator art but the watercolors are good,29,60,20","Appears childish and unfinished.,-20,40,20","It feels almost unfinished, but I like the color palette,9,220,20","It's not ugly but not beautiful at all.,-3,360,20","Very subdued, but wouldn't give it a 2nd notice.,4,300,20","Kenneth","Very subdued, but wouldn't give it a 2nd notice.,4,300,20","Jake","It's not ugly but not beautiful at all.,-3,360,20","Caleb","Appears childish and unfinished.,-20,40,20","0"
"4177","","image-button-response_instructions","259","1715551","0.0-259.0","A2R6UQCQ8T3RZE","","0","instructions","","","","","","","","","","","","","","","","","","","","","","","",""
