"rt","url","trial_type","trial_index","time_elapsed","internal_node_id","participant_id","stimulus","button_pressed","Name","responses","response","key_press","variableName","fixationTime","condition","trial","photo","subjectRating","subjectResponse","agentsNames","agent_1_Response","agent_2_Response","agent_3_Response","agent_4_Response","agent_5_Response","agent_6_Response","kept_1_name","kept_1_response","kept_2_name","kept_2_response","kept_3_name","kept_3_response","errorCounter"
"14975","external_page_harvard.html","external-html","0","15089","0.0-0.0","A2R9OK4M877ZCC","","","","","","","","","","","","","","","","","","","","","","","","","","",""
"1068","","image-button-response","1","16162","0.0-1.0","A2R9OK4M877ZCC","","0","","","","","","","","","","","","","","","","","","","","","","","","",""
"1417","","image-button-response","2","17593","0.0-2.0-0.0","A2R9OK4M877ZCC","","1","phone","","","","","","","","","","","","","","","","","","","","","","","",""
"9517","","survey-text","3","27115","0.0-3.0-0.0","A2R9OK4M877ZCC","","","","{""Q0"":""A2R9OK4M877ZCC""}","","","","","","","","","","","","","","","","","","","","","","",""
"795175","","image-button-response_instructions","4","822295","0.0-4.0","A2R9OK4M877ZCC","","0","instructions","","","","","","","","","","","","","","","","","","","","","","","",""
"4955","","image-button-response_instructions","5","827252","0.0-5.0","A2R9OK4M877ZCC","img_art/ins/popularity/ins1.png","0","instructions","","","","","","","","","","","","","","","","","","","","","","","",""
"71509","","image-button-response_instructions","6","898763","0.0-6.0","A2R9OK4M877ZCC","img_art/ins/popularity/ins2.png","0","instructions","","","","","","","","","","","","","","","","","","","","","","","",""
"14742","","image-button-response_instructions","7","913507","0.0-7.0","A2R9OK4M877ZCC","img_art/ins/popularity/ins2Extreme.png","0","instructions","","","","","","","","","","","","","","","","","","","","","","","",""
"8710","","image-button-response_instructions","8","922219","0.0-8.0","A2R9OK4M877ZCC","img_art/ins/popularity/ins3KEEPpop.PNG","0","instructions","","","","","","","","","","","","","","","","","","","","","","","",""
"3227","","image-button-response_instructions","9","925449","0.0-9.0","A2R9OK4M877ZCC","img_art/ins/popularity/ins3ANamepop.PNG","0","instructions","","","","","","","","","","","","","","","","","","","","","","","",""
"118010","","image-button-response_instructions","10","1043462","0.0-10.0","A2R9OK4M877ZCC","img_art/ins/popularity/ins3ARatingpop.png","0","instructions","","","","","","","","","","","","","","","","","","","","","","","",""
"53011","","image-button-response_instructions","11","1096475","0.0-11.0","A2R9OK4M877ZCC","img_art/ins/popularity/ins3ATextpop.png","0","instructions","","","","","","","","","","","","","","","","","","","","","","","",""
"3713","","image-button-response_instructions","12","1100191","0.0-12.0","A2R9OK4M877ZCC","img_art/ins/popularity/ins3ALikespop.png","0","instructions","","","","","","","","","","","","","","","","","","","","","","","",""
"11496","","image-button-response_instructions","13","1111691","0.0-13.0","A2R9OK4M877ZCC","img_art/ins/popularity/ins3KEEPpop.PNG","0","instructions","","","","","","","","","","","","","","","","","","","","","","","",""
"4225","","image-button-response_instructions","14","1115920","0.0-14.0","A2R9OK4M877ZCC","img_art/ins/popularity/ins3_5RED.png","0","instructions","","","","","","","","","","","","","","","","","","","","","","","",""
"2690","","image-button-response_instructions","15","1118613","0.0-15.0","A2R9OK4M877ZCC","img_art/ins/popularity/ins3KEEPpop.PNG","0","instructions","","","","","","","","","","","","","","","","","","","","","","","",""
"3211","","image-button-response_instructions","16","1121827","0.0-16.0","A2R9OK4M877ZCC","img_art/ins/popularity/ins4KEEPpop.PNG","0","instructions","","","","","","","","","","","","","","","","","","","","","","","",""
"2723","","image-button-response_instructions","17","1124553","0.0-17.0","A2R9OK4M877ZCC","img_art/ins/popularity/ins5KEEPpop.PNG","0","instructions","","","","","","","","","","","","","","","","","","","","","","","",""
"1412","","image-button-response_instructions","18","1125967","0.0-18.0","A2R9OK4M877ZCC","","0","instructions","","","","","","","","","","","","","","","","","","","","","","","",""
"5138","","survey-text","19","1131141","0.0-19.0-0.0","A2R9OK4M877ZCC","","","","{""Q0"":""but""}","","","","","","","","","","","","","","","","","","","","","","",""
"23411","","survey-text","20","1154555","0.0-20.0-0.0","A2R9OK4M877ZCC","","","","{""Q0"":""looks like the bottom of a birthday cake box ""}","","","","","","","","","","","","","","","","","","","","","","",""
"6513.799999952316","","image-slider-response","21","1161075","0.0-21.0","A2R9OK4M877ZCC","","","","","7","","","","","","","","","","","","","","","","","","","","","",""
"2485","","image-button-response","22","1166093","0.0-22.0","A2R9OK4M877ZCC","img_art/ins/1.jpg","5","","","","","","","","","","","","","","","","","","","","","","","","",""
"1760","","image-button-response","23","1167859","0.0-23.0","A2R9OK4M877ZCC","img_art/ins/1.jpg","5","","","","","","","","","","","","","","","","","","","","","","","","",""
"1969","","image-button-response","24","1169835","0.0-24.0-0.0","A2R9OK4M877ZCC","img_art/ins/1.jpg","3","","","","","","","","","","","","","","","","","","","","","","","","",""
"5291","","image-button-response","25","1175133","0.0-25.0-0.0","A2R9OK4M877ZCC","img_art/ins/1.jpg","1","","","","","","","","","","","","","","","","","","","","","","","","",""
"null","","html-keyboard-response","26","1176139","0.0-26.0","A2R9OK4M877ZCC","<p style=""font-size: 48px;"">+</p>","","","","","null","allTrialResponses","1000","1","-2","img_art/ins/1.jpg","7","looks like the bottom of a birthday cake box ","Adam,Alex,Ben,Carl,Daniel,Jack","Seems like doodles,-20,20,20","very creative work.,36,40,20","This color reminds me of poo,-46,60,20","very calming artwork,42,80,20","It looks like a murder scene.,-48,100,20","I like the sophisticated brushwork,40,120,20","Jack","I like the sophisticated brushwork,40,120,20","Carl","very calming artwork,42,80,20","Alex","very creative work.,36,40,20","0"
"31810","","survey-text","27","1207964","0.0-27.0-0.0","A2R9OK4M877ZCC","","","","{""Q0"":""it looks still wet in places""}","","","","","","","","","","","","","","","","","","","","","","",""
"3944.6999999284744","","image-slider-response","28","1211912","0.0-28.0","A2R9OK4M877ZCC","","","","","8","","","","","","","","","","","","","","","","","","","","","",""
"3784","","image-button-response","29","1216929","0.0-29.0","A2R9OK4M877ZCC","img_art/ins/2.jpg","4","","","","","","","","","","","","","","","","","","","","","","","","",""
"206","","image-button-response","30","1217141","0.0-30.0","A2R9OK4M877ZCC","img_art/ins/2.jpg","4","","","","","","","","","","","","","","","","","","","","","","","","",""
"995","","image-button-response","31","1218140","0.0-31.0-0.0","A2R9OK4M877ZCC","img_art/ins/2.jpg","5","","","","","","","","","","","","","","","","","","","","","","","","",""
"6336","","image-button-response","32","1224482","0.0-32.0-0.0","A2R9OK4M877ZCC","img_art/ins/2.jpg","3","","","","","","","","","","","","","","","","","","","","","","","","",""
"null","","html-keyboard-response","33","1225486","0.0-33.0","A2R9OK4M877ZCC","<p style=""font-size: 48px;"">+</p>","","","","","null","allTrialResponses","1000","1","-1","img_art/ins/2.jpg","8","it looks still wet in places","James,Alex,Kyle,Carl,John,Jack","looks too angry,-50,140,20","I like the blocks of color arrangements,30,40,20","Idk, it is just annoying,-32,180,20","I can feel the artist's passion in it,45,80,20","love the texture of paint,48,160,20","I would never be able to compose a sophisticated pallete like this,48,120,20","John","love the texture of paint,48,160,20","Jack","I would never be able to compose a sophisticated pallete like this,48,120,20","Carl","I can feel the artist's passion in it,45,80,20","0"
"20745","","survey-text","34","1246241","0.0-34.0-0.0","A2R9OK4M877ZCC","","","","{""Q0"":""it looks like a guy karate chopping a block of ice""}","","","","","","","","","","","","","","","","","","","","","","",""
"3441.1999999284744","","image-slider-response","35","1249687","0.0-35.0","A2R9OK4M877ZCC","","","","","19","","","","","","","","","","","","","","","","","","","","","",""
"4107","","image-button-response","36","1254703","0.0-36.0","A2R9OK4M877ZCC","img_art/ins/3.jpg","5","","","","","","","","","","","","","","","","","","","","","","","","",""
"222","","image-button-response","37","1254930","0.0-37.0","A2R9OK4M877ZCC","img_art/ins/3.jpg","5","","","","","","","","","","","","","","","","","","","","","","","","",""
"1421","","image-button-response","38","1256356","0.0-38.0-0.0","A2R9OK4M877ZCC","img_art/ins/3.jpg","4","","","","","","","","","","","","","","","","","","","","","","","","",""
"4160","","image-button-response","39","1260521","0.0-39.0-0.0","A2R9OK4M877ZCC","img_art/ins/3.jpg","0","","","","","","","","","","","","","","","","","","","","","","","","",""
"null","","html-keyboard-response","40","1261026","0.0-40.0","A2R9OK4M877ZCC","<p style=""font-size: 48px;"">+</p>","","","","","null","allTrialResponses","500","1","0","img_art/ins/3.jpg","19","it looks like a guy karate chopping a block of ice","Mike,Sam,Ron,Carl,John,Jack","enjoy the different shades of blue,22,200,20","I can feel a rainy day from this painting,18,240,20","It looks depressing,-26,220,20","It's an alright work,15,80,20","I like the overlapping of brushes,41,160,20","I feel connected to the artist,40,120,20","Jack","I feel connected to the artist,40,120,20","John","I like the overlapping of brushes,41,160,20","Mike","enjoy the different shades of blue,22,200,20","0"
"3344","","image-button-response_instructions","41","1264377","0.0-41.0","A2R9OK4M877ZCC","","0","instructions","","","","","","","","","","","","","","","","","","","","","","","",""
"7517","","survey-likert","42","1271898","0.0-42.0-0.0","A2R9OK4M877ZCC","","","","{""Q0"":"""",""Q1"":0,""Q2"":1}","","","","","","","","","","","","","","","","","","","","","","",""
"4913","","survey-text","43","1276823","0.0-43.0-0.0","A2R9OK4M877ZCC","","","","{""Q0"":""rock""}","","","","","","","","","","","","","","","","","","","","","","",""
"33691","","survey-text","44","1310517","0.0-44.0-0.0","A2R9OK4M877ZCC","","","","{""Q0"":""it looks like a rendering of someone's intestines""}","","","","","","","","","","","","","","","","","","","","","","",""
"3292.7999999523163","","image-slider-response","45","1313814","0.0-45.0","A2R9OK4M877ZCC","","","","","6","","","","","","","","","","","","","","","","","","","","","",""
"4051","","image-button-response","46","1318870","0.0-46.0","A2R9OK4M877ZCC","img_art/9.jpg","4","","","","","","","","","","","","","","","","","","","","","","","","",""
"944","","image-button-response","47","1319820","0.0-47.0","A2R9OK4M877ZCC","img_art/9.jpg","4","","","","","","","","","","","","","","","","","","","","","","","","",""
"3557","","image-button-response","48","1323381","0.0-48.0-0.0","A2R9OK4M877ZCC","img_art/9.jpg","2","","","","","","","","","","","","","","","","","","","","","","","","",""
"784","","image-button-response","49","1324170","0.0-49.0-0.0","A2R9OK4M877ZCC","img_art/9.jpg","1","","","","","","","","","","","","","","","","","","","","","","","","",""
"null","","html-keyboard-response","50","1325173","0.0-50.0","A2R9OK4M877ZCC","<p style=""font-size: 48px;"">+</p>","","","","","null","allTrialResponses","1000","1","1","img_art/9.jpg","6","it looks like a rendering of someone's intestines","Shane,Corey,Mason,Brian,Cameron,Gregory","Angry beast mouth,-37,80,20","keeps me interested. like the colors,17,260,20","Abstract titanic scene. It's nice though. I like how it makes me feel.,28,100,20","I don't like the framing of this one,-25,380,20","Dark fantasy seaside cave carnival? Fun.,15,60,20","Mash up of colors and designs don't really go together,-5,220,20","Cameron","Dark fantasy seaside cave carnival? Fun.,15,60,20","Mason","Abstract titanic scene. It's nice though. I like how it makes me feel.,28,100,20","Corey","keeps me interested. like the colors,17,260,20","0"
"30833","","survey-text","51","1356019","0.0-51.0-0.0","A2R9OK4M877ZCC","","","","{""Q0"":""I would have x'd it out and started over if I painted this mess too""}","","","","","","","","","","","","","","","","","","","","","","",""
"3379.2000000476837","","image-slider-response","52","1359401","0.0-52.0","A2R9OK4M877ZCC","","","","","-46","","","","","","","","","","","","","","","","","","","","","",""
"4365","","image-button-response","53","1364405","0.0-53.0","A2R9OK4M877ZCC","img_art/29.jpg","5","","","","","","","","","","","","","","","","","","","","","","","","",""
"772","","image-button-response","54","1365182","0.0-54.0","A2R9OK4M877ZCC","img_art/29.jpg","5","","","","","","","","","","","","","","","","","","","","","","","","",""
"3031","","image-button-response","55","1368217","0.0-55.0-0.0","A2R9OK4M877ZCC","img_art/29.jpg","0","","","","","","","","","","","","","","","","","","","","","","","","",""
"1211","","image-button-response","56","1369434","0.0-56.0-0.0","A2R9OK4M877ZCC","img_art/29.jpg","4","","","","","","","","","","","","","","","","","","","","","","","","",""
"null","","html-keyboard-response","57","1369937","0.0-57.0","A2R9OK4M877ZCC","<p style=""font-size: 48px;"">+</p>","","","","","null","allTrialResponses","500","1","2","img_art/29.jpg","-46","I would have x'd it out and started over if I painted this mess too","Jeffrey,Corey,Mason,Miguel,Cameron,Christian","Looks like an accident more than an art to me,-26,40,20","this does nothing for me. hate the colors. hate the design,-50,260,20","easy, too abstract for me, don't get it.,-25,100,20","It's too messy.,-25,160,20","Lines and light are clean but subject doesn't interest me,0,60,20","love the texture, i don't know, i just really like it (and the paintbrush adds a nice touch),44,140,20","Christian","love the texture, i don't know, i just really like it (and the paintbrush adds a nice touch),44,140,20","Jeffrey","Looks like an accident more than an art to me,-26,40,20","Cameron","Lines and light are clean but subject doesn't interest me,0,60,20","0"
"47622","","survey-text","58","1417575","0.0-58.0-0.0","A2R9OK4M877ZCC","","","","{""Q0"":""I don't even understand what is going on here.""}","","","","","","","","","","","","","","","","","","","","","","",""
"2890.899999976158","","image-slider-response","59","1420471","0.0-59.0","A2R9OK4M877ZCC","","","","","-38","","","","","","","","","","","","","","","","","","","","","",""
"4588","","image-button-response","60","1425477","0.0-60.0","A2R9OK4M877ZCC","img_art/10.jpg","3","","","","","","","","","","","","","","","","","","","","","","","","",""
"580","","image-button-response","61","1426062","0.0-61.0","A2R9OK4M877ZCC","img_art/10.jpg","3","","","","","","","","","","","","","","","","","","","","","","","","",""
"1466","","image-button-response","62","1427533","0.0-62.0-0.0","A2R9OK4M877ZCC","img_art/10.jpg","5","","","","","","","","","","","","","","","","","","","","","","","","",""
"2889","","image-button-response","63","1430428","0.0-63.0-0.0","A2R9OK4M877ZCC","img_art/10.jpg","2","","","","","","","","","","","","","","","","","","","","","","","","",""
"null","","html-keyboard-response","64","1431433","0.0-64.0","A2R9OK4M877ZCC","<p style=""font-size: 48px;"">+</p>","","","","","null","allTrialResponses","1000","1","3","img_art/10.jpg","-38","I don't even understand what is going on here.","Jeffrey,Dylan,Caleb,Kyle,Cameron,Christian","Relaxing; a lot of going on but colours make it easy to look at,20,40,20","The longer I looked at this, the more I liked it,33,40,20","This is a scribble of a mad man. Appears low effort.,-33,40,20","It's okay but not giving me the strongest reaction,6,340,20","artistic cello piece?,30,60,20","gives a sense of a roller coaster unit splashed in water. it's not but i love it nevertheless,44,140,20","Kyle","It's okay but not giving me the strongest reaction,6,340,20","Christian","gives a sense of a roller coaster unit splashed in water. it's not but i love it nevertheless,44,140,20","Caleb","This is a scribble of a mad man. Appears low effort.,-33,40,20","0"
"26632","","survey-text","65","1458073","0.0-65.0-0.0","A2R9OK4M877ZCC","","","","{""Q0"":""my 6 year old has finger painted better than this""}","","","","","","","","","","","","","","","","","","","","","","",""
"3625.399999976158","","image-slider-response","66","1461703","0.0-66.0","A2R9OK4M877ZCC","","","","","4","","","","","","","","","","","","","","","","","","","","","",""
"3581","","image-button-response","67","1466710","0.0-67.0","A2R9OK4M877ZCC","img_art/1.jpg","1","","","","","","","","","","","","","","","","","","","","","","","","",""
"564","","image-button-response","68","1467279","0.0-68.0","A2R9OK4M877ZCC","img_art/1.jpg","1","","","","","","","","","","","","","","","","","","","","","","","","",""
"1906","","image-button-response","69","1469190","0.0-69.0-0.0","A2R9OK4M877ZCC","img_art/1.jpg","4","","","","","","","","","","","","","","","","","","","","","","","","",""
"879","","image-button-response","70","1470074","0.0-70.0-0.0","A2R9OK4M877ZCC","img_art/1.jpg","5","","","","","","","","","","","","","","","","","","","","","","","","",""
"null","","html-keyboard-response","71","1470577","0.0-71.0","A2R9OK4M877ZCC","<p style=""font-size: 48px;"">+</p>","","","","","null","allTrialResponses","500","1","4","img_art/1.jpg","4","my 6 year old has finger painted better than this","Taylor,Jesus,Caleb,Kyle,Alexis,Christian","Deja vu. Haven't I seen this one before? Not bad for those living in the backwoods.,10,200,20","I like the simple aspect to the design,21,100,20","Its simply okay.,3,40,20","Too similar to some of the other pieces,-18,340,20","This photo reminds me of a fall afternoon, serene,11,140,20","bamboo boat in sunset,12,140,20","Jesus","I like the simple aspect to the design,21,100,20","Alexis","This photo reminds me of a fall afternoon, serene,11,140,20","Christian","bamboo boat in sunset,12,140,20","0"
"27986","","survey-text","72","1498581","0.0-72.0-0.0","A2R9OK4M877ZCC","","","","{""Q0"":""wild.""}","","","","","","","","","","","","","","","","","","","","","","",""
"5660","","survey-text","73","1506030","0.0-72.1-0.1","A2R9OK4M877ZCC","","","","{""Q0"":""this looks wild af""}","","","","","","","","","","","","","","","","","","","","","","",""
"3293.2999999523163","","image-slider-response","74","1509327","0.0-73.0","A2R9OK4M877ZCC","","","","","23","","","","","","","","","","","","","","","","","","","","","",""
"null","","image-button-response","75","1514342","0.0-74.0","A2R9OK4M877ZCC","img_art/21.jpg","null","","","","","","","","","","","","","","","","","","","","","","","","",""
"2524","","image-button-response","76","1516870","0.0-75.0","A2R9OK4M877ZCC","img_art/21.jpg","1","","","","","","","","","","","","","","","","","","","","","","","","",""
"1284","","image-button-response","77","1518157","0.0-76.0-0.0","A2R9OK4M877ZCC","img_art/21.jpg","2","","","","","","","","","","","","","","","","","","","","","","","","",""
"1581","","image-button-response","78","1519744","0.0-77.0-0.0","A2R9OK4M877ZCC","img_art/21.jpg","4","","","","","","","","","","","","","","","","","","","","","","","","",""
"null","","html-keyboard-response","79","1520248","0.0-78.0","A2R9OK4M877ZCC","<p style=""font-size: 48px;"">+</p>","","","","","null","allTrialResponses","500","1","5","img_art/21.jpg","23","this looks wild af","Charles,Jesus,Andrew,Gabriel,Alexis,Christian","Another swathe of ocean,31,100,20","The shapes and colors are very interesting to look at.,41,100,20","I love the contrasting tones between the two sides,36,160,20","i like watercolor,22,160,20","It makes me feel mellow or ""chill"". It makes me have a positive and calm mood,42,140,20","stormy with gold lining,0,140,20","Jesus","The shapes and colors are very interesting to look at.,41,100,20","Andrew","I love the contrasting tones between the two sides,36,160,20","Alexis","It makes me feel mellow or ""chill"". It makes me have a positive and calm mood,42,140,20","0"
"3719","","survey-text","80","1523995","0.0-79.0-0.0","A2R9OK4M877ZCC","","","","{""Q0"":""sky""}","","","","","","","","","","","","","","","","","","","","","","",""
"26346","","survey-text","81","1550345","0.0-80.0-0.0","A2R9OK4M877ZCC","","","","{""Q0"":""looks like a semi truck wrecked and a cow is flying out""}","","","","","","","","","","","","","","","","","","","","","","",""
"3023.399999976158","","image-slider-response","82","1553373","0.0-81.0","A2R9OK4M877ZCC","","","","","41","","","","","","","","","","","","","","","","","","","","","",""
"1613","","image-button-response","83","1558393","0.0-82.0","A2R9OK4M877ZCC","img_art/20.jpg","5","","","","","","","","","","","","","","","","","","","","","","","","",""
"2570","","image-button-response","84","1560969","0.0-83.0","A2R9OK4M877ZCC","img_art/20.jpg","5","","","","","","","","","","","","","","","","","","","","","","","","",""
"7598","","image-button-response","85","1568571","0.0-84.0-0.0","A2R9OK4M877ZCC","img_art/20.jpg","0","","","","","","","","","","","","","","","","","","","","","","","","",""
"2333","","image-button-response","86","1570909","0.0-85.0-0.0","A2R9OK4M877ZCC","img_art/20.jpg","1","","","","","","","","","","","","","","","","","","","","","","","","",""
"null","","html-keyboard-response","87","1571413","0.0-86.0","A2R9OK4M877ZCC","<p style=""font-size: 48px;"">+</p>","","","","","null","allTrialResponses","500","1","6","img_art/20.jpg","41","looks like a semi truck wrecked and a cow is flying out","Shawn,Jesus,Andrew,Jesse,Alexis,Logan","Mood setting if a little dreary,20,100,20","Shapes are fun to interpret,21,100,20","I just love this painting,47,160,20","I do at least like the dark colors blending,6,80,20","it is a bit disturbing, like a monster or ghost floating away from a bleak building,-8,140,20","truck? train? dead cow? plane?,10,360,20","Logan","truck? train? dead cow? plane?,10,360,20","Shawn","Mood setting if a little dreary,20,100,20","Jesus","Shapes are fun to interpret,21,100,20","0"
"15873","","survey-text","88","1587301","0.0-87.0-0.0","A2R9OK4M877ZCC","","","","{""Q0"":""i don't know what this is but i like it""}","","","","","","","","","","","","","","","","","","","","","","",""
"3092.1999999284744","","image-slider-response","89","1590397","0.0-88.0","A2R9OK4M877ZCC","","","","","46","","","","","","","","","","","","","","","","","","","","","",""
"3038","","image-button-response","90","1595402","0.0-89.0","A2R9OK4M877ZCC","img_art/18.jpg","5","","","","","","","","","","","","","","","","","","","","","","","","",""
"821","","image-button-response","91","1596227","0.0-90.0","A2R9OK4M877ZCC","img_art/18.jpg","2","","","","","","","","","","","","","","","","","","","","","","","","",""
"2860","","image-button-response","92","1599089","0.0-91.0-0.0","A2R9OK4M877ZCC","img_art/18.jpg","4","","","","","","","","","","","","","","","","","","","","","","","","",""
"791","","image-button-response","93","1599884","0.0-92.0-0.0","A2R9OK4M877ZCC","img_art/18.jpg","5","","","","","","","","","","","","","","","","","","","","","","","","",""
"null","","html-keyboard-response","94","1600902","0.0-93.0","A2R9OK4M877ZCC","<p style=""font-size: 48px;"">+</p>","","","","","null","allTrialResponses","1000","1","7","img_art/18.jpg","46","i don't know what this is but i like it","Shawn,Jesus,Malik,Bryce,Noah,Logan","Evocative but cheesy.,-20,100,20","The shapes are very fun to interpret,30,100,20","Gently chaotic and beautiful,40,40,20","Kinda boring. Not my favorite,-34,20,20","enjoy the juxtaposition of abstract with tangible elements & the use of color,10,260,20","Can't tell if I love it or hate it. That response warranted more than neutral so I gave it 20 but not sure,21,360,20","Malik","Gently chaotic and beautiful,40,40,20","Noah","enjoy the juxtaposition of abstract with tangible elements & the use of color,10,260,20","Logan","Can't tell if I love it or hate it. That response warranted more than neutral so I gave it 20 but not sure,21,360,20","0"
"19644","","survey-text","95","1620562","0.0-94.0-0.0","A2R9OK4M877ZCC","","","","{""Q0"":""This looks like korn album art""}","","","","","","","","","","","","","","","","","","","","","","",""
"2367.600000023842","","image-slider-response","96","1622932","0.0-95.0","A2R9OK4M877ZCC","","","","","23","","","","","","","","","","","","","","","","","","","","","",""
"2390","","image-button-response","97","1627935","0.0-96.0","A2R9OK4M877ZCC","img_art/11.jpg","3","","","","","","","","","","","","","","","","","","","","","","","","",""
"1096","","image-button-response","98","1629036","0.0-97.0","A2R9OK4M877ZCC","img_art/11.jpg","2","","","","","","","","","","","","","","","","","","","","","","","","",""
"1102","","image-button-response","99","1630143","0.0-98.0-0.0","A2R9OK4M877ZCC","img_art/11.jpg","5","","","","","","","","","","","","","","","","","","","","","","","","",""
"855","","image-button-response","100","1631001","0.0-99.0-0.0","A2R9OK4M877ZCC","img_art/11.jpg","0","","","","","","","","","","","","","","","","","","","","","","","","",""
"null","","html-keyboard-response","101","1632516","0.0-100.0","A2R9OK4M877ZCC","<p style=""font-size: 48px;"">+</p>","","","","","null","allTrialResponses","1500","1","8","img_art/11.jpg","23","This looks like korn album art","Carlos,Juan,Malik,Mark,Noah,Logan","The colors are lovely. February getting ready to yield to March.,41,80,20","It makes me think of a rainy day and I like the colors. Also like the wavy lines.,22,260,20","I want to know which skyline the artist is depicting,26,40,20","My initial thought was roller coasters but I see ship masts on a cloudy day too.,35,80,20","I enjoy the kandinsky-like general vibe, but the grey brings me down a bit,27,260,20","life is a highway,12,360,20","Malik","I want to know which skyline the artist is depicting,26,40,20","Logan","life is a highway,12,360,20","Carlos","The colors are lovely. February getting ready to yield to March.,41,80,20","0"
"19102","","survey-text","102","1651634","0.0-101.0-0.0","A2R9OK4M877ZCC","","","","{""Q0"":""this is kind of weird and unsettling. ""}","","","","","","","","","","","","","","","","","","","","","","",""
"4911.700000047684","","image-slider-response","103","1656551","0.0-102.0","A2R9OK4M877ZCC","","","","","-49","","","","","","","","","","","","","","","","","","","","","",""
"2837","","image-button-response","104","1661556","0.0-103.0","A2R9OK4M877ZCC","img_art/3.jpg","3","","","","","","","","","","","","","","","","","","","","","","","","",""
"770","","image-button-response","105","1662330","0.0-104.0","A2R9OK4M877ZCC","img_art/3.jpg","3","","","","","","","","","","","","","","","","","","","","","","","","",""
"1582","","image-button-response","106","1663916","0.0-105.0-0.0","A2R9OK4M877ZCC","img_art/3.jpg","5","","","","","","","","","","","","","","","","","","","","","","","","",""
"2502","","image-button-response","107","1666424","0.0-106.0-0.0","A2R9OK4M877ZCC","img_art/3.jpg","2","","","","","","","","","","","","","","","","","","","","","","","","",""
"null","","html-keyboard-response","108","1667938","0.0-107.0","A2R9OK4M877ZCC","<p style=""font-size: 48px;"">+</p>","","","","","null","allTrialResponses","1500","1","9","img_art/3.jpg","-49","this is kind of weird and unsettling. ","Carlos,Steven,Malik,Brandon,William,Logan","The composition keeps the eye moving, the colors are satisfying.,31,80,20","i don't like this, just looks like scribbles,-50,160,20","Unaure what the artist  was doing, needs context,11,40,20","Just scribbles. Not a fan.,-40,320,20","makes me think of anger,-33,380,20","im just getting more agitated and less appreciative of art. I have absolutely no scale to base on,-34,360,20","Brandon","Just scribbles. Not a fan.,-40,320,20","Logan","im just getting more agitated and less appreciative of art. I have absolutely no scale to base on,-34,360,20","Malik","Unaure what the artist  was doing, needs context,11,40,20","0"
"14859","","survey-text","109","1682818","0.0-108.0-0.0","A2R9OK4M877ZCC","","","","{""Q0"":""someone's kid did this didn't they""}","","","","","","","","","","","","","","","","","","","","","","",""
"3094.9000000953674","","image-slider-response","110","1685916","0.0-109.0","A2R9OK4M877ZCC","","","","","-48","","","","","","","","","","","","","","","","","","","","","",""
"3498","","image-button-response","111","1690919","0.0-110.0","A2R9OK4M877ZCC","img_art/30.jpg","3","","","","","","","","","","","","","","","","","","","","","","","","",""
"869","","image-button-response","112","1691792","0.0-111.0","A2R9OK4M877ZCC","img_art/30.jpg","3","","","","","","","","","","","","","","","","","","","","","","","","",""
"1785","","image-button-response","113","1693580","0.0-112.0-0.0","A2R9OK4M877ZCC","img_art/30.jpg","1","","","","","","","","","","","","","","","","","","","","","","","","",""
"1152","","image-button-response","114","1694735","0.0-113.0-0.0","A2R9OK4M877ZCC","img_art/30.jpg","2","","","","","","","","","","","","","","","","","","","","","","","","",""
"null","","html-keyboard-response","115","1695239","0.0-114.0","A2R9OK4M877ZCC","<p style=""font-size: 48px;"">+</p>","","","","","null","allTrialResponses","500","1","10","img_art/30.jpg","-48","someone's kid did this didn't they","Antonio,Cody,Malik,Brandon,Grant,Logan","Fear. It looks like snakes in the picture,13,220,20","Like the design, not a big fan of the colors,20,180,20","I can't parse any intention or emotion,-17,40,20","Too abstract, looks like something I could paint,-50,320,20","The brush strokes are appealing, and make me want to look at this longer.,11,200,20","literally stupid I made this with as seen on tv products when I was 7,-42,360,20","Brandon","Too abstract, looks like something I could paint,-50,320,20","Cody","Like the design, not a big fan of the colors,20,180,20","Malik","I can't parse any intention or emotion,-17,40,20","0"
"5233","","survey-text","116","1700505","0.0-115.0-0.0","A2R9OK4M877ZCC","","","","{""Q0"":""our""}","","","","","","","","","","","","","","","","","","","","","","",""
"42561","","survey-text","117","1743070","0.0-116.0-0.0","A2R9OK4M877ZCC","","","","{""Q0"":""is this a scene from aladin ""}","","","","","","","","","","","","","","","","","","","","","","",""
"2582.2000000476837","","image-slider-response","118","1745657","0.0-117.0","A2R9OK4M877ZCC","","","","","-32","","","","","","","","","","","","","","","","","","","","","",""
"4773","","image-button-response","119","1750662","0.0-118.0","A2R9OK4M877ZCC","img_art/8.jpg","3","","","","","","","","","","","","","","","","","","","","","","","","",""
"768","","image-button-response","120","1751432","0.0-119.0","A2R9OK4M877ZCC","img_art/8.jpg","3","","","","","","","","","","","","","","","","","","","","","","","","",""
"1432","","image-button-response","121","1752868","0.0-120.0-0.0","A2R9OK4M877ZCC","img_art/8.jpg","5","","","","","","","","","","","","","","","","","","","","","","","","",""
"5308","","image-button-response","122","1758179","0.0-121.0-0.0","A2R9OK4M877ZCC","img_art/8.jpg","4","","","","","","","","","","","","","","","","","","","","","","","","",""
"null","","html-keyboard-response","123","1758683","0.0-122.0","A2R9OK4M877ZCC","<p style=""font-size: 48px;"">+</p>","","","","","null","allTrialResponses","500","1","11","img_art/8.jpg","-32","is this a scene from aladin ","Aaron,Cody,Malik,Brandon,Justin,Alejandro","The shapes and colors work well together.,40,20,20","Love the colors & block-style,50,180,20","Striking, but not my taste,20,40,20","Reminds me of old 80s fantasy book covers. Nostalgic,23,320,20","Interesting to look at, there are many things happening in the painting.,32,280,20","i like the abstract nature of a birds eye view of the city. The hard shapes and squares present with a softness rather than rigidity.,26,80,20","Brandon","Reminds me of old 80s fantasy book covers. Nostalgic,23,320,20","Alejandro","i like the abstract nature of a birds eye view of the city. The hard shapes and squares present with a softness rather than rigidity.,26,80,20","Justin","Interesting to look at, there are many things happening in the painting.,32,280,20","0"
"17607","","survey-text","124","1776296","0.0-123.0-0.0","A2R9OK4M877ZCC","","","","{""Q0"":""this looks like a ransom note for a child's teddy bear""}","","","","","","","","","","","","","","","","","","","","","","",""
"3781.5","","image-slider-response","125","1780083","0.0-124.0","A2R9OK4M877ZCC","","","","","-41","","","","","","","","","","","","","","","","","","","","","",""
"2551","","image-button-response","126","1785089","0.0-125.0","A2R9OK4M877ZCC","img_art/16.jpg","3","","","","","","","","","","","","","","","","","","","","","","","","",""
"719","","image-button-response","127","1785813","0.0-126.0","A2R9OK4M877ZCC","img_art/16.jpg","3","","","","","","","","","","","","","","","","","","","","","","","","",""
"2093","","image-button-response","128","1787912","0.0-127.0-0.0","A2R9OK4M877ZCC","img_art/16.jpg","5","","","","","","","","","","","","","","","","","","","","","","","","",""
"1427","","image-button-response","129","1789343","0.0-128.0-0.0","A2R9OK4M877ZCC","img_art/16.jpg","2","","","","","","","","","","","","","","","","","","","","","","","","",""
"null","","html-keyboard-response","130","1790861","0.0-129.0","A2R9OK4M877ZCC","<p style=""font-size: 48px;"">+</p>","","","","","null","allTrialResponses","1500","1","12","img_art/16.jpg","-41","this looks like a ransom note for a child's teddy bear","Edward,Brendan,Nicholas,Brandon,Justin,Alejandro","It feels lazily done,-9,60,20","cool teddy bear,50,340,20","Creepy teddybear,-50,240,20","Don't like this technique. Too serial killer.,-50,320,20","Kind of dull, colors and drawings are not really interesting.,0,280,20","Garble and nonsense,-50,80,20","Brandon","Don't like this technique. Too serial killer.,-50,320,20","Alejandro","Garble and nonsense,-50,80,20","Nicholas","Creepy teddybear,-50,240,20","0"
"22301","","survey-text","131","1813170","0.0-130.0-0.0","A2R9OK4M877ZCC","","","","{""Q0"":""is this tree's in someone's bedroom or nah""}","","","","","","","","","","","","","","","","","","","","","","",""
"3401.899999976158","","image-slider-response","132","1816576","0.0-131.0","A2R9OK4M877ZCC","","","","","16","","","","","","","","","","","","","","","","","","","","","",""
"1932","","image-button-response","133","1821581","0.0-132.0","A2R9OK4M877ZCC","img_art/26.jpg","5","","","","","","","","","","","","","","","","","","","","","","","","",""
"562","","image-button-response","134","1822151","0.0-133.0","A2R9OK4M877ZCC","img_art/26.jpg","5","","","","","","","","","","","","","","","","","","","","","","","","",""
"1087","","image-button-response","135","1823241","0.0-134.0-0.0","A2R9OK4M877ZCC","img_art/26.jpg","0","","","","","","","","","","","","","","","","","","","","","","","","",""
"982","","image-button-response","136","1824227","0.0-135.0-0.0","A2R9OK4M877ZCC","img_art/26.jpg","2","","","","","","","","","","","","","","","","","","","","","","","","",""
"null","","html-keyboard-response","137","1825237","0.0-136.0","A2R9OK4M877ZCC","<p style=""font-size: 48px;"">+</p>","","","","","null","allTrialResponses","1000","1","13","img_art/26.jpg","16","is this tree's in someone's bedroom or nah","Zachary,John,Nicholas,Brandon,Derek,Alejandro","Pretty trees and bushes around fancy brown stones. I like the soft nature.,20,400,20","Its pretty.And a nice use of water colors.,25,120,20","I like the colors and trees. Seems cheap vintage retail store art but i love it anyways,50,240,20","Much too simple and without color for my taste,-33,320,20","Looks messy and like it was painted by a small child,-48,360,20","Do not like water colors at all,-50,80,20","Alejandro","Do not like water colors at all,-50,80,20","Zachary","Pretty trees and bushes around fancy brown stones. I like the soft nature.,20,400,20","Nicholas","I like the colors and trees. Seems cheap vintage retail store art but i love it anyways,50,240,20","0"
"12730","","survey-text","138","1837984","0.0-137.0-0.0","A2R9OK4M877ZCC","","","","{""Q0"":""this looks like it would be a great book cover. ""}","","","","","","","","","","","","","","","","","","","","","","",""
"2913.2999999523163","","image-slider-response","139","1840902","0.0-138.0","A2R9OK4M877ZCC","","","","","39","","","","","","","","","","","","","","","","","","","","","",""
"4153","","image-button-response","140","1845907","0.0-139.0","A2R9OK4M877ZCC","img_art/6.jpg","0","","","","","","","","","","","","","","","","","","","","","","","","",""
"1121","","image-button-response","141","1847035","0.0-140.0","A2R9OK4M877ZCC","img_art/6.jpg","0","","","","","","","","","","","","","","","","","","","","","","","","",""
"2867","","image-button-response","142","1849907","0.0-141.0-0.0","A2R9OK4M877ZCC","img_art/6.jpg","1","","","","","","","","","","","","","","","","","","","","","","","","",""
"1622","","image-button-response","143","1851535","0.0-142.0-0.0","A2R9OK4M877ZCC","img_art/6.jpg","5","","","","","","","","","","","","","","","","","","","","","","","","",""
"null","","html-keyboard-response","144","1853047","0.0-143.0","A2R9OK4M877ZCC","<p style=""font-size: 48px;"">+</p>","","","","","null","allTrialResponses","1500","1","14","img_art/6.jpg","39","this looks like it would be a great book cover. ","Zachary,Dakota,Nicholas,Matthew,James,Alejandro","Reminds me of a plant poking through the soil. It reminds me of new life.,31,400,20","graceful and light,35,280,20","It isnt bad but sort of too bland,0,240,20","A lot of people will lvoe this, I do not.,1,120,20","Nice desert scene,10,380,20","Gives me a feeling of solitude and nothingness,11,80,20","Zachary","Reminds me of a plant poking through the soil. It reminds me of new life.,31,400,20","Dakota","graceful and light,35,280,20","Alejandro","Gives me a feeling of solitude and nothingness,11,80,20","0"
"122816","","survey-text","145","1975882","0.0-144.0-0.0","A2R9OK4M877ZCC","","","","{""Q0"":""looks like its overlooking a waterfall and stream from a cliff""}","","","","","","","","","","","","","","","","","","","","","","",""
"4004","","image-slider-response","146","1979891","0.0-145.0","A2R9OK4M877ZCC","","","","","21","","","","","","","","","","","","","","","","","","","","","",""
"3644","","image-button-response","147","1984896","0.0-146.0","A2R9OK4M877ZCC","img_art/24.jpg","0","","","","","","","","","","","","","","","","","","","","","","","","",""
"335","","image-button-response","148","1985234","0.0-147.0","A2R9OK4M877ZCC","img_art/24.jpg","0","","","","","","","","","","","","","","","","","","","","","","","","",""
"1438","","image-button-response","149","1986675","0.0-148.0-0.0","A2R9OK4M877ZCC","img_art/24.jpg","2","","","","","","","","","","","","","","","","","","","","","","","","",""
"768","","image-button-response","150","1987449","0.0-149.0-0.0","A2R9OK4M877ZCC","img_art/24.jpg","4","","","","","","","","","","","","","","","","","","","","","","","","",""
"null","","html-keyboard-response","151","1988968","0.0-150.0","A2R9OK4M877ZCC","<p style=""font-size: 48px;"">+</p>","","","","","null","allTrialResponses","1500","1","15","img_art/24.jpg","21","looks like its overlooking a waterfall and stream from a cliff","Zachary,Dakota,Adam,Isaac,Daniel,Alejandro","Looks like a beautiful stream rolling through terrain of rocks and flowers.,43,400,20","chunky fresh color,27,280,20","I appreciate the earth tones. Soothing.,5,40,20","The colors are relaxing and cheerful.,32,280,20","Classic palette lacks real world 3d construction,19,320,20","I don't like this painting because of its blottedness. It lacks conviction, direction and purpose.,-31,80,20","Zachary","Looks like a beautiful stream rolling through terrain of rocks and flowers.,43,400,20","Adam","I appreciate the earth tones. Soothing.,5,40,20","Daniel","Classic palette lacks real world 3d construction,19,320,20","0"
"4172","","survey-text","152","1993164","0.0-151.0-0.0","A2R9OK4M877ZCC","","","","{""Q0"":""course""}","","","","","","","","","","","","","","","","","","","","","","",""
"29697","","survey-text","153","2022864","0.0-152.0-0.0","A2R9OK4M877ZCC","","","","{""Q0"":""looks like a football team play chart soaked in gatorade""}","","","","","","","","","","","","","","","","","","","","","","",""
"3248","","image-slider-response","154","2026116","0.0-153.0","A2R9OK4M877ZCC","","","","","-43","","","","","","","","","","","","","","","","","","","","","",""
"1969","","image-button-response","155","2031123","0.0-154.0","A2R9OK4M877ZCC","img_art/27.jpg","4","","","","","","","","","","","","","","","","","","","","","","","","",""
"762","","image-button-response","156","2031891","0.0-155.0","A2R9OK4M877ZCC","img_art/27.jpg","4","","","","","","","","","","","","","","","","","","","","","","","","",""
"3595","","image-button-response","157","2035491","0.0-156.0-0.0","A2R9OK4M877ZCC","img_art/27.jpg","2","","","","","","","","","","","","","","","","","","","","","","","","",""
"844","","image-button-response","158","2036343","0.0-157.0-0.0","A2R9OK4M877ZCC","img_art/27.jpg","0","","","","","","","","","","","","","","","","","","","","","","","","",""
"null","","html-keyboard-response","159","2036846","0.0-158.0","A2R9OK4M877ZCC","<p style=""font-size: 48px;"">+</p>","","","","","null","allTrialResponses","500","1","16","img_art/27.jpg","-43","looks like a football team play chart soaked in gatorade","Zachary,Victor,Adam,Austin,Daniel,Lucas","Color story is boring in nature, and I feel nothing but boredom from this piece.,-20,400,20","doesn't look like any effort was put into this piece.,-19,340,20","Warn colors are pretty, but too blotchy for me.,3,40,20","Like the abstractness of this picture,20,240,20","Nice back ground with childish scribble on top,-30,320,20","No clue what to say.,0,380,20","Daniel","Nice back ground with childish scribble on top,-30,320,20","Adam","Warn colors are pretty, but too blotchy for me.,3,40,20","Zachary","Color story is boring in nature, and I feel nothing but boredom from this piece.,-20,400,20","0"
"34528","","survey-text","160","2071390","0.0-159.0-0.0","A2R9OK4M877ZCC","","","","{""Q0"":""this is dark and weird ""}","","","","","","","","","","","","","","","","","","","","","","",""
"3315","","image-slider-response","161","2074709","0.0-160.0","A2R9OK4M877ZCC","","","","","-40","","","","","","","","","","","","","","","","","","","","","",""
"1182","","image-button-response","162","2079727","0.0-161.0","A2R9OK4M877ZCC","img_art/15.jpg","4","","","","","","","","","","","","","","","","","","","","","","","","",""
"352","","image-button-response","163","2080085","0.0-162.0","A2R9OK4M877ZCC","img_art/15.jpg","4","","","","","","","","","","","","","","","","","","","","","","","","",""
"1209","","image-button-response","164","2081298","0.0-163.0-0.0","A2R9OK4M877ZCC","img_art/15.jpg","0","","","","","","","","","","","","","","","","","","","","","","","","",""
"825","","image-button-response","165","2082129","0.0-164.0-0.0","A2R9OK4M877ZCC","img_art/15.jpg","2","","","","","","","","","","","","","","","","","","","","","","","","",""
"null","","html-keyboard-response","166","2082632","0.0-165.0","A2R9OK4M877ZCC","<p style=""font-size: 48px;"">+</p>","","","","","null","allTrialResponses","500","1","17","img_art/15.jpg","-40","this is dark and weird ","Zachary,Marcus,Adam,Ethan,Daniel,Hunter","Reminds me of blue birds in a tree at night. I love nature.,40,400,20","Interesting, but don't really like it. Gloomy.,-10,60,20","Eyes hunt for the blue in the black.,5,40,20","This piece gave me no emotion. It's ugly to me.,-38,120,20","Dark, drab asymmetrical floral piece,-26,320,20","reminds me of birds in trees,14,240,20","Daniel","Dark, drab asymmetrical floral piece,-26,320,20","Zachary","Reminds me of blue birds in a tree at night. I love nature.,40,400,20","Adam","Eyes hunt for the blue in the black.,5,40,20","0"
"184871","","survey-text","167","2267511","0.0-166.0-0.0","A2R9OK4M877ZCC","","","","{""Q0"":""showgirls dancing in front of a painters backdrop ""}","","","","","","","","","","","","","","","","","","","","","","",""
"5308.199999928474","","image-slider-response","168","2272821","0.0-167.0","A2R9OK4M877ZCC","","","","","-13","","","","","","","","","","","","","","","","","","","","","",""
"4665","","image-button-response","169","2277837","0.0-168.0","A2R9OK4M877ZCC","img_art/23.jpg","5","","","","","","","","","","","","","","","","","","","","","","","","",""
"1128","","image-button-response","170","2278972","0.0-169.0","A2R9OK4M877ZCC","img_art/23.jpg","5","","","","","","","","","","","","","","","","","","","","","","","","",""
"893","","image-button-response","171","2279870","0.0-170.0-0.0","A2R9OK4M877ZCC","img_art/23.jpg","3","","","","","","","","","","","","","","","","","","","","","","","","",""
"1162","","image-button-response","172","2281038","0.0-171.0-0.0","A2R9OK4M877ZCC","img_art/23.jpg","2","","","","","","","","","","","","","","","","","","","","","","","","",""
"null","","html-keyboard-response","173","2281543","0.0-172.0","A2R9OK4M877ZCC","<p style=""font-size: 48px;"">+</p>","","","","","null","allTrialResponses","500","1","18","img_art/23.jpg","-13","showgirls dancing in front of a painters backdrop ","Zachary,Blake,Adam,Joseph,Daniel,Ryan","Vivid colors and the white in the middle looks like people dancing.,31,400,20","cold and dark feeling,-27,280,20","I like the color contrast, though I'm unable to tell what the white shapes are.,25,40,20","Like a wound that has been sutured. Pain, but also healing.,5,220,20","Too busy with color with warrior lineup,0,320,20","One of my favorites, love the colors and how the white looks like humans,50,380,20","Ryan","One of my favorites, love the colors and how the white looks like humans,50,380,20","Joseph","Like a wound that has been sutured. Pain, but also healing.,5,220,20","Adam","I like the color contrast, though I'm unable to tell what the white shapes are.,25,40,20","0"
"19163","","survey-text","174","2300715","0.0-173.0-0.0","A2R9OK4M877ZCC","","","","{""Q0"":""looks like every town in Star wars""}","","","","","","","","","","","","","","","","","","","","","","",""
"3479.6999999284744","","image-slider-response","175","2304199","0.0-174.0","A2R9OK4M877ZCC","","","","","-26","","","","","","","","","","","","","","","","","","","","","",""
"1373","","image-button-response","176","2309205","0.0-175.0","A2R9OK4M877ZCC","img_art/19.jpg","3","","","","","","","","","","","","","","","","","","","","","","","","",""
"663","","image-button-response","177","2309873","0.0-176.0","A2R9OK4M877ZCC","img_art/19.jpg","3","","","","","","","","","","","","","","","","","","","","","","","","",""
"1370","","image-button-response","178","2311246","0.0-177.0-0.0","A2R9OK4M877ZCC","img_art/19.jpg","1","","","","","","","","","","","","","","","","","","","","","","","","",""
"914","","image-button-response","179","2312167","0.0-178.0-0.0","A2R9OK4M877ZCC","img_art/19.jpg","5","","","","","","","","","","","","","","","","","","","","","","","","",""
"null","","html-keyboard-response","180","2313670","0.0-179.0","A2R9OK4M877ZCC","<p style=""font-size: 48px;"">+</p>","","","","","null","allTrialResponses","1500","1","19","img_art/19.jpg","-26","looks like every town in Star wars","Benjamin,Jonathan,Adam,Joseph,Devin,Ryan","Reminds me of a busy village.,16,260,20","Feels like something I would hang in my dining room,42,140,20","Messy mix of colors.,-5,40,20","Too messy and busy. Too much going on there for me.,-12,220,20","Looks a bit too loose,-2,380,20","Its just a nice painting, nothing too special but nothing negative,25,380,20","Joseph","Too messy and busy. Too much going on there for me.,-12,220,20","Jonathan","Feels like something I would hang in my dining room,42,140,20","Ryan","Its just a nice painting, nothing too special but nothing negative,25,380,20","0"
"23525","","survey-text","181","2337215","0.0-180.0-0.0","A2R9OK4M877ZCC","","","","{""Q0"":""is this a clown pickle""}","","","","","","","","","","","","","","","","","","","","","","",""
"3444.2000000476837","","image-slider-response","182","2340662","0.0-181.0","A2R9OK4M877ZCC","","","","","16","","","","","","","","","","","","","","","","","","","","","",""
"1140","","image-button-response","183","2345679","0.0-182.0","A2R9OK4M877ZCC","img_art/2.jpg","5","","","","","","","","","","","","","","","","","","","","","","","","",""
"540","","image-button-response","184","2346223","0.0-183.0","A2R9OK4M877ZCC","img_art/2.jpg","5","","","","","","","","","","","","","","","","","","","","","","","","",""
"1488","","image-button-response","185","2347716","0.0-184.0-0.0","A2R9OK4M877ZCC","img_art/2.jpg","1","","","","","","","","","","","","","","","","","","","","","","","","",""
"683","","image-button-response","186","2348402","0.0-185.0-0.0","A2R9OK4M877ZCC","img_art/2.jpg","2","","","","","","","","","","","","","","","","","","","","","","","","",""
"null","","html-keyboard-response","187","2349404","0.0-186.0","A2R9OK4M877ZCC","<p style=""font-size: 48px;"">+</p>","","","","","null","allTrialResponses","1000","1","20","img_art/2.jpg","16","is this a clown pickle","Bryan,Jonathan,Eric,Joseph,Elijah,Ryan","Like the colors but reminds me of a kids show done in cubism.,0,400,20","It's a cool piece but honestly these color choices are the worst thing in the world,-31,140,20","I like the color, but I feel like I see a creepy face which I dislike.,-5,100,20","Different cultures. I like that it brings differences together.,4,220,20","It's just a splash of paint on a canvas,-31,80,20","Very simple and childish,40,380,20","Ryan","Very simple and childish,40,380,20","Jonathan","It's a cool piece but honestly these color choices are the worst thing in the world,-31,140,20","Eric","I like the color, but I feel like I see a creepy face which I dislike.,-5,100,20","0"
"2521","","survey-text","188","2351941","0.0-187.0-0.0","A2R9OK4M877ZCC","","","","{""Q0"":""we""}","","","","","","","","","","","","","","","","","","","","","","",""
"28510","","survey-text","189","2380455","0.0-188.0-0.0","A2R9OK4M877ZCC","","","","{""Q0"":""looks like an imitation jackson pollack""}","","","","","","","","","","","","","","","","","","","","","","",""
"3622.1999999284744","","image-slider-response","190","2384080","0.0-189.0","A2R9OK4M877ZCC","","","","","-35","","","","","","","","","","","","","","","","","","","","","",""
"2473","","image-button-response","191","2389088","0.0-190.0","A2R9OK4M877ZCC","img_art/13.jpg","5","","","","","","","","","","","","","","","","","","","","","","","","",""
"631","","image-button-response","192","2389725","0.0-191.0","A2R9OK4M877ZCC","img_art/13.jpg","5","","","","","","","","","","","","","","","","","","","","","","","","",""
"1047","","image-button-response","193","2390777","0.0-192.0-0.0","A2R9OK4M877ZCC","img_art/13.jpg","1","","","","","","","","","","","","","","","","","","","","","","","","",""
"824","","image-button-response","194","2391607","0.0-193.0-0.0","A2R9OK4M877ZCC","img_art/13.jpg","0","","","","","","","","","","","","","","","","","","","","","","","","",""
"null","","html-keyboard-response","195","2392614","0.0-194.0","A2R9OK4M877ZCC","<p style=""font-size: 48px;"">+</p>","","","","","null","allTrialResponses","1000","1","21","img_art/13.jpg","-35","looks like an imitation jackson pollack","Anthony,Jonathan,Eric,Tanner,Jason,Ryan","I like the color scheme,41,200,20","It's pretty basic but it makes me feel like I'm looking at the ocean,30,140,20","I love the style of this piece, but the color choice could've been more eye catching or calming.,40,100,20","happy, serenity,30,180,20","Like the color choices,7,20,20","Feels calm and could be placed in anyones house,43,380,20","Ryan","Feels calm and could be placed in anyones house,43,380,20","Jonathan","It's pretty basic but it makes me feel like I'm looking at the ocean,30,140,20","Anthony","I like the color scheme,41,200,20","0"
"24223","","survey-text","196","2416857","0.0-195.0-0.0","A2R9OK4M877ZCC","","","","{""Q0"":""this guy was scary in the movie 300. ""}","","","","","","","","","","","","","","","","","","","","","","",""
"2699.899999976158","","image-slider-response","197","2419561","0.0-196.0","A2R9OK4M877ZCC","","","","","42","","","","","","","","","","","","","","","","","","","","","",""
"2572","","image-button-response","198","2424567","0.0-197.0","A2R9OK4M877ZCC","img_art/25.jpg","4","","","","","","","","","","","","","","","","","","","","","","","","",""
"1719","","image-button-response","199","2426290","0.0-198.0","A2R9OK4M877ZCC","img_art/25.jpg","0","","","","","","","","","","","","","","","","","","","","","","","","",""
"1388","","image-button-response","200","2427682","0.0-199.0-0.0","A2R9OK4M877ZCC","img_art/25.jpg","2","","","","","","","","","","","","","","","","","","","","","","","","",""
"878","","image-button-response","201","2428565","0.0-200.0-0.0","A2R9OK4M877ZCC","img_art/25.jpg","4","","","","","","","","","","","","","","","","","","","","","","","","",""
"null","","html-keyboard-response","202","2429571","0.0-201.0","A2R9OK4M877ZCC","<p style=""font-size: 48px;"">+</p>","","","","","null","allTrialResponses","1000","1","22","img_art/25.jpg","42","this guy was scary in the movie 300. ","Anthony,Jonathan,Nathaniel,Jorge,Bradley,Ryan","Spooky, but in a good way. I like the green and black color palette.,42,200,20","This painting is cool but it gives off an evil vibe,-10,140,20","I love the background color and it's creepy...but cool.,30,220,20","Somewhat feel protected by a messenger,33,180,20","This one just has a dark feeling to me.,-50,300,20","Reminds me of Mr. Burns on drugs in the Simpsons,-50,380,20","Anthony","Spooky, but in a good way. I like the green and black color palette.,42,200,20","Nathaniel","I love the background color and it's creepy...but cool.,30,220,20","Bradley","This one just has a dark feeling to me.,-50,300,20","0"
"23791","","survey-text","203","2453386","0.0-202.0-0.0","A2R9OK4M877ZCC","","","","{""Q0"":""i do not know what I am looking at here. ""}","","","","","","","","","","","","","","","","","","","","","","",""
"3068.0999999046326","","image-slider-response","204","2456458","0.0-203.0","A2R9OK4M877ZCC","","","","","29","","","","","","","","","","","","","","","","","","","","","",""
"1159","","image-button-response","205","2461462","0.0-204.0","A2R9OK4M877ZCC","img_art/17.jpg","5","","","","","","","","","","","","","","","","","","","","","","","","",""
"1412","","image-button-response","206","2462877","0.0-205.0","A2R9OK4M877ZCC","img_art/17.jpg","4","","","","","","","","","","","","","","","","","","","","","","","","",""
"4383","","image-button-response","207","2467262","0.0-206.0-0.0","A2R9OK4M877ZCC","img_art/17.jpg","1","","","","","","","","","","","","","","","","","","","","","","","","",""
"879","","image-button-response","208","2468146","0.0-207.0-0.0","A2R9OK4M877ZCC","img_art/17.jpg","2","","","","","","","","","","","","","","","","","","","","","","","","",""
"null","","html-keyboard-response","209","2469150","0.0-208.0","A2R9OK4M877ZCC","<p style=""font-size: 48px;"">+</p>","","","","","null","allTrialResponses","1000","1","23","img_art/17.jpg","29","i do not know what I am looking at here. ","Anthony,Brett,Nathaniel,Sean,Bradley,Angel","Very elegant, this design reminds me of trees,31,200,20","Looks like an explosion of pretty artwork,45,360,20","I like the artistic sketching pattern.,24,220,20","my response to the picture is that it looks beautiful,27,40,20","It kind of pulls you in to float away with it.,9,300,20","Reminds me of the modern art museum in Rome. I didn't ""get"" many pieces, but had a positive cultural experience overall.,20,180,20","Bradley","It kind of pulls you in to float away with it.,9,300,20","Brett","Looks like an explosion of pretty artwork,45,360,20","Nathaniel","I like the artistic sketching pattern.,24,220,20","0"
"25336","","survey-text","210","2494510","0.0-209.0-0.0","A2R9OK4M877ZCC","","","","{""Q0"":""it looks like a korn album cover""}","","","","","","","","","","","","","","","","","","","","","","",""
"89308.5","","image-slider-response","211","2583823","0.0-210.0","A2R9OK4M877ZCC","","","","","2","","","","","","","","","","","","","","","","","","","","","",""
"1397","","image-button-response","212","2588827","0.0-211.0","A2R9OK4M877ZCC","img_art/28.jpg","4","","","","","","","","","","","","","","","","","","","","","","","","",""
"827","","image-button-response","213","2589660","0.0-212.0","A2R9OK4M877ZCC","img_art/28.jpg","4","","","","","","","","","","","","","","","","","","","","","","","","",""
"971","","image-button-response","214","2590635","0.0-213.0-0.0","A2R9OK4M877ZCC","img_art/28.jpg","2","","","","","","","","","","","","","","","","","","","","","","","","",""
"1467","","image-button-response","215","2592107","0.0-214.0-0.0","A2R9OK4M877ZCC","img_art/28.jpg","5","","","","","","","","","","","","","","","","","","","","","","","","",""
"null","","html-keyboard-response","216","2592611","0.0-215.0","A2R9OK4M877ZCC","<p style=""font-size: 48px;"">+</p>","","","","","null","allTrialResponses","500","1","24","img_art/28.jpg","2","it looks like a korn album cover","Jose,Brett,Nathaniel,Luke,Bradley,Cole","Eh it's just kinda brown and muddy and not very nice looking,-18,200,20","Overpopulated city,35,360,20","Has an air of darkness to it, but no real substance besides the mouse-like thing.,-38,220,20","no clear colors or meaning to evoke emotions,-15,20,20","I think this may have to do with humpty dumpty?,-7,300,20","Is this anything?,-20,200,20","Bradley","I think this may have to do with humpty dumpty?,-7,300,20","Nathaniel","Has an air of darkness to it, but no real substance besides the mouse-like thing.,-38,220,20","Cole","Is this anything?,-20,200,20","0"
"73392","","survey-text","217","2666013","0.0-216.0-0.0","A2R9OK4M877ZCC","","","","{""Q0"":""This looks so much like the 80's and the aztec motif had a baby""}","","","","","","","","","","","","","","","","","","","","","","",""
"3303.600000023842","","image-slider-response","218","2669319","0.0-217.0","A2R9OK4M877ZCC","","","","","-36","","","","","","","","","","","","","","","","","","","","","",""
"1061","","image-button-response","219","2674327","0.0-218.0","A2R9OK4M877ZCC","img_art/12.jpg","4","","","","","","","","","","","","","","","","","","","","","","","","",""
"1284","","image-button-response","220","2675614","0.0-219.0","A2R9OK4M877ZCC","img_art/12.jpg","1","","","","","","","","","","","","","","","","","","","","","","","","",""
"971","","image-button-response","221","2676589","0.0-220.0-0.0","A2R9OK4M877ZCC","img_art/12.jpg","2","","","","","","","","","","","","","","","","","","","","","","","","",""
"863","","image-button-response","222","2677455","0.0-221.0-0.0","A2R9OK4M877ZCC","img_art/12.jpg","5","","","","","","","","","","","","","","","","","","","","","","","","",""
"null","","html-keyboard-response","223","2678969","0.0-222.0","A2R9OK4M877ZCC","<p style=""font-size: 48px;"">+</p>","","","","","null","allTrialResponses","1500","1","25","img_art/12.jpg","-36","This looks so much like the 80's and the aztec motif had a baby","Vincent,Kenneth,Nathaniel,Isaiah,Bradley,Cole","I have seen some like this before very popular and full of life,42,360,20","It's pretty, I find it interesting to look at.,10,300,20","Too many blocks. I can't see a purpose or a focal point,-44,220,20","The painting makes me uncomfortable. The smears in the boxes feel like a giant mess.,-16,300,20","Good technique. It's just not my thing.,2,300,20","Interesting colors. I really dont like modern art though,24,200,20","Kenneth","It's pretty, I find it interesting to look at.,10,300,20","Nathaniel","Too many blocks. I can't see a purpose or a focal point,-44,220,20","Cole","Interesting colors. I really dont like modern art though,24,200,20","0"
"6465","","survey-text","224","2685466","0.0-223.0-0.0","A2R9OK4M877ZCC","","","","{""Q0"":""table""}","","","","","","","","","","","","","","","","","","","","","","",""
"206271","","survey-text","225","2891741","0.0-224.0-0.0","A2R9OK4M877ZCC","","","","{""Q0"":""it looks like leaves stuck in dry mud""}","","","","","","","","","","","","","","","","","","","","","","",""
"6779.700000047684","","image-slider-response","226","2898525","0.0-225.0","A2R9OK4M877ZCC","","","","","-24","","","","","","","","","","","","","","","","","","","","","",""
"1025","","image-button-response","227","2903540","0.0-226.0","A2R9OK4M877ZCC","img_art/7.jpg","4","","","","","","","","","","","","","","","","","","","","","","","","",""
"1141","","image-button-response","228","2904686","0.0-227.0","A2R9OK4M877ZCC","img_art/7.jpg","3","","","","","","","","","","","","","","","","","","","","","","","","",""
"1996","","image-button-response","229","2906685","0.0-228.0-0.0","A2R9OK4M877ZCC","img_art/7.jpg","0","","","","","","","","","","","","","","","","","","","","","","","","",""
"1001","","image-button-response","230","2907692","0.0-229.0-0.0","A2R9OK4M877ZCC","img_art/7.jpg","2","","","","","","","","","","","","","","","","","","","","","","","","",""
"null","","html-keyboard-response","231","2909198","0.0-230.0","A2R9OK4M877ZCC","<p style=""font-size: 48px;"">+</p>","","","","","null","allTrialResponses","1500","1","26","img_art/7.jpg","-24","it looks like leaves stuck in dry mud","Dustin,Kenneth,Nathaniel,Jared,Evan,Cole","I see dryness, which is sad. Dirt, sand, the dessert. Barren dry lifeless,-30,20,20","My firs thought was ""gross""...not sure what this is and I dont think i want to know.,-19,300,20","It gives off an alien-like vastness of space vibe which I like,9,220,20","it looks like a dog ran through some wet cement,-22,400,20","I feel confused, am I looking at a painting or a close up picture of some sort of fly stone?,-19,140,20","Are these ancient cave paintings?,-7,200,20","Jared","it looks like a dog ran through some wet cement,-22,400,20","Dustin","I see dryness, which is sad. Dirt, sand, the dessert. Barren dry lifeless,-30,20,20","Nathaniel","It gives off an alien-like vastness of space vibe which I like,9,220,20","0"
"31013","","survey-text","232","2940237","0.0-231.0-0.0","A2R9OK4M877ZCC","","","","{""Q0"":""a duck stepping on a peacock feather""}","","","","","","","","","","","","","","","","","","","","","","",""
"32089.700000047684","","image-slider-response","233","2972329","0.0-232.0","A2R9OK4M877ZCC","","","","","-20","","","","","","","","","","","","","","","","","","","","","",""
"1938","","image-button-response","234","2977345","0.0-233.0","A2R9OK4M877ZCC","img_art/5.jpg","4","","","","","","","","","","","","","","","","","","","","","","","","",""
"60987","","image-button-response","235","3038334","0.0-234.0","A2R9OK4M877ZCC","img_art/5.jpg","5","","","","","","","","","","","","","","","","","","","","","","","","",""
"1252","","image-button-response","236","3039589","0.0-235.0-0.0","A2R9OK4M877ZCC","img_art/5.jpg","0","","","","","","","","","","","","","","","","","","","","","","","","",""
"886","","image-button-response","237","3040479","0.0-236.0-0.0","A2R9OK4M877ZCC","img_art/5.jpg","2","","","","","","","","","","","","","","","","","","","","","","","","",""
"null","","html-keyboard-response","238","3041985","0.0-237.0","A2R9OK4M877ZCC","<p style=""font-size: 48px;"">+</p>","","","","","null","allTrialResponses","1500","1","27","img_art/5.jpg","-20","a duck stepping on a peacock feather","Dustin,Timothy,Nathaniel,Jared,Alex,Peter","I don't get it at all. But, maybe it is the top portion of a piece of fruit.,-50,20,20","This feels joyful,39,240,20","Not sure what that even is. Looks like a 2-year old drawing,-40,220,20","i dont like the yellow or the shape,-26,400,20","What is this? It looks like no effort was put into this work,-2,100,20","Bright and sunny,19,320,20","Peter","Bright and sunny,19,320,20","Dustin","I don't get it at all. But, maybe it is the top portion of a piece of fruit.,-50,20,20","Nathaniel","Not sure what that even is. Looks like a 2-year old drawing,-40,220,20","0"
"25859","","survey-text","239","3067877","0.0-238.0-0.0","A2R9OK4M877ZCC","","","","{""Q0"":""looks like a guy dunking a basketball in the inner city""}","","","","","","","","","","","","","","","","","","","","","","",""
"2953.7000000476837","","image-slider-response","240","3070835","0.0-239.0","A2R9OK4M877ZCC","","","","","35","","","","","","","","","","","","","","","","","","","","","",""
"3897","","image-button-response","241","3075841","0.0-240.0","A2R9OK4M877ZCC","img_art/22.jpg","0","","","","","","","","","","","","","","","","","","","","","","","","",""
"1019","","image-button-response","242","3076865","0.0-241.0","A2R9OK4M877ZCC","img_art/22.jpg","2","","","","","","","","","","","","","","","","","","","","","","","","",""
"894","","image-button-response","243","3077764","0.0-242.0-0.0","A2R9OK4M877ZCC","img_art/22.jpg","5","","","","","","","","","","","","","","","","","","","","","","","","",""
"529","","image-button-response","244","3078298","0.0-243.0-0.0","A2R9OK4M877ZCC","img_art/22.jpg","4","","","","","","","","","","","","","","","","","","","","","","","","",""
"null","","html-keyboard-response","245","3079806","0.0-244.0","A2R9OK4M877ZCC","<p style=""font-size: 48px;"">+</p>","","","","","null","allTrialResponses","1500","1","28","img_art/22.jpg","35","looks like a guy dunking a basketball in the inner city","Dustin,Tristan,Nathaniel,Ian,Patrick,Peter","Too much red. The red/yellow/orange make me think of heat/fire, which makes me anxious.,-10,20,20","I appreciate the shapes but the abundance of primary colors make it seem garrish.,-10,300,20","Looks like a giant blob,-45,220,20","Its very warm, it reminds of someone not liking their painting so they destoryed it,26,260,20","Looks like a warm sunset to me i like it,42,280,20","Just neutral no feelings,2,320,20","Nathaniel","Looks like a giant blob,-45,220,20","Peter","Just neutral no feelings,2,320,20","Patrick","Looks like a warm sunset to me i like it,42,280,20","0"
"65686","","survey-text","246","3145517","0.0-245.0-0.0","A2R9OK4M877ZCC","","","","{""Q0"":""I am unsure what this is but it is neat.""}","","","","","","","","","","","","","","","","","","","","","","",""
"3037.5999999046326","","image-slider-response","247","3148560","0.0-246.0","A2R9OK4M877ZCC","","","","","23","","","","","","","","","","","","","","","","","","","","","",""
"1046","","image-button-response","248","3153579","0.0-247.0","A2R9OK4M877ZCC","img_art/14.jpg","3","","","","","","","","","","","","","","","","","","","","","","","","",""
"327","","image-button-response","249","3153910","0.0-248.0","A2R9OK4M877ZCC","img_art/14.jpg","4","","","","","","","","","","","","","","","","","","","","","","","","",""
"1807","","image-button-response","250","3155721","0.0-249.0-0.0","A2R9OK4M877ZCC","img_art/14.jpg","1","","","","","","","","","","","","","","","","","","","","","","","","",""
"1009","","image-button-response","251","3156735","0.0-250.0-0.0","A2R9OK4M877ZCC","img_art/14.jpg","0","","","","","","","","","","","","","","","","","","","","","","","","",""
"null","","html-keyboard-response","252","3158251","0.0-251.0","A2R9OK4M877ZCC","<p style=""font-size: 48px;"">+</p>","","","","","null","allTrialResponses","1500","1","29","img_art/14.jpg","23","I am unsure what this is but it is neat.","Michael,Garrett,Nathaniel,Christopher,Patrick,Peter","Looks like there is some skill but also at the same time parts look unskilled.,-16,140,20","I like this picture because it looks like a tree and the colors used look cool.,20,180,20","Not quite the style I'd like, but it does have a certain air of emptiness.,12,220,20","this looks pretty childish,-15,160,20","It uplifts my mood due to the color scheme,32,280,20","I like that it's like a snippet of a field in the desert,21,320,20","Patrick","It uplifts my mood due to the color scheme,32,280,20","Garrett","I like this picture because it looks like a tree and the colors used look cool.,20,180,20","Michael","Looks like there is some skill but also at the same time parts look unskilled.,-16,140,20","0"
"23096","","survey-text","253","3181371","0.0-252.0-0.0","A2R9OK4M877ZCC","","","","{""Q0"":""it looks like someone smearing doo doo. ""}","","","","","","","","","","","","","","","","","","","","","","",""
"3463.1999999284744","","image-slider-response","254","3184839","0.0-253.0","A2R9OK4M877ZCC","","","","","-49","","","","","","","","","","","","","","","","","","","","","",""
"4511","","image-button-response","255","3189844","0.0-254.0","A2R9OK4M877ZCC","img_art/4.jpg","5","","","","","","","","","","","","","","","","","","","","","","","","",""
"1255","","image-button-response","256","3191106","0.0-255.0","A2R9OK4M877ZCC","img_art/4.jpg","5","","","","","","","","","","","","","","","","","","","","","","","","",""
"1326","","image-button-response","257","3192436","0.0-256.0-0.0","A2R9OK4M877ZCC","img_art/4.jpg","0","","","","","","","","","","","","","","","","","","","","","","","","",""
"872","","image-button-response","258","3193312","0.0-257.0-0.0","A2R9OK4M877ZCC","img_art/4.jpg","2","","","","","","","","","","","","","","","","","","","","","","","","",""
"null","","html-keyboard-response","259","3194330","0.0-258.0","A2R9OK4M877ZCC","<p style=""font-size: 48px;"">+</p>","","","","","null","allTrialResponses","1000","1","30","img_art/4.jpg","-49","it looks like someone smearing doo doo. ","Michael,Garrett,Seth,Tyler,Patrick,Nathan","Looks like a child did it.,-42,140,20","I think that this picture is too boring in terms of color and it looks ugly.,-41,180,20","Odd but intriguing. I feel emotion from this. Like a woman bent over carrying these emotions on her back.,33,60,20","This is what makes suburban dads say, ""my 4-year-old can do that."",-49,320,20","Random swirls again,-30,280,20","Not my preference when it comes to art styles or subjects,-10,200,20","Nathan","Not my preference when it comes to art styles or subjects,-10,200,20","Michael","Looks like a child did it.,-42,140,20","Seth","Odd but intriguing. I feel emotion from this. Like a woman bent over carrying these emotions on her back.,33,60,20","0"
"2064","","image-button-response_instructions","260","3196417","0.0-259.0","A2R9OK4M877ZCC","","0","instructions","","","","","","","","","","","","","","","","","","","","","","","",""
"1005","","image-button-response","261","3197439","0.0-260.0","A2R9OK4M877ZCC","","0","","","","","","","","","","","","","","","","","","","","","","","","",""
