"rt","url","trial_type","trial_index","time_elapsed","internal_node_id","participant_id","stimulus","button_pressed","Name","responses","response","key_press","variableName","fixationTime","condition","trial","photo","subjectRating","subjectResponse","agentsNames","agent_1_Response","agent_2_Response","agent_3_Response","agent_4_Response","agent_5_Response","agent_6_Response","kept_1_name","kept_1_response","kept_2_name","kept_2_response","kept_3_name","kept_3_response","errorCounter"
"120384","external_page_harvard.html","external-html","0","120487","0.0-0.0","A2RBVMD2HTBCZ9","","","","","","","","","","","","","","","","","","","","","","","","","","",""
"1292","","image-button-response","1","121783","0.0-1.0","A2RBVMD2HTBCZ9","","1","","","","","","","","","","","","","","","","","","","","","","","","",""
"1363","","image-button-response","2","123152","0.0-2.0-0.0","A2RBVMD2HTBCZ9","","1","phone","","","","","","","","","","","","","","","","","","","","","","","",""
"5037","","survey-text","3","128191","0.0-3.0-0.0","A2RBVMD2HTBCZ9","","","","{""Q0"":""A2RBVMD2HTBCZ9""}","","","","","","","","","","","","","","","","","","","","","","",""
"6910","","image-button-response_instructions","4","135103","0.0-4.0","A2RBVMD2HTBCZ9","","0","instructions","","","","","","","","","","","","","","","","","","","","","","","",""
"12064","","image-button-response_instructions","5","147168","0.0-5.0","A2RBVMD2HTBCZ9","img_art/ins/popularity/ins1.png","0","instructions","","","","","","","","","","","","","","","","","","","","","","","",""
"4615","","image-button-response_instructions","6","151785","0.0-6.0","A2RBVMD2HTBCZ9","img_art/ins/popularity/ins2.png","0","instructions","","","","","","","","","","","","","","","","","","","","","","","",""
"3414","","image-button-response_instructions","7","155201","0.0-7.0","A2RBVMD2HTBCZ9","img_art/ins/popularity/ins2Extreme.png","0","instructions","","","","","","","","","","","","","","","","","","","","","","","",""
"6008","","image-button-response_instructions","8","161211","0.0-8.0","A2RBVMD2HTBCZ9","img_art/ins/popularity/ins3KEEPpop.PNG","0","instructions","","","","","","","","","","","","","","","","","","","","","","","",""
"3022","","image-button-response_instructions","9","164234","0.0-9.0","A2RBVMD2HTBCZ9","img_art/ins/popularity/ins3ANamepop.PNG","0","instructions","","","","","","","","","","","","","","","","","","","","","","","",""
"4303","","image-button-response_instructions","10","168539","0.0-10.0","A2RBVMD2HTBCZ9","img_art/ins/popularity/ins3ARatingpop.png","0","instructions","","","","","","","","","","","","","","","","","","","","","","","",""
"2630","","image-button-response_instructions","11","171170","0.0-11.0","A2RBVMD2HTBCZ9","img_art/ins/popularity/ins3ATextpop.png","0","instructions","","","","","","","","","","","","","","","","","","","","","","","",""
"5422","","image-button-response_instructions","12","176594","0.0-12.0","A2RBVMD2HTBCZ9","img_art/ins/popularity/ins3ALikespop.png","0","instructions","","","","","","","","","","","","","","","","","","","","","","","",""
"12640","","image-button-response_instructions","13","189236","0.0-13.0","A2RBVMD2HTBCZ9","img_art/ins/popularity/ins3KEEPpop.PNG","0","instructions","","","","","","","","","","","","","","","","","","","","","","","",""
"5375","","image-button-response_instructions","14","194612","0.0-14.0","A2RBVMD2HTBCZ9","img_art/ins/popularity/ins3_5RED.png","0","instructions","","","","","","","","","","","","","","","","","","","","","","","",""
"4623","","image-button-response_instructions","15","199236","0.0-15.0","A2RBVMD2HTBCZ9","img_art/ins/popularity/ins3KEEPpop.PNG","0","instructions","","","","","","","","","","","","","","","","","","","","","","","",""
"15415","","image-button-response_instructions","16","214653","0.0-16.0","A2RBVMD2HTBCZ9","img_art/ins/popularity/ins4KEEPpop.PNG","0","instructions","","","","","","","","","","","","","","","","","","","","","","","",""
"2671","","image-button-response_instructions","17","217325","0.0-17.0","A2RBVMD2HTBCZ9","img_art/ins/popularity/ins5KEEPpop.PNG","0","instructions","","","","","","","","","","","","","","","","","","","","","","","",""
"1191","","image-button-response_instructions","18","218518","0.0-18.0","A2RBVMD2HTBCZ9","","0","instructions","","","","","","","","","","","","","","","","","","","","","","","",""
"4798","","survey-text","19","223341","0.0-19.0-0.0","A2RBVMD2HTBCZ9","","","","{""Q0"":""but""}","","","","","","","","","","","","","","","","","","","","","","",""
"30009","","survey-text","20","253351","0.0-20.0-0.0","A2RBVMD2HTBCZ9","","","","{""Q0"":""it looks like \""modern\"" art, not quite my style, I prefer paintings of things, no just random colors, its pomous and ignorable.""}","","","","","","","","","","","","","","","","","","","","","","",""
"5981","","image-slider-response","21","259336","0.0-21.0","A2RBVMD2HTBCZ9","","","","","-42","","","","","","","","","","","","","","","","","","","","","",""
"4350","","image-button-response","22","264344","0.0-22.0","A2RBVMD2HTBCZ9","img_art/ins/1.jpg","1","","","","","","","","","","","","","","","","","","","","","","","","",""
"1104","","image-button-response","23","265450","0.0-23.0","A2RBVMD2HTBCZ9","img_art/ins/1.jpg","1","","","","","","","","","","","","","","","","","","","","","","","","",""
"7669","","image-button-response","24","273122","0.0-24.0-0.0","A2RBVMD2HTBCZ9","img_art/ins/1.jpg","3","","","","","","","","","","","","","","","","","","","","","","","","",""
"10478","","image-button-response","25","283602","0.0-25.0-0.0","A2RBVMD2HTBCZ9","img_art/ins/1.jpg","5","","","","","","","","","","","","","","","","","","","","","","","","",""
"null","","html-keyboard-response","26","285113","0.0-26.0","A2RBVMD2HTBCZ9","<p style=""font-size: 48px;"">+</p>","","","","","null","allTrialResponses","1500","1","-2","img_art/ins/1.jpg","-42","it looks like ""modern"" art, not quite my style, I prefer paintings of things, no just random colors, its pomous and ignorable.","Allison,Ashley,Beth,Dora,Erika,Jen","looks like a lot of things going on in the mist,20,20,20","I just don't get why these type of art would be popular,-32,40,20","This color reminds me of poo,-46,60,20","looks like what my niece in 3rd grade did this afternoon,-50,80,20","I like the sophisticated brushwork,40,100,20","It reminds me of a candy land dream I had,36,120,20","Ashley","I just don't get why these type of art would be popular,-32,40,20","Dora","looks like what my niece in 3rd grade did this afternoon,-50,80,20","Jen","It reminds me of a candy land dream I had,36,120,20","0"
"18820","","survey-text","27","303939","0.0-27.0-0.0","A2RBVMD2HTBCZ9","","","","{""Q0"":""I do like the texture of this painting, but I wish it were something more, overall, a disappointment.""}","","","","","","","","","","","","","","","","","","","","","","",""
"3461","","image-slider-response","28","307402","0.0-28.0","A2RBVMD2HTBCZ9","","","","","-23","","","","","","","","","","","","","","","","","","","","","",""
"null","","image-button-response","29","312412","0.0-29.0","A2RBVMD2HTBCZ9","img_art/ins/2.jpg","null","","","","","","","","","","","","","","","","","","","","","","","","",""
"7736","","image-button-response","30","320148","0.0-30.0","A2RBVMD2HTBCZ9","img_art/ins/2.jpg","2","","","","","","","","","","","","","","","","","","","","","","","","",""
"487","","image-button-response","31","320636","0.0-31.0-0.0","A2RBVMD2HTBCZ9","img_art/ins/2.jpg","0","","","","","","","","","","","","","","","","","","","","","","","","",""
"1383","","image-button-response","32","322021","0.0-32.0-0.0","A2RBVMD2HTBCZ9","img_art/ins/2.jpg","0","","","","","","","","","","","","","","","","","","","","","","","","",""
"5632","","image-button-response","33","331269","0.0-32.1-0.1","A2RBVMD2HTBCZ9","img_art/ins/2.jpg","5","","","","","","","","","","","","","","","","","","","","","","","","",""
"null","","html-keyboard-response","34","332781","0.0-33.0","A2RBVMD2HTBCZ9","<p style=""font-size: 48px;"">+</p>","","","","","null","allTrialResponses","1500","1","-1","img_art/ins/2.jpg","-23","I do like the texture of this painting, but I wish it were something more, overall, a disappointment.","Jenna,Ashley,Katie,Dora,Kara,Jen","One of my pet peevs,-48,140,20","Idk, it is just annoying,-32,40,20","too much color!,-28,180,20","looks too angry,-50,80,20","I like the blocks of color arrangements,30,160,20","It reminds me of a fireplace,36,120,20","Katie","too much color!,-28,180,20","Jenna","One of my pet peevs,-48,140,20","Jen","It reminds me of a fireplace,36,120,20","2"
"16494","","survey-text","35","349278","0.0-34.0-0.0","A2RBVMD2HTBCZ9","","","","{""Q0"":""I'm frankly not impressed, this looks like a scam""}","","","","","","","","","","","","","","","","","","","","","","",""
"5199","","image-slider-response","36","354479","0.0-35.0","A2RBVMD2HTBCZ9","","","","","-34","","","","","","","","","","","","","","","","","","","","","",""
"null","","image-button-response","37","359489","0.0-36.0","A2RBVMD2HTBCZ9","img_art/ins/3.jpg","null","","","","","","","","","","","","","","","","","","","","","","","","",""
"2541","","image-button-response","38","362031","0.0-37.0","A2RBVMD2HTBCZ9","img_art/ins/3.jpg","2","","","","","","","","","","","","","","","","","","","","","","","","",""
"805","","image-button-response","39","362838","0.0-38.0-0.0","A2RBVMD2HTBCZ9","img_art/ins/3.jpg","1","","","","","","","","","","","","","","","","","","","","","","","","",""
"607","","image-button-response","40","363447","0.0-39.0-0.0","A2RBVMD2HTBCZ9","img_art/ins/3.jpg","0","","","","","","","","","","","","","","","","","","","","","","","","",""
"null","","html-keyboard-response","41","364959","0.0-40.0","A2RBVMD2HTBCZ9","<p style=""font-size: 48px;"">+</p>","","","","","null","allTrialResponses","1500","1","0","img_art/ins/3.jpg","-34","I'm frankly not impressed, this looks like a scam","Jenna,Rose,Katie,Leslie,Mary,Jen","looks like a murder room,-35,140,20","My daily routine, it's depressing,-20,240,20","It looks depressing,-26,180,20","It's an alright work,15,200,20","I like the overlapping of brushes,41,220,20","I can feel a rainy day from this painting,18,120,20","Katie","It looks depressing,-26,180,20","Rose","My daily routine, it's depressing,-20,240,20","Jenna","looks like a murder room,-35,140,20","2"
"5037","","image-button-response_instructions","42","370000","0.0-41.0","A2RBVMD2HTBCZ9","","0","instructions","","","","","","","","","","","","","","","","","","","","","","","",""
"12641","","survey-likert","43","382642","0.0-42.0-0.0","A2RBVMD2HTBCZ9","","","","{""Q0"":"""",""Q1"":0,""Q2"":1}","","","","","","","","","","","","","","","","","","","","","","",""
"2599","","survey-text","44","385244","0.0-43.0-0.0","A2RBVMD2HTBCZ9","","","","{""Q0"":""rock""}","","","","","","","","","","","","","","","","","","","","","","",""
"16894","","survey-text","45","402141","0.0-44.0-0.0","A2RBVMD2HTBCZ9","","","","{""Q0"":""This is quite nice, it looks like a tree in a field, but also looks kinda childish""}","","","","","","","","","","","","","","","","","","","","","","",""
"3987","","image-slider-response","46","406130","0.0-45.0","A2RBVMD2HTBCZ9","","","","","1","","","","","","","","","","","","","","","","","","","","","",""
"null","","image-button-response","47","411147","0.0-46.0","A2RBVMD2HTBCZ9","img_art/14.jpg","null","","","","","","","","","","","","","","","","","","","","","","","","",""
"758","","image-button-response","48","411906","0.0-47.0","A2RBVMD2HTBCZ9","img_art/14.jpg","0","","","","","","","","","","","","","","","","","","","","","","","","",""
"2567","","image-button-response","49","414475","0.0-48.0-0.0","A2RBVMD2HTBCZ9","img_art/14.jpg","5","","","","","","","","","","","","","","","","","","","","","","","","",""
"2238","","image-button-response","50","416715","0.0-49.0-0.0","A2RBVMD2HTBCZ9","img_art/14.jpg","3","","","","","","","","","","","","","","","","","","","","","","","","",""
"null","","html-keyboard-response","51","418226","0.0-50.0","A2RBVMD2HTBCZ9","<p style=""font-size: 48px;"">+</p>","","","","","null","allTrialResponses","1500","1","1","img_art/14.jpg","1","This is quite nice, it looks like a tree in a field, but also looks kinda childish","Jenna,Victoria,Sydney,Jessica,Shelby,Meghan","love the colors. despite their brightness it seems sad somehow.,41,360,20","calming to look at,37,400,20","I'm imagining a flower bouquet with pretty colors which I like.,35,320,20","I kind of like it!,6,400,20","Something about the cahotic imagery makes me uncomfortable,-15,240,20","its okay nothing special,11,220,20","Jenna","love the colors. despite their brightness it seems sad somehow.,41,360,20","Meghan","its okay nothing special,11,220,20","Jessica","I kind of like it!,6,400,20","2"
"11720","","survey-text","52","429950","0.0-51.0-0.0","A2RBVMD2HTBCZ9","","","","{""Q0"":""this painting makes me uneasy, like tricophobia""}","","","","","","","","","","","","","","","","","","","","","","",""
"3459","","image-slider-response","53","433412","0.0-52.0","A2RBVMD2HTBCZ9","","","","","-42","","","","","","","","","","","","","","","","","","","","","",""
"null","","image-button-response","54","438416","0.0-53.0","A2RBVMD2HTBCZ9","img_art/15.jpg","null","","","","","","","","","","","","","","","","","","","","","","","","",""
"6289","","image-button-response","55","444707","0.0-54.0","A2RBVMD2HTBCZ9","img_art/15.jpg","2","","","","","","","","","","","","","","","","","","","","","","","","",""
"566","","image-button-response","56","445274","0.0-55.0-0.0","A2RBVMD2HTBCZ9","img_art/15.jpg","1","","","","","","","","","","","","","","","","","","","","","","","","",""
"942","","image-button-response","57","446218","0.0-56.0-0.0","A2RBVMD2HTBCZ9","img_art/15.jpg","3","","","","","","","","","","","","","","","","","","","","","","","","",""
"null","","html-keyboard-response","58","446726","0.0-57.0","A2RBVMD2HTBCZ9","<p style=""font-size: 48px;"">+</p>","","","","","null","allTrialResponses","500","1","2","img_art/15.jpg","-42","this painting makes me uneasy, like tricophobia","Jenna,Savannah,Heather,Jessica,Caroline,Meghan","interesting technique. the blue is very pretty,18,360,20","Love the accent colors in this piece!,20,200,20","black leaves makes the blue birds stand out.,1,260,20","I think it's trying to execute a cool idea, but unfortunately it doesn't appeal,5,400,20","Makes me think of a bush and flowers and spring and happy warm times,25,100,20","I like the pattern of it,11,220,20","Heather","black leaves makes the blue birds stand out.,1,260,20","Savannah","Love the accent colors in this piece!,20,200,20","Jessica","I think it's trying to execute a cool idea, but unfortunately it doesn't appeal,5,400,20","2"
"19146","","survey-text","59","465877","0.0-58.0-0.0","A2RBVMD2HTBCZ9","","","","{""Q0"":""This reminds me of the paintings salvador dali used to do, very surrealist, quite nice, interesting scene""}","","","","","","","","","","","","","","","","","","","","","","",""
"7055","","image-slider-response","60","472934","0.0-59.0","A2RBVMD2HTBCZ9","","","","","29","","","","","","","","","","","","","","","","","","","","","",""
"null","","image-button-response","61","477945","0.0-60.0","A2RBVMD2HTBCZ9","img_art/20.jpg","null","","","","","","","","","","","","","","","","","","","","","","","","",""
"557","","image-button-response","62","478502","0.0-61.0","A2RBVMD2HTBCZ9","img_art/20.jpg","1","","","","","","","","","","","","","","","","","","","","","","","","",""
"1622","","image-button-response","63","480126","0.0-62.0-0.0","A2RBVMD2HTBCZ9","img_art/20.jpg","3","","","","","","","","","","","","","","","","","","","","","","","","",""
"5728","","image-button-response","64","485856","0.0-63.0-0.0","A2RBVMD2HTBCZ9","img_art/20.jpg","4","","","","","","","","","","","","","","","","","","","","","","","","",""
"null","","html-keyboard-response","65","487364","0.0-64.0","A2RBVMD2HTBCZ9","<p style=""font-size: 48px;"">+</p>","","","","","null","allTrialResponses","1500","1","3","img_art/20.jpg","29","This reminds me of the paintings salvador dali used to do, very surrealist, quite nice, interesting scene","Samantha,Savannah,Heather,Jessica,Miranda,Megan","Use of white on foreground is too big and steals eyes away from rest of painting,2,140,20","Lovely composition, colors, and message.,35,200,20","make me feel like its a little country maybe a tractor and a skull head of a bull,1,260,20","It looks painted really nicely.,5,400,20","A painting within a painting, the inner painting looks like a car crash with a semi truck.,21,320,20","Fails to capture what similar styles do,-12,200,20","Savannah","Lovely composition, colors, and message.,35,200,20","Jessica","It looks painted really nicely.,5,400,20","Miranda","A painting within a painting, the inner painting looks like a car crash with a semi truck.,21,320,20","2"
"27636","","survey-text","66","515005","0.0-65.0-0.0","A2RBVMD2HTBCZ9","","","","{""Q0"":""If it didn't have the giant red x over it, this would be quite nice, someone spoiled it like a child though""}","","","","","","","","","","","","","","","","","","","","","","",""
"3939","","image-slider-response","67","518946","0.0-66.0","A2RBVMD2HTBCZ9","","","","","-22","","","","","","","","","","","","","","","","","","","","","",""
"null","","image-button-response","68","523952","0.0-67.0","A2RBVMD2HTBCZ9","img_art/29.jpg","null","","","","","","","","","","","","","","","","","","","","","","","","",""
"606","","image-button-response","69","524560","0.0-68.0","A2RBVMD2HTBCZ9","img_art/29.jpg","1","","","","","","","","","","","","","","","","","","","","","","","","",""
"1614","","image-button-response","70","526176","0.0-69.0-0.0","A2RBVMD2HTBCZ9","img_art/29.jpg","2","","","","","","","","","","","","","","","","","","","","","","","","",""
"6469","","image-button-response","71","532646","0.0-70.0-0.0","A2RBVMD2HTBCZ9","img_art/29.jpg","5","","","","","","","","","","","","","","","","","","","","","","","","",""
"null","","html-keyboard-response","72","533152","0.0-71.0","A2RBVMD2HTBCZ9","<p style=""font-size: 48px;"">+</p>","","","","","null","allTrialResponses","500","1","4","img_art/29.jpg","-22","If it didn't have the giant red x over it, this would be quite nice, someone spoiled it like a child though","Gabrielle,Savannah,Hannah,Jessica,Miranda,Kaylee","it's OK, no clue to what's going on but good use of light and dark,4,160,20","Looks wrong. Like a real painting was vandalized.,-50,200,20","I don't like the red X through it.,-20,240,20","It looks cool but I don't really get what's going on, it looks too busy,0,400,20","This feels chaotic and I like the energy that it gives off.,21,320,20","it looks like a prison,-33,200,20","Savannah","Looks wrong. Like a real painting was vandalized.,-50,200,20","Hannah","I don't like the red X through it.,-20,240,20","Kaylee","it looks like a prison,-33,200,20","2"
"18413","","survey-text","73","551569","0.0-72.0-0.0","A2RBVMD2HTBCZ9","","","","{""Q0"":""the green in the middle makes me feel like a child drew on this with crayon, i hate it""}","","","","","","","","","","","","","","","","","","","","","","",""
"6642","","image-slider-response","74","558212","0.0-73.0","A2RBVMD2HTBCZ9","","","","","-50","","","","","","","","","","","","","","","","","","","","","",""
"null","","image-button-response","75","563221","0.0-74.0","A2RBVMD2HTBCZ9","img_art/27.jpg","null","","","","","","","","","","","","","","","","","","","","","","","","",""
"3775","","image-button-response","76","566997","0.0-75.0","A2RBVMD2HTBCZ9","img_art/27.jpg","1","","","","","","","","","","","","","","","","","","","","","","","","",""
"592","","image-button-response","77","567590","0.0-76.0-0.0","A2RBVMD2HTBCZ9","img_art/27.jpg","0","","","","","","","","","","","","","","","","","","","","","","","","",""
"4230","","image-button-response","78","571821","0.0-77.0-0.0","A2RBVMD2HTBCZ9","img_art/27.jpg","3","","","","","","","","","","","","","","","","","","","","","","","","",""
"null","","html-keyboard-response","79","572331","0.0-78.0","A2RBVMD2HTBCZ9","<p style=""font-size: 48px;"">+</p>","","","","","null","allTrialResponses","500","1","5","img_art/27.jpg","-50","the green in the middle makes me feel like a child drew on this with crayon, i hate it","Briana,Savannah,Hannah,Caitlin,Mackenzie,Kaylee","Unfinished something?,-30,400,20","An abstract piece with such lifeless colors.,-26,200,20","Reminds me of something I'd see in a gold frame from the Eighties.,-9,240,20","Looks like a child added his own interpretation with a black marker.,-5,80,20","The color palette isn't my taste,-24,20,20","nice firestorm on desert,23,200,20","Savannah","An abstract piece with such lifeless colors.,-26,200,20","Briana","Unfinished something?,-30,400,20","Caitlin","Looks like a child added his own interpretation with a black marker.,-5,80,20","2"
"2224","","survey-text","80","574562","0.0-79.0-0.0","A2RBVMD2HTBCZ9","","","","{""Q0"":""sky""}","","","","","","","","","","","","","","","","","","","","","","",""
"14638","","survey-text","81","589202","0.0-80.0-0.0","A2RBVMD2HTBCZ9","","","","{""Q0"":""interesting piece, not much to say about it, quite neutral""}","","","","","","","","","","","","","","","","","","","","","","",""
"5242","","image-slider-response","82","594446","0.0-81.0","A2RBVMD2HTBCZ9","","","","","0","","","","","","","","","","","","","","","","","","","","","",""
"null","","image-button-response","83","599449","0.0-82.0","A2RBVMD2HTBCZ9","img_art/28.jpg","null","","","","","","","","","","","","","","","","","","","","","","","","",""
"6957","","image-button-response","84","606408","0.0-83.0","A2RBVMD2HTBCZ9","img_art/28.jpg","5","","","","","","","","","","","","","","","","","","","","","","","","",""
"1582","","image-button-response","85","607991","0.0-84.0-0.0","A2RBVMD2HTBCZ9","img_art/28.jpg","2","","","","","","","","","","","","","","","","","","","","","","","","",""
"2748","","image-button-response","86","610743","0.0-85.0-0.0","A2RBVMD2HTBCZ9","img_art/28.jpg","0","","","","","","","","","","","","","","","","","","","","","","","","",""
"null","","html-keyboard-response","87","611249","0.0-86.0","A2RBVMD2HTBCZ9","<p style=""font-size: 48px;"">+</p>","","","","","null","allTrialResponses","500","1","6","img_art/28.jpg","0","interesting piece, not much to say about it, quite neutral","Briana,Savannah,Kylie,Caitlin,Madison,Alexis","Is this anything?,-20,400,20","White and dark balance is way off- Seems dull.,-33,200,20","Overpopulated city,35,300,20","Bug meets bug in a dark alley.,-20,80,20","It's okay. There is harmony and balance.,11,60,20","Interesting. I like the ""old woman"" on the left. Lots of different entities to look at,21,100,20","Alexis","Interesting. I like the ""old woman"" on the left. Lots of different entities to look at,21,100,20","Kylie","Overpopulated city,35,300,20","Briana","Is this anything?,-20,400,20","2"
"18824","","survey-text","88","630077","0.0-87.0-0.0","A2RBVMD2HTBCZ9","","","","{""Q0"":""reminds me of a cityscape in China""}","","","","","","","","","","","","","","","","","","","","","","",""
"5126","","image-slider-response","89","635205","0.0-88.0","A2RBVMD2HTBCZ9","","","","","23","","","","","","","","","","","","","","","","","","","","","",""
"null","","image-button-response","90","640209","0.0-89.0","A2RBVMD2HTBCZ9","img_art/11.jpg","null","","","","","","","","","","","","","","","","","","","","","","","","",""
"1155","","image-button-response","91","641365","0.0-90.0","A2RBVMD2HTBCZ9","img_art/11.jpg","3","","","","","","","","","","","","","","","","","","","","","","","","",""
"3856","","image-button-response","92","645222","0.0-91.0-0.0","A2RBVMD2HTBCZ9","img_art/11.jpg","5","","","","","","","","","","","","","","","","","","","","","","","","",""
"5263","","image-button-response","93","650486","0.0-92.0-0.0","A2RBVMD2HTBCZ9","img_art/11.jpg","2","","","","","","","","","","","","","","","","","","","","","","","","",""
"null","","html-keyboard-response","94","651530","0.0-93.0","A2RBVMD2HTBCZ9","<p style=""font-size: 48px;"">+</p>","","","","","null","allTrialResponses","1000","1","7","img_art/11.jpg","23","reminds me of a cityscape in China","Briana,Diana,Kylie,Rachel,Mikayla,Alexis","Grays arent my thing,-25,400,20","It makes my head feel dizzy. So I rated it lower.,-25,380,20","This looks like a busy highway system along a suburban background,40,300,20","Makes me think of a futuristic scene of vehicles flying in the sky in a city.,36,80,20","Scary again. Not a fan.,-23,300,20","Don't like cityscapes, which this picture reminds me of,-29,100,20","Rachel","Makes me think of a futuristic scene of vehicles flying in the sky in a city.,36,80,20","Alexis","Don't like cityscapes, which this picture reminds me of,-29,100,20","Kylie","This looks like a busy highway system along a suburban background,40,300,20","2"
"29579","","survey-text","95","681112","0.0-94.0-0.0","A2RBVMD2HTBCZ9","","","","{""Q0"":""nope, this is terrible, do these people actually make a living painting? They act like this is sophsiticated, its not, its a scam""}","","","","","","","","","","","","","","","","","","","","","","",""
"4247","","image-slider-response","96","685361","0.0-95.0","A2RBVMD2HTBCZ9","","","","","-48","","","","","","","","","","","","","","","","","","","","","",""
"null","","image-button-response","97","690371","0.0-96.0","A2RBVMD2HTBCZ9","img_art/3.jpg","null","","","","","","","","","","","","","","","","","","","","","","","","",""
"11647","","image-button-response","98","702018","0.0-97.0","A2RBVMD2HTBCZ9","img_art/3.jpg","3","","","","","","","","","","","","","","","","","","","","","","","","",""
"2480","","image-button-response","99","704500","0.0-98.0-0.0","A2RBVMD2HTBCZ9","img_art/3.jpg","2","","","","","","","","","","","","","","","","","","","","","","","","",""
"3494","","image-button-response","100","707996","0.0-99.0-0.0","A2RBVMD2HTBCZ9","img_art/3.jpg","0","","","","","","","","","","","","","","","","","","","","","","","","",""
"null","","html-keyboard-response","101","708507","0.0-100.0","A2RBVMD2HTBCZ9","<p style=""font-size: 48px;"">+</p>","","","","","null","allTrialResponses","500","1","8","img_art/3.jpg","-48","nope, this is terrible, do these people actually make a living painting? They act like this is sophsiticated, its not, its a scam","Michelle,Leah,Kylie,Rachel,Margaret,Alexis","Ok, just a bunch of red lines and a grey smudge. Would pass this right by in a gallery,-12,280,20","Scratchy scrawly all one color, looks like a mistake,-28,360,20","Confusion and mayhem,-10,300,20","Too red and chaotic. Not calming.,-41,80,20","seems distressing. a blood scene,-3,100,20","Just scribbles. Not a fan.,-40,100,20","Rachel","Too red and chaotic. Not calming.,-41,80,20","Kylie","Confusion and mayhem,-10,300,20","Michelle","Ok, just a bunch of red lines and a grey smudge. Would pass this right by in a gallery,-12,280,20","2"
"54762","","survey-text","102","763273","0.0-101.0-0.0","A2RBVMD2HTBCZ9","","","","{""Q0"":""there's nothing to \""get\"" about art like this except $$$$ from rich people trying to do conspicuous consumption""}","","","","","","","","","","","","","","","","","","","","","","",""
"4596","","image-slider-response","103","767872","0.0-102.0","A2RBVMD2HTBCZ9","","","","","-38","","","","","","","","","","","","","","","","","","","","","",""
"null","","image-button-response","104","772876","0.0-103.0","A2RBVMD2HTBCZ9","img_art/2.jpg","null","","","","","","","","","","","","","","","","","","","","","","","","",""
"486","","image-button-response","105","773363","0.0-104.0","A2RBVMD2HTBCZ9","img_art/2.jpg","0","","","","","","","","","","","","","","","","","","","","","","","","",""
"3582","","image-button-response","106","776947","0.0-105.0-0.0","A2RBVMD2HTBCZ9","img_art/2.jpg","3","","","","","","","","","","","","","","","","","","","","","","","","",""
"4151","","image-button-response","107","781100","0.0-106.0-0.0","A2RBVMD2HTBCZ9","img_art/2.jpg","5","","","","","","","","","","","","","","","","","","","","","","","","",""
"null","","html-keyboard-response","108","781605","0.0-107.0","A2RBVMD2HTBCZ9","<p style=""font-size: 48px;"">+</p>","","","","","null","allTrialResponses","500","1","9","img_art/2.jpg","-38","there's nothing to ""get"" about art like this except $$$$ from rich people trying to do conspicuous consumption","Michelle,Jasmine,Kylie,Rachel,Isabella,Emily","Don't like the puke green color and also too abstact,-14,280,20","Color picks are a bad mesh with each other,-17,340,20","Not very appealing,-5,300,20","I am not a fan of the color story. I am confused by the piece and therefore do not like it.,-21,80,20","Feels like a playground or park vibe,27,280,20","Random colors and shapes mashed together. Nothing artistic, but better than some of the other ones.,-37,40,20","Michelle","Don't like the puke green color and also too abstact,-14,280,20","Rachel","I am not a fan of the color story. I am confused by the piece and therefore do not like it.,-21,80,20","Emily","Random colors and shapes mashed together. Nothing artistic, but better than some of the other ones.,-37,40,20","2"
"42824","","survey-text","109","824437","0.0-108.0-0.0","A2RBVMD2HTBCZ9","","","","{""Q0"":""Looks like a calm ocean or body of water actually, quite nice""}","","","","","","","","","","","","","","","","","","","","","","",""
"2814","","image-slider-response","110","827253","0.0-109.0","A2RBVMD2HTBCZ9","","","","","33","","","","","","","","","","","","","","","","","","","","","",""
"null","","image-button-response","111","832256","0.0-110.0","A2RBVMD2HTBCZ9","img_art/21.jpg","null","","","","","","","","","","","","","","","","","","","","","","","","",""
"645","","image-button-response","112","832903","0.0-111.0","A2RBVMD2HTBCZ9","img_art/21.jpg","4","","","","","","","","","","","","","","","","","","","","","","","","",""
"4570","","image-button-response","113","837475","0.0-112.0-0.0","A2RBVMD2HTBCZ9","img_art/21.jpg","0","","","","","","","","","","","","","","","","","","","","","","","","",""
"4703","","image-button-response","114","842179","0.0-113.0-0.0","A2RBVMD2HTBCZ9","img_art/21.jpg","3","","","","","","","","","","","","","","","","","","","","","","","","",""
"null","","html-keyboard-response","115","842685","0.0-114.0","A2RBVMD2HTBCZ9","<p style=""font-size: 48px;"">+</p>","","","","","null","allTrialResponses","500","1","10","img_art/21.jpg","33","Looks like a calm ocean or body of water actually, quite nice","Michelle,Madeline,Natalie,Rachel,Kayla,Emily","The colors are very nice. I like the dots because they remind me of pearls,5,280,20","Evokes a strong colorful sense,8,40,20","my response to the picture is what is going on?,-13,400,20","Looks like a body of water during a sunset. I like this piece.,21,80,20","I like that it reminds me of an abstract version of a Bob Ross painting.,36,180,20","What's the point?,-30,40,20","Kayla","I like that it reminds me of an abstract version of a Bob Ross painting.,36,180,20","Michelle","The colors are very nice. I like the dots because they remind me of pearls,5,280,20","Rachel","Looks like a body of water during a sunset. I like this piece.,21,80,20","2"
"2224","","survey-text","116","844926","0.0-115.0-0.0","A2RBVMD2HTBCZ9","","","","{""Q0"":""our""}","","","","","","","","","","","","","","","","","","","","","","",""
"19393","","survey-text","117","864321","0.0-116.0-0.0","A2RBVMD2HTBCZ9","","","","{""Q0"":""meh, seen this style dozens of times""}","","","","","","","","","","","","","","","","","","","","","","",""
"10665","","image-slider-response","118","874988","0.0-117.0","A2RBVMD2HTBCZ9","","","","","0","","","","","","","","","","","","","","","","","","","","","",""
"3231","","image-button-response","119","879997","0.0-118.0","A2RBVMD2HTBCZ9","img_art/17.jpg","0","","","","","","","","","","","","","","","","","","","","","","","","",""
"10031","","image-button-response","120","890030","0.0-119.0","A2RBVMD2HTBCZ9","img_art/17.jpg","0","","","","","","","","","","","","","","","","","","","","","","","","",""
"8024","","image-button-response","121","898055","0.0-120.0-0.0","A2RBVMD2HTBCZ9","img_art/17.jpg","3","","","","","","","","","","","","","","","","","","","","","","","","",""
"2005","","image-button-response","122","900063","0.0-121.0-0.0","A2RBVMD2HTBCZ9","img_art/17.jpg","1","","","","","","","","","","","","","","","","","","","","","","","","",""
"null","","html-keyboard-response","123","901068","0.0-122.0","A2RBVMD2HTBCZ9","<p style=""font-size: 48px;"">+</p>","","","","","null","allTrialResponses","1000","1","11","img_art/17.jpg","0","meh, seen this style dozens of times","Michelle,Brianna,Erica,Rachel,Kayla,Laura","I can tell there are tress and maybe some doors but I'm not a fan of the style,-2,280,20","It's nice and realistic looking.,12,20,20","Makes me warm and cozy just by looking at it,29,80,20","Reminds me of a beautiful tree growing in a courtyard. I like the light and airy technique used.,34,80,20","I like the way the forest is taking over the buildings.,21,180,20","home - reminds me of fond memories of the Barnes Museum courtyard (looks just like it),30,320,20","Michelle","I can tell there are tress and maybe some doors but I'm not a fan of the style,-2,280,20","Rachel","Reminds me of a beautiful tree growing in a courtyard. I like the light and airy technique used.,34,80,20","Brianna","It's nice and realistic looking.,12,20,20","2"
"19045","","survey-text","124","920119","0.0-123.0-0.0","A2RBVMD2HTBCZ9","","","","{""Q0"":""acid trip at a concert perhaps? interesting color schema""}","","","","","","","","","","","","","","","","","","","","","","",""
"2397","","image-slider-response","125","922520","0.0-124.0","A2RBVMD2HTBCZ9","","","","","8","","","","","","","","","","","","","","","","","","","","","",""
"null","","image-button-response","126","927527","0.0-125.0","A2RBVMD2HTBCZ9","img_art/23.jpg","null","","","","","","","","","","","","","","","","","","","","","","","","",""
"887","","image-button-response","127","928415","0.0-126.0","A2RBVMD2HTBCZ9","img_art/23.jpg","0","","","","","","","","","","","","","","","","","","","","","","","","",""
"3183","","image-button-response","128","931601","0.0-127.0-0.0","A2RBVMD2HTBCZ9","img_art/23.jpg","3","","","","","","","","","","","","","","","","","","","","","","","","",""
"1798","","image-button-response","129","933400","0.0-128.0-0.0","A2RBVMD2HTBCZ9","img_art/23.jpg","5","","","","","","","","","","","","","","","","","","","","","","","","",""
"null","","html-keyboard-response","130","933907","0.0-129.0","A2RBVMD2HTBCZ9","<p style=""font-size: 48px;"">+</p>","","","","","null","allTrialResponses","500","1","12","img_art/23.jpg","8","acid trip at a concert perhaps? interesting color schema","Michelle,Brianna,Molly,Rachel,Kaitlyn,Kelsey","This is nice, the colorful background is fun and the white looks like dancing figures,5,280,20","I love the rainbow!,12,20,20","Shocked, beautiful.,20,340,20","Vivid colors and the white in the middle looks like people dancing.,31,80,20","Interesting contrast,9,80,20","i think this ones okay,10,240,20","Michelle","This is nice, the colorful background is fun and the white looks like dancing figures,5,280,20","Rachel","Vivid colors and the white in the middle looks like people dancing.,31,80,20","Kelsey","i think this ones okay,10,240,20","2"
"37012","","survey-text","131","970924","0.0-130.0-0.0","A2RBVMD2HTBCZ9","","","","{""Q0"":""I remember the first time I painted as well, though it didn't end up in some gallery like this (clearly) first timer's""}","","","","","","","","","","","","","","","","","","","","","","",""
"3046","","image-slider-response","132","973972","0.0-131.0","A2RBVMD2HTBCZ9","","","","","-37","","","","","","","","","","","","","","","","","","","","","",""
"null","","image-button-response","133","978976","0.0-132.0","A2RBVMD2HTBCZ9","img_art/6.jpg","null","","","","","","","","","","","","","","","","","","","","","","","","",""
"4987","","image-button-response","134","983965","0.0-133.0","A2RBVMD2HTBCZ9","img_art/6.jpg","5","","","","","","","","","","","","","","","","","","","","","","","","",""
"1229","","image-button-response","135","985197","0.0-134.0-0.0","A2RBVMD2HTBCZ9","img_art/6.jpg","0","","","","","","","","","","","","","","","","","","","","","","","","",""
"790","","image-button-response","136","985989","0.0-135.0-0.0","A2RBVMD2HTBCZ9","img_art/6.jpg","4","","","","","","","","","","","","","","","","","","","","","","","","",""
"null","","html-keyboard-response","137","986495","0.0-136.0","A2RBVMD2HTBCZ9","<p style=""font-size: 48px;"">+</p>","","","","","null","allTrialResponses","500","1","13","img_art/6.jpg","-37","I remember the first time I painted as well, though it didn't end up in some gallery like this (clearly) first timer's","Michelle,Lauren,Taylor,Rachel,Katie,Kelsey","Definitely belongs at a doctor's office, I think it's a crow or a tree?,-3,280,20","I like the simplicity of the piece.,10,340,20","Reminds me of my friend's bird,21,340,20","Reminds me of a plant poking through the soil. It reminds me of new life.,31,80,20","I like the warmth of the orange. But, I feel like it's a partial view. I'm frustrated I can't see the entirety.,-20,160,20","its like a jalapeno,-28,240,20","Kelsey","its like a jalapeno,-28,240,20","Michelle","Definitely belongs at a doctor's office, I think it's a crow or a tree?,-3,280,20","Katie","I like the warmth of the orange. But, I feel like it's a partial view. I'm frustrated I can't see the entirety.,-20,160,20","2"
"10576","","survey-text","138","997077","0.0-137.0-0.0","A2RBVMD2HTBCZ9","","","","{""Q0"":""the only thing I can say is \""meh\""""}","","","","","","","","","","","","","","","","","","","","","","",""
"3453","","image-slider-response","139","1000534","0.0-138.0","A2RBVMD2HTBCZ9","","","","","-4","","","","","","","","","","","","","","","","","","","","","",""
"null","","image-button-response","140","1005544","0.0-139.0","A2RBVMD2HTBCZ9","img_art/22.jpg","null","","","","","","","","","","","","","","","","","","","","","","","","",""
"533","","image-button-response","141","1006078","0.0-140.0","A2RBVMD2HTBCZ9","img_art/22.jpg","0","","","","","","","","","","","","","","","","","","","","","","","","",""
"838","","image-button-response","142","1006918","0.0-141.0-0.0","A2RBVMD2HTBCZ9","img_art/22.jpg","1","","","","","","","","","","","","","","","","","","","","","","","","",""
"6696","","image-button-response","143","1013617","0.0-142.0-0.0","A2RBVMD2HTBCZ9","img_art/22.jpg","5","","","","","","","","","","","","","","","","","","","","","","","","",""
"null","","html-keyboard-response","144","1014131","0.0-143.0","A2RBVMD2HTBCZ9","<p style=""font-size: 48px;"">+</p>","","","","","null","allTrialResponses","500","1","14","img_art/22.jpg","-4","the only thing I can say is ""meh""","Michelle,Katherine,Mariah,Amy,Katie,Kelsey","Not a huge fan of the blocks, also very abstract, I have no idea what it is,8,280,20","Cool squares but what's the circle?,38,120,20","The colors are pleasant, the shapes are inviting.,21,140,20","I appreciate the shapes but the abundance of primary colors make it seem garrish.,-10,220,20","Too much red. The red/yellow/orange make me think of heat/fire, which makes me anxious.,-10,160,20","its messy, like a child painted it,-14,240,20","Michelle","Not a huge fan of the blocks, also very abstract, I have no idea what it is,8,280,20","Katherine","Cool squares but what's the circle?,38,120,20","Kelsey","its messy, like a child painted it,-14,240,20","2"
"50699","","survey-text","145","1064841","0.0-144.0-0.0","A2RBVMD2HTBCZ9","","","","{""Q0"":""For once I just wish someone would stop trying to be so edge and abstract, BORING, you're NOT blowing my mind dude""}","","","","","","","","","","","","","","","","","","","","","","",""
"4863","","image-slider-response","146","1069706","0.0-145.0","A2RBVMD2HTBCZ9","","","","","-50","","","","","","","","","","","","","","","","","","","","","",""
"null","","image-button-response","147","1074718","0.0-146.0","A2RBVMD2HTBCZ9","img_art/18.jpg","null","","","","","","","","","","","","","","","","","","","","","","","","",""
"187","","image-button-response","148","1074906","0.0-147.0","A2RBVMD2HTBCZ9","img_art/18.jpg","4","","","","","","","","","","","","","","","","","","","","","","","","",""
"1241","","image-button-response","149","1076148","0.0-148.0-0.0","A2RBVMD2HTBCZ9","img_art/18.jpg","5","","","","","","","","","","","","","","","","","","","","","","","","",""
"5822","","image-button-response","150","1081971","0.0-149.0-0.0","A2RBVMD2HTBCZ9","img_art/18.jpg","0","","","","","","","","","","","","","","","","","","","","","","","","",""
"null","","html-keyboard-response","151","1082477","0.0-150.0","A2RBVMD2HTBCZ9","<p style=""font-size: 48px;"">+</p>","","","","","null","allTrialResponses","500","1","15","img_art/18.jpg","-50","For once I just wish someone would stop trying to be so edge and abstract, BORING, you're NOT blowing my mind dude","Michelle,Katherine,Jennifer,Shannon,Sara,Kelsey","The small lines elicit a very nauseating response for some reason, too Dali like for me,-19,280,20","Ok this is really badass. Like a warrior come to the last battle,50,120,20","I have no strong feelings about this image,1,380,20","I think its supposed to be a boat and the boat looks kind of interesting to me.,10,220,20","Too abstract and swirly,-21,160,20","its messy, it seems angry,-21,240,20","Sara","Too abstract and swirly,-21,160,20","Kelsey","its messy, it seems angry,-21,240,20","Michelle","The small lines elicit a very nauseating response for some reason, too Dali like for me,-19,280,20","2"
"3548","","survey-text","152","1086036","0.0-151.0-0.0","A2RBVMD2HTBCZ9","","","","{""Q0"":""course""}","","","","","","","","","","","","","","","","","","","","","","",""
"39288","","survey-text","153","1125326","0.0-152.0-0.0","A2RBVMD2HTBCZ9","","","","{""Q0"":""Its Mr. Burns walking out of the forest, all glowy, lol quite fun, i'd hang this up ""}","","","","","","","","","","","","","","","","","","","","","","",""
"5606","","image-slider-response","154","1130936","0.0-153.0","A2RBVMD2HTBCZ9","","","","","25","","","","","","","","","","","","","","","","","","","","","",""
"null","","image-button-response","155","1135937","0.0-154.0","A2RBVMD2HTBCZ9","img_art/25.jpg","null","","","","","","","","","","","","","","","","","","","","","","","","",""
"1316","","image-button-response","156","1137255","0.0-155.0","A2RBVMD2HTBCZ9","img_art/25.jpg","2","","","","","","","","","","","","","","","","","","","","","","","","",""
"6311","","image-button-response","157","1143567","0.0-156.0-0.0","A2RBVMD2HTBCZ9","img_art/25.jpg","3","","","","","","","","","","","","","","","","","","","","","","","","",""
"3414","","image-button-response","158","1146983","0.0-157.0-0.0","A2RBVMD2HTBCZ9","img_art/25.jpg","0","","","","","","","","","","","","","","","","","","","","","","","","",""
"null","","html-keyboard-response","159","1147487","0.0-158.0","A2RBVMD2HTBCZ9","<p style=""font-size: 48px;"">+</p>","","","","","null","allTrialResponses","500","1","16","img_art/25.jpg","25","Its Mr. Burns walking out of the forest, all glowy, lol quite fun, i'd hang this up ","Michelle,Chloe,Amanda,Sabrina,Sara,Kelsey","I can get behind this but only because I like the green. it reminds me of a graveyard,11,280,20","Cheesy and unprofessional,-30,220,20","Reminds me of Mr. Burns on drugs in the Simpsons,-50,180,20","New life, rising from your personal battles,50,120,20","Green color is not my thing,-29,160,20","quite unnerving,-15,240,20","Amanda","Reminds me of Mr. Burns on drugs in the Simpsons,-50,180,20","Sabrina","New life, rising from your personal battles,50,120,20","Michelle","I can get behind this but only because I like the green. it reminds me of a graveyard,11,280,20","2"
"17269","","survey-text","160","1164761","0.0-159.0-0.0","A2RBVMD2HTBCZ9","","","","{""Q0"":""mehhhhhhhhh boring, really really boring. ""}","","","","","","","","","","","","","","","","","","","","","","",""
"2796","","image-slider-response","161","1167561","0.0-160.0","A2RBVMD2HTBCZ9","","","","","-33","","","","","","","","","","","","","","","","","","","","","",""
"null","","image-button-response","162","1172566","0.0-161.0","A2RBVMD2HTBCZ9","img_art/10.jpg","null","","","","","","","","","","","","","","","","","","","","","","","","",""
"4194","","image-button-response","163","1176761","0.0-162.0","A2RBVMD2HTBCZ9","img_art/10.jpg","5","","","","","","","","","","","","","","","","","","","","","","","","",""
"591","","image-button-response","164","1177354","0.0-163.0-0.0","A2RBVMD2HTBCZ9","img_art/10.jpg","2","","","","","","","","","","","","","","","","","","","","","","","","",""
"1395","","image-button-response","165","1178753","0.0-164.0-0.0","A2RBVMD2HTBCZ9","img_art/10.jpg","0","","","","","","","","","","","","","","","","","","","","","","","","",""
"null","","html-keyboard-response","166","1179255","0.0-165.0","A2RBVMD2HTBCZ9","<p style=""font-size: 48px;"">+</p>","","","","","null","allTrialResponses","500","1","17","img_art/10.jpg","-33","mehhhhhhhhh boring, really really boring. ","Michelle,Catherine,Amanda,Sabrina,Leslie,Julia","This could be a guitar, or it could be a completely random shape.,-3,280,20","Circle of life, with highs and lows, good and bad. You always weather the storm and come out on top.,40,160,20","Reminds me of a beautiful ship wreck,36,180,20","I love the dark and edgy nature of this,50,120,20","I love the chaotic feel of the brush strokes.,35,380,20","this is a good painting, but feels musical in a way that I don't connect with.,-14,40,20","Julia","this is a good painting, but feels musical in a way that I don't connect with.,-14,40,20","Amanda","Reminds me of a beautiful ship wreck,36,180,20","Michelle","This could be a guitar, or it could be a completely random shape.,-3,280,20","2"
"20008","","survey-text","167","1199268","0.0-166.0-0.0","A2RBVMD2HTBCZ9","","","","{""Q0"":""this person spends a lot of time with their bursh, clearly, just not my thing though""}","","","","","","","","","","","","","","","","","","","","","","",""
"7207","","image-slider-response","168","1206478","0.0-167.0","A2RBVMD2HTBCZ9","","","","","-1","","","","","","","","","","","","","","","","","","","","","",""
"3495","","image-button-response","169","1211482","0.0-168.0","A2RBVMD2HTBCZ9","img_art/19.jpg","0","","","","","","","","","","","","","","","","","","","","","","","","",""
"594","","image-button-response","170","1212077","0.0-169.0","A2RBVMD2HTBCZ9","img_art/19.jpg","0","","","","","","","","","","","","","","","","","","","","","","","","",""
"430","","image-button-response","171","1212509","0.0-170.0-0.0","A2RBVMD2HTBCZ9","img_art/19.jpg","1","","","","","","","","","","","","","","","","","","","","","","","","",""
"6311","","image-button-response","172","1218822","0.0-171.0-0.0","A2RBVMD2HTBCZ9","img_art/19.jpg","2","","","","","","","","","","","","","","","","","","","","","","","","",""
"null","","html-keyboard-response","173","1219831","0.0-172.0","A2RBVMD2HTBCZ9","<p style=""font-size: 48px;"">+</p>","","","","","null","allTrialResponses","1000","1","18","img_art/19.jpg","-1","this person spends a lot of time with their bursh, clearly, just not my thing though","Michelle,Angela,Amanda,Erika,Danielle,Julia","I like the water but again, the small lines with no detail are irritating,3,280,20","I like the colors but the scene itself feels too jumbled and cluttered,9,260,20","Its just a nice painting, nothing too special but nothing negative,25,180,20","Very dreamlike,26,100,20","It looks like as if it were portraying a village that was polluted? I don't like the theme anyway,-21,340,20","I like this style but don't really like the specific setting of the landscape,-7,40,20","Michelle","I like the water but again, the small lines with no detail are irritating,3,280,20","Angela","I like the colors but the scene itself feels too jumbled and cluttered,9,260,20","Amanda","Its just a nice painting, nothing too special but nothing negative,25,180,20","2"
"27441","","survey-text","174","1247276","0.0-173.0-0.0","A2RBVMD2HTBCZ9","","","","{""Q0"":""they need to work on their brush work, fine scene, keep improving""}","","","","","","","","","","","","","","","","","","","","","","",""
"6495","","image-slider-response","175","1253774","0.0-174.0","A2RBVMD2HTBCZ9","","","","","0","","","","","","","","","","","","","","","","","","","","","",""
"null","","image-button-response","176","1258782","0.0-175.0","A2RBVMD2HTBCZ9","img_art/26.jpg","null","","","","","","","","","","","","","","","","","","","","","","","","",""
"471","","image-button-response","177","1259255","0.0-176.0","A2RBVMD2HTBCZ9","img_art/26.jpg","0","","","","","","","","","","","","","","","","","","","","","","","","",""
"454","","image-button-response","178","1259711","0.0-177.0-0.0","A2RBVMD2HTBCZ9","img_art/26.jpg","1","","","","","","","","","","","","","","","","","","","","","","","","",""
"5696","","image-button-response","179","1265408","0.0-178.0-0.0","A2RBVMD2HTBCZ9","img_art/26.jpg","2","","","","","","","","","","","","","","","","","","","","","","","","",""
"null","","html-keyboard-response","180","1266913","0.0-179.0","A2RBVMD2HTBCZ9","<p style=""font-size: 48px;"">+</p>","","","","","null","allTrialResponses","1500","1","19","img_art/26.jpg","0","they need to work on their brush work, fine scene, keep improving","Michelle,Angela,Amanda,Kimberly,Stephanie,Makayla","I can make out a street view and I am a fan of watercolors but still too boring,15,280,20","Nice, but not very interesting. I do like the blue tree though.,6,260,20","Pleasant to look at,28,180,20","It looks like I'm staring out of the window of a nice house, but the house is mine,20,260,20","Day just begun in the city and the stores are opening their doors.,41,300,20","Reminds me of a European street, I desire to walk in this picture,28,80,20","Michelle","I can make out a street view and I am a fan of watercolors but still too boring,15,280,20","Angela","Nice, but not very interesting. I do like the blue tree though.,6,260,20","Amanda","Pleasant to look at,28,180,20","2"
"22386","","survey-text","181","1289305","0.0-180.0-0.0","A2RBVMD2HTBCZ9","","","","{""Q0"":""stuff like this is just not in my wheelhouse, i have no opinion""}","","","","","","","","","","","","","","","","","","","","","","",""
"4407","","image-slider-response","182","1293714","0.0-181.0","A2RBVMD2HTBCZ9","","","","","0","","","","","","","","","","","","","","","","","","","","","",""
"null","","image-button-response","183","1298727","0.0-182.0","A2RBVMD2HTBCZ9","img_art/4.jpg","null","","","","","","","","","","","","","","","","","","","","","","","","",""
"594","","image-button-response","184","1299322","0.0-183.0","A2RBVMD2HTBCZ9","img_art/4.jpg","2","","","","","","","","","","","","","","","","","","","","","","","","",""
"494","","image-button-response","185","1299817","0.0-184.0-0.0","A2RBVMD2HTBCZ9","img_art/4.jpg","3","","","","","","","","","","","","","","","","","","","","","","","","",""
"8807","","image-button-response","186","1308626","0.0-185.0-0.0","A2RBVMD2HTBCZ9","img_art/4.jpg","0","","","","","","","","","","","","","","","","","","","","","","","","",""
"null","","html-keyboard-response","187","1309176","0.0-186.0","A2RBVMD2HTBCZ9","<p style=""font-size: 48px;"">+</p>","","","","","null","allTrialResponses","500","1","20","img_art/4.jpg","0","stuff like this is just not in my wheelhouse, i have no opinion","Michelle,Angela,Amanda,Cassidy,Paige,Sophia","Looks like more paint smearing but at least there is structure,-5,280,20","Really like the colors, but don't like the object/squiggle in darker gold and black,4,260,20","Looks like an abstract version of the Scream painting,-50,180,20","Hate the color, and just do not get the point.,-13,140,20","the colors are calming,31,60,20","This looks like what happens when someone steps on a mustard packet.,-7,280,20","Amanda","Looks like an abstract version of the Scream painting,-50,180,20","Cassidy","Hate the color, and just do not get the point.,-13,140,20","Michelle","Looks like more paint smearing but at least there is structure,-5,280,20","2"
"2463","","survey-text","188","1311652","0.0-187.0-0.0","A2RBVMD2HTBCZ9","","","","{""Q0"":""we""}","","","","","","","","","","","","","","","","","","","","","","",""
"13730","","survey-text","189","1325383","0.0-188.0-0.0","A2RBVMD2HTBCZ9","","","","{""Q0"":""good effort, for a child""}","","","","","","","","","","","","","","","","","","","","","","",""
"4109","","image-slider-response","190","1329495","0.0-189.0","A2RBVMD2HTBCZ9","","","","","-49","","","","","","","","","","","","","","","","","","","","","",""
"null","","image-button-response","191","1334501","0.0-190.0","A2RBVMD2HTBCZ9","img_art/5.jpg","null","","","","","","","","","","","","","","","","","","","","","","","","",""
"506","","image-button-response","192","1335008","0.0-191.0","A2RBVMD2HTBCZ9","img_art/5.jpg","1","","","","","","","","","","","","","","","","","","","","","","","","",""
"2012","","image-button-response","193","1337023","0.0-192.0-0.0","A2RBVMD2HTBCZ9","img_art/5.jpg","0","","","","","","","","","","","","","","","","","","","","","","","","",""
"6958","","image-button-response","194","1343984","0.0-193.0-0.0","A2RBVMD2HTBCZ9","img_art/5.jpg","5","","","","","","","","","","","","","","","","","","","","","","","","",""
"null","","html-keyboard-response","195","1345491","0.0-194.0","A2RBVMD2HTBCZ9","<p style=""font-size: 48px;"">+</p>","","","","","null","allTrialResponses","1500","1","21","img_art/5.jpg","-49","good effort, for a child","Michelle,Rebecca,Amanda,Cassidy,Angelica,Alexa","What is this? It looks like no effort was put into this work,-2,280,20","sorry not my style,-37,100,20","Very good color coordination,41,180,20","I like these colors together and the tiny splatters, but what is this?,7,140,20","This is interesting and nice.,16,280,20","It's okay. Don't hate it but don't love it either,0,40,20","Rebecca","sorry not my style,-37,100,20","Michelle","What is this? It looks like no effort was put into this work,-2,280,20","Alexa","It's okay. Don't hate it but don't love it either,0,40,20","2"
"24000","","survey-text","196","1369498","0.0-195.0-0.0","A2RBVMD2HTBCZ9","","","","{""Q0"":""when you ask a schizophrenic to draw, this is what they give you, keep it in the psych office my dude""}","","","","","","","","","","","","","","","","","","","","","","",""
"8539","","image-slider-response","197","1378039","0.0-196.0","A2RBVMD2HTBCZ9","","","","","-37","","","","","","","","","","","","","","","","","","","","","",""
"2992","","image-button-response","198","1383047","0.0-197.0","A2RBVMD2HTBCZ9","img_art/9.jpg","3","","","","","","","","","","","","","","","","","","","","","","","","",""
"769","","image-button-response","199","1383817","0.0-198.0","A2RBVMD2HTBCZ9","img_art/9.jpg","3","","","","","","","","","","","","","","","","","","","","","","","","",""
"438","","image-button-response","200","1384256","0.0-199.0-0.0","A2RBVMD2HTBCZ9","img_art/9.jpg","4","","","","","","","","","","","","","","","","","","","","","","","","",""
"5391","","image-button-response","201","1389649","0.0-200.0-0.0","A2RBVMD2HTBCZ9","img_art/9.jpg","0","","","","","","","","","","","","","","","","","","","","","","","","",""
"null","","html-keyboard-response","202","1390655","0.0-201.0","A2RBVMD2HTBCZ9","<p style=""font-size: 48px;"">+</p>","","","","","null","allTrialResponses","1000","1","22","img_art/9.jpg","-37","when you ask a schizophrenic to draw, this is what they give you, keep it in the psych office my dude","Michelle,Rebecca,Dominique,Erin,Kaitlin,Alexa","Alright, I can see a reclining lady, I'm just glad to be able to tell what's in the picture,5,280,20","love the color palette, but I'm gonna be honest, I don't really understand it,14,100,20","This speaks to me like a personalities and sides and not all are nice,19,400,20","Framing is overwhelming,-35,120,20","this looks to be a child nightmare,-10,60,20","It's wild and chaotic but also beautiful and has some kind of calming factor about it,20,40,20","Erin","Framing is overwhelming,-35,120,20","Kaitlin","this looks to be a child nightmare,-10,60,20","Michelle","Alright, I can see a reclining lady, I'm just glad to be able to tell what's in the picture,5,280,20","2"
"31305","","survey-text","203","1421968","0.0-202.0-0.0","A2RBVMD2HTBCZ9","","","","{""Q0"":""I'm ok with this, not much to say, interesting, who knows why the things are in the frame but they're interesting""}","","","","","","","","","","","","","","","","","","","","","","",""
"2729","","image-slider-response","204","1424700","0.0-203.0","A2RBVMD2HTBCZ9","","","","","17","","","","","","","","","","","","","","","","","","","","","",""
"null","","image-button-response","205","1429704","0.0-204.0","A2RBVMD2HTBCZ9","img_art/16.jpg","null","","","","","","","","","","","","","","","","","","","","","","","","",""
"596","","image-button-response","206","1430300","0.0-205.0","A2RBVMD2HTBCZ9","img_art/16.jpg","0","","","","","","","","","","","","","","","","","","","","","","","","",""
"3876","","image-button-response","207","1434179","0.0-206.0-0.0","A2RBVMD2HTBCZ9","img_art/16.jpg","5","","","","","","","","","","","","","","","","","","","","","","","","",""
"2447","","image-button-response","208","1436627","0.0-207.0-0.0","A2RBVMD2HTBCZ9","img_art/16.jpg","1","","","","","","","","","","","","","","","","","","","","","","","","",""
"null","","html-keyboard-response","209","1438133","0.0-208.0","A2RBVMD2HTBCZ9","<p style=""font-size: 48px;"">+</p>","","","","","null","allTrialResponses","1500","1","23","img_art/16.jpg","17","I'm ok with this, not much to say, interesting, who knows why the things are in the frame but they're interesting","Michelle,Brittany,Sarah,Erin,Kaitlin,Claire","I'm a fan of collage and of reminiscing about childhood so this was nice,10,280,20","Kind of dull, colors and drawings are not really interesting.,0,40,20","i don't like the collage aspect,-25,180,20","Not original. Bear is odd,-50,120,20","The teddy bear looks really scared,-30,60,20","the materials used are interesting,30,260,20","Michelle","I'm a fan of collage and of reminiscing about childhood so this was nice,10,280,20","Claire","the materials used are interesting,30,260,20","Brittany","Kind of dull, colors and drawings are not really interesting.,0,40,20","2"
"20145","","survey-text","210","1458286","0.0-209.0-0.0","A2RBVMD2HTBCZ9","","","","{""Q0"":""not my style, but i appreciate the effort it took""}","","","","","","","","","","","","","","","","","","","","","","",""
"2826","","image-slider-response","211","1461115","0.0-210.0","A2RBVMD2HTBCZ9","","","","","6","","","","","","","","","","","","","","","","","","","","","",""
"null","","image-button-response","212","1466122","0.0-211.0","A2RBVMD2HTBCZ9","img_art/30.jpg","null","","","","","","","","","","","","","","","","","","","","","","","","",""
"1520","","image-button-response","213","1467644","0.0-212.0","A2RBVMD2HTBCZ9","img_art/30.jpg","3","","","","","","","","","","","","","","","","","","","","","","","","",""
"416","","image-button-response","214","1468062","0.0-213.0-0.0","A2RBVMD2HTBCZ9","img_art/30.jpg","4","","","","","","","","","","","","","","","","","","","","","","","","",""
"2229","","image-button-response","215","1470293","0.0-214.0-0.0","A2RBVMD2HTBCZ9","img_art/30.jpg","1","","","","","","","","","","","","","","","","","","","","","","","","",""
"null","","html-keyboard-response","216","1471302","0.0-215.0","A2RBVMD2HTBCZ9","<p style=""font-size: 48px;"">+</p>","","","","","null","allTrialResponses","1000","1","24","img_art/30.jpg","6","not my style, but i appreciate the effort it took","Michelle,Brittany,Allison,Monica,Hailey,Claire","Don't like it at all, looks like a someone smeared paint with their fingers,-25,280,20","The colors and the brushstrokes are interesting enough.,17,40,20","Dislike the contrast here.,-5,140,20","It looked like a random scribble but I can see a person's face in it now and I think it's clever,13,360,20","snakes in the grass, I don't like it,-17,200,20","too segmented, looks sloppy,-37,260,20","Monica","It looked like a random scribble but I can see a person's face in it now and I think it's clever,13,360,20","Hailey","snakes in the grass, I don't like it,-17,200,20","Brittany","The colors and the brushstrokes are interesting enough.,17,40,20","2"
"11960","","survey-text","217","1483270","0.0-216.0-0.0","A2RBVMD2HTBCZ9","","","","{""Q0"":""this is a really pretty scene, i'd hang this up for sure.""}","","","","","","","","","","","","","","","","","","","","","","",""
"2845","","image-slider-response","218","1486118","0.0-217.0","A2RBVMD2HTBCZ9","","","","","50","","","","","","","","","","","","","","","","","","","","","",""
"null","","image-button-response","219","1491130","0.0-218.0","A2RBVMD2HTBCZ9","img_art/24.jpg","null","","","","","","","","","","","","","","","","","","","","","","","","",""
"5764","","image-button-response","220","1496895","0.0-219.0","A2RBVMD2HTBCZ9","img_art/24.jpg","2","","","","","","","","","","","","","","","","","","","","","","","","",""
"2182","","image-button-response","221","1499078","0.0-220.0-0.0","A2RBVMD2HTBCZ9","img_art/24.jpg","3","","","","","","","","","","","","","","","","","","","","","","","","",""
"2525","","image-button-response","222","1501606","0.0-221.0-0.0","A2RBVMD2HTBCZ9","img_art/24.jpg","0","","","","","","","","","","","","","","","","","","","","","","","","",""
"null","","html-keyboard-response","223","1503109","0.0-222.0","A2RBVMD2HTBCZ9","<p style=""font-size: 48px;"">+</p>","","","","","null","allTrialResponses","1500","1","25","img_art/24.jpg","50","this is a really pretty scene, i'd hang this up for sure.","Emma,Brittany,Jordan,Monica,Hailey,Bailey","Beautiful, good colors, love water,50,60,20","Nice colors, but doesn't do much for me.,1,40,20","It's beautiful! I love it! I see a waterfall, and they are my favorite things in the world,50,20,20","It looks alive, like I can hear the water flowing,41,360,20","warm spring day after a rain. soft,20,200,20","Feels surreal, in a way, and vibrant,37,360,20","Jordan","It's beautiful! I love it! I see a waterfall, and they are my favorite things in the world,50,20,20","Monica","It looks alive, like I can hear the water flowing,41,360,20","Emma","Beautiful, good colors, love water,50,60,20","2"
"2726","","survey-text","224","1505845","0.0-223.0-0.0","A2RBVMD2HTBCZ9","","","","{""Q0"":""table""}","","","","","","","","","","","","","","","","","","","","","","",""
"18680","","survey-text","225","1524528","0.0-224.0-0.0","A2RBVMD2HTBCZ9","","","","{""Q0"":""I could do this, which is fine, but who would pay for that?""}","","","","","","","","","","","","","","","","","","","","","","",""
"3214","","image-slider-response","226","1527745","0.0-225.0","A2RBVMD2HTBCZ9","","","","","-34","","","","","","","","","","","","","","","","","","","","","",""
"null","","image-button-response","227","1532748","0.0-226.0","A2RBVMD2HTBCZ9","img_art/13.jpg","null","","","","","","","","","","","","","","","","","","","","","","","","",""
"500","","image-button-response","228","1533249","0.0-227.0","A2RBVMD2HTBCZ9","img_art/13.jpg","2","","","","","","","","","","","","","","","","","","","","","","","","",""
"3110","","image-button-response","229","1536361","0.0-228.0-0.0","A2RBVMD2HTBCZ9","img_art/13.jpg","3","","","","","","","","","","","","","","","","","","","","","","","","",""
"4797","","image-button-response","230","1541161","0.0-229.0-0.0","A2RBVMD2HTBCZ9","img_art/13.jpg","1","","","","","","","","","","","","","","","","","","","","","","","","",""
"null","","html-keyboard-response","231","1542666","0.0-230.0","A2RBVMD2HTBCZ9","<p style=""font-size: 48px;"">+</p>","","","","","null","allTrialResponses","1500","1","26","img_art/13.jpg","-34","I could do this, which is fine, but who would pay for that?","Emma,Jacqueline,Jordan,Monica,Amber,Courtney","It's pretty ...........,41,60,20","Seems a little cold but I like the neuron looking splatters.,10,300,20","It's just paint splatter, no real meaning to me,-50,20,20","It's like any other splatter paint art piece, nothing special,1,360,20","Reminds me of rain running down a window.,35,200,20","Debree on top of a calm pond.,18,280,20","Jordan","It's just paint splatter, no real meaning to me,-50,20,20","Monica","It's like any other splatter paint art piece, nothing special,1,360,20","Jacqueline","Seems a little cold but I like the neuron looking splatters.,10,300,20","2"
"30056","","survey-text","232","1572729","0.0-231.0-0.0","A2RBVMD2HTBCZ9","","","","{""Q0"":""hints of Penrose stairs and MC Escher, mixed with ...so many others lol - i really dig this""}","","","","","","","","","","","","","","","","","","","","","","",""
"3255","","image-slider-response","233","1575988","0.0-232.0","A2RBVMD2HTBCZ9","","","","","50","","","","","","","","","","","","","","","","","","","","","",""
"null","","image-button-response","234","1580991","0.0-233.0","A2RBVMD2HTBCZ9","img_art/8.jpg","null","","","","","","","","","","","","","","","","","","","","","","","","",""
"580","","image-button-response","235","1581573","0.0-234.0","A2RBVMD2HTBCZ9","img_art/8.jpg","4","","","","","","","","","","","","","","","","","","","","","","","","",""
"2044","","image-button-response","236","1583620","0.0-235.0-0.0","A2RBVMD2HTBCZ9","img_art/8.jpg","2","","","","","","","","","","","","","","","","","","","","","","","","",""
"351","","image-button-response","237","1583973","0.0-236.0-0.0","A2RBVMD2HTBCZ9","img_art/8.jpg","1","","","","","","","","","","","","","","","","","","","","","","","","",""
"null","","html-keyboard-response","238","1585485","0.0-237.0","A2RBVMD2HTBCZ9","<p style=""font-size: 48px;"">+</p>","","","","","null","allTrialResponses","1500","1","27","img_art/8.jpg","50","hints of Penrose stairs and MC Escher, mixed with ...so many others lol - i really dig this","Abigail,Jacqueline,Jordan,Monica,Alyssa,Andrea","I did not like the face,-10,20,20","This is kind of neat. I really like how things are oriented and the shapes used.,18,300,20","very nice, i love what's going on here,21,20,20","The faces in the upper left show agony and contrast with the geometric shapes too much,-31,360,20","I like how the more you like at it there are more things to discover.Very creative.,33,160,20","The face makes me think its a statement of the almighty of big brother watching us. onfuCsion limits my enjoyment.,6,240,20","Alyssa","I like how the more you like at it there are more things to discover.Very creative.,33,160,20","Jordan","very nice, i love what's going on here,21,20,20","Jacqueline","This is kind of neat. I really like how things are oriented and the shapes used.,18,300,20","2"
"22091","","survey-text","239","1607583","0.0-238.0-0.0","A2RBVMD2HTBCZ9","","","","{""Q0"":""the more i look the more i see, its like playing Where's Waldo""}","","","","","","","","","","","","","","","","","","","","","","",""
"4766","","image-slider-response","240","1612351","0.0-239.0","A2RBVMD2HTBCZ9","","","","","27","","","","","","","","","","","","","","","","","","","","","",""
"2815","","image-button-response","241","1617364","0.0-240.0","A2RBVMD2HTBCZ9","img_art/12.jpg","0","","","","","","","","","","","","","","","","","","","","","","","","",""
"515","","image-button-response","242","1617881","0.0-241.0","A2RBVMD2HTBCZ9","img_art/12.jpg","0","","","","","","","","","","","","","","","","","","","","","","","","",""
"1862","","image-button-response","243","1619744","0.0-242.0-0.0","A2RBVMD2HTBCZ9","img_art/12.jpg","5","","","","","","","","","","","","","","","","","","","","","","","","",""
"1518","","image-button-response","244","1621265","0.0-243.0-0.0","A2RBVMD2HTBCZ9","img_art/12.jpg","3","","","","","","","","","","","","","","","","","","","","","","","","",""
"null","","html-keyboard-response","245","1622773","0.0-244.0","A2RBVMD2HTBCZ9","<p style=""font-size: 48px;"">+</p>","","","","","null","allTrialResponses","1500","1","28","img_art/12.jpg","27","the more i look the more i see, its like playing Where's Waldo","Elizabeth,Jacqueline,Jordan,Michaela,Alyssa,Melissa","Explosion of texture,31,20,20","It's not particularly interesting or ugly.,-7,300,20","not my kind of thing,1,20,20","It looks like old lady upholstery,12,260,20","Its cool,reminiscent of Andy Warhol type of style,10,160,20","reminds me of a dixie cup,3,240,20","Elizabeth","Explosion of texture,31,20,20","Melissa","reminds me of a dixie cup,3,240,20","Michaela","It looks like old lady upholstery,12,260,20","2"
"15901","","survey-text","246","1638682","0.0-245.0-0.0","A2RBVMD2HTBCZ9","","","","{""Q0"":""could be better could be worse, seen too many like it to care""}","","","","","","","","","","","","","","","","","","","","","","",""
"4564","","image-slider-response","247","1643250","0.0-246.0","A2RBVMD2HTBCZ9","","","","","0","","","","","","","","","","","","","","","","","","","","","",""
"null","","image-button-response","248","1648262","0.0-247.0","A2RBVMD2HTBCZ9","img_art/1.jpg","null","","","","","","","","","","","","","","","","","","","","","","","","",""
"3395","","image-button-response","249","1651658","0.0-248.0","A2RBVMD2HTBCZ9","img_art/1.jpg","5","","","","","","","","","","","","","","","","","","","","","","","","",""
"1454","","image-button-response","250","1653116","0.0-249.0-0.0","A2RBVMD2HTBCZ9","img_art/1.jpg","2","","","","","","","","","","","","","","","","","","","","","","","","",""
"2164","","image-button-response","251","1655283","0.0-250.0-0.0","A2RBVMD2HTBCZ9","img_art/1.jpg","1","","","","","","","","","","","","","","","","","","","","","","","","",""
"null","","html-keyboard-response","252","1656792","0.0-251.0","A2RBVMD2HTBCZ9","<p style=""font-size: 48px;"">+</p>","","","","","null","allTrialResponses","1500","1","29","img_art/1.jpg","0","could be better could be worse, seen too many like it to care","Elizabeth,Ashley,Brooke,Michaela,Crystal,Melissa","Absolutely love this painting,50,20,20","More passable, colorful, abstract.,13,320,20","It's okay, colors remind me of autumn.,10,60,20","That one piece in the middle gives it depth and it's really neat,21,260,20","Interesting color scheme but to bled to me,11,300,20","muddy and uninteresting,-16,240,20","Melissa","muddy and uninteresting,-16,240,20","Brooke","It's okay, colors remind me of autumn.,10,60,20","Ashley","More passable, colorful, abstract.,13,320,20","2"
"13999","","survey-text","253","1670797","0.0-252.0-0.0","A2RBVMD2HTBCZ9","","","","{""Q0"":""rather interesting textures, makes it pop off the canvas""}","","","","","","","","","","","","","","","","","","","","","","",""
"3380","","image-slider-response","254","1674180","0.0-253.0","A2RBVMD2HTBCZ9","","","","","11","","","","","","","","","","","","","","","","","","","","","",""
"null","","image-button-response","255","1679191","0.0-254.0","A2RBVMD2HTBCZ9","img_art/7.jpg","null","","","","","","","","","","","","","","","","","","","","","","","","",""
"5325","","image-button-response","256","1684518","0.0-255.0","A2RBVMD2HTBCZ9","img_art/7.jpg","5","","","","","","","","","","","","","","","","","","","","","","","","",""
"894","","image-button-response","257","1685413","0.0-256.0-0.0","A2RBVMD2HTBCZ9","img_art/7.jpg","0","","","","","","","","","","","","","","","","","","","","","","","","",""
"2885","","image-button-response","258","1688302","0.0-257.0-0.0","A2RBVMD2HTBCZ9","img_art/7.jpg","4","","","","","","","","","","","","","","","","","","","","","","","","",""
"null","","html-keyboard-response","259","1688810","0.0-258.0","A2RBVMD2HTBCZ9","<p style=""font-size: 48px;"">+</p>","","","","","null","allTrialResponses","500","1","30","img_art/7.jpg","11","rather interesting textures, makes it pop off the canvas","Autumn,Ashley,Brooke,Alicia,Maria,Melissa","Well done minimalism.,35,340,20","landscape of amrs, yawn.,-25,320,20","tracks in dirt?,-15,60,20","I don't get it. looks like a picture of the ground.,-42,120,20","elicits no real response,0,120,20","textures are engaging,8,240,20","Melissa","textures are engaging,8,240,20","Autumn","Well done minimalism.,35,340,20","Maria","elicits no real response,0,120,20","2"
"3394","","image-button-response_instructions","260","1692214","0.0-259.0","A2RBVMD2HTBCZ9","","0","instructions","","","","","","","","","","","","","","","","","","","","","","","",""
