"rt","url","trial_type","trial_index","time_elapsed","internal_node_id","participant_id","stimulus","button_pressed","Name","responses","response","key_press","variableName","fixationTime","condition","trial","photo","subjectRating","subjectResponse","agentsNames","agent_1_Response","agent_2_Response","agent_3_Response","agent_4_Response","agent_5_Response","agent_6_Response","kept_1_name","kept_1_response","kept_2_name","kept_2_response","kept_3_name","kept_3_response","errorCounter"
"14443","external_page_harvard.html","external-html","0","14545","0.0-0.0","A2RMQJTHVSI59R","","","","","","","","","","","","","","","","","","","","","","","","","","",""
"1657","","image-button-response","1","16203","0.0-1.0","A2RMQJTHVSI59R","","1","","","","","","","","","","","","","","","","","","","","","","","","",""
"2175","","image-button-response","2","18382","0.0-2.0-0.0","A2RMQJTHVSI59R","","1","phone","","","","","","","","","","","","","","","","","","","","","","","",""
"15565","","survey-text","3","33948","0.0-3.0-0.0","A2RMQJTHVSI59R","","","","{""Q0"":""A2RMQJTHVSI59R""}","","","","","","","","","","","","","","","","","","","","","","",""
"8703","","image-button-response_instructions","4","42652","0.0-4.0","A2RMQJTHVSI59R","","0","instructions","","","","","","","","","","","","","","","","","","","","","","","",""
"22868","","image-button-response_instructions","5","65521","0.0-5.0","A2RMQJTHVSI59R","img_art/ins/popularity/ins1.png","0","instructions","","","","","","","","","","","","","","","","","","","","","","","",""
"7750","","image-button-response_instructions","6","73272","0.0-6.0","A2RMQJTHVSI59R","img_art/ins/popularity/ins2.png","0","instructions","","","","","","","","","","","","","","","","","","","","","","","",""
"6214","","image-button-response_instructions","7","79486","0.0-7.0","A2RMQJTHVSI59R","img_art/ins/popularity/ins2Extreme.png","0","instructions","","","","","","","","","","","","","","","","","","","","","","","",""
"7740","","image-button-response_instructions","8","87227","0.0-8.0","A2RMQJTHVSI59R","img_art/ins/popularity/ins3KEEPpop.PNG","0","instructions","","","","","","","","","","","","","","","","","","","","","","","",""
"5158","","image-button-response_instructions","9","92386","0.0-9.0","A2RMQJTHVSI59R","img_art/ins/popularity/ins3ANamepop.PNG","0","instructions","","","","","","","","","","","","","","","","","","","","","","","",""
"5658","","image-button-response_instructions","10","98044","0.0-10.0","A2RMQJTHVSI59R","img_art/ins/popularity/ins3ARatingpop.png","0","instructions","","","","","","","","","","","","","","","","","","","","","","","",""
"2940","","image-button-response_instructions","11","100984","0.0-11.0","A2RMQJTHVSI59R","img_art/ins/popularity/ins3ATextpop.png","0","instructions","","","","","","","","","","","","","","","","","","","","","","","",""
"8490","","image-button-response_instructions","12","109475","0.0-12.0","A2RMQJTHVSI59R","img_art/ins/popularity/ins3ALikespop.png","0","instructions","","","","","","","","","","","","","","","","","","","","","","","",""
"11419","","image-button-response_instructions","13","120895","0.0-13.0","A2RMQJTHVSI59R","img_art/ins/popularity/ins3KEEPpop.PNG","0","instructions","","","","","","","","","","","","","","","","","","","","","","","",""
"10293","","image-button-response_instructions","14","131189","0.0-14.0","A2RMQJTHVSI59R","img_art/ins/popularity/ins3_5RED.png","0","instructions","","","","","","","","","","","","","","","","","","","","","","","",""
"5085","","image-button-response_instructions","15","136275","0.0-15.0","A2RMQJTHVSI59R","img_art/ins/popularity/ins3KEEPpop.PNG","0","instructions","","","","","","","","","","","","","","","","","","","","","","","",""
"11491","","image-button-response_instructions","16","147767","0.0-16.0","A2RMQJTHVSI59R","img_art/ins/popularity/ins4KEEPpop.PNG","0","instructions","","","","","","","","","","","","","","","","","","","","","","","",""
"5205","","image-button-response_instructions","17","152972","0.0-17.0","A2RMQJTHVSI59R","img_art/ins/popularity/ins5KEEPpop.PNG","0","instructions","","","","","","","","","","","","","","","","","","","","","","","",""
"3847","","image-button-response_instructions","18","156820","0.0-18.0","A2RMQJTHVSI59R","","0","instructions","","","","","","","","","","","","","","","","","","","","","","","",""
"10864","","survey-text","19","167704","0.0-19.0-0.0","A2RMQJTHVSI59R","","","","{""Q0"":""but""}","","","","","","","","","","","","","","","","","","","","","","",""
"13623","","survey-text","20","181328","0.0-20.0-0.0","A2RMQJTHVSI59R","","","","{""Q0"":""A peaceful feeling.""}","","","","","","","","","","","","","","","","","","","","","","",""
"6883","","image-slider-response","21","188213","0.0-21.0","A2RMQJTHVSI59R","","","","","29","","","","","","","","","","","","","","","","","","","","","",""
"null","","image-button-response","22","193216","0.0-22.0","A2RMQJTHVSI59R","img_art/ins/1.jpg","null","","","","","","","","","","","","","","","","","","","","","","","","",""
"9762","","image-button-response","23","202979","0.0-23.0","A2RMQJTHVSI59R","img_art/ins/1.jpg","4","","","","","","","","","","","","","","","","","","","","","","","","",""
"3727","","image-button-response","24","206707","0.0-24.0-0.0","A2RMQJTHVSI59R","img_art/ins/1.jpg","5","","","","","","","","","","","","","","","","","","","","","","","","",""
"8567","","image-button-response","25","215276","0.0-25.0-0.0","A2RMQJTHVSI59R","img_art/ins/1.jpg","0","","","","","","","","","","","","","","","","","","","","","","","","",""
"null","","html-keyboard-response","26","216279","0.0-26.0","A2RMQJTHVSI59R","<p style=""font-size: 48px;"">+</p>","","","","","null","allTrialResponses","1000","1","-2","img_art/ins/1.jpg","29","A peaceful feeling.","Allison,Ashley,Beth,Dora,Erika,Jen","looks like a lot of things going on in the mist,20,20,20","I just don't get why these type of art would be popular,-32,40,20","This color reminds me of poo,-46,60,20","looks like what my niece in 3rd grade did this afternoon,-50,80,20","I like the sophisticated brushwork,40,100,20","It reminds me of a candy land dream I had,36,120,20","Erika","I like the sophisticated brushwork,40,100,20","Jen","It reminds me of a candy land dream I had,36,120,20","Allison","looks like a lot of things going on in the mist,20,20,20","0"
"22845","","survey-text","27","239130","0.0-27.0-0.0","A2RMQJTHVSI59R","","","","{""Q0"":""Love the saturated colors but I don't see any real meaning in this piece.""}","","","","","","","","","","","","","","","","","","","","","","",""
"6656","","image-slider-response","28","245787","0.0-28.0","A2RMQJTHVSI59R","","","","","4","","","","","","","","","","","","","","","","","","","","","",""
"3503","","image-button-response","29","250788","0.0-29.0","A2RMQJTHVSI59R","img_art/ins/2.jpg","0","","","","","","","","","","","","","","","","","","","","","","","","",""
"8913","","image-button-response","30","259702","0.0-30.0","A2RMQJTHVSI59R","img_art/ins/2.jpg","5","","","","","","","","","","","","","","","","","","","","","","","","",""
"2770","","image-button-response","31","262472","0.0-31.0-0.0","A2RMQJTHVSI59R","img_art/ins/2.jpg","0","","","","","","","","","","","","","","","","","","","","","","","","",""
"1005","","image-button-response","32","263479","0.0-32.0-0.0","A2RMQJTHVSI59R","img_art/ins/2.jpg","0","","","","","","","","","","","","","","","","","","","","","","","","",""
"3085","","image-button-response","33","272433","0.0-32.1-0.1","A2RMQJTHVSI59R","img_art/ins/2.jpg","1","","","","","","","","","","","","","","","","","","","","","","","","",""
"null","","html-keyboard-response","34","273935","0.0-33.0","A2RMQJTHVSI59R","<p style=""font-size: 48px;"">+</p>","","","","","null","allTrialResponses","1500","1","-1","img_art/ins/2.jpg","4","Love the saturated colors but I don't see any real meaning in this piece.","Allison,Kara,Katie,Jenna,Erika,Jen","I don't have strong feelings about this,10,20,20","I like the blocks of color arrangements,30,160,20","too much color!,-28,180,20","One of my pet peevs,-48,140,20","I would never be able to compose a sophisticated pallete like this,48,100,20","It reminds me of a fireplace,36,120,20","Jen","It reminds me of a fireplace,36,120,20","Allison","I don't have strong feelings about this,10,20,20","Kara","I like the blocks of color arrangements,30,160,20","2"
"20366","","survey-text","35","294305","0.0-34.0-0.0","A2RMQJTHVSI59R","","","","{""Q0"":""Reminds me of ice and gives me a very peaceful and clear feeling.""}","","","","","","","","","","","","","","","","","","","","","","",""
"5516","","image-slider-response","36","299822","0.0-35.0","A2RMQJTHVSI59R","","","","","31","","","","","","","","","","","","","","","","","","","","","",""
"2709","","image-button-response","37","304825","0.0-36.0","A2RMQJTHVSI59R","img_art/ins/3.jpg","0","","","","","","","","","","","","","","","","","","","","","","","","",""
"8802","","image-button-response","38","313629","0.0-37.0","A2RMQJTHVSI59R","img_art/ins/3.jpg","4","","","","","","","","","","","","","","","","","","","","","","","","",""
"2018","","image-button-response","39","315647","0.0-38.0-0.0","A2RMQJTHVSI59R","img_art/ins/3.jpg","0","","","","","","","","","","","","","","","","","","","","","","","","",""
"2292","","image-button-response","40","317940","0.0-39.0-0.0","A2RMQJTHVSI59R","img_art/ins/3.jpg","1","","","","","","","","","","","","","","","","","","","","","","","","",""
"null","","html-keyboard-response","41","318942","0.0-40.0","A2RMQJTHVSI59R","<p style=""font-size: 48px;"">+</p>","","","","","null","allTrialResponses","1000","1","0","img_art/ins/3.jpg","31","Reminds me of ice and gives me a very peaceful and clear feeling.","Allison,Kara,Rose,Leslie,Mary,Jen","enjoy the different shades of blue,22,20,20","calming blue is very nice,36,160,20","My daily routine, it's depressing,-20,240,20","It's an alright work,15,200,20","I like the overlapping of brushes,41,220,20","I can feel a rainy day from this painting,18,120,20","Mary","I like the overlapping of brushes,41,220,20","Allison","enjoy the different shades of blue,22,20,20","Kara","calming blue is very nice,36,160,20","2"
"9159","","image-button-response_instructions","42","328107","0.0-41.0","A2RMQJTHVSI59R","","0","instructions","","","","","","","","","","","","","","","","","","","","","","","",""
"13237","","survey-likert","43","341346","0.0-42.0-0.0","A2RMQJTHVSI59R","","","","{""Q0"":"""",""Q1"":0,""Q2"":1}","","","","","","","","","","","","","","","","","","","","","","",""
"4863","","survey-text","44","346213","0.0-43.0-0.0","A2RMQJTHVSI59R","","","","{""Q0"":""rock""}","","","","","","","","","","","","","","","","","","","","","","",""
"16138","","survey-text","45","362352","0.0-44.0-0.0","A2RMQJTHVSI59R","","","","{""Q0"":""interesting piece but I don't care for it ""}","","","","","","","","","","","","","","","","","","","","","","",""
"4686","","image-slider-response","46","367038","0.0-45.0","A2RMQJTHVSI59R","","","","","-3","","","","","","","","","","","","","","","","","","","","","",""
"null","","image-button-response","47","372064","0.0-46.0","A2RMQJTHVSI59R","img_art/14.jpg","null","","","","","","","","","","","","","","","","","","","","","","","","",""
"14387","","image-button-response","48","386452","0.0-47.0","A2RMQJTHVSI59R","img_art/14.jpg","5","","","","","","","","","","","","","","","","","","","","","","","","",""
"5150","","image-button-response","49","391603","0.0-48.0-0.0","A2RMQJTHVSI59R","img_art/14.jpg","1","","","","","","","","","","","","","","","","","","","","","","","","",""
"3491","","image-button-response","50","395096","0.0-49.0-0.0","A2RMQJTHVSI59R","img_art/14.jpg","2","","","","","","","","","","","","","","","","","","","","","","","","",""
"null","","html-keyboard-response","51","395598","0.0-50.0","A2RMQJTHVSI59R","<p style=""font-size: 48px;"">+</p>","","","","","null","allTrialResponses","500","1","1","img_art/14.jpg","-3","interesting piece but I don't care for it ","Cassandra,Maria,Amanda,Madison,Jacqueline,Catherine","I kind of like it...I like the white back ground,11,120,20","I enjoy what comes across as a playful take on nature themes,26,120,20","Gorgeous use of water color,50,180,20","No strong feelings either direction.,-4,60,20","It kind of looks like a tree but I feel very netural.,0,300,20","Tornado, nature. trees falling and displaced creatures. Love the colors though.,1,160,20","Catherine","Tornado, nature. trees falling and displaced creatures. Love the colors though.,1,160,20","Maria","I enjoy what comes across as a playful take on nature themes,26,120,20","Amanda","Gorgeous use of water color,50,180,20","2"
"17435","","survey-text","52","413037","0.0-51.0-0.0","A2RMQJTHVSI59R","","","","{""Q0"":""Love the abstract bird""}","","","","","","","","","","","","","","","","","","","","","","",""
"4589.999999999942","","image-slider-response","53","417628","0.0-52.0","A2RMQJTHVSI59R","","","","","20","","","","","","","","","","","","","","","","","","","","","",""
"4005","","image-button-response","54","422630","0.0-53.0","A2RMQJTHVSI59R","img_art/6.jpg","1","","","","","","","","","","","","","","","","","","","","","","","","",""
"3973","","image-button-response","55","426604","0.0-54.0","A2RMQJTHVSI59R","img_art/6.jpg","3","","","","","","","","","","","","","","","","","","","","","","","","",""
"2260","","image-button-response","56","428866","0.0-55.0-0.0","A2RMQJTHVSI59R","img_art/6.jpg","4","","","","","","","","","","","","","","","","","","","","","","","","",""
"2184","","image-button-response","57","431051","0.0-56.0-0.0","A2RMQJTHVSI59R","img_art/6.jpg","5","","","","","","","","","","","","","","","","","","","","","","","","",""
"null","","html-keyboard-response","58","432052","0.0-57.0","A2RMQJTHVSI59R","<p style=""font-size: 48px;"">+</p>","","","","","null","allTrialResponses","1000","1","2","img_art/6.jpg","20","Love the abstract bird","Caitlin,Maria,Amanda,Haley,Michaela,Catherine","A crow on one leg?,-10,80,20","intrigues me - not sure what I'm seeing, but I like combination of colour and texture,21,120,20","Makes me feel lonely,-22,180,20","I like the color and the gradient,10,220,20","It looks like a bird looking away,32,260,20","Looking, searching at the same time being content.,30,160,20","Haley","I like the color and the gradient,10,220,20","Michaela","It looks like a bird looking away,32,260,20","Catherine","Looking, searching at the same time being content.,30,160,20","2"
"18513","","survey-text","59","450571","0.0-58.0-0.0","A2RMQJTHVSI59R","","","","{""Q0"":""Mysterious. Gives me a feeling of intrigue.""}","","","","","","","","","","","","","","","","","","","","","","",""
"4821","","image-slider-response","60","455392","0.0-59.0","A2RMQJTHVSI59R","","","","","23","","","","","","","","","","","","","","","","","","","","","",""
"3184","","image-button-response","61","460395","0.0-60.0","A2RMQJTHVSI59R","img_art/17.jpg","3","","","","","","","","","","","","","","","","","","","","","","","","",""
"3746","","image-button-response","62","464142","0.0-61.0","A2RMQJTHVSI59R","img_art/17.jpg","5","","","","","","","","","","","","","","","","","","","","","","","","",""
"4907","","image-button-response","63","469050","0.0-62.0-0.0","A2RMQJTHVSI59R","img_art/17.jpg","1","","","","","","","","","","","","","","","","","","","","","","","","",""
"5338","","image-button-response","64","474390","0.0-63.0-0.0","A2RMQJTHVSI59R","img_art/17.jpg","3","","","","","","","","","","","","","","","","","","","","","","","","",""
"null","","html-keyboard-response","65","475892","0.0-64.0","A2RMQJTHVSI59R","<p style=""font-size: 48px;"">+</p>","","","","","null","allTrialResponses","1500","1","3","img_art/17.jpg","23","Mysterious. Gives me a feeling of intrigue.","Mary,Gabriela,Ashley,Haley,Michaela,Catherine","The colors are nice and soft but not very complimentary.,7,180,20","This makes me feel inspired and happy. I love everything about this portrait,45,140,20","taste the rainbow, feel the flavor.,23,320,20","Colors and composition are beautiful. I would hang this in my home.,50,220,20","I love how soft it is,35,260,20","Nature coming to the inside of your space that you are locked into.,50,160,20","Catherine","Nature coming to the inside of your space that you are locked into.,50,160,20","Gabriela","This makes me feel inspired and happy. I love everything about this portrait,45,140,20","Haley","Colors and composition are beautiful. I would hang this in my home.,50,220,20","2"
"29167","","survey-text","66","505063","0.0-65.0-0.0","A2RMQJTHVSI59R","","","","{""Q0"":""Very interesting composition. I feel like I could look at it for a long time.""}","","","","","","","","","","","","","","","","","","","","","","",""
"4269","","image-slider-response","67","509333","0.0-66.0","A2RMQJTHVSI59R","","","","","29","","","","","","","","","","","","","","","","","","","","","",""
"3614","","image-button-response","68","514335","0.0-67.0","A2RMQJTHVSI59R","img_art/15.jpg","3","","","","","","","","","","","","","","","","","","","","","","","","",""
"8700","","image-button-response","69","523037","0.0-68.0","A2RMQJTHVSI59R","img_art/15.jpg","5","","","","","","","","","","","","","","","","","","","","","","","","",""
"2372","","image-button-response","70","525410","0.0-69.0-0.0","A2RMQJTHVSI59R","img_art/15.jpg","4","","","","","","","","","","","","","","","","","","","","","","","","",""
"1560","","image-button-response","71","526971","0.0-70.0-0.0","A2RMQJTHVSI59R","img_art/15.jpg","3","","","","","","","","","","","","","","","","","","","","","","","","",""
"null","","html-keyboard-response","72","527473","0.0-71.0","A2RMQJTHVSI59R","<p style=""font-size: 48px;"">+</p>","","","","","null","allTrialResponses","500","1","4","img_art/15.jpg","29","Very interesting composition. I feel like I could look at it for a long time.","Jordan,Gabriela,Hailey,Haley,Brianna,Catherine","I'm just not into it,-5,20,20","it is dark and gloomy,-9,140,20","ugly picture and don't like it,-22,200,20","Interesting, and I don't dislike it.,9,220,20","No opinion truthfully,1,20,20","ants on the ground playing with bubble gum. They may be thinking of how they can use it to build something,-30,160,20","Catherine","ants on the ground playing with bubble gum. They may be thinking of how they can use it to build something,-30,160,20","Brianna","No opinion truthfully,1,20,20","Haley","Interesting, and I don't dislike it.,9,220,20","2"
"13619","","survey-text","73","541099","0.0-72.0-0.0","A2RMQJTHVSI59R","","","","{""Q0"":""Chaotic. Makes me feel nervous. I don't like it.""}","","","","","","","","","","","","","","","","","","","","","","",""
"4196","","image-slider-response","74","545296","0.0-73.0","A2RMQJTHVSI59R","","","","","-19","","","","","","","","","","","","","","","","","","","","","",""
"2252","","image-button-response","75","550298","0.0-74.0","A2RMQJTHVSI59R","img_art/8.jpg","0","","","","","","","","","","","","","","","","","","","","","","","","",""
"2754","","image-button-response","76","553053","0.0-75.0","A2RMQJTHVSI59R","img_art/8.jpg","2","","","","","","","","","","","","","","","","","","","","","","","","",""
"4853","","image-button-response","77","557907","0.0-76.0-0.0","A2RMQJTHVSI59R","img_art/8.jpg","4","","","","","","","","","","","","","","","","","","","","","","","","",""
"8410","","image-button-response","78","566321","0.0-77.0-0.0","A2RMQJTHVSI59R","img_art/8.jpg","5","","","","","","","","","","","","","","","","","","","","","","","","",""
"null","","html-keyboard-response","79","567323","0.0-78.0","A2RMQJTHVSI59R","<p style=""font-size: 48px;"">+</p>","","","","","null","allTrialResponses","1000","1","5","img_art/8.jpg","-19","Chaotic. Makes me feel nervous. I don't like it.","Bailey,Mikayla,Amy,Haley,Brianna,Catherine","Not a fan of abstract looking pieces with too many focal points. The tunnel and face, for example,-31,360,20","Its kinda like an optical illusion.,22,300,20","The definition and the colors give make this painting accessible and thought provoking.,30,220,20","Gorgeous! I love the colors and the details.,50,220,20","It's very odd and I don't really like it,-30,20,20","Lost in a big city confuse as to where to go to next. No matter if you live in a mansion or homeless. Being bigger than what is going on around you,30,160,20","Amy","The definition and the colors give make this painting accessible and thought provoking.,30,220,20","Brianna","It's very odd and I don't really like it,-30,20,20","Catherine","Lost in a big city confuse as to where to go to next. No matter if you live in a mansion or homeless. Being bigger than what is going on around you,30,160,20","2"
"3763","","survey-text","80","571094","0.0-79.0-0.0","A2RMQJTHVSI59R","","","","{""Q0"":""sky""}","","","","","","","","","","","","","","","","","","","","","","",""
"17395","","survey-text","81","588490","0.0-80.0-0.0","A2RMQJTHVSI59R","","","","{""Q0"":""I like the colors and the abstraction, but looks immature""}","","","","","","","","","","","","","","","","","","","","","","",""
"6404","","image-slider-response","82","594895","0.0-81.0","A2RMQJTHVSI59R","","","","","10","","","","","","","","","","","","","","","","","","","","","",""
"2778","","image-button-response","83","599897","0.0-82.0","A2RMQJTHVSI59R","img_art/26.jpg","0","","","","","","","","","","","","","","","","","","","","","","","","",""
"6878","","image-button-response","84","606776","0.0-83.0","A2RMQJTHVSI59R","img_art/26.jpg","3","","","","","","","","","","","","","","","","","","","","","","","","",""
"2284","","image-button-response","85","609062","0.0-84.0-0.0","A2RMQJTHVSI59R","img_art/26.jpg","4","","","","","","","","","","","","","","","","","","","","","","","","",""
"1310","","image-button-response","86","610373","0.0-85.0-0.0","A2RMQJTHVSI59R","img_art/26.jpg","5","","","","","","","","","","","","","","","","","","","","","","","","",""
"null","","html-keyboard-response","87","610876","0.0-86.0","A2RMQJTHVSI59R","<p style=""font-size: 48px;"">+</p>","","","","","null","allTrialResponses","500","1","6","img_art/26.jpg","10","I like the colors and the abstraction, but looks immature","Makayla,Kaitlyn,Amy,Alexandra,Brianna,Catherine","Reminds me of a European street, I desire to walk in this picture,28,80,20","The colors look faded and blurry,2,80,20","The feeling that I am looking at the world through a dingy filter makes this unpleasant for me.,-20,220,20","I like the colors but it is still a little boring,22,60,20","This picture is ok; just a normal city,11,20,20","Incomplete, The artist painted his impression of somthing he was thinking of,0,160,20","Alexandra","I like the colors but it is still a little boring,22,60,20","Brianna","This picture is ok; just a normal city,11,20,20","Catherine","Incomplete, The artist painted his impression of somthing he was thinking of,0,160,20","2"
"8528","","survey-text","88","619409","0.0-87.0-0.0","A2RMQJTHVSI59R","","","","{""Q0"":""I don't get it.""}","","","","","","","","","","","","","","","","","","","","","","",""
"4133.999999999884","","image-slider-response","89","623544","0.0-88.0","A2RMQJTHVSI59R","","","","","-35","","","","","","","","","","","","","","","","","","","","","",""
"3352","","image-button-response","90","628547","0.0-89.0","A2RMQJTHVSI59R","img_art/5.jpg","0","","","","","","","","","","","","","","","","","","","","","","","","",""
"1513","","image-button-response","91","630061","0.0-90.0","A2RMQJTHVSI59R","img_art/5.jpg","1","","","","","","","","","","","","","","","","","","","","","","","","",""
"7315","","image-button-response","92","637378","0.0-91.0-0.0","A2RMQJTHVSI59R","img_art/5.jpg","2","","","","","","","","","","","","","","","","","","","","","","","","",""
"1465","","image-button-response","93","638845","0.0-92.0-0.0","A2RMQJTHVSI59R","img_art/5.jpg","3","","","","","","","","","","","","","","","","","","","","","","","","",""
"null","","html-keyboard-response","94","639848","0.0-93.0","A2RMQJTHVSI59R","<p style=""font-size: 48px;"">+</p>","","","","","null","allTrialResponses","1000","1","7","img_art/5.jpg","-35","I don't get it.","Sydney,Megan,Erica,Alexandra,Brianna,Catherine","I'm reminded of a volcano with weird colors.,-5,320,20","Cop out, easy money for artist for a 4 min piece,-29,200,20","positive colours; yellow calls attention,6,80,20","This looks like a twelve year old did it,-40,60,20","Very bright and has colors you wouldn't think would go together,11,20,20","Building remnants in the sand.,1,160,20","Megan","Cop out, easy money for artist for a 4 min piece,-29,200,20","Erica","positive colours; yellow calls attention,6,80,20","Alexandra","This looks like a twelve year old did it,-40,60,20","2"
"23415","","survey-text","95","663268","0.0-94.0-0.0","A2RMQJTHVSI59R","","","","{""Q0"":""Looks like a pattern for upholstery, not art.""}","","","","","","","","","","","","","","","","","","","","","","",""
"5340","","image-slider-response","96","668609","0.0-95.0","A2RMQJTHVSI59R","","","","","-36","","","","","","","","","","","","","","","","","","","","","",""
"3464","","image-button-response","97","673612","0.0-96.0","A2RMQJTHVSI59R","img_art/7.jpg","0","","","","","","","","","","","","","","","","","","","","","","","","",""
"7210","","image-button-response","98","680823","0.0-97.0","A2RMQJTHVSI59R","img_art/7.jpg","3","","","","","","","","","","","","","","","","","","","","","","","","",""
"1761","","image-button-response","99","682585","0.0-98.0-0.0","A2RMQJTHVSI59R","img_art/7.jpg","4","","","","","","","","","","","","","","","","","","","","","","","","",""
"1733","","image-button-response","100","684319","0.0-99.0-0.0","A2RMQJTHVSI59R","img_art/7.jpg","5","","","","","","","","","","","","","","","","","","","","","","","","",""
"null","","html-keyboard-response","101","685821","0.0-100.0","A2RMQJTHVSI59R","<p style=""font-size: 48px;"">+</p>","","","","","null","allTrialResponses","1500","1","8","img_art/7.jpg","-36","Looks like a pattern for upholstery, not art.","Stephanie,Megan,Erica,Alexandra,Caroline,Brooke","This looks muddy and stomped on. I think of destruction.,-50,300,20","Great portrayal of solid surface,19,200,20","No not cause many emotions,1,80,20","I do not like the boring colors in this.,-20,60,20","Looks like dirt on the ground. Makes me feel unclean,-37,100,20","tracks in dirt?,-15,60,20","Alexandra","I do not like the boring colors in this.,-20,60,20","Caroline","Looks like dirt on the ground. Makes me feel unclean,-37,100,20","Brooke","tracks in dirt?,-15,60,20","2"
"18620","","survey-text","102","704448","0.0-101.0-0.0","A2RMQJTHVSI59R","","","","{""Q0"":""Beautiful, mysterious, complex - I love it.""}","","","","","","","","","","","","","","","","","","","","","","",""
"3925","","image-slider-response","103","708374","0.0-102.0","A2RMQJTHVSI59R","","","","","36","","","","","","","","","","","","","","","","","","","","","",""
"null","","image-button-response","104","713376","0.0-103.0","A2RMQJTHVSI59R","img_art/11.jpg","null","","","","","","","","","","","","","","","","","","","","","","","","",""
"1186","","image-button-response","105","714564","0.0-104.0","A2RMQJTHVSI59R","img_art/11.jpg","2","","","","","","","","","","","","","","","","","","","","","","","","",""
"6123","","image-button-response","106","720689","0.0-105.0-0.0","A2RMQJTHVSI59R","img_art/11.jpg","4","","","","","","","","","","","","","","","","","","","","","","","","",""
"2184","","image-button-response","107","722875","0.0-106.0-0.0","A2RMQJTHVSI59R","img_art/11.jpg","5","","","","","","","","","","","","","","","","","","","","","","","","",""
"null","","html-keyboard-response","108","723877","0.0-107.0","A2RMQJTHVSI59R","<p style=""font-size: 48px;"">+</p>","","","","","null","allTrialResponses","1000","1","9","img_art/11.jpg","36","Beautiful, mysterious, complex - I love it.","Abigail,Jennifer,Elizabeth,Alexandra,Caroline,Brooke","Rainy highways in RI,20,20,20","The narrow groups of lines in the center make me feel uneasy for some reason,-31,380,20","Very unique piece of art,50,20,20","I normally would not like this photo, but the design is nice.,21,60,20","Makes me think of far away places and traveling. Makes me feel like wandering,20,100,20","futuristic arching railways,25,60,20","Elizabeth","Very unique piece of art,50,20,20","Caroline","Makes me think of far away places and traveling. Makes me feel like wandering,20,100,20","Brooke","futuristic arching railways,25,60,20","2"
"24439","","survey-text","109","748322","0.0-108.0-0.0","A2RMQJTHVSI59R","","","","{""Q0"":""Don't care for the colors or the piece overall. Makes me feel uneasy.""}","","","","","","","","","","","","","","","","","","","","","","",""
"4177","","image-slider-response","110","752500","0.0-109.0","A2RMQJTHVSI59R","","","","","-25","","","","","","","","","","","","","","","","","","","","","",""
"3136","","image-button-response","111","757502","0.0-110.0","A2RMQJTHVSI59R","img_art/1.jpg","1","","","","","","","","","","","","","","","","","","","","","","","","",""
"4738","","image-button-response","112","762241","0.0-111.0","A2RMQJTHVSI59R","img_art/1.jpg","4","","","","","","","","","","","","","","","","","","","","","","","","",""
"3191","","image-button-response","113","765434","0.0-112.0-0.0","A2RMQJTHVSI59R","img_art/1.jpg","5","","","","","","","","","","","","","","","","","","","","","","","","",""
"16245","","image-button-response","114","781680","0.0-113.0-0.0","A2RMQJTHVSI59R","img_art/1.jpg","0","","","","","","","","","","","","","","","","","","","","","","","","",""
"null","","html-keyboard-response","115","782182","0.0-114.0","A2RMQJTHVSI59R","<p style=""font-size: 48px;"">+</p>","","","","","null","allTrialResponses","500","1","10","img_art/1.jpg","-25","Don't care for the colors or the piece overall. Makes me feel uneasy.","Autumn,Christina,Elizabeth,Melissa,Caroline,Brooke","Doesn't represent anything in particular.,-47,340,20","nice colors but kinds of blah,1,240,20","Absolutely love this painting,50,20,20","muddy and uninteresting,-16,240,20","Felt nothing in response to this painting,3,100,20","It's okay, colors remind me of autumn.,10,60,20","Caroline","Felt nothing in response to this painting,3,100,20","Brooke","It's okay, colors remind me of autumn.,10,60,20","Autumn","Doesn't represent anything in particular.,-47,340,20","2"
"3388","","survey-text","116","785578","0.0-115.0-0.0","A2RMQJTHVSI59R","","","","{""Q0"":""our""}","","","","","","","","","","","","","","","","","","","","","","",""
"24724","","survey-text","117","810302","0.0-116.0-0.0","A2RMQJTHVSI59R","","","","{""Q0"":""not a picture I would like to look at, don't like proportions""}","","","","","","","","","","","","","","","","","","","","","","",""
"5024","","image-slider-response","118","815327","0.0-117.0","A2RMQJTHVSI59R","","","","","-25","","","","","","","","","","","","","","","","","","","","","",""
"null","","image-button-response","119","820331","0.0-118.0","A2RMQJTHVSI59R","img_art/24.jpg","null","","","","","","","","","","","","","","","","","","","","","","","","",""
"472","","image-button-response","120","820804","0.0-119.0","A2RMQJTHVSI59R","img_art/24.jpg","1","","","","","","","","","","","","","","","","","","","","","","","","",""
"3087","","image-button-response","121","823892","0.0-120.0-0.0","A2RMQJTHVSI59R","img_art/24.jpg","2","","","","","","","","","","","","","","","","","","","","","","","","",""
"4246","","image-button-response","122","828140","0.0-121.0-0.0","A2RMQJTHVSI59R","img_art/24.jpg","3","","","","","","","","","","","","","","","","","","","","","","","","",""
"null","","html-keyboard-response","123","829642","0.0-122.0","A2RMQJTHVSI59R","<p style=""font-size: 48px;"">+</p>","","","","","null","allTrialResponses","1500","1","11","img_art/24.jpg","-25","not a picture I would like to look at, don't like proportions","Autumn,Katherine,Angela,Shannon,Caroline,Brooke","Very cute amateur piece.,18,340,20","The combination of nature / realism with abstract colors is unique.,39,120,20","Love the colors in this work, and the sense of motion in the water,36,260,20","I like the way the colors are put together, and I can imagine this picture in real life.,40,220,20","Waterfalls and spring and gives me a sense of renewal,34,100,20","Mountain stream pineapple texture?,30,60,20","Katherine","The combination of nature / realism with abstract colors is unique.,39,120,20","Angela","Love the colors in this work, and the sense of motion in the water,36,260,20","Shannon","I like the way the colors are put together, and I can imagine this picture in real life.,40,220,20","2"
"18233","","survey-text","124","847882","0.0-123.0-0.0","A2RMQJTHVSI59R","","","","{""Q0"":""drives me crazy - it is a house or a face - I hate it""}","","","","","","","","","","","","","","","","","","","","","","",""
"4805.999999999884","","image-slider-response","125","852689","0.0-124.0","A2RMQJTHVSI59R","","","","","-50","","","","","","","","","","","","","","","","","","","","","",""
"null","","image-button-response","126","857692","0.0-125.0","A2RMQJTHVSI59R","img_art/2.jpg","null","","","","","","","","","","","","","","","","","","","","","","","","",""
"809","","image-button-response","127","858503","0.0-126.0","A2RMQJTHVSI59R","img_art/2.jpg","1","","","","","","","","","","","","","","","","","","","","","","","","",""
"2680","","image-button-response","128","861184","0.0-127.0-0.0","A2RMQJTHVSI59R","img_art/2.jpg","2","","","","","","","","","","","","","","","","","","","","","","","","",""
"5688","","image-button-response","129","866873","0.0-128.0-0.0","A2RMQJTHVSI59R","img_art/2.jpg","3","","","","","","","","","","","","","","","","","","","","","","","","",""
"null","","html-keyboard-response","130","867876","0.0-129.0","A2RMQJTHVSI59R","<p style=""font-size: 48px;"">+</p>","","","","","null","allTrialResponses","1000","1","12","img_art/2.jpg","-50","drives me crazy - it is a house or a face - I hate it","Heather,Katherine,Angela,Shannon,Molly,Tiffany","i like the colors and again can make out my own picture,38,260,20","The color combo is kind of ugly but there's something charming about it still,17,120,20","Only like the blues and teals in this. The rest is unappealing.,-15,260,20","I like this picture a little because the colors make it look a little vibrant.,10,220,20","Colorful, curious.,20,340,20","I feel claustrophobic. I'm looking at a busy shop, but the simple shapes and continuous colors make it hectic.,-8,360,20","Katherine","The color combo is kind of ugly but there's something charming about it still,17,120,20","Angela","Only like the blues and teals in this. The rest is unappealing.,-15,260,20","Shannon","I like this picture a little because the colors make it look a little vibrant.,10,220,20","2"
"12200","","survey-text","131","880082","0.0-130.0-0.0","A2RMQJTHVSI59R","","","","{""Q0"":""Very interesting to look at. ""}","","","","","","","","","","","","","","","","","","","","","","",""
"4808","","image-slider-response","132","884892","0.0-131.0","A2RMQJTHVSI59R","","","","","21","","","","","","","","","","","","","","","","","","","","","",""
"null","","image-button-response","133","889895","0.0-132.0","A2RMQJTHVSI59R","img_art/12.jpg","null","","","","","","","","","","","","","","","","","","","","","","","","",""
"323","","image-button-response","134","890218","0.0-133.0","A2RMQJTHVSI59R","img_art/12.jpg","1","","","","","","","","","","","","","","","","","","","","","","","","",""
"10147","","image-button-response","135","900367","0.0-134.0-0.0","A2RMQJTHVSI59R","img_art/12.jpg","4","","","","","","","","","","","","","","","","","","","","","","","","",""
"2485","","image-button-response","136","902854","0.0-135.0-0.0","A2RMQJTHVSI59R","img_art/12.jpg","5","","","","","","","","","","","","","","","","","","","","","","","","",""
"null","","html-keyboard-response","137","904357","0.0-136.0","A2RMQJTHVSI59R","<p style=""font-size: 48px;"">+</p>","","","","","null","allTrialResponses","1500","1","13","img_art/12.jpg","21","Very interesting to look at. ","Morgan,Katherine,Angela,Shannon,Grace,Katie","Ugly color combinations, no focus.,-25,380,20","Not sure why but this is my favorite. I'd put it on my wall,50,120,20","I like the colors in the bottom half of the painting,10,260,20","This image doesn't have anything going on. The top half is really ugly, I kind of like the bottom a little.,-20,220,20","Love the colors & the abstractness.,31,180,20","Squares are rigid. I'm ambivalent.,1,160,20","Katherine","Not sure why but this is my favorite. I'd put it on my wall,50,120,20","Grace","Love the colors & the abstractness.,31,180,20","Katie","Squares are rigid. I'm ambivalent.,1,160,20","2"
"41861","","survey-text","138","946224","0.0-137.0-0.0","A2RMQJTHVSI59R","","","","{""Q0"":""Makes me feel like I'm in a dark and mysterious forest. I love it. Makes me feel both peaceful and uneasy""}","","","","","","","","","","","","","","","","","","","","","","",""
"7575","","image-slider-response","139","953800","0.0-138.0","A2RMQJTHVSI59R","","","","","40","","","","","","","","","","","","","","","","","","","","","",""
"null","","image-button-response","140","958803","0.0-139.0","A2RMQJTHVSI59R","img_art/18.jpg","null","","","","","","","","","","","","","","","","","","","","","","","","",""
"11339","","image-button-response","141","970144","0.0-140.0","A2RMQJTHVSI59R","img_art/18.jpg","4","","","","","","","","","","","","","","","","","","","","","","","","",""
"4185","","image-button-response","142","974329","0.0-141.0-0.0","A2RMQJTHVSI59R","img_art/18.jpg","0","","","","","","","","","","","","","","","","","","","","","","","","",""
"8628","","image-button-response","143","982959","0.0-142.0-0.0","A2RMQJTHVSI59R","img_art/18.jpg","1","","","","","","","","","","","","","","","","","","","","","","","","",""
"null","","html-keyboard-response","144","984464","0.0-143.0","A2RMQJTHVSI59R","<p style=""font-size: 48px;"">+</p>","","","","","null","allTrialResponses","1500","1","14","img_art/18.jpg","40","Makes me feel like I'm in a dark and mysterious forest. I love it. Makes me feel both peaceful and uneasy","Anna,Katherine,Kaylee,Rachel,Grace,Katie","I could spend a long time looking at it and see different things in the shapes.,21,300,20","Ok this is really badass. Like a warrior come to the last battle,50,120,20","looks like a war,22,200,20","This one seems rather ghoulish to me.,-41,80,20","First saw sailing ship in bad weather but then saw woman in upper left - not sure what I'm seeing.,21,180,20","Looks messy. Reminds me of a battle or war. I have an unpleasant feeling the more I look.,-20,160,20","Grace","First saw sailing ship in bad weather but then saw woman in upper left - not sure what I'm seeing.,21,180,20","Anna","I could spend a long time looking at it and see different things in the shapes.,21,300,20","Katherine","Ok this is really badass. Like a warrior come to the last battle,50,120,20","2"
"27004","","survey-text","145","1011474","0.0-144.0-0.0","A2RMQJTHVSI59R","","","","{""Q0"":""chaotic and ugly - I don't know where to focus and I don't understand it""}","","","","","","","","","","","","","","","","","","","","","","",""
"6192","","image-slider-response","146","1017668","0.0-145.0","A2RMQJTHVSI59R","","","","","-32","","","","","","","","","","","","","","","","","","","","","",""
"3131","","image-button-response","147","1022671","0.0-146.0","A2RMQJTHVSI59R","img_art/28.jpg","0","","","","","","","","","","","","","","","","","","","","","","","","",""
"4561","","image-button-response","148","1027233","0.0-147.0","A2RMQJTHVSI59R","img_art/28.jpg","2","","","","","","","","","","","","","","","","","","","","","","","","",""
"3332","","image-button-response","149","1030566","0.0-148.0-0.0","A2RMQJTHVSI59R","img_art/28.jpg","3","","","","","","","","","","","","","","","","","","","","","","","","",""
"4296","","image-button-response","150","1034863","0.0-149.0-0.0","A2RMQJTHVSI59R","img_art/28.jpg","5","","","","","","","","","","","","","","","","","","","","","","","","",""
"null","","html-keyboard-response","151","1035864","0.0-150.0","A2RMQJTHVSI59R","<p style=""font-size: 48px;"">+</p>","","","","","null","allTrialResponses","1000","1","15","img_art/28.jpg","-32","chaotic and ugly - I don't know where to focus and I don't understand it","Anna,Katherine,Chelsea,Leslie,Grace,Emily","It's drab and looks like stereotypical abstract art.,-30,300,20","Eh it's just kinda brown and muddy and not very nice looking,-18,120,20","It is too messy.,-38,180,20","The darker colors make this unnerving.,40,380,20","A meeting in Old Jerusalem.,11,180,20","Incoherent ugly mess.,-50,40,20","Chelsea","It is too messy.,-38,180,20","Leslie","The darker colors make this unnerving.,40,380,20","Emily","Incoherent ugly mess.,-50,40,20","2"
"3757","","survey-text","152","1039629","0.0-151.0-0.0","A2RMQJTHVSI59R","","","","{""Q0"":""course""}","","","","","","","","","","","","","","","","","","","","","","",""
"18980","","survey-text","153","1058610","0.0-152.0-0.0","A2RMQJTHVSI59R","","","","{""Q0"":""scary - I like it but wouldn't want to hang it in my home""}","","","","","","","","","","","","","","","","","","","","","","",""
"5102","","image-slider-response","154","1063713","0.0-153.0","A2RMQJTHVSI59R","","","","","15","","","","","","","","","","","","","","","","","","","","","",""
"null","","image-button-response","155","1068716","0.0-154.0","A2RMQJTHVSI59R","img_art/25.jpg","null","","","","","","","","","","","","","","","","","","","","","","","","",""
"5488","","image-button-response","156","1074205","0.0-155.0","A2RMQJTHVSI59R","img_art/25.jpg","2","","","","","","","","","","","","","","","","","","","","","","","","",""
"4751","","image-button-response","157","1078956","0.0-156.0-0.0","A2RMQJTHVSI59R","img_art/25.jpg","3","","","","","","","","","","","","","","","","","","","","","","","","",""
"8439","","image-button-response","158","1087396","0.0-157.0-0.0","A2RMQJTHVSI59R","img_art/25.jpg","0","","","","","","","","","","","","","","","","","","","","","","","","",""
"null","","html-keyboard-response","159","1088398","0.0-158.0","A2RMQJTHVSI59R","<p style=""font-size: 48px;"">+</p>","","","","","null","allTrialResponses","1000","1","16","img_art/25.jpg","15","scary - I like it but wouldn't want to hang it in my home","Sarah,Marissa,Chelsea,Leslie,Angelica,Emily","green is really cool, and the pieces in black fit together and are interesting,20,180,20","I really like the green and the fact that it is tattered on the edges,23,160,20","The color and image are unsettling.,-29,180,20","I feel like I'm looking at something larger than myself.,30,380,20","This is strange and poorly done.,-2,280,20","Low skill not impressed.,-14,40,20","Chelsea","The color and image are unsettling.,-29,180,20","Leslie","I feel like I'm looking at something larger than myself.,30,380,20","Sarah","green is really cool, and the pieces in black fit together and are interesting,20,180,20","2"
"12410","","survey-text","160","1100812","0.0-159.0-0.0","A2RMQJTHVSI59R","","","","{""Q0"":""ugly and childish""}","","","","","","","","","","","","","","","","","","","","","","",""
"5045","","image-slider-response","161","1105858","0.0-160.0","A2RMQJTHVSI59R","","","","","-50","","","","","","","","","","","","","","","","","","","","","",""
"null","","image-button-response","162","1110861","0.0-161.0","A2RMQJTHVSI59R","img_art/3.jpg","null","","","","","","","","","","","","","","","","","","","","","","","","",""
"1790","","image-button-response","163","1112656","0.0-162.0","A2RMQJTHVSI59R","img_art/3.jpg","2","","","","","","","","","","","","","","","","","","","","","","","","",""
"4085","","image-button-response","164","1116743","0.0-163.0-0.0","A2RMQJTHVSI59R","img_art/3.jpg","3","","","","","","","","","","","","","","","","","","","","","","","","",""
"3032","","image-button-response","165","1119777","0.0-164.0-0.0","A2RMQJTHVSI59R","img_art/3.jpg","4","","","","","","","","","","","","","","","","","","","","","","","","",""
"null","","html-keyboard-response","166","1120279","0.0-165.0","A2RMQJTHVSI59R","<p style=""font-size: 48px;"">+</p>","","","","","null","allTrialResponses","500","1","17","img_art/3.jpg","-50","ugly and childish","Sarah,Jasmine,Chelsea,Leslie,Amber,Lindsey","the red is impactful but the work overall doesn't say anything to me,-8,180,20","I don't really have a strong reaction to this one,0,340,20","It looks like scribbles.,-40,180,20","It looks like the artist was trying too hard to make it chaotic and emotional.,-25,380,20","seems to be a lot of angry scribble.,-20,200,20","Angry red crayons, like a child throwing a tantrum. No thanks.,-10,400,20","Chelsea","It looks like scribbles.,-40,180,20","Leslie","It looks like the artist was trying too hard to make it chaotic and emotional.,-25,380,20","Amber","seems to be a lot of angry scribble.,-20,200,20","2"
"26456","","survey-text","167","1146741","0.0-166.0-0.0","A2RMQJTHVSI59R","","","","{""Q0"":""gives me a sense of foreboding - I like it but only for a brief viewing""}","","","","","","","","","","","","","","","","","","","","","","",""
"3527","","image-slider-response","168","1150270","0.0-167.0","A2RMQJTHVSI59R","","","","","10","","","","","","","","","","","","","","","","","","","","","",""
"3652","","image-button-response","169","1155273","0.0-168.0","A2RMQJTHVSI59R","img_art/21.jpg","0","","","","","","","","","","","","","","","","","","","","","","","","",""
"9761","","image-button-response","170","1165035","0.0-169.0","A2RMQJTHVSI59R","img_art/21.jpg","3","","","","","","","","","","","","","","","","","","","","","","","","",""
"2588","","image-button-response","171","1167623","0.0-170.0-0.0","A2RMQJTHVSI59R","img_art/21.jpg","4","","","","","","","","","","","","","","","","","","","","","","","","",""
"5962","","image-button-response","172","1173586","0.0-171.0-0.0","A2RMQJTHVSI59R","img_art/21.jpg","5","","","","","","","","","","","","","","","","","","","","","","","","",""
"null","","html-keyboard-response","173","1175091","0.0-172.0","A2RMQJTHVSI59R","<p style=""font-size: 48px;"">+</p>","","","","","null","allTrialResponses","1500","1","18","img_art/21.jpg","10","gives me a sense of foreboding - I like it but only for a brief viewing","Monica,Erin,Chelsea,Leslie,Amber,Savannah","I like the dark blue in the lower right which reminds me of a storm but the orange is ugly,12,360,20","Love the colors and hue, ocean,38,120,20","I like the colors. It looks dramatic.,5,180,20","The colors make me think of a perilous scene at sea, and are pretty interesting.,15,380,20","sunset after the rain,49,200,20","Almost appears like the background of an old renaissance painting.,40,200,20","Leslie","The colors make me think of a perilous scene at sea, and are pretty interesting.,15,380,20","Amber","sunset after the rain,49,200,20","Savannah","Almost appears like the background of an old renaissance painting.,40,200,20","2"
"30126","","survey-text","174","1205223","0.0-173.0-0.0","A2RMQJTHVSI59R","","","","{""Q0"":""Reminds me of watching a storm through a window. Love how it is abstract but so interesting.""}","","","","","","","","","","","","","","","","","","","","","","",""
"4038","","image-slider-response","175","1209264","0.0-174.0","A2RMQJTHVSI59R","","","","","37","","","","","","","","","","","","","","","","","","","","","",""
"null","","image-button-response","176","1214267","0.0-175.0","A2RMQJTHVSI59R","img_art/13.jpg","null","","","","","","","","","","","","","","","","","","","","","","","","",""
"3566","","image-button-response","177","1217834","0.0-176.0","A2RMQJTHVSI59R","img_art/13.jpg","2","","","","","","","","","","","","","","","","","","","","","","","","",""
"3873","","image-button-response","178","1221707","0.0-177.0-0.0","A2RMQJTHVSI59R","img_art/13.jpg","4","","","","","","","","","","","","","","","","","","","","","","","","",""
"1717","","image-button-response","179","1223427","0.0-178.0-0.0","A2RMQJTHVSI59R","img_art/13.jpg","5","","","","","","","","","","","","","","","","","","","","","","","","",""
"null","","html-keyboard-response","180","1223929","0.0-179.0","A2RMQJTHVSI59R","<p style=""font-size: 48px;"">+</p>","","","","","null","allTrialResponses","500","1","19","img_art/13.jpg","37","Reminds me of watching a storm through a window. Love how it is abstract but so interesting.","Alexis,Alexandria,Jenna,Leslie,Amber,Savannah","Simple, but pleasing. The blue gradient is a favorite of mine,32,100,20","the monochrome of blue with splatters makes me excited and happy,36,80,20","exciting & chaotic. love the colors.,50,360,20","This elicits no reaction in me.,0,380,20","Reminds me of rain running down a window.,35,200,20","Lots of depth and character.,30,200,20","Jenna","exciting & chaotic. love the colors.,50,360,20","Amber","Reminds me of rain running down a window.,35,200,20","Savannah","Lots of depth and character.,30,200,20","2"
"15124","","survey-text","181","1239059","0.0-180.0-0.0","A2RMQJTHVSI59R","","","","{""Q0"":""absolutely ugly - nothing positive in this painting""}","","","","","","","","","","","","","","","","","","","","","","",""
"3623","","image-slider-response","182","1242684","0.0-181.0","A2RMQJTHVSI59R","","","","","-50","","","","","","","","","","","","","","","","","","","","","",""
"4209","","image-button-response","183","1247686","0.0-182.0","A2RMQJTHVSI59R","img_art/29.jpg","1","","","","","","","","","","","","","","","","","","","","","","","","",""
"7185","","image-button-response","184","1254871","0.0-183.0","A2RMQJTHVSI59R","img_art/29.jpg","2","","","","","","","","","","","","","","","","","","","","","","","","",""
"8382","","image-button-response","185","1263255","0.0-184.0-0.0","A2RMQJTHVSI59R","img_art/29.jpg","5","","","","","","","","","","","","","","","","","","","","","","","","",""
"1724","","image-button-response","186","1264981","0.0-185.0-0.0","A2RMQJTHVSI59R","img_art/29.jpg","0","","","","","","","","","","","","","","","","","","","","","","","","",""
"null","","html-keyboard-response","187","1265483","0.0-186.0","A2RMQJTHVSI59R","<p style=""font-size: 48px;"">+</p>","","","","","null","allTrialResponses","500","1","20","img_art/29.jpg","-50","absolutely ugly - nothing positive in this painting","Kelsey,Paige,Jenna,Nicole,Amber,Savannah","dont like this one,-20,240,20","unhappy. Looking at this all the time would depress me.,-11,60,20","risks well taken. the brush is hilarious. feels like an artist's frustration, which is relatable.,50,360,20","This one feels scary in a good way,30,20,20","Don't like the red X across the painting.,-15,200,20","Looks wrong. Like a real painting was vandalized.,-50,200,20","Jenna","risks well taken. the brush is hilarious. feels like an artist's frustration, which is relatable.,50,360,20","Savannah","Looks wrong. Like a real painting was vandalized.,-50,200,20","Kelsey","dont like this one,-20,240,20","2"
"2600","","survey-text","188","1268092","0.0-187.0-0.0","A2RMQJTHVSI59R","","","","{""Q0"":""we""}","","","","","","","","","","","","","","","","","","","","","","",""
"18622","","survey-text","189","1286714","0.0-188.0-0.0","A2RMQJTHVSI59R","","","","{""Q0"":""not sure what this is, but I like the feeling of movement""}","","","","","","","","","","","","","","","","","","","","","","",""
"5510","","image-slider-response","190","1292225","0.0-189.0","A2RMQJTHVSI59R","","","","","18","","","","","","","","","","","","","","","","","","","","","",""
"null","","image-button-response","191","1297228","0.0-190.0","A2RMQJTHVSI59R","img_art/10.jpg","null","","","","","","","","","","","","","","","","","","","","","","","","",""
"1992","","image-button-response","192","1299221","0.0-191.0","A2RMQJTHVSI59R","img_art/10.jpg","1","","","","","","","","","","","","","","","","","","","","","","","","",""
"3778","","image-button-response","193","1303000","0.0-192.0-0.0","A2RMQJTHVSI59R","img_art/10.jpg","2","","","","","","","","","","","","","","","","","","","","","","","","",""
"4190","","image-button-response","194","1307191","0.0-193.0-0.0","A2RMQJTHVSI59R","img_art/10.jpg","4","","","","","","","","","","","","","","","","","","","","","","","","",""
"null","","html-keyboard-response","195","1308194","0.0-194.0","A2RMQJTHVSI59R","<p style=""font-size: 48px;"">+</p>","","","","","null","allTrialResponses","1000","1","21","img_art/10.jpg","18","not sure what this is, but I like the feeling of movement","Kelsey,Vanessa,Jenna,Sara,Sophia,Savannah","reminds me of a violin,9,240,20","It's interesting and my eyes keep being drawn to different parts of the picture.,11,380,20","this piece is okay. I wish it was more colorful, but it is certainly intriguing.,23,360,20","I don't like the colors,-20,160,20","This piece is very intriguing to me.,3,280,20","This is a scribble of a mad man. Appears low effort.,-33,200,20","Vanessa","It's interesting and my eyes keep being drawn to different parts of the picture.,11,380,20","Jenna","this piece is okay. I wish it was more colorful, but it is certainly intriguing.,23,360,20","Sophia","This piece is very intriguing to me.,3,280,20","2"
"16161","","survey-text","196","1324361","0.0-195.0-0.0","A2RMQJTHVSI59R","","","","{""Q0"":""sunset or fire - intriguing""}","","","","","","","","","","","","","","","","","","","","","","",""
"4861.999999999767","","image-slider-response","197","1329224","0.0-196.0","A2RMQJTHVSI59R","","","","","13","","","","","","","","","","","","","","","","","","","","","",""
"1886","","image-button-response","198","1334226","0.0-197.0","A2RMQJTHVSI59R","img_art/27.jpg","0","","","","","","","","","","","","","","","","","","","","","","","","",""
"2510","","image-button-response","199","1336737","0.0-198.0","A2RMQJTHVSI59R","img_art/27.jpg","1","","","","","","","","","","","","","","","","","","","","","","","","",""
"8026","","image-button-response","200","1344764","0.0-199.0-0.0","A2RMQJTHVSI59R","img_art/27.jpg","5","","","","","","","","","","","","","","","","","","","","","","","","",""
"4807","","image-button-response","201","1349571","0.0-200.0-0.0","A2RMQJTHVSI59R","img_art/27.jpg","2","","","","","","","","","","","","","","","","","","","","","","","","",""
"null","","html-keyboard-response","202","1350574","0.0-201.0","A2RMQJTHVSI59R","<p style=""font-size: 48px;"">+</p>","","","","","null","allTrialResponses","1000","1","22","img_art/27.jpg","13","sunset or fire - intriguing","Chloe,Vanessa,Jenna,Cheyenne,Sophia,Lauren","Like the movement of the lines and dripping paint.,30,220,20","Colors make me think of fall, but I don't like how the picture was done or the weird lines across the background,6,380,20","the green & white scribbles feel childlike. perhaps the quality of the photo, but the colors are gloomy.,-13,360,20","This one does nothing for me.,2,200,20","Yikes. I think I made this in kindergarten.,-20,280,20","Not a fan of the green; gives off the impression that someone else drew on it.,-20,340,20","Vanessa","Colors make me think of fall, but I don't like how the picture was done or the weird lines across the background,6,380,20","Lauren","Not a fan of the green; gives off the impression that someone else drew on it.,-20,340,20","Jenna","the green & white scribbles feel childlike. perhaps the quality of the photo, but the colors are gloomy.,-13,360,20","2"
"16709","","survey-text","203","1367288","0.0-202.0-0.0","A2RMQJTHVSI59R","","","","{""Q0"":""reminds me of destruction, depressing""}","","","","","","","","","","","","","","","","","","","","","","",""
"4664","","image-slider-response","204","1371954","0.0-203.0","A2RMQJTHVSI59R","","","","","-28","","","","","","","","","","","","","","","","","","","","","",""
"4775","","image-button-response","205","1376957","0.0-204.0","A2RMQJTHVSI59R","img_art/20.jpg","1","","","","","","","","","","","","","","","","","","","","","","","","",""
"3607","","image-button-response","206","1380565","0.0-205.0","A2RMQJTHVSI59R","img_art/20.jpg","2","","","","","","","","","","","","","","","","","","","","","","","","",""
"2185","","image-button-response","207","1382751","0.0-206.0-0.0","A2RMQJTHVSI59R","img_art/20.jpg","3","","","","","","","","","","","","","","","","","","","","","","","","",""
"2994","","image-button-response","208","1385747","0.0-207.0-0.0","A2RMQJTHVSI59R","img_art/20.jpg","5","","","","","","","","","","","","","","","","","","","","","","","","",""
"null","","html-keyboard-response","209","1386250","0.0-208.0","A2RMQJTHVSI59R","<p style=""font-size: 48px;"">+</p>","","","","","null","allTrialResponses","500","1","23","img_art/20.jpg","-28","reminds me of destruction, depressing","Brittany,Vanessa,Jenna,Crystal,Destiny,Lauren","The colors and the scene depicted is interesting.,13,40,20","I like the deep blues, but I don't like the way this picture makes me feel.,-13,380,20","could look for hours. love the brush work. color choices look like a desert.,50,360,20","The pulling and sagging nature is very beautiful.,30,300,20","truck? train? dead cow? plane?,10,360,20","I like how the image is depicting a scene.,10,340,20","Jenna","could look for hours. love the brush work. color choices look like a desert.,50,360,20","Crystal","The pulling and sagging nature is very beautiful.,30,300,20","Lauren","I like how the image is depicting a scene.,10,340,20","2"
"14740","","survey-text","210","1400996","0.0-209.0-0.0","A2RMQJTHVSI59R","","","","{""Q0"":""looks like fingerpainting by a child""}","","","","","","","","","","","","","","","","","","","","","","",""
"4301","","image-slider-response","211","1405299","0.0-210.0","A2RMQJTHVSI59R","","","","","-46","","","","","","","","","","","","","","","","","","","","","",""
"4954","","image-button-response","212","1410302","0.0-211.0","A2RMQJTHVSI59R","img_art/30.jpg","2","","","","","","","","","","","","","","","","","","","","","","","","",""
"3567","","image-button-response","213","1413870","0.0-212.0","A2RMQJTHVSI59R","img_art/30.jpg","3","","","","","","","","","","","","","","","","","","","","","","","","",""
"2865","","image-button-response","214","1416736","0.0-213.0-0.0","A2RMQJTHVSI59R","img_art/30.jpg","4","","","","","","","","","","","","","","","","","","","","","","","","",""
"1580","","image-button-response","215","1418317","0.0-214.0-0.0","A2RMQJTHVSI59R","img_art/30.jpg","5","","","","","","","","","","","","","","","","","","","","","","","","",""
"null","","html-keyboard-response","216","1419319","0.0-215.0","A2RMQJTHVSI59R","<p style=""font-size: 48px;"">+</p>","","","","","null","allTrialResponses","1000","1","24","img_art/30.jpg","-46","looks like fingerpainting by a child","Olivia,Kelly,Jenna,Crystal,Sabrina,Lauren","perceiving greatness,20,40,20","The red helps it to pop.,13,220,20","love the movement of the brush strokes. very interesting piece.,38,360,20","An interesting design but don't like the colors. I value the time and effort put into it, but not a huge fan.,10,300,20","Flowing freely of the rest of the world,42,120,20","I like how the strokes invokes a sense of fluidity.,20,340,20","Crystal","An interesting design but don't like the colors. I value the time and effort put into it, but not a huge fan.,10,300,20","Sabrina","Flowing freely of the rest of the world,42,120,20","Lauren","I like how the strokes invokes a sense of fluidity.,20,340,20","2"
"19479","","survey-text","217","1438805","0.0-216.0-0.0","A2RMQJTHVSI59R","","","","{""Q0"":""don't like the colors and doesn't represent anything to me""}","","","","","","","","","","","","","","","","","","","","","","",""
"3630","","image-slider-response","218","1442437","0.0-217.0","A2RMQJTHVSI59R","","","","","-34","","","","","","","","","","","","","","","","","","","","","",""
"null","","image-button-response","219","1447440","0.0-218.0","A2RMQJTHVSI59R","img_art/22.jpg","null","","","","","","","","","","","","","","","","","","","","","","","","",""
"195","","image-button-response","220","1447635","0.0-219.0","A2RMQJTHVSI59R","img_art/22.jpg","1","","","","","","","","","","","","","","","","","","","","","","","","",""
"5709","","image-button-response","221","1453346","0.0-220.0-0.0","A2RMQJTHVSI59R","img_art/22.jpg","3","","","","","","","","","","","","","","","","","","","","","","","","",""
"3704","","image-button-response","222","1457051","0.0-221.0-0.0","A2RMQJTHVSI59R","img_art/22.jpg","5","","","","","","","","","","","","","","","","","","","","","","","","",""
"null","","html-keyboard-response","223","1457554","0.0-222.0","A2RMQJTHVSI59R","<p style=""font-size: 48px;"">+</p>","","","","","null","allTrialResponses","500","1","25","img_art/22.jpg","-34","don't like the colors and doesn't represent anything to me","Shelby,Rebecca,Cassidy,Crystal,Sabrina,Lauren","This painting has a very nostalgic feel,20,240,20","colorful water (in front of castle?),17,100,20","I don't really know why, I just like looking at it,10,140,20","Beautiful use of chalk or pastels. Love the abstract nature.,35,300,20","Just not feeling it,-19,120,20","This doesn't invoke anything, since I can't tell what the piece represents.,0,340,20","Rebecca","colorful water (in front of castle?),17,100,20","Crystal","Beautiful use of chalk or pastels. Love the abstract nature.,35,300,20","Lauren","This doesn't invoke anything, since I can't tell what the piece represents.,0,340,20","2"
"3205","","survey-text","224","1460769","0.0-223.0-0.0","A2RMQJTHVSI59R","","","","{""Q0"":""table""}","","","","","","","","","","","","","","","","","","","","","","",""
"9508","","survey-text","225","1470278","0.0-224.0-0.0","A2RMQJTHVSI59R","","","","{""Q0"":""cute but I don't care for it""}","","","","","","","","","","","","","","","","","","","","","","",""
"4529","","image-slider-response","226","1474809","0.0-225.0","A2RMQJTHVSI59R","","","","","-34","","","","","","","","","","","","","","","","","","","","","",""
"4029","","image-button-response","227","1479812","0.0-226.0","A2RMQJTHVSI59R","img_art/16.jpg","0","","","","","","","","","","","","","","","","","","","","","","","","",""
"2610","","image-button-response","228","1482424","0.0-227.0","A2RMQJTHVSI59R","img_art/16.jpg","1","","","","","","","","","","","","","","","","","","","","","","","","",""
"2289","","image-button-response","229","1484714","0.0-228.0-0.0","A2RMQJTHVSI59R","img_art/16.jpg","2","","","","","","","","","","","","","","","","","","","","","","","","",""
"4766","","image-button-response","230","1489480","0.0-229.0-0.0","A2RMQJTHVSI59R","img_art/16.jpg","5","","","","","","","","","","","","","","","","","","","","","","","","",""
"null","","html-keyboard-response","231","1490482","0.0-230.0","A2RMQJTHVSI59R","<p style=""font-size: 48px;"">+</p>","","","","","null","allTrialResponses","1000","1","26","img_art/16.jpg","-34","cute but I don't care for it","Jessica,Rebecca,Emma,Crystal,Alyssa,Lauren","Cool but the bear creeps me out?,8,400,20","don't know how to feel, I mean I respect it but I honestly don't know about this,-12,100,20","Kind of creepyyyyyy,-41,60,20","Garble and nonsense,-50,300,20","It creeps me out.,-50,160,20","The colored teddy bear clashes with the color scheme.,-20,340,20","Rebecca","don't know how to feel, I mean I respect it but I honestly don't know about this,-12,100,20","Emma","Kind of creepyyyyyy,-41,60,20","Lauren","The colored teddy bear clashes with the color scheme.,-20,340,20","2"
"15006","","survey-text","232","1505496","0.0-231.0-0.0","A2RMQJTHVSI59R","","","","{""Q0"":""a hand gone all wrong? I don't like it.""}","","","","","","","","","","","","","","","","","","","","","","",""
"5301.999999999767","","image-slider-response","233","1510799","0.0-232.0","A2RMQJTHVSI59R","","","","","-26","","","","","","","","","","","","","","","","","","","","","",""
"null","","image-button-response","234","1515801","0.0-233.0","A2RMQJTHVSI59R","img_art/4.jpg","null","","","","","","","","","","","","","","","","","","","","","","","","",""
"6177","","image-button-response","235","1521979","0.0-234.0","A2RMQJTHVSI59R","img_art/4.jpg","5","","","","","","","","","","","","","","","","","","","","","","","","",""
"1689","","image-button-response","236","1523669","0.0-235.0-0.0","A2RMQJTHVSI59R","img_art/4.jpg","0","","","","","","","","","","","","","","","","","","","","","","","","",""
"4726","","image-button-response","237","1528396","0.0-236.0-0.0","A2RMQJTHVSI59R","img_art/4.jpg","2","","","","","","","","","","","","","","","","","","","","","","","","",""
"null","","html-keyboard-response","238","1529399","0.0-237.0","A2RMQJTHVSI59R","<p style=""font-size: 48px;"">+</p>","","","","","null","allTrialResponses","1000","1","27","img_art/4.jpg","-26","a hand gone all wrong? I don't like it.","Alicia,Rebecca,Emma,Kristen,Hannah,Lauren","ordinary, bland. unmoving.,-6,120,20","no sorry i can't really understand,-18,100,20","Interesting but maybe a little creepy,0,60,20","stresses me out, uncomfortable,-18,280,20","looks very rudimentary and too simple.,-14,240,20","I like the design. It can be interpreted in various ways, such as a hand of horror or still piece.,15,340,20","Lauren","I like the design. It can be interpreted in various ways, such as a hand of horror or still piece.,15,340,20","Alicia","ordinary, bland. unmoving.,-6,120,20","Emma","Interesting but maybe a little creepy,0,60,20","2"
"7544","","survey-text","239","1536950","0.0-238.0-0.0","A2RMQJTHVSI59R","","","","{""Q0"":""ugly, ugly, ugly""}","","","","","","","","","","","","","","","","","","","","","","",""
"4647","","image-slider-response","240","1541598","0.0-239.0","A2RMQJTHVSI59R","","","","","-50","","","","","","","","","","","","","","","","","","","","","",""
"4745","","image-button-response","241","1546600","0.0-240.0","A2RMQJTHVSI59R","img_art/19.jpg","2","","","","","","","","","","","","","","","","","","","","","","","","",""
"1910","","image-button-response","242","1548511","0.0-241.0","A2RMQJTHVSI59R","img_art/19.jpg","1","","","","","","","","","","","","","","","","","","","","","","","","",""
"4295","","image-button-response","243","1552807","0.0-242.0-0.0","A2RMQJTHVSI59R","img_art/19.jpg","3","","","","","","","","","","","","","","","","","","","","","","","","",""
"2859","","image-button-response","244","1555667","0.0-243.0-0.0","A2RMQJTHVSI59R","img_art/19.jpg","5","","","","","","","","","","","","","","","","","","","","","","","","",""
"null","","html-keyboard-response","245","1556170","0.0-244.0","A2RMQJTHVSI59R","<p style=""font-size: 48px;"">+</p>","","","","","null","allTrialResponses","500","1","28","img_art/19.jpg","-50","ugly, ugly, ugly","Alicia,Alexa,Emma,Briana,Isabella,Lauren","calming, like the drips,25,120,20","It has a chaotic energy about it that draws me in,40,40,20","Interesting, leaves you wondering what it is,40,60,20","Its simple and the colors i like. It reminds me of chagall,34,400,20","A day in a small city,45,280,20","The image doesn't really invoke any emotions strongly.,0,340,20","Alexa","It has a chaotic energy about it that draws me in,40,40,20","Briana","Its simple and the colors i like. It reminds me of chagall,34,400,20","Lauren","The image doesn't really invoke any emotions strongly.,0,340,20","2"
"20159","","survey-text","246","1576335","0.0-245.0-0.0","A2RMQJTHVSI59R","","","","{""Q0"":""I have no positive feeling toward this""}","","","","","","","","","","","","","","","","","","","","","","",""
"3247.000000000233","","image-slider-response","247","1579584","0.0-246.0","A2RMQJTHVSI59R","","","","","-30","","","","","","","","","","","","","","","","","","","","","",""
"3887","","image-button-response","248","1584586","0.0-247.0","A2RMQJTHVSI59R","img_art/9.jpg","0","","","","","","","","","","","","","","","","","","","","","","","","",""
"3923","","image-button-response","249","1588510","0.0-248.0","A2RMQJTHVSI59R","img_art/9.jpg","5","","","","","","","","","","","","","","","","","","","","","","","","",""
"6960","","image-button-response","250","1595472","0.0-249.0-0.0","A2RMQJTHVSI59R","img_art/9.jpg","1","","","","","","","","","","","","","","","","","","","","","","","","",""
"1175","","image-button-response","251","1596648","0.0-250.0-0.0","A2RMQJTHVSI59R","img_art/9.jpg","4","","","","","","","","","","","","","","","","","","","","","","","","",""
"null","","html-keyboard-response","252","1597650","0.0-251.0","A2RMQJTHVSI59R","<p style=""font-size: 48px;"">+</p>","","","","","null","allTrialResponses","1000","1","29","img_art/9.jpg","-30","I have no positive feeling toward this","Allison,Alexa,Madeline,Briana,Breanna,Lauren","Very eclectic and messy. Not my preference, but may work for some.,-20,140,20","It's wild and chaotic but also beautiful and has some kind of calming factor about it,20,40,20","I really like the colors and details.,8,40,20","I see a foot. Idk colors are pleasant,12,400,20","It's a mix of paint splash and scribbling,-33,380,20","I like how design can be interpreted differently, I see a person sleeping or a mountainous region.,10,340,20","Lauren","I like how design can be interpreted differently, I see a person sleeping or a mountainous region.,10,340,20","Alexa","It's wild and chaotic but also beautiful and has some kind of calming factor about it,20,40,20","Breanna","It's a mix of paint splash and scribbling,-33,380,20","2"
"20851","","survey-text","253","1618508","0.0-252.0-0.0","A2RMQJTHVSI59R","","","","{""Q0"":""I like the colors and composition - interesting""}","","","","","","","","","","","","","","","","","","","","","","",""
"3402.000000000233","","image-slider-response","254","1621911","0.0-253.0","A2RMQJTHVSI59R","","","","","13","","","","","","","","","","","","","","","","","","","","","",""
"null","","image-button-response","255","1626916","0.0-254.0","A2RMQJTHVSI59R","img_art/23.jpg","null","","","","","","","","","","","","","","","","","","","","","","","","",""
"1440","","image-button-response","256","1628356","0.0-255.0","A2RMQJTHVSI59R","img_art/23.jpg","1","","","","","","","","","","","","","","","","","","","","","","","","",""
"5697","","image-button-response","257","1634054","0.0-256.0-0.0","A2RMQJTHVSI59R","img_art/23.jpg","5","","","","","","","","","","","","","","","","","","","","","","","","",""
"5992","","image-button-response","258","1640048","0.0-257.0-0.0","A2RMQJTHVSI59R","img_art/23.jpg","0","","","","","","","","","","","","","","","","","","","","","","","","",""
"null","","html-keyboard-response","259","1641551","0.0-258.0","A2RMQJTHVSI59R","<p style=""font-size: 48px;"">+</p>","","","","","null","allTrialResponses","1500","1","30","img_art/23.jpg","13","I like the colors and composition - interesting","Danielle,Alexa,Natalie,Meghan,Breanna,Lauren","While I don't normally enjoy these color schemes all together, I kind of like this one,10,340,20","Very colorful and wild. It's cool and I like it,32,40,20","so much detail .,31,400,20","reminds me of an album cover,36,220,20","Makes me worried,10,380,20","I like the symmetrical design and how it portrays the liveliness of a musical environment.,30,340,20","Alexa","Very colorful and wild. It's cool and I like it,32,40,20","Lauren","I like the symmetrical design and how it portrays the liveliness of a musical environment.,30,340,20","Danielle","While I don't normally enjoy these color schemes all together, I kind of like this one,10,340,20","2"
"3426","","image-button-response_instructions","260","1644984","0.0-259.0","A2RMQJTHVSI59R","","0","instructions","","","","","","","","","","","","","","","","","","","","","","","",""
"2155","","image-button-response","261","1647145","0.0-260.0","A2RMQJTHVSI59R","","0","","","","","","","","","","","","","","","","","","","","","","","","",""
