"rt","url","trial_type","trial_index","time_elapsed","internal_node_id","participant_id","stimulus","button_pressed","Name","responses","response","key_press","variableName","fixationTime","condition","trial","photo","subjectRating","subjectResponse","agentsNames","agent_1_Response","agent_2_Response","agent_3_Response","agent_4_Response","agent_5_Response","agent_6_Response","kept_1_name","kept_1_response","kept_2_name","kept_2_response","kept_3_name","kept_3_response","errorCounter"
"44977","external_page_harvard.html","external-html","0","45079","0.0-0.0","A2SXOQZNH7UCC5","","","","","","","","","","","","","","","","","","","","","","","","","","",""
"2084","","image-button-response","1","47166","0.0-1.0","A2SXOQZNH7UCC5","","1","","","","","","","","","","","","","","","","","","","","","","","","",""
"2682","","image-button-response","2","49856","0.0-2.0-0.0","A2SXOQZNH7UCC5","","1","phone","","","","","","","","","","","","","","","","","","","","","","","",""
"7623","","survey-text","3","57495","0.0-3.0-0.0","A2SXOQZNH7UCC5","","","","{""Q0"":""A2SXOQZNH7UCC5""}","","","","","","","","","","","","","","","","","","","","","","",""
"6081","","image-button-response_instructions","4","63585","0.0-4.0","A2SXOQZNH7UCC5","","0","instructions","","","","","","","","","","","","","","","","","","","","","","","",""
"15066","","image-button-response_instructions","5","78654","0.0-5.0","A2SXOQZNH7UCC5","img_art/ins/popularity/ins1.png","0","instructions","","","","","","","","","","","","","","","","","","","","","","","",""
"5787","","image-button-response_instructions","6","84444","0.0-6.0","A2SXOQZNH7UCC5","img_art/ins/popularity/ins2.png","0","instructions","","","","","","","","","","","","","","","","","","","","","","","",""
"7958","","image-button-response_instructions","7","92404","0.0-7.0","A2SXOQZNH7UCC5","img_art/ins/popularity/ins2Extreme.png","0","instructions","","","","","","","","","","","","","","","","","","","","","","","",""
"28377","","image-button-response_instructions","8","120783","0.0-8.0","A2SXOQZNH7UCC5","img_art/ins/popularity/ins3KEEPpop.PNG","0","instructions","","","","","","","","","","","","","","","","","","","","","","","",""
"4040","","image-button-response_instructions","9","124825","0.0-9.0","A2SXOQZNH7UCC5","img_art/ins/popularity/ins3ANamepop.PNG","0","instructions","","","","","","","","","","","","","","","","","","","","","","","",""
"4127","","image-button-response_instructions","10","128955","0.0-10.0","A2SXOQZNH7UCC5","img_art/ins/popularity/ins3ARatingpop.png","0","instructions","","","","","","","","","","","","","","","","","","","","","","","",""
"4024","","image-button-response_instructions","11","132982","0.0-11.0","A2SXOQZNH7UCC5","img_art/ins/popularity/ins3ATextpop.png","0","instructions","","","","","","","","","","","","","","","","","","","","","","","",""
"4339","","image-button-response_instructions","12","137325","0.0-12.0","A2SXOQZNH7UCC5","img_art/ins/popularity/ins3ALikespop.png","0","instructions","","","","","","","","","","","","","","","","","","","","","","","",""
"21764","","image-button-response_instructions","13","159092","0.0-13.0","A2SXOQZNH7UCC5","img_art/ins/popularity/ins3KEEPpop.PNG","0","instructions","","","","","","","","","","","","","","","","","","","","","","","",""
"338","","image-button-response_instructions","14","159432","0.0-14.0","A2SXOQZNH7UCC5","img_art/ins/popularity/ins3_5RED.png","0","instructions","","","","","","","","","","","","","","","","","","","","","","","",""
"6029","","image-button-response_instructions","15","165463","0.0-15.0","A2SXOQZNH7UCC5","img_art/ins/popularity/ins3KEEPpop.PNG","0","instructions","","","","","","","","","","","","","","","","","","","","","","","",""
"11906","","image-button-response_instructions","16","177372","0.0-16.0","A2SXOQZNH7UCC5","img_art/ins/popularity/ins4KEEPpop.PNG","0","instructions","","","","","","","","","","","","","","","","","","","","","","","",""
"4226","","image-button-response_instructions","17","181601","0.0-17.0","A2SXOQZNH7UCC5","img_art/ins/popularity/ins5KEEPpop.PNG","0","instructions","","","","","","","","","","","","","","","","","","","","","","","",""
"1235","","image-button-response_instructions","18","182839","0.0-18.0","A2SXOQZNH7UCC5","","0","instructions","","","","","","","","","","","","","","","","","","","","","","","",""
"7086","","survey-text","19","189961","0.0-19.0-0.0","A2SXOQZNH7UCC5","","","","{""Q0"":""but""}","","","","","","","","","","","","","","","","","","","","","","",""
"10300","","survey-text","20","200266","0.0-20.0-0.0","A2SXOQZNH7UCC5","","","","{""Q0"":""very messy and cluttered""}","","","","","","","","","","","","","","","","","","","","","","",""
"7778.299999999814","","image-slider-response","21","208051","0.0-21.0","A2SXOQZNH7UCC5","","","","","-28","","","","","","","","","","","","","","","","","","","","","",""
"null","","image-button-response","22","213061","0.0-22.0","A2SXOQZNH7UCC5","img_art/ins/1.jpg","null","","","","","","","","","","","","","","","","","","","","","","","","",""
"217","","image-button-response","23","213285","0.0-23.0","A2SXOQZNH7UCC5","img_art/ins/1.jpg","5","","","","","","","","","","","","","","","","","","","","","","","","",""
"4131","","image-button-response","24","217422","0.0-24.0-0.0","A2SXOQZNH7UCC5","img_art/ins/1.jpg","0","","","","","","","","","","","","","","","","","","","","","","","","",""
"6517","","image-button-response","25","223949","0.0-25.0-0.0","A2SXOQZNH7UCC5","img_art/ins/1.jpg","2","","","","","","","","","","","","","","","","","","","","","","","","",""
"null","","html-keyboard-response","26","224956","0.0-26.0","A2SXOQZNH7UCC5","<p style=""font-size: 48px;"">+</p>","","","","","null","allTrialResponses","1000","1","-2","img_art/ins/1.jpg","-28","very messy and cluttered","Allison,Ashley,Beth,Dora,Erika,Jen","looks like a lot of things going on in the mist,20,20,20","I just don't get why these type of art would be popular,-32,40,20","This color reminds me of poo,-46,60,20","looks like what my niece in 3rd grade did this afternoon,-50,80,20","I like the sophisticated brushwork,40,100,20","It reminds me of a candy land dream I had,36,120,20","Jen","It reminds me of a candy land dream I had,36,120,20","Allison","looks like a lot of things going on in the mist,20,20,20","Beth","This color reminds me of poo,-46,60,20","0"
"13006","","survey-text","27","237975","0.0-27.0-0.0","A2SXOQZNH7UCC5","","","","{""Q0"":""love the texture of this piece""}","","","","","","","","","","","","","","","","","","","","","","",""
"4304.100000000559","","image-slider-response","28","242284","0.0-28.0","A2SXOQZNH7UCC5","","","","","41","","","","","","","","","","","","","","","","","","","","","",""
"null","","image-button-response","29","247294","0.0-29.0","A2SXOQZNH7UCC5","img_art/ins/2.jpg","null","","","","","","","","","","","","","","","","","","","","","","","","",""
"2567","","image-button-response","30","249867","0.0-30.0","A2SXOQZNH7UCC5","img_art/ins/2.jpg","4","","","","","","","","","","","","","","","","","","","","","","","","",""
"8952","","image-button-response","31","258824","0.0-31.0-0.0","A2SXOQZNH7UCC5","img_art/ins/2.jpg","5","","","","","","","","","","","","","","","","","","","","","","","","",""
"5481","","image-button-response","32","264312","0.0-32.0-0.0","A2SXOQZNH7UCC5","img_art/ins/2.jpg","0","","","","","","","","","","","","","","","","","","","","","","","","",""
"null","","html-keyboard-response","33","265320","0.0-33.0","A2SXOQZNH7UCC5","<p style=""font-size: 48px;"">+</p>","","","","","null","allTrialResponses","1000","1","-1","img_art/ins/2.jpg","41","love the texture of this piece","Allison,Katie,Beth,Jenna,Kara,Jen","I don't have strong feelings about this,10,20,20","too much color!,-28,180,20","meaningless painting,-45,60,20","One of my pet peevs,-48,140,20","I like the blocks of color arrangements,30,160,20","It reminds me of a fireplace,36,120,20","Kara","I like the blocks of color arrangements,30,160,20","Jen","It reminds me of a fireplace,36,120,20","Allison","I don't have strong feelings about this,10,20,20","0"
"21018","","survey-text","34","286350","0.0-34.0-0.0","A2SXOQZNH7UCC5","","","","{""Q0"":""the chilled colors make me feel cold yet happy""}","","","","","","","","","","","","","","","","","","","","","","",""
"4043.7999999998137","","image-slider-response","35","290400","0.0-35.0","A2SXOQZNH7UCC5","","","","","34","","","","","","","","","","","","","","","","","","","","","",""
"null","","image-button-response","36","295410","0.0-36.0","A2SXOQZNH7UCC5","img_art/ins/3.jpg","null","","","","","","","","","","","","","","","","","","","","","","","","",""
"549","","image-button-response","37","295970","0.0-37.0","A2SXOQZNH7UCC5","img_art/ins/3.jpg","4","","","","","","","","","","","","","","","","","","","","","","","","",""
"2277","","image-button-response","38","298253","0.0-38.0-0.0","A2SXOQZNH7UCC5","img_art/ins/3.jpg","5","","","","","","","","","","","","","","","","","","","","","","","","",""
"6578","","image-button-response","39","304836","0.0-39.0-0.0","A2SXOQZNH7UCC5","img_art/ins/3.jpg","0","","","","","","","","","","","","","","","","","","","","","","","","",""
"null","","html-keyboard-response","40","305342","0.0-40.0","A2SXOQZNH7UCC5","<p style=""font-size: 48px;"">+</p>","","","","","null","allTrialResponses","500","1","0","img_art/ins/3.jpg","34","the chilled colors make me feel cold yet happy","Allison,Rose,Mary,Leslie,Kara,Jen","enjoy the different shades of blue,22,20,20","My daily routine, it's depressing,-20,240,20","I like the overlapping of brushes,41,220,20","It's an alright work,15,200,20","calming blue is very nice,36,160,20","I can feel a rainy day from this painting,18,120,20","Kara","calming blue is very nice,36,160,20","Jen","I can feel a rainy day from this painting,18,120,20","Allison","enjoy the different shades of blue,22,20,20","0"
"5238","","image-button-response_instructions","41","310592","0.0-41.0","A2SXOQZNH7UCC5","","0","instructions","","","","","","","","","","","","","","","","","","","","","","","",""
"15882","","survey-likert","42","326480","0.0-42.0-0.0","A2SXOQZNH7UCC5","","","","{""Q0"":"""",""Q1"":0,""Q2"":1}","","","","","","","","","","","","","","","","","","","","","","",""
"6310","","survey-text","43","332813","0.0-43.0-0.0","A2SXOQZNH7UCC5","","","","{""Q0"":""rock""}","","","","","","","","","","","","","","","","","","","","","","",""
"18757","","survey-text","44","351576","0.0-44.0-0.0","A2SXOQZNH7UCC5","","","","{""Q0"":""muddy and murky not my taste""}","","","","","","","","","","","","","","","","","","","","","","",""
"4375.4000000003725","","image-slider-response","45","355955","0.0-45.0","A2SXOQZNH7UCC5","","","","","-26","","","","","","","","","","","","","","","","","","","","","",""
"null","","image-button-response","46","360985","0.0-46.0","A2SXOQZNH7UCC5","img_art/22.jpg","null","","","","","","","","","","","","","","","","","","","","","","","","",""
"339","","image-button-response","47","361330","0.0-47.0","A2SXOQZNH7UCC5","img_art/22.jpg","4","","","","","","","","","","","","","","","","","","","","","","","","",""
"12025","","image-button-response","48","373360","0.0-48.0-0.0","A2SXOQZNH7UCC5","img_art/22.jpg","2","","","","","","","","","","","","","","","","","","","","","","","","",""
"9868","","image-button-response","49","383244","0.0-49.0-0.0","A2SXOQZNH7UCC5","img_art/22.jpg","0","","","","","","","","","","","","","","","","","","","","","","","","",""
"null","","html-keyboard-response","50","384251","0.0-50.0","A2SXOQZNH7UCC5","<p style=""font-size: 48px;"">+</p>","","","","","null","allTrialResponses","1000","1","1","img_art/22.jpg","-26","muddy and murky not my taste","Emily,Makayla,Katelyn,Julia,Katie,Stephanie","There is some flow and organization.,10,40,20","Just neutral no feelings,2,80,20","I usually dont like blurry pieces but the colors are amazing in this,14,100,20","this is too generic,-27,40,20","Too much red. The red/yellow/orange make me think of heat/fire, which makes me anxious.,-10,160,20","I don't get much of a reaction.,11,300,20","Katie","Too much red. The red/yellow/orange make me think of heat/fire, which makes me anxious.,-10,160,20","Katelyn","I usually dont like blurry pieces but the colors are amazing in this,14,100,20","Emily","There is some flow and organization.,10,40,20","0"
"26178","","survey-text","51","410436","0.0-51.0-0.0","A2SXOQZNH7UCC5","","","","{""Q0"":""this piece interests me interesting colors also""}","","","","","","","","","","","","","","","","","","","","","","",""
"3844.7000000001863","","image-slider-response","52","414285","0.0-52.0","A2SXOQZNH7UCC5","","","","","20","","","","","","","","","","","","","","","","","","","","","",""
"null","","image-button-response","53","419294","0.0-53.0","A2SXOQZNH7UCC5","img_art/25.jpg","null","","","","","","","","","","","","","","","","","","","","","","","","",""
"2757","","image-button-response","54","422058","0.0-54.0","A2SXOQZNH7UCC5","img_art/25.jpg","4","","","","","","","","","","","","","","","","","","","","","","","","",""
"7208","","image-button-response","55","429270","0.0-55.0-0.0","A2SXOQZNH7UCC5","img_art/25.jpg","1","","","","","","","","","","","","","","","","","","","","","","","","",""
"2535","","image-button-response","56","431812","0.0-56.0-0.0","A2SXOQZNH7UCC5","img_art/25.jpg","2","","","","","","","","","","","","","","","","","","","","","","","","",""
"null","","html-keyboard-response","57","433318","0.0-57.0","A2SXOQZNH7UCC5","<p style=""font-size: 48px;"">+</p>","","","","","null","allTrialResponses","1500","1","2","img_art/25.jpg","20","this piece interests me interesting colors also","Emily,Lindsey,Katelyn,Courtney,Katie,Sophia","Low skill not impressed.,-14,40,20","This piece makes me think of oppression and fighting it. Makes me feel calm, sad and strong.,11,400,20","Creates a bit of fear in me for some reason,-26,100,20","That on i find a bit creapy.,-19,280,20","Reminds me of ancient civilization art. I like the aqua color; soothing to me.,1,160,20","This one just has a dark feeling to me.,-50,280,20","Katie","Reminds me of ancient civilization art. I like the aqua color; soothing to me.,1,160,20","Lindsey","This piece makes me think of oppression and fighting it. Makes me feel calm, sad and strong.,11,400,20","Katelyn","Creates a bit of fear in me for some reason,-26,100,20","0"
"12930","","survey-text","58","446265","0.0-58.0-0.0","A2SXOQZNH7UCC5","","","","{""Q0"":""looks like childhood gone wrong disturbing""}","","","","","","","","","","","","","","","","","","","","","","",""
"4691.299999999814","","image-slider-response","59","450959","0.0-59.0","A2SXOQZNH7UCC5","","","","","-48","","","","","","","","","","","","","","","","","","","","","",""
"4943","","image-button-response","60","455972","0.0-60.0","A2SXOQZNH7UCC5","img_art/16.jpg","4","","","","","","","","","","","","","","","","","","","","","","","","",""
"1439","","image-button-response","61","457416","0.0-61.0","A2SXOQZNH7UCC5","img_art/16.jpg","4","","","","","","","","","","","","","","","","","","","","","","","","",""
"3744","","image-button-response","62","461162","0.0-62.0-0.0","A2SXOQZNH7UCC5","img_art/16.jpg","0","","","","","","","","","","","","","","","","","","","","","","","","",""
"2130","","image-button-response","63","463299","0.0-63.0-0.0","A2SXOQZNH7UCC5","img_art/16.jpg","1","","","","","","","","","","","","","","","","","","","","","","","","",""
"null","","html-keyboard-response","64","463803","0.0-64.0","A2SXOQZNH7UCC5","<p style=""font-size: 48px;"">+</p>","","","","","null","allTrialResponses","500","1","3","img_art/16.jpg","-48","looks like childhood gone wrong disturbing","Tiffany,Lindsey,Katelyn,Cheyenne,Katie,Jasmine","I feel irked, like somehow the items in this painting just happened to fall on the page together.,-44,360,20","It's depressing. Probably achieved its goal. But I wouldn't want it hanging in my home.,-31,400,20","I dont feel any real response,5,100,20","Cute but there's a lot going on.,7,200,20","Upsetting and disturbing. Random bear and indistinguishable objects. None of it goes together. Too chaotic and random,-50,160,20","I like it because it's quite different from the rest,23,340,20","Katie","Upsetting and disturbing. Random bear and indistinguishable objects. None of it goes together. Too chaotic and random,-50,160,20","Tiffany","I feel irked, like somehow the items in this painting just happened to fall on the page together.,-44,360,20","Lindsey","It's depressing. Probably achieved its goal. But I wouldn't want it hanging in my home.,-31,400,20","0"
"22688","","survey-text","65","486507","0.0-65.0-0.0","A2SXOQZNH7UCC5","","","","{""Q0"":""nicely balanced somewhat neutral skilled though""}","","","","","","","","","","","","","","","","","","","","","","",""
"2485.0999999996275","","image-slider-response","66","488995","0.0-66.0","A2SXOQZNH7UCC5","","","","","8","","","","","","","","","","","","","","","","","","","","","",""
"null","","image-button-response","67","494003","0.0-67.0","A2SXOQZNH7UCC5","img_art/18.jpg","null","","","","","","","","","","","","","","","","","","","","","","","","",""
"8322","","image-button-response","68","502339","0.0-68.0","A2SXOQZNH7UCC5","img_art/18.jpg","5","","","","","","","","","","","","","","","","","","","","","","","","",""
"2684","","image-button-response","69","505029","0.0-69.0-0.0","A2SXOQZNH7UCC5","img_art/18.jpg","1","","","","","","","","","","","","","","","","","","","","","","","","",""
"2085","","image-button-response","70","507127","0.0-70.0-0.0","A2SXOQZNH7UCC5","img_art/18.jpg","2","","","","","","","","","","","","","","","","","","","","","","","","",""
"null","","html-keyboard-response","71","508132","0.0-71.0","A2SXOQZNH7UCC5","<p style=""font-size: 48px;"">+</p>","","","","","null","allTrialResponses","1000","1","4","img_art/18.jpg","8","nicely balanced somewhat neutral skilled though","Tiffany,Lindsey,Marissa,Angela,Katie,Megan","I'm mildly disgusted by the colors, and can't piece together the story the figures are trying to tell.,-10,360,20","Interesting piece - gives you more the more you look at it. I like it but wouldn't buy it.,11,400,20","This brings to mind the four horsemen of the apocalypse,8,160,20","like the grays and contrast of the yellow. This piece feels a bit angry,10,260,20","Looks messy. Reminds me of a battle or war. I have an unpleasant feeling the more I look.,-20,160,20","Nice palette with complexity becoming nice at the center,34,200,20","Megan","Nice palette with complexity becoming nice at the center,34,200,20","Lindsey","Interesting piece - gives you more the more you look at it. I like it but wouldn't buy it.,11,400,20","Marissa","This brings to mind the four horsemen of the apocalypse,8,160,20","0"
"16339","","survey-text","72","524484","0.0-72.0-0.0","A2SXOQZNH7UCC5","","","","{""Q0"":""gorgeous and very creative beautiful""}","","","","","","","","","","","","","","","","","","","","","","",""
"4562.5","","image-slider-response","73","529055","0.0-73.0","A2SXOQZNH7UCC5","","","","","43","","","","","","","","","","","","","","","","","","","","","",""
"3032","","image-button-response","74","534066","0.0-74.0","A2SXOQZNH7UCC5","img_art/8.jpg","1","","","","","","","","","","","","","","","","","","","","","","","","",""
"3442","","image-button-response","75","537513","0.0-75.0","A2SXOQZNH7UCC5","img_art/8.jpg","0","","","","","","","","","","","","","","","","","","","","","","","","",""
"4132","","image-button-response","76","541648","0.0-76.0-0.0","A2SXOQZNH7UCC5","img_art/8.jpg","3","","","","","","","","","","","","","","","","","","","","","","","","",""
"9792","","image-button-response","77","551445","0.0-77.0-0.0","A2SXOQZNH7UCC5","img_art/8.jpg","2","","","","","","","","","","","","","","","","","","","","","","","","",""
"null","","html-keyboard-response","78","552950","0.0-78.0","A2SXOQZNH7UCC5","<p style=""font-size: 48px;"">+</p>","","","","","null","allTrialResponses","1500","1","5","img_art/8.jpg","43","gorgeous and very creative beautiful","Katherine,Lindsey,Marissa,Madeline,Brianna,Megan","This is really cool, I love the fragments of faces,38,120,20","Pleasant colors, lots of interest. Not sure what's going on but I like it.,20,400,20","I can't tell if this is supposed to portray just city life or a town crumbling,-5,160,20","Very nice detail and colors!,10,40,20","It's very odd and I don't really like it,-30,20,20","Cortez's influence with fair color choices,10,200,20","Katherine","This is really cool, I love the fragments of faces,38,120,20","Madeline","Very nice detail and colors!,10,40,20","Marissa","I can't tell if this is supposed to portray just city life or a town crumbling,-5,160,20","0"
"5230","","survey-text","79","558198","0.0-79.0-0.0","A2SXOQZNH7UCC5","","","","{""Q0"":""sky""}","","","","","","","","","","","","","","","","","","","","","","",""
"15307","","survey-text","80","573510","0.0-80.0-0.0","A2SXOQZNH7UCC5","","","","{""Q0"":""awful like ants crawling all over you anxiety provoking""}","","","","","","","","","","","","","","","","","","","","","","",""
"4074.9000000003725","","image-slider-response","81","577591","0.0-81.0","A2SXOQZNH7UCC5","","","","","-50","","","","","","","","","","","","","","","","","","","","","",""
"3609","","image-button-response","82","582595","0.0-82.0","A2SXOQZNH7UCC5","img_art/15.jpg","0","","","","","","","","","","","","","","","","","","","","","","","","",""
"201","","image-button-response","83","582802","0.0-83.0","A2SXOQZNH7UCC5","img_art/15.jpg","0","","","","","","","","","","","","","","","","","","","","","","","","",""
"2744","","image-button-response","84","585548","0.0-84.0-0.0","A2SXOQZNH7UCC5","img_art/15.jpg","4","","","","","","","","","","","","","","","","","","","","","","","","",""
"9554","","image-button-response","85","595107","0.0-85.0-0.0","A2SXOQZNH7UCC5","img_art/15.jpg","0","","","","","","","","","","","","","","","","","","","","","","","","",""
"2215","","image-button-response","86","600657","0.0-85.1-0.1","A2SXOQZNH7UCC5","img_art/15.jpg","3","","","","","","","","","","","","","","","","","","","","","","","","",""
"null","","html-keyboard-response","87","601662","0.0-86.0","A2SXOQZNH7UCC5","<p style=""font-size: 48px;"">+</p>","","","","","null","allTrialResponses","1000","1","6","img_art/15.jpg","-50","awful like ants crawling all over you anxiety provoking","Katherine,Emma,Marissa,Madeline,Olivia,Cynthia","black dots too ant-like,-25,120,20","Don't love it but it's cute,16,60,20","I am reminded of spring flowers swaying in the dark night's breeze,9,160,20","Simple but needs some more detail somehow,-3,40,20","Black reminds me of darkness,-18,40,20","interested in this transformation,20,320,20","Katherine","black dots too ant-like,-25,120,20","Olivia","Black reminds me of darkness,-18,40,20","Madeline","Simple but needs some more detail somehow,-3,40,20","2"
"18111","","survey-text","88","619780","0.0-87.0-0.0","A2SXOQZNH7UCC5","","","","{""Q0"":""love the beautiful flowers and water - exciting""}","","","","","","","","","","","","","","","","","","","","","","",""
"4812","","image-slider-response","89","624596","0.0-88.0","A2SXOQZNH7UCC5","","","","","38","","","","","","","","","","","","","","","","","","","","","",""
"3015","","image-button-response","90","629607","0.0-89.0","A2SXOQZNH7UCC5","img_art/24.jpg","0","","","","","","","","","","","","","","","","","","","","","","","","",""
"1117","","image-button-response","91","630725","0.0-90.0","A2SXOQZNH7UCC5","img_art/24.jpg","0","","","","","","","","","","","","","","","","","","","","","","","","",""
"8516","","image-button-response","92","639244","0.0-91.0-0.0","A2SXOQZNH7UCC5","img_art/24.jpg","4","","","","","","","","","","","","","","","","","","","","","","","","",""
"2480","","image-button-response","93","641728","0.0-92.0-0.0","A2SXOQZNH7UCC5","img_art/24.jpg","5","","","","","","","","","","","","","","","","","","","","","","","","",""
"null","","html-keyboard-response","94","643229","0.0-93.0","A2SXOQZNH7UCC5","<p style=""font-size: 48px;"">+</p>","","","","","null","allTrialResponses","1500","1","7","img_art/24.jpg","38","love the beautiful flowers and water - exciting","Katherine,Abigail,Haley,Madeline,Olivia,Grace","The combination of nature / realism with abstract colors is unique.,39,120,20","Beautiful waterfall I like waterfalls,39,20,20","Beautiful colors and texture,20,220,20","colors are good but the style is iffy,12,40,20","tranquility in the stream,34,40,20","Abstract falls & nature.,41,180,20","Katherine","The combination of nature / realism with abstract colors is unique.,39,120,20","Olivia","tranquility in the stream,34,40,20","Grace","Abstract falls & nature.,41,180,20","2"
"8662","","survey-text","95","651900","0.0-94.0-0.0","A2SXOQZNH7UCC5","","","","{""Q0"":""disturbing too chaotic ""}","","","","","","","","","","","","","","","","","","","","","","",""
"3066.100000000559","","image-slider-response","96","654972","0.0-95.0","A2SXOQZNH7UCC5","","","","","-41","","","","","","","","","","","","","","","","","","","","","",""
"null","","image-button-response","97","659983","0.0-96.0","A2SXOQZNH7UCC5","img_art/23.jpg","null","","","","","","","","","","","","","","","","","","","","","","","","",""
"4739","","image-button-response","98","664738","0.0-97.0","A2SXOQZNH7UCC5","img_art/23.jpg","1","","","","","","","","","","","","","","","","","","","","","","","","",""
"8309","","image-button-response","99","673052","0.0-98.0-0.0","A2SXOQZNH7UCC5","img_art/23.jpg","5","","","","","","","","","","","","","","","","","","","","","","","","",""
"1814","","image-button-response","100","674873","0.0-99.0-0.0","A2SXOQZNH7UCC5","img_art/23.jpg","3","","","","","","","","","","","","","","","","","","","","","","","","",""
"null","","html-keyboard-response","101","675378","0.0-100.0","A2SXOQZNH7UCC5","<p style=""font-size: 48px;"">+</p>","","","","","null","allTrialResponses","500","1","8","img_art/23.jpg","-41","disturbing too chaotic ","Katherine,Breanna,Angelica,Leah,Olivia,Grace","This one is awesome, kinda looks like a cake with sprinkles but in a different universe,50,120,20","Makes me worried,10,380,20","This looks like hotel room art, it's ugly and odd.,-2,280,20","Interesting, want to look at it more to identify,25,360,20","happiness in the universe,28,40,20","Looks like fireworks.,21,180,20","Breanna","Makes me worried,10,380,20","Grace","Looks like fireworks.,21,180,20","Leah","Interesting, want to look at it more to identify,25,360,20","2"
"13138","","survey-text","102","688532","0.0-101.0-0.0","A2SXOQZNH7UCC5","","","","{""Q0"":""soothing and interesting to explore""}","","","","","","","","","","","","","","","","","","","","","","",""
"3652.5","","image-slider-response","103","692188","0.0-102.0","A2SXOQZNH7UCC5","","","","","34","","","","","","","","","","","","","","","","","","","","","",""
"3898","","image-button-response","104","697198","0.0-103.0","A2SXOQZNH7UCC5","img_art/14.jpg","3","","","","","","","","","","","","","","","","","","","","","","","","",""
"2647","","image-button-response","105","699851","0.0-104.0","A2SXOQZNH7UCC5","img_art/14.jpg","1","","","","","","","","","","","","","","","","","","","","","","","","",""
"2209","","image-button-response","106","702066","0.0-105.0-0.0","A2SXOQZNH7UCC5","img_art/14.jpg","2","","","","","","","","","","","","","","","","","","","","","","","","",""
"2961","","image-button-response","107","705032","0.0-106.0-0.0","A2SXOQZNH7UCC5","img_art/14.jpg","3","","","","","","","","","","","","","","","","","","","","","","","","",""
"null","","html-keyboard-response","108","706035","0.0-107.0","A2SXOQZNH7UCC5","<p style=""font-size: 48px;"">+</p>","","","","","null","allTrialResponses","1000","1","9","img_art/14.jpg","34","soothing and interesting to explore","Natalie,Breanna,Chelsea,Leah,Hailey,Grace","my reaction is that the picture is wierd,-14,400,20","Makes me feel good,30,380,20","The colors are pleasing.,29,180,20","I like the simplicity along with the colors,27,360,20","fuzzy and confused. ok then well,16,200,20","Like some of the colors but not much else.,1,180,20","Breanna","Makes me feel good,30,380,20","Chelsea","The colors are pleasing.,29,180,20","Leah","I like the simplicity along with the colors,27,360,20","2"
"20605","","survey-text","109","726662","0.0-108.0-0.0","A2SXOQZNH7UCC5","","","","{""Q0"":""like a busy city or highways interesting foggy day in the city ""}","","","","","","","","","","","","","","","","","","","","","","",""
"2765.9000000003725","","image-slider-response","110","729435","0.0-109.0","A2SXOQZNH7UCC5","","","","","21","","","","","","","","","","","","","","","","","","","","","",""
"4077","","image-button-response","111","734441","0.0-110.0","A2SXOQZNH7UCC5","img_art/11.jpg","0","","","","","","","","","","","","","","","","","","","","","","","","",""
"377","","image-button-response","112","734823","0.0-111.0","A2SXOQZNH7UCC5","img_art/11.jpg","0","","","","","","","","","","","","","","","","","","","","","","","","",""
"2598","","image-button-response","113","737425","0.0-112.0-0.0","A2SXOQZNH7UCC5","img_art/11.jpg","4","","","","","","","","","","","","","","","","","","","","","","","","",""
"4843","","image-button-response","114","742275","0.0-113.0-0.0","A2SXOQZNH7UCC5","img_art/11.jpg","2","","","","","","","","","","","","","","","","","","","","","","","","",""
"null","","html-keyboard-response","115","742780","0.0-114.0","A2SXOQZNH7UCC5","<p style=""font-size: 48px;"">+</p>","","","","","null","allTrialResponses","500","1","10","img_art/11.jpg","21","like a busy city or highways interesting foggy day in the city ","Cassandra,Breanna,Chelsea,Leah,Madison,Rebecca","I liked it it looked like an roller coasters at an amusment park.,16,120,20","Very cool, makes me feel good,39,380,20","I like the harsh black lines against a soft background.,27,180,20","Even with the colors, it is dreary to me,-32,360,20","Rainy day at an urban sea port. Portugal?,30,60,20","to me, perfect reflection of the modern commute,32,100,20","Cassandra","I liked it it looked like an roller coasters at an amusment park.,16,120,20","Madison","Rainy day at an urban sea port. Portugal?,30,60,20","Chelsea","I like the harsh black lines against a soft background.,27,180,20","2"
"4823","","survey-text","116","747625","0.0-115.0-0.0","A2SXOQZNH7UCC5","","","","{""Q0"":""our""}","","","","","","","","","","","","","","","","","","","","","","",""
"22804","","survey-text","117","770432","0.0-116.0-0.0","A2SXOQZNH7UCC5","","","","{""Q0"":""two figures interacting lots to explore here and see more as you do ""}","","","","","","","","","","","","","","","","","","","","","","",""
"3661.199999999255","","image-slider-response","118","774100","0.0-117.0","A2SXOQZNH7UCC5","","","","","16","","","","","","","","","","","","","","","","","","","","","",""
"null","","image-button-response","119","779108","0.0-118.0","A2SXOQZNH7UCC5","img_art/28.jpg","null","","","","","","","","","","","","","","","","","","","","","","","","",""
"991","","image-button-response","120","780104","0.0-119.0","A2SXOQZNH7UCC5","img_art/28.jpg","4","","","","","","","","","","","","","","","","","","","","","","","","",""
"5241","","image-button-response","121","785349","0.0-120.0-0.0","A2SXOQZNH7UCC5","img_art/28.jpg","1","","","","","","","","","","","","","","","","","","","","","","","","",""
"19670","","image-button-response","122","805025","0.0-121.0-0.0","A2SXOQZNH7UCC5","img_art/28.jpg","0","","","","","","","","","","","","","","","","","","","","","","","","",""
"null","","html-keyboard-response","123","805528","0.0-122.0","A2SXOQZNH7UCC5","<p style=""font-size: 48px;"">+</p>","","","","","null","allTrialResponses","500","1","11","img_art/28.jpg","16","two figures interacting lots to explore here and see more as you do ","Cassandra,Meghan,Chelsea,Brooke,Madison,Nicole","Hate it...brown and drab,-37,120,20","I don't like the color choice,-30,220,20","It is too messy.,-38,180,20","dislike the colors. it looks like a bike, but misshapen wheels like it was wrecked.,-10,60,20","It's okay. There is harmony and balance.,11,60,20","The lack of color variance leaves it looking ugly even if I like the brush strokes,-10,20,20","Madison","It's okay. There is harmony and balance.,11,60,20","Meghan","I don't like the color choice,-30,220,20","Cassandra","Hate it...brown and drab,-37,120,20","2"
"19011","","survey-text","124","824557","0.0-123.0-0.0","A2SXOQZNH7UCC5","","","","{""Q0"":""colors are inharmonious ugly green like vomit""}","","","","","","","","","","","","","","","","","","","","","","",""
"4993.9000000003725","","image-slider-response","125","829559","0.0-124.0","A2SXOQZNH7UCC5","","","","","-33","","","","","","","","","","","","","","","","","","","","","",""
"3621","","image-button-response","126","834563","0.0-125.0","A2SXOQZNH7UCC5","img_art/2.jpg","0","","","","","","","","","","","","","","","","","","","","","","","","",""
"2506","","image-button-response","127","837078","0.0-126.0","A2SXOQZNH7UCC5","img_art/2.jpg","2","","","","","","","","","","","","","","","","","","","","","","","","",""
"1344","","image-button-response","128","838427","0.0-127.0-0.0","A2SXOQZNH7UCC5","img_art/2.jpg","0","","","","","","","","","","","","","","","","","","","","","","","","",""
"5407","","image-button-response","129","843839","0.0-128.0-0.0","A2SXOQZNH7UCC5","img_art/2.jpg","3","","","","","","","","","","","","","","","","","","","","","","","","",""
"null","","html-keyboard-response","130","844344","0.0-129.0","A2SXOQZNH7UCC5","<p style=""font-size: 48px;"">+</p>","","","","","null","allTrialResponses","500","1","12","img_art/2.jpg","-33","colors are inharmonious ugly green like vomit","Cassandra,Meghan,Kathryn,Shelby,Madison,Heather","I didn't like this it looked like a kindergardner painted it and the green was out of place.,-46,120,20","looks like a child's artwork,-40,220,20","I think I'm put off by the clashing colors here. It feels discombobulated and sick.,-10,140,20","The contrasting colors are a bit harsh,-10,240,20","Grim and overwhelming,-6,60,20","i like the colors and again can make out my own picture,38,260,20","Kathryn","I think I'm put off by the clashing colors here. It feels discombobulated and sick.,-10,140,20","Cassandra","I didn't like this it looked like a kindergardner painted it and the green was out of place.,-46,120,20","Shelby","The contrasting colors are a bit harsh,-10,240,20","2"
"17725","","survey-text","131","862086","0.0-130.0-0.0","A2SXOQZNH7UCC5","","","","{""Q0"":""the dynamic elements are needed more otherwise all right""}","","","","","","","","","","","","","","","","","","","","","","",""
"5282.5","","image-slider-response","132","867375","0.0-131.0","A2SXOQZNH7UCC5","","","","","5","","","","","","","","","","","","","","","","","","","","","",""
"null","","image-button-response","133","872387","0.0-132.0","A2SXOQZNH7UCC5","img_art/1.jpg","null","","","","","","","","","","","","","","","","","","","","","","","","",""
"243","","image-button-response","134","872637","0.0-133.0","A2SXOQZNH7UCC5","img_art/1.jpg","5","","","","","","","","","","","","","","","","","","","","","","","","",""
"6075","","image-button-response","135","878716","0.0-134.0-0.0","A2SXOQZNH7UCC5","img_art/1.jpg","1","","","","","","","","","","","","","","","","","","","","","","","","",""
"1374","","image-button-response","136","880096","0.0-135.0-0.0","A2SXOQZNH7UCC5","img_art/1.jpg","0","","","","","","","","","","","","","","","","","","","","","","","","",""
"null","","html-keyboard-response","137","881602","0.0-136.0","A2SXOQZNH7UCC5","<p style=""font-size: 48px;"">+</p>","","","","","null","allTrialResponses","1500","1","13","img_art/1.jpg","5","the dynamic elements are needed more otherwise all right","Cassandra,Shannon,Kathryn,Shelby,Mikayla,Jacqueline","I didn't like this too much...I didn't like the red and the jaggedness to it.,-29,120,20","I think that this picture has nice colors and its pleasing to the eyes.,20,220,20","For some reason this makes me want to go ice skating. It's whimsical and free but also very smooth.,20,140,20","This one has a pleasent energy,15,240,20","Again kind a boring.,-38,300,20","It's alright but lacks any depth.,-5,300,20","Jacqueline","It's alright but lacks any depth.,-5,300,20","Shannon","I think that this picture has nice colors and its pleasing to the eyes.,20,220,20","Cassandra","I didn't like this too much...I didn't like the red and the jaggedness to it.,-29,120,20","2"
"26523","","survey-text","138","908134","0.0-137.0-0.0","A2SXOQZNH7UCC5","","","","{""Q0"":""these colors are not appealing at all and a gingerman on the left looks distressed not enjoyable to look at""}","","","","","","","","","","","","","","","","","","","","","","",""
"2646.2000000001863","","image-slider-response","139","910786","0.0-138.0","A2SXOQZNH7UCC5","","","","","-40","","","","","","","","","","","","","","","","","","","","","",""
"null","","image-button-response","140","915795","0.0-139.0","A2SXOQZNH7UCC5","img_art/27.jpg","null","","","","","","","","","","","","","","","","","","","","","","","","",""
"4899","","image-button-response","141","920699","0.0-140.0","A2SXOQZNH7UCC5","img_art/27.jpg","0","","","","","","","","","","","","","","","","","","","","","","","","",""
"2381","","image-button-response","142","923086","0.0-141.0-0.0","A2SXOQZNH7UCC5","img_art/27.jpg","1","","","","","","","","","","","","","","","","","","","","","","","","",""
"11333","","image-button-response","143","934426","0.0-142.0-0.0","A2SXOQZNH7UCC5","img_art/27.jpg","4","","","","","","","","","","","","","","","","","","","","","","","","",""
"null","","html-keyboard-response","144","935934","0.0-143.0","A2SXOQZNH7UCC5","<p style=""font-size: 48px;"">+</p>","","","","","null","allTrialResponses","1500","1","14","img_art/27.jpg","-40","these colors are not appealing at all and a gingerman on the left looks distressed not enjoyable to look at","Cassandra,Shannon,Paige,Kimberly,Kylie,Jacqueline","I don't like any of it...just scibbles.,-37,120,20","This image could do a better job of showing what is going on and it could use more colors.,-42,220,20","Pleased. Reminds me of a child drawing,46,60,20","Nothing stands out,-23,260,20","Soothing in the middle of some confusion,40,300,20","I don't really see anything to this art.,-5,300,20","Cassandra","I don't like any of it...just scibbles.,-37,120,20","Shannon","This image could do a better job of showing what is going on and it could use more colors.,-42,220,20","Kylie","Soothing in the middle of some confusion,40,300,20","2"
"16010","","survey-text","145","951962","0.0-144.0-0.0","A2SXOQZNH7UCC5","","","","{""Q0"":""overwhelming dripping bloodlike red too heavy""}","","","","","","","","","","","","","","","","","","","","","","",""
"3293.2000000001863","","image-slider-response","146","955260","0.0-145.0","A2SXOQZNH7UCC5","","","","","-35","","","","","","","","","","","","","","","","","","","","","",""
"null","","image-button-response","147","960276","0.0-146.0","A2SXOQZNH7UCC5","img_art/3.jpg","null","","","","","","","","","","","","","","","","","","","","","","","","",""
"1524","","image-button-response","148","961807","0.0-147.0","A2SXOQZNH7UCC5","img_art/3.jpg","4","","","","","","","","","","","","","","","","","","","","","","","","",""
"2291","","image-button-response","149","964102","0.0-148.0-0.0","A2SXOQZNH7UCC5","img_art/3.jpg","0","","","","","","","","","","","","","","","","","","","","","","","","",""
"1208","","image-button-response","150","965316","0.0-149.0-0.0","A2SXOQZNH7UCC5","img_art/3.jpg","2","","","","","","","","","","","","","","","","","","","","","","","","",""
"null","","html-keyboard-response","151","965822","0.0-150.0","A2SXOQZNH7UCC5","<p style=""font-size: 48px;"">+</p>","","","","","null","allTrialResponses","500","1","15","img_art/3.jpg","-35","overwhelming dripping bloodlike red too heavy","Cassandra,Shannon,Destiny,Alyssa,Kylie,Bailey","I hate this...just a scribble of red.,-50,120,20","I can't tell what this image is supposed to be it looks extremely ugly and color variety is boring.,-50,220,20","im just getting more agitated and less appreciative of art. I have absolutely no scale to base on,-34,360,20","Looks like someone spilled ketchup and forgot to clean it up,-30,160,20","Confusion and mayhem,-10,300,20","Just scribbles. People buy that?,-47,360,20","Kylie","Confusion and mayhem,-10,300,20","Cassandra","I hate this...just a scribble of red.,-50,120,20","Destiny","im just getting more agitated and less appreciative of art. I have absolutely no scale to base on,-34,360,20","2"
"4382","","survey-text","152","970232","0.0-151.0-0.0","A2SXOQZNH7UCC5","","","","{""Q0"":""course""}","","","","","","","","","","","","","","","","","","","","","","",""
"22382","","survey-text","153","992618","0.0-152.0-0.0","A2SXOQZNH7UCC5","","","","{""Q0"":""snake like shapes in the city not balanced""}","","","","","","","","","","","","","","","","","","","","","","",""
"2866.899999999441","","image-slider-response","154","995488","0.0-153.0","A2SXOQZNH7UCC5","","","","","-25","","","","","","","","","","","","","","","","","","","","","",""
"null","","image-button-response","155","1000494","0.0-154.0","A2SXOQZNH7UCC5","img_art/30.jpg","null","","","","","","","","","","","","","","","","","","","","","","","","",""
"9200","","image-button-response","156","1009699","0.0-155.0","A2SXOQZNH7UCC5","img_art/30.jpg","0","","","","","","","","","","","","","","","","","","","","","","","","",""
"2805","","image-button-response","157","1012509","0.0-156.0-0.0","A2SXOQZNH7UCC5","img_art/30.jpg","3","","","","","","","","","","","","","","","","","","","","","","","","",""
"2531","","image-button-response","158","1015043","0.0-157.0-0.0","A2SXOQZNH7UCC5","img_art/30.jpg","4","","","","","","","","","","","","","","","","","","","","","","","","",""
"null","","html-keyboard-response","159","1016048","0.0-158.0","A2SXOQZNH7UCC5","<p style=""font-size: 48px;"">+</p>","","","","","null","allTrialResponses","1000","1","16","img_art/30.jpg","-25","snake like shapes in the city not balanced","Cassandra,Erica,Destiny,Monica,Kylie,Molly","I didn't like this...it looks like someone just finger painted it.,-10,120,20","calming and relaxing,14,80,20","literally stupid I made this with as seen on tv products when I was 7,-42,360,20","It looked like a random scribble but I can see a person's face in it now and I think it's clever,13,360,20","I can't figure this out,25,300,20","I like the way the artist has painted his work.,40,340,20","Cassandra","I didn't like this...it looks like someone just finger painted it.,-10,120,20","Monica","It looked like a random scribble but I can see a person's face in it now and I think it's clever,13,360,20","Kylie","I can't figure this out,25,300,20","2"
"21947","","survey-text","160","1038016","0.0-159.0-0.0","A2SXOQZNH7UCC5","","","","{""Q0"":""appealing and intriguing a woman in the center fascinating like the colors engaging""}","","","","","","","","","","","","","","","","","","","","","","",""
"3567.7000000001863","","image-slider-response","161","1041589","0.0-160.0","A2SXOQZNH7UCC5","","","","","38","","","","","","","","","","","","","","","","","","","","","",""
"null","","image-button-response","162","1046594","0.0-161.0","A2SXOQZNH7UCC5","img_art/9.jpg","null","","","","","","","","","","","","","","","","","","","","","","","","",""
"3948","","image-button-response","163","1050545","0.0-162.0","A2SXOQZNH7UCC5","img_art/9.jpg","4","","","","","","","","","","","","","","","","","","","","","","","","",""
"2123","","image-button-response","164","1052671","0.0-163.0-0.0","A2SXOQZNH7UCC5","img_art/9.jpg","3","","","","","","","","","","","","","","","","","","","","","","","","",""
"2203","","image-button-response","165","1054879","0.0-164.0-0.0","A2SXOQZNH7UCC5","img_art/9.jpg","1","","","","","","","","","","","","","","","","","","","","","","","","",""
"null","","html-keyboard-response","166","1055886","0.0-165.0","A2SXOQZNH7UCC5","<p style=""font-size: 48px;"">+</p>","","","","","null","allTrialResponses","1000","1","17","img_art/9.jpg","38","appealing and intriguing a woman in the center fascinating like the colors engaging","Cassandra,Alicia,Allison,Monica,Kylie,Laura","Stuipid looking...dumb,-48,120,20","Abstract titanic scene. It's nice though. I like how it makes me feel.,28,120,20","Very eclectic and messy. Not my preference, but may work for some.,-20,140,20","I like the greens and blues around the sides and the person reclining in the center makes me feel relaxed,24,360,20","Peaceful dreaming,40,300,20","autopsy, morgue, dead corpses - don't like the flesh tones,-43,320,20","Kylie","Peaceful dreaming,40,300,20","Monica","I like the greens and blues around the sides and the person reclining in the center makes me feel relaxed,24,360,20","Alicia","Abstract titanic scene. It's nice though. I like how it makes me feel.,28,120,20","2"
"45302","","survey-text","167","1101206","0.0-166.0-0.0","A2SXOQZNH7UCC5","","","","{""Q0"":""not harmonious to me, conflict among elements pulling you away from what you're focused on""}","","","","","","","","","","","","","","","","","","","","","","",""
"2354.899999999441","","image-slider-response","168","1103566","0.0-167.0","A2SXOQZNH7UCC5","","","","","-23","","","","","","","","","","","","","","","","","","","","","",""
"null","","image-button-response","169","1108574","0.0-168.0","A2SXOQZNH7UCC5","img_art/29.jpg","null","","","","","","","","","","","","","","","","","","","","","","","","",""
"1526","","image-button-response","170","1110116","0.0-169.0","A2SXOQZNH7UCC5","img_art/29.jpg","1","","","","","","","","","","","","","","","","","","","","","","","","",""
"1658","","image-button-response","171","1111780","0.0-170.0-0.0","A2SXOQZNH7UCC5","img_art/29.jpg","3","","","","","","","","","","","","","","","","","","","","","","","","",""
"1629","","image-button-response","172","1113411","0.0-171.0-0.0","A2SXOQZNH7UCC5","img_art/29.jpg","4","","","","","","","","","","","","","","","","","","","","","","","","",""
"null","","html-keyboard-response","173","1114415","0.0-172.0","A2SXOQZNH7UCC5","<p style=""font-size: 48px;"">+</p>","","","","","null","allTrialResponses","1000","1","18","img_art/29.jpg","-23","not harmonious to me, conflict among elements pulling you away from what you're focused on","Caitlin,Alicia,Hannah,Monica,Kylie,Caroline","I would give up and give it a red X too.,-5,80,20","easy, too abstract for me, don't get it.,-25,120,20","I don't like the red X through it.,-20,240,20","There's too much black and it looks sloppy,-35,360,20","Reminds me of graffitti gone wrong,15,300,20","Depressing and with that big red x on it just makes me not like it.,-33,100,20","Alicia","easy, too abstract for me, don't get it.,-25,120,20","Monica","There's too much black and it looks sloppy,-35,360,20","Kylie","Reminds me of graffitti gone wrong,15,300,20","2"
"19525","","survey-text","174","1133959","0.0-173.0-0.0","A2SXOQZNH7UCC5","","","","{""Q0"":""love this peaceful rainy day with birches""}","","","","","","","","","","","","","","","","","","","","","","",""
"4106.200000000186","","image-slider-response","175","1138069","0.0-174.0","A2SXOQZNH7UCC5","","","","","50","","","","","","","","","","","","","","","","","","","","","",""
"4059","","image-button-response","176","1143072","0.0-175.0","A2SXOQZNH7UCC5","img_art/13.jpg","2","","","","","","","","","","","","","","","","","","","","","","","","",""
"638","","image-button-response","177","1143717","0.0-176.0","A2SXOQZNH7UCC5","img_art/13.jpg","2","","","","","","","","","","","","","","","","","","","","","","","","",""
"3276","","image-button-response","178","1146995","0.0-177.0-0.0","A2SXOQZNH7UCC5","img_art/13.jpg","4","","","","","","","","","","","","","","","","","","","","","","","","",""
"3817","","image-button-response","179","1150819","0.0-178.0-0.0","A2SXOQZNH7UCC5","img_art/13.jpg","5","","","","","","","","","","","","","","","","","","","","","","","","",""
"null","","html-keyboard-response","180","1152325","0.0-179.0","A2SXOQZNH7UCC5","<p style=""font-size: 48px;"">+</p>","","","","","null","allTrialResponses","1500","1","19","img_art/13.jpg","50","love this peaceful rainy day with birches","Mary,Alicia,Crystal,Monica,Kylie,Maria","I do not care for the colors in this art. it doesnt go well at all.,-15,180,20","meh, 80's. retro,-9,120,20","Reminiscent of Jackson Pollock and gives me a feeling of chaotic satisfaction,50,300,20","It's like any other splatter paint art piece, nothing special,1,360,20","Very abstract and soothing,40,300,20","evokes a dampening feeling,-9,120,20","Crystal","Reminiscent of Jackson Pollock and gives me a feeling of chaotic satisfaction,50,300,20","Kylie","Very abstract and soothing,40,300,20","Maria","evokes a dampening feeling,-9,120,20","2"
"28038","","survey-text","181","1180384","0.0-180.0-0.0","A2SXOQZNH7UCC5","","","","{""Q0"":""depressing tree orange conflicts doesn't do much for me""}","","","","","","","","","","","","","","","","","","","","","","",""
"4190.299999999814","","image-slider-response","182","1184581","0.0-181.0","A2SXOQZNH7UCC5","","","","","-5","","","","","","","","","","","","","","","","","","","","","",""
"null","","image-button-response","183","1189592","0.0-182.0","A2SXOQZNH7UCC5","img_art/6.jpg","null","","","","","","","","","","","","","","","","","","","","","","","","",""
"2545","","image-button-response","184","1192141","0.0-183.0","A2SXOQZNH7UCC5","img_art/6.jpg","2","","","","","","","","","","","","","","","","","","","","","","","","",""
"3329","","image-button-response","185","1195479","0.0-184.0-0.0","A2SXOQZNH7UCC5","img_art/6.jpg","5","","","","","","","","","","","","","","","","","","","","","","","","",""
"1440","","image-button-response","186","1196922","0.0-185.0-0.0","A2SXOQZNH7UCC5","img_art/6.jpg","4","","","","","","","","","","","","","","","","","","","","","","","","",""
"null","","html-keyboard-response","187","1198426","0.0-186.0","A2SXOQZNH7UCC5","<p style=""font-size: 48px;"">+</p>","","","","","null","allTrialResponses","1500","1","20","img_art/6.jpg","-5","depressing tree orange conflicts doesn't do much for me","Chloe,Margaret,Crystal,Sierra,Kylie,Maria","Cute and evocative,11,220,20","reminds me of a happy edgar allen poe poem,8,100,20","Gives me a feeling of solitude and nothingness,11,300,20","simplistic. i love orange and green and i love the subject,50,260,20","Reminds me of feeling incomplete,1,300,20","intrigues me - not sure what I'm seeing, but I like combination of colour and texture,21,120,20","Crystal","Gives me a feeling of solitude and nothingness,11,300,20","Maria","intrigues me - not sure what I'm seeing, but I like combination of colour and texture,21,120,20","Kylie","Reminds me of feeling incomplete,1,300,20","2"
"4130","","survey-text","188","1202578","0.0-187.0-0.0","A2SXOQZNH7UCC5","","","","{""Q0"":""we""}","","","","","","","","","","","","","","","","","","","","","","",""
"15060","","survey-text","189","1217641","0.0-188.0-0.0","A2SXOQZNH7UCC5","","","","{""Q0"":""differing types of weather, enjoy the colors and textures""}","","","","","","","","","","","","","","","","","","","","","","",""
"2874","","image-slider-response","190","1220520","0.0-189.0","A2SXOQZNH7UCC5","","","","","29","","","","","","","","","","","","","","","","","","","","","",""
"null","","image-button-response","191","1225528","0.0-190.0","A2SXOQZNH7UCC5","img_art/21.jpg","null","","","","","","","","","","","","","","","","","","","","","","","","",""
"708","","image-button-response","192","1226239","0.0-191.0","A2SXOQZNH7UCC5","img_art/21.jpg","3","","","","","","","","","","","","","","","","","","","","","","","","",""
"2444","","image-button-response","193","1228685","0.0-192.0-0.0","A2SXOQZNH7UCC5","img_art/21.jpg","2","","","","","","","","","","","","","","","","","","","","","","","","",""
"2725","","image-button-response","194","1231411","0.0-193.0-0.0","A2SXOQZNH7UCC5","img_art/21.jpg","5","","","","","","","","","","","","","","","","","","","","","","","","",""
"null","","html-keyboard-response","195","1231914","0.0-194.0","A2SXOQZNH7UCC5","<p style=""font-size: 48px;"">+</p>","","","","","null","allTrialResponses","500","1","21","img_art/21.jpg","29","differing types of weather, enjoy the colors and textures","Lauren,Kelsey,Crystal,Melissa,Kylie,Maria","I like how the piece has the possibility of depicting some type of story.,30,340,20","i like watercolor,22,240,20","Feels like a clash between land and sea,31,300,20","feels like a harbor scene,11,240,20","Makes me think of a battleship targeting a beautiful mountainside,0,300,20","brings up imagery of the sea and clashing, though not in a negative way,31,120,20","Melissa","feels like a harbor scene,11,240,20","Crystal","Feels like a clash between land and sea,31,300,20","Maria","brings up imagery of the sea and clashing, though not in a negative way,31,120,20","2"
"18005","","survey-text","196","1249931","0.0-195.0-0.0","A2SXOQZNH7UCC5","","","","{""Q0"":""orderly chaos I am a fan of the colors and style""}","","","","","","","","","","","","","","","","","","","","","","",""
"3695","","image-slider-response","197","1253632","0.0-196.0","A2SXOQZNH7UCC5","","","","","50","","","","","","","","","","","","","","","","","","","","","",""
"2560","","image-button-response","198","1258637","0.0-197.0","A2SXOQZNH7UCC5","img_art/12.jpg","4","","","","","","","","","","","","","","","","","","","","","","","","",""
"3547","","image-button-response","199","1262190","0.0-198.0","A2SXOQZNH7UCC5","img_art/12.jpg","0","","","","","","","","","","","","","","","","","","","","","","","","",""
"3779","","image-button-response","200","1265973","0.0-199.0-0.0","A2SXOQZNH7UCC5","img_art/12.jpg","2","","","","","","","","","","","","","","","","","","","","","","","","",""
"2405","","image-button-response","201","1268383","0.0-200.0-0.0","A2SXOQZNH7UCC5","img_art/12.jpg","4","","","","","","","","","","","","","","","","","","","","","","","","",""
"null","","html-keyboard-response","202","1268887","0.0-201.0","A2SXOQZNH7UCC5","<p style=""font-size: 48px;"">+</p>","","","","","null","allTrialResponses","500","1","22","img_art/12.jpg","50","orderly chaos I am a fan of the colors and style","Jamie,Sara,Crystal,Melissa,Amy,Maria","Black and white contrast with color looks nice,15,320,20","I don't like the blocking,-20,160,20","I like the sectioned nature of the squares and curves. Not my favorite but still a good one.,27,300,20","reminds me of a dixie cup,3,240,20","Quite lovely with depth and possibility.,21,220,20","evokes the 80s, and not in a necessarily good way,-10,120,20","Jamie","Black and white contrast with color looks nice,15,320,20","Crystal","I like the sectioned nature of the squares and curves. Not my favorite but still a good one.,27,300,20","Amy","Quite lovely with depth and possibility.,21,220,20","2"
"16931","","survey-text","203","1285840","0.0-202.0-0.0","A2SXOQZNH7UCC5","","","","{""Q0"":""a little boring but nice landscape ""}","","","","","","","","","","","","","","","","","","","","","","",""
"2696","","image-slider-response","204","1288538","0.0-203.0","A2SXOQZNH7UCC5","","","","","24","","","","","","","","","","","","","","","","","","","","","",""
"null","","image-button-response","205","1293545","0.0-204.0","A2SXOQZNH7UCC5","img_art/26.jpg","null","","","","","","","","","","","","","","","","","","","","","","","","",""
"763","","image-button-response","206","1294314","0.0-205.0","A2SXOQZNH7UCC5","img_art/26.jpg","4","","","","","","","","","","","","","","","","","","","","","","","","",""
"4720","","image-button-response","207","1299039","0.0-206.0-0.0","A2SXOQZNH7UCC5","img_art/26.jpg","5","","","","","","","","","","","","","","","","","","","","","","","","",""
"3312","","image-button-response","208","1302357","0.0-207.0-0.0","A2SXOQZNH7UCC5","img_art/26.jpg","3","","","","","","","","","","","","","","","","","","","","","","","","",""
"null","","html-keyboard-response","209","1302864","0.0-208.0","A2SXOQZNH7UCC5","<p style=""font-size: 48px;"">+</p>","","","","","null","allTrialResponses","500","1","23","img_art/26.jpg","24","a little boring but nice landscape ","Jamie,Mackenzie,Crystal,Gabriela,Amy,Michelle","Street corner on a sunny day,5,320,20","Very interesting to look at, I like the shapes, textures and colors.,30,20,20","Do not like water colors at all,-50,300,20","it makes me feel normal and calm, I like the busy city street,10,140,20","The feeling that I am looking at the world through a dingy filter makes this unpleasant for me.,-20,220,20","I can make out a street view and I am a fan of watercolors but still too boring,15,280,20","Amy","The feeling that I am looking at the world through a dingy filter makes this unpleasant for me.,-20,220,20","Michelle","I can make out a street view and I am a fan of watercolors but still too boring,15,280,20","Gabriela","it makes me feel normal and calm, I like the busy city street,10,140,20","2"
"22031","","survey-text","210","1324916","0.0-209.0-0.0","A2SXOQZNH7UCC5","","","","{""Q0"":""looks like an animal in an unpleasant way and an industrial city""}","","","","","","","","","","","","","","","","","","","","","","",""
"3263.699999999255","","image-slider-response","211","1328186","0.0-210.0","A2SXOQZNH7UCC5","","","","","-38","","","","","","","","","","","","","","","","","","","","","",""
"4212","","image-button-response","212","1333197","0.0-211.0","A2SXOQZNH7UCC5","img_art/20.jpg","3","","","","","","","","","","","","","","","","","","","","","","","","",""
"9250","","image-button-response","213","1342454","0.0-212.0","A2SXOQZNH7UCC5","img_art/20.jpg","4","","","","","","","","","","","","","","","","","","","","","","","","",""
"1040","","image-button-response","214","1343500","0.0-213.0-0.0","A2SXOQZNH7UCC5","img_art/20.jpg","3","","","","","","","","","","","","","","","","","","","","","","","","",""
"1322","","image-button-response","215","1344825","0.0-214.0-0.0","A2SXOQZNH7UCC5","img_art/20.jpg","0","","","","","","","","","","","","","","","","","","","","","","","","",""
"null","","html-keyboard-response","216","1345830","0.0-215.0","A2SXOQZNH7UCC5","<p style=""font-size: 48px;"">+</p>","","","","","null","allTrialResponses","1000","1","24","img_art/20.jpg","-38","looks like an animal in an unpleasant way and an industrial city","Claire,Alexa,Dominique,Gabriela,Amy,Michelle","reminds me of Salvadore Dali,24,260,20","I like the calming mood of this painting,35,40,20","I love the colors and coukd spend alot of time with the picture,33,400,20","it is a bit disturbing, like a monster or ghost floating away from a bleak building,-8,140,20","Elements that are more defined are incongruous to the soft and melting nature of this painting,5,220,20","Reminds me of Dali for some reason, whom I don't like,-7,280,20","Amy","Elements that are more defined are incongruous to the soft and melting nature of this painting,5,220,20","Gabriela","it is a bit disturbing, like a monster or ghost floating away from a bleak building,-8,140,20","Claire","reminds me of Salvadore Dali,24,260,20","2"
"13730","","survey-text","217","1359583","0.0-216.0-0.0","A2SXOQZNH7UCC5","","","","{""Q0"":""looks like an ant colony in the desert not interesting""}","","","","","","","","","","","","","","","","","","","","","","",""
"2991.7999999998137","","image-slider-response","218","1362579","0.0-217.0","A2SXOQZNH7UCC5","","","","","-42","","","","","","","","","","","","","","","","","","","","","",""
"4785","","image-button-response","219","1367587","0.0-218.0","A2SXOQZNH7UCC5","img_art/7.jpg","1","","","","","","","","","","","","","","","","","","","","","","","","",""
"714","","image-button-response","220","1368306","0.0-219.0","A2SXOQZNH7UCC5","img_art/7.jpg","1","","","","","","","","","","","","","","","","","","","","","","","","",""
"3460","","image-button-response","221","1371771","0.0-220.0-0.0","A2SXOQZNH7UCC5","img_art/7.jpg","4","","","","","","","","","","","","","","","","","","","","","","","","",""
"1557","","image-button-response","222","1373331","0.0-221.0-0.0","A2SXOQZNH7UCC5","img_art/7.jpg","3","","","","","","","","","","","","","","","","","","","","","","","","",""
"null","","html-keyboard-response","223","1373833","0.0-222.0","A2SXOQZNH7UCC5","<p style=""font-size: 48px;"">+</p>","","","","","null","allTrialResponses","500","1","25","img_art/7.jpg","-42","looks like an ant colony in the desert not interesting","Claire,Amanda,Autumn,Gabriela,Amy,Samantha","reminds me of a cave wall,-21,260,20","I hate everything about this painting from the cors to it looking like a war,-50,180,20","Well done minimalism.,35,340,20","it looks like an ant farm,12,140,20","Limited emotional reaction for me. No focus and highly abstract,-20,220,20","Makes me want to feel it,19,140,20","Amanda","I hate everything about this painting from the cors to it looking like a war,-50,180,20","Amy","Limited emotional reaction for me. No focus and highly abstract,-20,220,20","Gabriela","it looks like an ant farm,12,140,20","2"
"4050","","survey-text","224","1377913","0.0-223.0-0.0","A2SXOQZNH7UCC5","","","","{""Q0"":""table""}","","","","","","","","","","","","","","","","","","","","","","",""
"20121","","survey-text","225","1398037","0.0-224.0-0.0","A2SXOQZNH7UCC5","","","","{""Q0"":""inharmonious ugly colors unpleasant""}","","","","","","","","","","","","","","","","","","","","","","",""
"9491.799999999814","","image-slider-response","226","1407536","0.0-225.0","A2SXOQZNH7UCC5","","","","","-45","","","","","","","","","","","","","","","","","","","","","",""
"4930","","image-button-response","227","1412545","0.0-226.0","A2SXOQZNH7UCC5","img_art/4.jpg","4","","","","","","","","","","","","","","","","","","","","","","","","",""
"1063","","image-button-response","228","1413611","0.0-227.0","A2SXOQZNH7UCC5","img_art/4.jpg","4","","","","","","","","","","","","","","","","","","","","","","","","",""
"2163","","image-button-response","229","1415781","0.0-228.0-0.0","A2SXOQZNH7UCC5","img_art/4.jpg","1","","","","","","","","","","","","","","","","","","","","","","","","",""
"2828","","image-button-response","230","1418612","0.0-229.0-0.0","A2SXOQZNH7UCC5","img_art/4.jpg","0","","","","","","","","","","","","","","","","","","","","","","","","",""
"null","","html-keyboard-response","231","1419116","0.0-230.0","A2SXOQZNH7UCC5","<p style=""font-size: 48px;"">+</p>","","","","","null","allTrialResponses","500","1","26","img_art/4.jpg","-45","inharmonious ugly colors unpleasant","Jennifer,Amanda,Briana,Gabriela,Amy,Vanessa","Ugly and bland compared to the other pieces.,-33,380,20","Looks like an abstract version of the Scream painting,-50,180,20","Fingerpaint of a hand?,-30,400,20","The bold colors are exciting. It looks like a statue on someone's mantle.,18,140,20","disturbing and uncomfortable.,10,220,20","Again, this is too abstract and I really don't like the colors.,-21,380,20","Amy","disturbing and uncomfortable.,10,220,20","Amanda","Looks like an abstract version of the Scream painting,-50,180,20","Jennifer","Ugly and bland compared to the other pieces.,-33,380,20","2"
"20740","","survey-text","232","1439879","0.0-231.0-0.0","A2SXOQZNH7UCC5","","","","{""Q0"":""fascinating beautiful creative colors are perfect""}","","","","","","","","","","","","","","","","","","","","","","",""
"3268.2000000001863","","image-slider-response","233","1443154","0.0-232.0","A2SXOQZNH7UCC5","","","","","46","","","","","","","","","","","","","","","","","","","","","",""
"4887","","image-button-response","234","1448162","0.0-233.0","A2SXOQZNH7UCC5","img_art/17.jpg","3","","","","","","","","","","","","","","","","","","","","","","","","",""
"6944","","image-button-response","235","1455111","0.0-234.0","A2SXOQZNH7UCC5","img_art/17.jpg","5","","","","","","","","","","","","","","","","","","","","","","","","",""
"3399","","image-button-response","236","1458516","0.0-235.0-0.0","A2SXOQZNH7UCC5","img_art/17.jpg","3","","","","","","","","","","","","","","","","","","","","","","","","",""
"1711","","image-button-response","237","1460231","0.0-236.0-0.0","A2SXOQZNH7UCC5","img_art/17.jpg","0","","","","","","","","","","","","","","","","","","","","","","","","",""
"null","","html-keyboard-response","238","1461235","0.0-237.0","A2SXOQZNH7UCC5","<p style=""font-size: 48px;"">+</p>","","","","","null","allTrialResponses","1000","1","27","img_art/17.jpg","46","fascinating beautiful creative colors are perfect","Jennifer,Amanda,Sabrina,Alexandra,Amy,Kaitlin","Very elegant, this design reminds me of trees,31,380,20","Feels supernatural and scary,-16,180,20","Messy shadow of loss and love,50,120,20","This is very beautiful and elegant.,42,60,20","peaceful. contemplative. balanced. old,10,220,20","i feel some sadness in this picture,25,60,20","Kaitlin","i feel some sadness in this picture,25,60,20","Alexandra","This is very beautiful and elegant.,42,60,20","Jennifer","Very elegant, this design reminds me of trees,31,380,20","2"
"16946","","survey-text","239","1478208","0.0-238.0-0.0","A2SXOQZNH7UCC5","","","","{""Q0"":""happy scene everyday life made exuberant""}","","","","","","","","","","","","","","","","","","","","","","",""
"4585.0999999996275","","image-slider-response","240","1482798","0.0-239.0","A2SXOQZNH7UCC5","","","","","45","","","","","","","","","","","","","","","","","","","","","",""
"4268","","image-button-response","241","1487808","0.0-240.0","A2SXOQZNH7UCC5","img_art/19.jpg","2","","","","","","","","","","","","","","","","","","","","","","","","",""
"2974","","image-button-response","242","1490786","0.0-241.0","A2SXOQZNH7UCC5","img_art/19.jpg","5","","","","","","","","","","","","","","","","","","","","","","","","",""
"1289","","image-button-response","243","1492081","0.0-242.0-0.0","A2SXOQZNH7UCC5","img_art/19.jpg","2","","","","","","","","","","","","","","","","","","","","","","","","",""
"5641","","image-button-response","244","1497728","0.0-243.0-0.0","A2SXOQZNH7UCC5","img_art/19.jpg","1","","","","","","","","","","","","","","","","","","","","","","","","",""
"null","","html-keyboard-response","245","1499233","0.0-244.0","A2SXOQZNH7UCC5","<p style=""font-size: 48px;"">+</p>","","","","","null","allTrialResponses","1500","1","28","img_art/19.jpg","45","happy scene everyday life made exuberant","Jennifer,Gabrielle,Jordan,Alexandra,Alexis,Kaitlin","Very, very ugly and sloppy,-31,380,20","not professional looking but not bad either,13,160,20","I like it, I see someone walking his dog in the early morning time,23,20,20","This photo has too much going on.,-19,60,20","Not a fan of the blobbiness,-22,100,20","this looks like a busy city lifestyle,24,60,20","Kaitlin","this looks like a busy city lifestyle,24,60,20","Jordan","I like it, I see someone walking his dog in the early morning time,23,20,20","Gabrielle","not professional looking but not bad either,13,160,20","2"
"10957","","survey-text","246","1510216","0.0-245.0-0.0","A2SXOQZNH7UCC5","","","","{""Q0"":""disturbing mess""}","","","","","","","","","","","","","","","","","","","","","","",""
"3647.600000000559","","image-slider-response","247","1513868","0.0-246.0","A2SXOQZNH7UCC5","","","","","-50","","","","","","","","","","","","","","","","","","","","","",""
"null","","image-button-response","248","1518876","0.0-247.0","A2SXOQZNH7UCC5","img_art/5.jpg","null","","","","","","","","","","","","","","","","","","","","","","","","",""
"1650","","image-button-response","249","1520532","0.0-248.0","A2SXOQZNH7UCC5","img_art/5.jpg","5","","","","","","","","","","","","","","","","","","","","","","","","",""
"1487","","image-button-response","250","1522024","0.0-249.0-0.0","A2SXOQZNH7UCC5","img_art/5.jpg","4","","","","","","","","","","","","","","","","","","","","","","","","",""
"1934","","image-button-response","251","1523963","0.0-250.0-0.0","A2SXOQZNH7UCC5","img_art/5.jpg","2","","","","","","","","","","","","","","","","","","","","","","","","",""
"null","","html-keyboard-response","252","1525466","0.0-251.0","A2SXOQZNH7UCC5","<p style=""font-size: 48px;"">+</p>","","","","","null","allTrialResponses","1500","1","29","img_art/5.jpg","-50","disturbing mess","Amber,Gabrielle,Jordan,Mariah,Morgan,Kaitlin","Missing something,-5,200,20","looks like a 2nd grader did it,-50,160,20","I dont really get anything from this,-25,20,20","It feels very strong and open.,31,140,20","Dull pyramid that says nothing.,7,380,20","a bit confused about this picture,-9,60,20","Kaitlin","a bit confused about this picture,-9,60,20","Morgan","Dull pyramid that says nothing.,7,380,20","Jordan","I dont really get anything from this,-25,20,20","2"
"11807","","survey-text","253","1537289","0.0-252.0-0.0","A2SXOQZNH7UCC5","","","","{""Q0"":""a racetrack and a war interesting""}","","","","","","","","","","","","","","","","","","","","","","",""
"2325","","image-slider-response","254","1539619","0.0-253.0","A2SXOQZNH7UCC5","","","","","12","","","","","","","","","","","","","","","","","","","","","",""
"null","","image-button-response","255","1544623","0.0-254.0","A2SXOQZNH7UCC5","img_art/10.jpg","null","","","","","","","","","","","","","","","","","","","","","","","","",""
"845","","image-button-response","256","1545472","0.0-255.0","A2SXOQZNH7UCC5","img_art/10.jpg","3","","","","","","","","","","","","","","","","","","","","","","","","",""
"2015","","image-button-response","257","1547489","0.0-256.0-0.0","A2SXOQZNH7UCC5","img_art/10.jpg","4","","","","","","","","","","","","","","","","","","","","","","","","",""
"3589","","image-button-response","258","1551090","0.0-257.0-0.0","A2SXOQZNH7UCC5","img_art/10.jpg","0","","","","","","","","","","","","","","","","","","","","","","","","",""
"null","","html-keyboard-response","259","1551598","0.0-258.0","A2SXOQZNH7UCC5","<p style=""font-size: 48px;"">+</p>","","","","","null","allTrialResponses","500","1","30","img_art/10.jpg","12","a racetrack and a war interesting","Sarah,Erin,Jordan,Kayla,Morgan,Kaitlin","i like this, the mix of brush textures is cool,24,180,20","Cello music instrument,11,120,20","I dont like it, there is too much going on,-19,20,20","The loop type thing reminds me of interconnectedness and life and hope.,12,180,20","Roller coaster on an island.,9,380,20","awww... this looks very nice,32,60,20","Kayla","The loop type thing reminds me of interconnectedness and life and hope.,12,180,20","Morgan","Roller coaster on an island.,9,380,20","Sarah","i like this, the mix of brush textures is cool,24,180,20","2"
"2258","","image-button-response_instructions","260","1553867","0.0-259.0","A2SXOQZNH7UCC5","","0","instructions","","","","","","","","","","","","","","","","","","","","","","","",""
"1134","","image-button-response","261","1555022","0.0-260.0","A2SXOQZNH7UCC5","","0","","","","","","","","","","","","","","","","","","","","","","","","",""
