"rt","url","trial_type","trial_index","time_elapsed","internal_node_id","participant_id","stimulus","button_pressed","Name","responses","response","key_press","variableName","fixationTime","condition","trial","photo","subjectRating","subjectResponse","agentsNames","agent_1_Response","agent_2_Response","agent_3_Response","agent_4_Response","agent_5_Response","agent_6_Response","kept_1_name","kept_1_response","kept_2_name","kept_2_response","kept_3_name","kept_3_response","errorCounter"
"8971","external_page_harvard.html","external-html","0","9346","0.0-0.0","A2T6PX7CHWLQAS","","","","","","","","","","","","","","","","","","","","","","","","","","",""
"7347","","image-button-response","1","16696","0.0-1.0","A2T6PX7CHWLQAS","","0","","","","","","","","","","","","","","","","","","","","","","","","",""
"1911","","image-button-response","2","18615","0.0-2.0-0.0","A2T6PX7CHWLQAS","","1","phone","","","","","","","","","","","","","","","","","","","","","","","",""
"7014","","survey-text","3","25631","0.0-3.0-0.0","A2T6PX7CHWLQAS","","","","{""Q0"":""A2T6PX7CHWLQAS""}","","","","","","","","","","","","","","","","","","","","","","",""
"11853","","image-button-response_instructions","4","37487","0.0-4.0","A2T6PX7CHWLQAS","","0","instructions","","","","","","","","","","","","","","","","","","","","","","","",""
"15078","","image-button-response_instructions","5","52568","0.0-5.0","A2T6PX7CHWLQAS","img_art/ins/popularity/ins1.png","0","instructions","","","","","","","","","","","","","","","","","","","","","","","",""
"27782","","image-button-response_instructions","6","80351","0.0-6.0","A2T6PX7CHWLQAS","img_art/ins/popularity/ins2.png","0","instructions","","","","","","","","","","","","","","","","","","","","","","","",""
"4335","","image-button-response_instructions","7","84687","0.0-7.0","A2T6PX7CHWLQAS","img_art/ins/popularity/ins2Extreme.png","0","instructions","","","","","","","","","","","","","","","","","","","","","","","",""
"4567","","image-button-response_instructions","8","89255","0.0-8.0","A2T6PX7CHWLQAS","img_art/ins/popularity/ins3KEEPpop.PNG","0","instructions","","","","","","","","","","","","","","","","","","","","","","","",""
"3726","","image-button-response_instructions","9","92983","0.0-9.0","A2T6PX7CHWLQAS","img_art/ins/popularity/ins3ANamepop.PNG","0","instructions","","","","","","","","","","","","","","","","","","","","","","","",""
"13767","","image-button-response_instructions","10","106751","0.0-10.0","A2T6PX7CHWLQAS","img_art/ins/popularity/ins3ARatingpop.png","0","instructions","","","","","","","","","","","","","","","","","","","","","","","",""
"2879","","image-button-response_instructions","11","109630","0.0-11.0","A2T6PX7CHWLQAS","img_art/ins/popularity/ins3ATextpop.png","0","instructions","","","","","","","","","","","","","","","","","","","","","","","",""
"4743","","image-button-response_instructions","12","114375","0.0-12.0","A2T6PX7CHWLQAS","img_art/ins/popularity/ins3ALikespop.png","0","instructions","","","","","","","","","","","","","","","","","","","","","","","",""
"16447","","image-button-response_instructions","13","130823","0.0-13.0","A2T6PX7CHWLQAS","img_art/ins/popularity/ins3KEEPpop.PNG","0","instructions","","","","","","","","","","","","","","","","","","","","","","","",""
"7277","","image-button-response_instructions","14","138102","0.0-14.0","A2T6PX7CHWLQAS","img_art/ins/popularity/ins3_5RED.png","0","instructions","","","","","","","","","","","","","","","","","","","","","","","",""
"2751","","image-button-response_instructions","15","140854","0.0-15.0","A2T6PX7CHWLQAS","img_art/ins/popularity/ins3KEEPpop.PNG","0","instructions","","","","","","","","","","","","","","","","","","","","","","","",""
"25278","","image-button-response_instructions","16","166134","0.0-16.0","A2T6PX7CHWLQAS","img_art/ins/popularity/ins4KEEPpop.PNG","0","instructions","","","","","","","","","","","","","","","","","","","","","","","",""
"6431","","image-button-response_instructions","17","172566","0.0-17.0","A2T6PX7CHWLQAS","img_art/ins/popularity/ins5KEEPpop.PNG","0","instructions","","","","","","","","","","","","","","","","","","","","","","","",""
"2047","","image-button-response_instructions","18","174614","0.0-18.0","A2T6PX7CHWLQAS","","0","instructions","","","","","","","","","","","","","","","","","","","","","","","",""
"5155","","survey-text","19","179806","0.0-19.0-0.0","A2T6PX7CHWLQAS","","","","{""Q0"":""but""}","","","","","","","","","","","","","","","","","","","","","","",""
"19254","","survey-text","20","199062","0.0-20.0-0.0","A2T6PX7CHWLQAS","","","","{""Q0"":""No real cohesion, but oddly comforting.""}","","","","","","","","","","","","","","","","","","","","","","",""
"5157.439999980852","","image-slider-response","21","204222","0.0-21.0","A2T6PX7CHWLQAS","","","","","-15","","","","","","","","","","","","","","","","","","","","","",""
"null","","image-button-response","22","209226","0.0-22.0","A2T6PX7CHWLQAS","img_art/ins/1.jpg","null","","","","","","","","","","","","","","","","","","","","","","","","",""
"346","","image-button-response","23","209574","0.0-23.0","A2T6PX7CHWLQAS","img_art/ins/1.jpg","3","","","","","","","","","","","","","","","","","","","","","","","","",""
"3093","","image-button-response","24","212670","0.0-24.0-0.0","A2T6PX7CHWLQAS","img_art/ins/1.jpg","5","","","","","","","","","","","","","","","","","","","","","","","","",""
"1229","","image-button-response","25","213902","0.0-25.0-0.0","A2T6PX7CHWLQAS","img_art/ins/1.jpg","1","","","","","","","","","","","","","","","","","","","","","","","","",""
"null","","html-keyboard-response","26","214907","0.0-26.0","A2T6PX7CHWLQAS","<p style=""font-size: 48px;"">+</p>","","","","","null","allTrialResponses","1000","1","-2","img_art/ins/1.jpg","-15","No real cohesion, but oddly comforting.","Adam,Alex,Ben,Carl,Daniel,Jack","Seems like doodles,-20,20,20","very creative work.,36,40,20","This color reminds me of poo,-46,60,20","very calming artwork,42,80,20","It looks like a murder scene.,-48,100,20","I like the sophisticated brushwork,40,120,20","Carl","very calming artwork,42,80,20","Jack","I like the sophisticated brushwork,40,120,20","Alex","very creative work.,36,40,20","0"
"21710","","survey-text","27","236622","0.0-27.0-0.0","A2T6PX7CHWLQAS","","","","{""Q0"":""Very similar to mass-produced artwork.""}","","","","","","","","","","","","","","","","","","","","","","",""
"3653.2500000903383","","image-slider-response","28","240277","0.0-28.0","A2T6PX7CHWLQAS","","","","","-26","","","","","","","","","","","","","","","","","","","","","",""
"null","","image-button-response","29","245287","0.0-29.0","A2T6PX7CHWLQAS","img_art/ins/2.jpg","null","","","","","","","","","","","","","","","","","","","","","","","","",""
"1413","","image-button-response","30","246702","0.0-30.0","A2T6PX7CHWLQAS","img_art/ins/2.jpg","3","","","","","","","","","","","","","","","","","","","","","","","","",""
"2190","","image-button-response","31","248894","0.0-31.0-0.0","A2T6PX7CHWLQAS","img_art/ins/2.jpg","5","","","","","","","","","","","","","","","","","","","","","","","","",""
"1814","","image-button-response","32","250709","0.0-32.0-0.0","A2T6PX7CHWLQAS","img_art/ins/2.jpg","1","","","","","","","","","","","","","","","","","","","","","","","","",""
"null","","html-keyboard-response","33","251224","0.0-33.0","A2T6PX7CHWLQAS","<p style=""font-size: 48px;"">+</p>","","","","","null","allTrialResponses","500","1","-1","img_art/ins/2.jpg","-26","Very similar to mass-produced artwork.","James,Alex,Kyle,Carl,John,Jack","looks too angry,-50,140,20","I like the blocks of color arrangements,30,40,20","Idk, it is just annoying,-32,180,20","I can feel the artist's passion in it,45,80,20","love the texture of paint,48,160,20","I would never be able to compose a sophisticated pallete like this,48,120,20","Carl","I can feel the artist's passion in it,45,80,20","Jack","I would never be able to compose a sophisticated pallete like this,48,120,20","Alex","I like the blocks of color arrangements,30,40,20","0"
"19545","","survey-text","34","270773","0.0-34.0-0.0","A2T6PX7CHWLQAS","","","","{""Q0"":""Very calming.  I could look at this for hours.""}","","","","","","","","","","","","","","","","","","","","","","",""
"3126.025000005029","","image-slider-response","35","273901","0.0-35.0","A2T6PX7CHWLQAS","","","","","34","","","","","","","","","","","","","","","","","","","","","",""
"4358","","image-button-response","36","278908","0.0-36.0","A2T6PX7CHWLQAS","img_art/ins/3.jpg","2","","","","","","","","","","","","","","","","","","","","","","","","",""
"4606","","image-button-response","37","283517","0.0-37.0","A2T6PX7CHWLQAS","img_art/ins/3.jpg","5","","","","","","","","","","","","","","","","","","","","","","","","",""
"1877","","image-button-response","38","285397","0.0-38.0-0.0","A2T6PX7CHWLQAS","img_art/ins/3.jpg","2","","","","","","","","","","","","","","","","","","","","","","","","",""
"4197","","image-button-response","39","289597","0.0-39.0-0.0","A2T6PX7CHWLQAS","img_art/ins/3.jpg","1","","","","","","","","","","","","","","","","","","","","","","","","",""
"null","","html-keyboard-response","40","291108","0.0-40.0","A2T6PX7CHWLQAS","<p style=""font-size: 48px;"">+</p>","","","","","null","allTrialResponses","1500","1","0","img_art/ins/3.jpg","34","Very calming.  I could look at this for hours.","Mike,Alex,Sam,Carl,Ron,Jack","enjoy the different shades of blue,22,200,20","calming blue is very nice,36,40,20","I can feel a rainy day from this painting,18,240,20","It's an alright work,15,80,20","It looks depressing,-26,220,20","I feel connected to the artist,40,120,20","Jack","I feel connected to the artist,40,120,20","Sam","I can feel a rainy day from this painting,18,240,20","Alex","calming blue is very nice,36,40,20","0"
"3660","","image-button-response_instructions","41","294773","0.0-41.0","A2T6PX7CHWLQAS","","0","instructions","","","","","","","","","","","","","","","","","","","","","","","",""
"8607","","survey-likert","42","303381","0.0-42.0-0.0","A2T6PX7CHWLQAS","","","","{""Q0"":"""",""Q1"":0,""Q2"":1}","","","","","","","","","","","","","","","","","","","","","","",""
"4345","","survey-text","43","307732","0.0-43.0-0.0","A2T6PX7CHWLQAS","","","","{""Q0"":""rock""}","","","","","","","","","","","","","","","","","","","","","","",""
"14221","","survey-text","44","321956","0.0-44.0-0.0","A2T6PX7CHWLQAS","","","","{""Q0"":""Terrible use of space.""}","","","","","","","","","","","","","","","","","","","","","","",""
"4094.0750000299886","","image-slider-response","45","326052","0.0-45.0","A2T6PX7CHWLQAS","","","","","-41","","","","","","","","","","","","","","","","","","","","","",""
"null","","image-button-response","46","331080","0.0-46.0","A2T6PX7CHWLQAS","img_art/15.jpg","null","","","","","","","","","","","","","","","","","","","","","","","","",""
"5130","","image-button-response","47","336212","0.0-47.0","A2T6PX7CHWLQAS","img_art/15.jpg","1","","","","","","","","","","","","","","","","","","","","","","","","",""
"1325","","image-button-response","48","337541","0.0-48.0-0.0","A2T6PX7CHWLQAS","img_art/15.jpg","4","","","","","","","","","","","","","","","","","","","","","","","","",""
"2269","","image-button-response","49","339813","0.0-49.0-0.0","A2T6PX7CHWLQAS","img_art/15.jpg","5","","","","","","","","","","","","","","","","","","","","","","","","",""
"null","","html-keyboard-response","50","341316","0.0-50.0","A2T6PX7CHWLQAS","<p style=""font-size: 48px;"">+</p>","","","","","null","allTrialResponses","1500","1","1","img_art/15.jpg","-41","Terrible use of space.","Sean,Carlos,Michael,Dustin,Dakota,Matthew","my response to the picture is that I dont know what I am looking at,-25,40,20","It is visually appealing, stark and simple but natural.,41,80,20","Looks incomplete.,-19,140,20","Too much black. I see weeds or dead/dying flowers.,-40,20,20","abrasive, rough, uneven,-31,280,20","I think of birds, nature, levels of space.,18,120,20","Carlos","It is visually appealing, stark and simple but natural.,41,80,20","Dakota","abrasive, rough, uneven,-31,280,20","Matthew","I think of birds, nature, levels of space.,18,120,20","0"
"26932","","survey-text","51","368251","0.0-51.0-0.0","A2T6PX7CHWLQAS","","","","{""Q0"":""Interesting depth.  Busy, but in a good way.""}","","","","","","","","","","","","","","","","","","","","","","",""
"3518.2999999960884","","image-slider-response","52","371771","0.0-52.0","A2T6PX7CHWLQAS","","","","","19","","","","","","","","","","","","","","","","","","","","","",""
"null","","image-button-response","53","376774","0.0-53.0","A2T6PX7CHWLQAS","img_art/23.jpg","null","","","","","","","","","","","","","","","","","","","","","","","","",""
"1548","","image-button-response","54","378324","0.0-54.0","A2T6PX7CHWLQAS","img_art/23.jpg","3","","","","","","","","","","","","","","","","","","","","","","","","",""
"4846","","image-button-response","55","383172","0.0-55.0-0.0","A2T6PX7CHWLQAS","img_art/23.jpg","5","","","","","","","","","","","","","","","","","","","","","","","","",""
"1581","","image-button-response","56","384756","0.0-56.0-0.0","A2T6PX7CHWLQAS","img_art/23.jpg","1","","","","","","","","","","","","","","","","","","","","","","","","",""
"null","","html-keyboard-response","57","385767","0.0-57.0","A2T6PX7CHWLQAS","<p style=""font-size: 48px;"">+</p>","","","","","null","allTrialResponses","1000","1","2","img_art/23.jpg","19","Interesting depth.  Busy, but in a good way.","Derek,Carlos,Mason,Austin,Dakota,Matthew","Very colorful and wild. It's cool and I like it,32,360,20","It feels active and vibrant.,20,80,20","No reactions, childish.,-19,100,20","Fantastic blend of color and forms,43,240,20","teeth! dancing people, celebrations,-39,280,20","A line dance, it's really strinkingly beautiful.,50,120,20","Austin","Fantastic blend of color and forms,43,240,20","Matthew","A line dance, it's really strinkingly beautiful.,50,120,20","Carlos","It feels active and vibrant.,20,80,20","0"
"18984","","survey-text","58","404755","0.0-58.0-0.0","A2T6PX7CHWLQAS","","","","{""Q0"":""Surreal, interesting, attention grabbing.""}","","","","","","","","","","","","","","","","","","","","","","",""
"2798.190000001341","","image-slider-response","59","407555","0.0-59.0","A2T6PX7CHWLQAS","","","","","30","","","","","","","","","","","","","","","","","","","","","",""
"null","","image-button-response","60","412568","0.0-60.0","A2T6PX7CHWLQAS","img_art/8.jpg","null","","","","","","","","","","","","","","","","","","","","","","","","",""
"2617","","image-button-response","61","415187","0.0-61.0","A2T6PX7CHWLQAS","img_art/8.jpg","5","","","","","","","","","","","","","","","","","","","","","","","","",""
"1125","","image-button-response","62","416315","0.0-62.0-0.0","A2T6PX7CHWLQAS","img_art/8.jpg","3","","","","","","","","","","","","","","","","","","","","","","","","",""
"877","","image-button-response","63","417195","0.0-63.0-0.0","A2T6PX7CHWLQAS","img_art/8.jpg","1","","","","","","","","","","","","","","","","","","","","","","","","",""
"null","","html-keyboard-response","64","417697","0.0-64.0","A2T6PX7CHWLQAS","<p style=""font-size: 48px;"">+</p>","","","","","null","allTrialResponses","500","1","3","img_art/8.jpg","30","Surreal, interesting, attention grabbing.","Jeremy,Carlos,Travis,Austin,Andrew,Matthew","Nervous like being up high,10,60,20","Clean and stark. The colors are pleasant.,15,80,20","I like the colors and the scene.,24,260,20","Very unique and different,31,240,20","Looks like it would be an interesting place to live,35,160,20","Escher? Dali? Could be their lovechild?,50,120,20","Matthew","Escher? Dali? Could be their lovechild?,50,120,20","Austin","Very unique and different,31,240,20","Carlos","Clean and stark. The colors are pleasant.,15,80,20","0"
"37542","","survey-text","65","455242","0.0-65.0-0.0","A2T6PX7CHWLQAS","","","","{""Q0"":""Very calming, like a coastline in the fog.""}","","","","","","","","","","","","","","","","","","","","","","",""
"2862.3150000348687","","image-slider-response","66","458106","0.0-66.0","A2T6PX7CHWLQAS","","","","","40","","","","","","","","","","","","","","","","","","","","","",""
"null","","image-button-response","67","463109","0.0-67.0","A2T6PX7CHWLQAS","img_art/11.jpg","null","","","","","","","","","","","","","","","","","","","","","","","","",""
"2611","","image-button-response","68","465723","0.0-68.0","A2T6PX7CHWLQAS","img_art/11.jpg","4","","","","","","","","","","","","","","","","","","","","","","","","",""
"1941","","image-button-response","69","467666","0.0-69.0-0.0","A2T6PX7CHWLQAS","img_art/11.jpg","5","","","","","","","","","","","","","","","","","","","","","","","","",""
"1933","","image-button-response","70","469602","0.0-70.0-0.0","A2T6PX7CHWLQAS","img_art/11.jpg","1","","","","","","","","","","","","","","","","","","","","","","","","",""
"null","","html-keyboard-response","71","470608","0.0-71.0","A2T6PX7CHWLQAS","<p style=""font-size: 48px;"">+</p>","","","","","null","allTrialResponses","1000","1","4","img_art/11.jpg","40","Very calming, like a coastline in the fog.","Jeffrey,Carlos,Thomas,Austin,Patrick,Matthew","a lot of dark colours,-8,40,20","The colors are lovely. February getting ready to yield to March.,41,80,20","Lovely. I could look at this for a really long time. I love the details and the composition.,40,220,20","Very unique piece of art,50,240,20","Looks sad but clean,31,280,20","Dark but bright, city but ocean, musical scales.,50,120,20","Patrick","Looks sad but clean,31,280,20","Matthew","Dark but bright, city but ocean, musical scales.,50,120,20","Carlos","The colors are lovely. February getting ready to yield to March.,41,80,20","0"
"34110","","survey-text","72","504722","0.0-72.0-0.0","A2T6PX7CHWLQAS","","","","{""Q0"":""Messy, but just clean enough to identify.""}","","","","","","","","","","","","","","","","","","","","","","",""
"3717.880000011064","","image-slider-response","73","508442","0.0-73.0","A2T6PX7CHWLQAS","","","","","-7","","","","","","","","","","","","","","","","","","","","","",""
"2606","","image-button-response","74","513445","0.0-74.0","A2T6PX7CHWLQAS","img_art/20.jpg","1","","","","","","","","","","","","","","","","","","","","","","","","",""
"3738","","image-button-response","75","517186","0.0-75.0","A2T6PX7CHWLQAS","img_art/20.jpg","3","","","","","","","","","","","","","","","","","","","","","","","","",""
"2766","","image-button-response","76","519955","0.0-76.0-0.0","A2T6PX7CHWLQAS","img_art/20.jpg","5","","","","","","","","","","","","","","","","","","","","","","","","",""
"4844","","image-button-response","77","524802","0.0-77.0-0.0","A2T6PX7CHWLQAS","img_art/20.jpg","1","","","","","","","","","","","","","","","","","","","","","","","","",""
"null","","html-keyboard-response","78","525313","0.0-78.0","A2T6PX7CHWLQAS","<p style=""font-size: 48px;"">+</p>","","","","","null","allTrialResponses","500","1","5","img_art/20.jpg","-7","Messy, but just clean enough to identify.","Gabriel,Carlos,Logan,Zachary,Patrick,Matthew","i almost feel like i can recognize what this is,-6,160,20","It feels like it ""almost"" several things.,-10,80,20","truck? train? dead cow? plane?,10,360,20","While interesting in technique.. It looks like a blurry car wreck. Does not evoke great emotions.,-20,400,20","Looks calm but a bit dark,21,280,20","Painting within a painting, abstract.,32,120,20","Zachary","While interesting in technique.. It looks like a blurry car wreck. Does not evoke great emotions.,-20,400,20","Matthew","Painting within a painting, abstract.,32,120,20","Carlos","It feels like it ""almost"" several things.,-10,80,20","0"
"3537","","survey-text","79","528858","0.0-79.0-0.0","A2T6PX7CHWLQAS","","","","{""Q0"":""sky""}","","","","","","","","","","","","","","","","","","","","","","",""
"24494","","survey-text","80","553353","0.0-80.0-0.0","A2T6PX7CHWLQAS","","","","{""Q0"":""Seems very lazy to me, very little effort.""}","","","","","","","","","","","","","","","","","","","","","","",""
"3246.29499996081","","image-slider-response","81","556601","0.0-81.0","A2T6PX7CHWLQAS","","","","","-33","","","","","","","","","","","","","","","","","","","","","",""
"null","","image-button-response","82","561604","0.0-82.0","A2T6PX7CHWLQAS","img_art/30.jpg","null","","","","","","","","","","","","","","","","","","","","","","","","",""
"980","","image-button-response","83","562586","0.0-83.0","A2T6PX7CHWLQAS","img_art/30.jpg","1","","","","","","","","","","","","","","","","","","","","","","","","",""
"5734","","image-button-response","84","568322","0.0-84.0-0.0","A2T6PX7CHWLQAS","img_art/30.jpg","4","","","","","","","","","","","","","","","","","","","","","","","","",""
"1221","","image-button-response","85","569546","0.0-85.0-0.0","A2T6PX7CHWLQAS","img_art/30.jpg","5","","","","","","","","","","","","","","","","","","","","","","","","",""
"null","","html-keyboard-response","86","571048","0.0-86.0","A2T6PX7CHWLQAS","<p style=""font-size: 48px;"">+</p>","","","","","null","allTrialResponses","1500","1","6","img_art/30.jpg","-33","Seems very lazy to me, very little effort.","Jesus,Carlos,Robert,Zachary,Luis,Matthew","I like the forefront design.,10,100,20","It just feels hasty and not well composed. Has an angsty teen feel,-31,80,20","My kindergarten class could do this,-50,360,20","I like this one because I am a mom and it reminds me of a child finger-painting.,20,400,20","Flowing freely of the rest of the world,42,400,20","Decent abstract art, ncie colors.,23,120,20","Carlos","It just feels hasty and not well composed. Has an angsty teen feel,-31,80,20","Luis","Flowing freely of the rest of the world,42,400,20","Matthew","Decent abstract art, ncie colors.,23,120,20","0"
"13821","","survey-text","87","584873","0.0-87.0-0.0","A2T6PX7CHWLQAS","","","","{""Q0"":""This should be hanging on a fridge.""}","","","","","","","","","","","","","","","","","","","","","","",""
"3510.0050000473857","","image-slider-response","88","588385","0.0-88.0","A2T6PX7CHWLQAS","","","","","-35","","","","","","","","","","","","","","","","","","","","","",""
"null","","image-button-response","89","593394","0.0-89.0","A2T6PX7CHWLQAS","img_art/4.jpg","null","","","","","","","","","","","","","","","","","","","","","","","","",""
"9501","","image-button-response","90","602897","0.0-90.0","A2T6PX7CHWLQAS","img_art/4.jpg","2","","","","","","","","","","","","","","","","","","","","","","","","",""
"694","","image-button-response","91","603593","0.0-91.0-0.0","A2T6PX7CHWLQAS","img_art/4.jpg","1","","","","","","","","","","","","","","","","","","","","","","","","",""
"2573","","image-button-response","92","606169","0.0-92.0-0.0","A2T6PX7CHWLQAS","img_art/4.jpg","4","","","","","","","","","","","","","","","","","","","","","","","","",""
"null","","html-keyboard-response","93","607681","0.0-93.0","A2T6PX7CHWLQAS","<p style=""font-size: 48px;"">+</p>","","","","","null","allTrialResponses","1500","1","7","img_art/4.jpg","-35","This should be hanging on a fridge.","Jason,Carlos,Nathan,William,Luis,Matthew","I don't understand this at all,3,20,20","Movement. Snakes. Hair. The uncertainty makes my eye return.,21,80,20","Not my preference when it comes to art styles or subjects,-10,200,20","dont like the colors,-31,380,20","Its just not giving the vibe i should be finding,-31,400,20","It looks like a hand.,25,120,20","Nathan","Not my preference when it comes to art styles or subjects,-10,200,20","Carlos","Movement. Snakes. Hair. The uncertainty makes my eye return.,21,80,20","Luis","Its just not giving the vibe i should be finding,-31,400,20","0"
"17395","","survey-text","94","625081","0.0-94.0-0.0","A2T6PX7CHWLQAS","","","","{""Q0"":""Stark and isolated.""}","","","","","","","","","","","","","","","","","","","","","","",""
"3654.205000028014","","image-slider-response","95","628737","0.0-95.0","A2T6PX7CHWLQAS","","","","","27","","","","","","","","","","","","","","","","","","","","","",""
"null","","image-button-response","96","633754","0.0-96.0","A2T6PX7CHWLQAS","img_art/7.jpg","null","","","","","","","","","","","","","","","","","","","","","","","","",""
"4973","","image-button-response","97","638729","0.0-97.0","A2T6PX7CHWLQAS","img_art/7.jpg","5","","","","","","","","","","","","","","","","","","","","","","","","",""
"1069","","image-button-response","98","639801","0.0-98.0-0.0","A2T6PX7CHWLQAS","img_art/7.jpg","0","","","","","","","","","","","","","","","","","","","","","","","","",""
"1910","","image-button-response","99","641713","0.0-99.0-0.0","A2T6PX7CHWLQAS","img_art/7.jpg","0","","","","","","","","","","","","","","","","","","","","","","","","",""
"750","","image-button-response","100","646401","0.0-99.1-0.1","A2T6PX7CHWLQAS","img_art/7.jpg","0","","","","","","","","","","","","","","","","","","","","","","","","",""
"4398","","image-button-response","101","654257","0.0-99.2-0.2","A2T6PX7CHWLQAS","img_art/7.jpg","1","","","","","","","","","","","","","","","","","","","","","","","","",""
"null","","html-keyboard-response","102","655259","0.0-100.0","A2T6PX7CHWLQAS","<p style=""font-size: 48px;"">+</p>","","","","","null","allTrialResponses","1000","1","8","img_art/7.jpg","27","Stark and isolated.","Daniel,Carlos,Nathan,Juan,Luis,Nathaniel","Great portrayal of solid surface,19,320,20","The dried bottom of a puddle in July.,-41,80,20","I don't like this kind of color scheme or look they went for,-50,200,20","This is borning and lifeless.,-50,260,20","Not getting the vibe i would like from this,-30,400,20","It gives off an alien-like vastness of space vibe which I like,9,220,20","Nathaniel","It gives off an alien-like vastness of space vibe which I like,9,220,20","Daniel","Great portrayal of solid surface,19,320,20","Carlos","The dried bottom of a puddle in July.,-41,80,20","4"
"14881","","survey-text","103","670144","0.0-101.0-0.0","A2T6PX7CHWLQAS","","","","{""Q0"":""Nature at its most raw.""}","","","","","","","","","","","","","","","","","","","","","","",""
"3790.210000006482","","image-slider-response","104","673936","0.0-102.0","A2T6PX7CHWLQAS","","","","","9","","","","","","","","","","","","","","","","","","","","","",""
"null","","image-button-response","105","678943","0.0-103.0","A2T6PX7CHWLQAS","img_art/24.jpg","null","","","","","","","","","","","","","","","","","","","","","","","","",""
"3415","","image-button-response","106","682360","0.0-104.0","A2T6PX7CHWLQAS","img_art/24.jpg","5","","","","","","","","","","","","","","","","","","","","","","","","",""
"5461","","image-button-response","107","687824","0.0-105.0-0.0","A2T6PX7CHWLQAS","img_art/24.jpg","1","","","","","","","","","","","","","","","","","","","","","","","","",""
"1701","","image-button-response","108","689528","0.0-106.0-0.0","A2T6PX7CHWLQAS","img_art/24.jpg","2","","","","","","","","","","","","","","","","","","","","","","","","",""
"null","","html-keyboard-response","109","690030","0.0-107.0","A2T6PX7CHWLQAS","<p style=""font-size: 48px;"">+</p>","","","","","null","allTrialResponses","500","1","9","img_art/24.jpg","9","Nature at its most raw.","Daniel,Carlos,Jonathan,Paul,Jack,Nathaniel","Classic palette lacks real world 3d construction,19,320,20","It is like a really bad impressionist painting.,-40,80,20","The colors and brush strokes make it feel adventurous,20,140,20","It looks alive, like I can hear the water flowing,41,300,20","colors are a bit cramped together. really unique take on a waterfall though.,32,320,20","Feels surreal, in a way, and vibrant,37,220,20","Nathaniel","Feels surreal, in a way, and vibrant,37,220,20","Carlos","It is like a really bad impressionist painting.,-40,80,20","Jonathan","The colors and brush strokes make it feel adventurous,20,140,20","4"
"17476","","survey-text","110","707511","0.0-108.0-0.0","A2T6PX7CHWLQAS","","","","{""Q0"":""Creates a feeling of chaos and unease.""}","","","","","","","","","","","","","","","","","","","","","","",""
"3302.0249999826774","","image-slider-response","111","710815","0.0-109.0","A2T6PX7CHWLQAS","","","","","35","","","","","","","","","","","","","","","","","","","","","",""
"3134","","image-button-response","112","715831","0.0-110.0","A2T6PX7CHWLQAS","img_art/3.jpg","1","","","","","","","","","","","","","","","","","","","","","","","","",""
"863","","image-button-response","113","716696","0.0-111.0","A2T6PX7CHWLQAS","img_art/3.jpg","1","","","","","","","","","","","","","","","","","","","","","","","","",""
"5894","","image-button-response","114","722593","0.0-112.0-0.0","A2T6PX7CHWLQAS","img_art/3.jpg","2","","","","","","","","","","","","","","","","","","","","","","","","",""
"11579","","image-button-response","115","734176","0.0-113.0-0.0","A2T6PX7CHWLQAS","img_art/3.jpg","4","","","","","","","","","","","","","","","","","","","","","","","","",""
"null","","html-keyboard-response","116","735192","0.0-114.0","A2T6PX7CHWLQAS","<p style=""font-size: 48px;"">+</p>","","","","","null","allTrialResponses","1000","1","10","img_art/3.jpg","35","Creates a feeling of chaos and unease.","David,Carlos,Jonathan,Tyler,Evan,Nathaniel","No clue what I'm looking. This just looks a series of scribbles in a box.,-20,340,20","The composition keeps the eye moving, the colors are satisfying.,31,80,20","Something I'd paint when I'm mad. I feel that,20,140,20","This doesn't grab me. Perhaps the red is meant to be provocative; I find it gimmicky.,-9,320,20","It feels like a half assed and failed imitation of Japanese signatures on old paintings,-22,140,20","Just scribbles. People buy that?,-47,220,20","Carlos","The composition keeps the eye moving, the colors are satisfying.,31,80,20","Jonathan","Something I'd paint when I'm mad. I feel that,20,140,20","Evan","It feels like a half assed and failed imitation of Japanese signatures on old paintings,-22,140,20","4"
"4350","","survey-text","117","739552","0.0-115.0-0.0","A2T6PX7CHWLQAS","","","","{""Q0"":""our""}","","","","","","","","","","","","","","","","","","","","","","",""
"23614","","survey-text","118","763167","0.0-116.0-0.0","A2T6PX7CHWLQAS","","","","{""Q0"":""Uninteresting and not put together well.""}","","","","","","","","","","","","","","","","","","","","","","",""
"3214.2350000794977","","image-slider-response","119","766383","0.0-117.0","A2T6PX7CHWLQAS","","","","","-43","","","","","","","","","","","","","","","","","","","","","",""
"null","","image-button-response","120","771394","0.0-118.0","A2T6PX7CHWLQAS","img_art/27.jpg","null","","","","","","","","","","","","","","","","","","","","","","","","",""
"6028","","image-button-response","121","777424","0.0-119.0","A2T6PX7CHWLQAS","img_art/27.jpg","5","","","","","","","","","","","","","","","","","","","","","","","","",""
"1878","","image-button-response","122","779304","0.0-120.0-0.0","A2T6PX7CHWLQAS","img_art/27.jpg","1","","","","","","","","","","","","","","","","","","","","","","","","",""
"1485","","image-button-response","123","780791","0.0-121.0-0.0","A2T6PX7CHWLQAS","img_art/27.jpg","2","","","","","","","","","","","","","","","","","","","","","","","","",""
"null","","html-keyboard-response","124","782307","0.0-122.0","A2T6PX7CHWLQAS","<p style=""font-size: 48px;"">+</p>","","","","","null","allTrialResponses","1500","1","11","img_art/27.jpg","-43","Uninteresting and not put together well.","Christian,Carlos,Jonathan,Benjamin,Evan,Angel","don't understand, the green induces confusion,1,140,20","The green lines disrupt the image in an unpleasant and hurried way.,-30,80,20","Very cool colors and I like the contrast of lights and darks,30,140,20","I like the colors.,6,260,20","I am bothered by the green doodles,-20,140,20","Makes me think of Japanese food. I perceive it as comfortable and healthy.,20,180,20","Angel","Makes me think of Japanese food. I perceive it as comfortable and healthy.,20,180,20","Carlos","The green lines disrupt the image in an unpleasant and hurried way.,-30,80,20","Jonathan","Very cool colors and I like the contrast of lights and darks,30,140,20","4"
"39406","","survey-text","125","821719","0.0-123.0-0.0","A2T6PX7CHWLQAS","","","","{""Q0"":""The use of color and the cramped style create the story.""}","","","","","","","","","","","","","","","","","","","","","","",""
"3678.085000021383","","image-slider-response","126","825398","0.0-124.0","A2T6PX7CHWLQAS","","","","","14","","","","","","","","","","","","","","","","","","","","","",""
"null","","image-button-response","127","830402","0.0-125.0","A2T6PX7CHWLQAS","img_art/18.jpg","null","","","","","","","","","","","","","","","","","","","","","","","","",""
"12299","","image-button-response","128","842703","0.0-126.0","A2T6PX7CHWLQAS","img_art/18.jpg","2","","","","","","","","","","","","","","","","","","","","","","","","",""
"926","","image-button-response","129","843631","0.0-127.0-0.0","A2T6PX7CHWLQAS","img_art/18.jpg","1","","","","","","","","","","","","","","","","","","","","","","","","",""
"1245","","image-button-response","130","844879","0.0-128.0-0.0","A2T6PX7CHWLQAS","img_art/18.jpg","0","","","","","","","","","","","","","","","","","","","","","","","","",""
"null","","html-keyboard-response","131","845882","0.0-129.0","A2T6PX7CHWLQAS","<p style=""font-size: 48px;"">+</p>","","","","","null","allTrialResponses","1000","1","12","img_art/18.jpg","14","The use of color and the cramped style create the story.","Vincent,Carlos,Jonathan,Ian,Scott,Angel","Very conversational and can see many different looks and feels from this .,34,360,20","It is too busy, but the colors are pleasant.,15,80,20","There's danger in this painting and it's awesome,40,140,20","This one raises some questions, there could be some sort of fight or battle going on.,11,260,20","reminds me of sailors on a boat,17,20,20","Like riding into battle. A sense of confidence, but also trepidation for what's coming. Could be a personification of death.,-10,180,20","Jonathan","There's danger in this painting and it's awesome,40,140,20","Carlos","It is too busy, but the colors are pleasant.,15,80,20","Vincent","Very conversational and can see many different looks and feels from this .,34,360,20","4"
"23998","","survey-text","132","869886","0.0-130.0-0.0","A2T6PX7CHWLQAS","","","","{""Q0"":""Looking at the cliffs by the sea.""}","","","","","","","","","","","","","","","","","","","","","","",""
"2990.390000049956","","image-slider-response","133","872878","0.0-131.0","A2T6PX7CHWLQAS","","","","","30","","","","","","","","","","","","","","","","","","","","","",""
"null","","image-button-response","134","877883","0.0-132.0","A2T6PX7CHWLQAS","img_art/21.jpg","null","","","","","","","","","","","","","","","","","","","","","","","","",""
"30385","","image-button-response","135","908270","0.0-133.0","A2T6PX7CHWLQAS","img_art/21.jpg","5","","","","","","","","","","","","","","","","","","","","","","","","",""
"8037","","image-button-response","136","916310","0.0-134.0-0.0","A2T6PX7CHWLQAS","img_art/21.jpg","3","","","","","","","","","","","","","","","","","","","","","","","","",""
"1557","","image-button-response","137","917870","0.0-135.0-0.0","A2T6PX7CHWLQAS","img_art/21.jpg","1","","","","","","","","","","","","","","","","","","","","","","","","",""
"null","","html-keyboard-response","138","918371","0.0-136.0","A2T6PX7CHWLQAS","<p style=""font-size: 48px;"">+</p>","","","","","null","allTrialResponses","500","1","13","img_art/21.jpg","30","Looking at the cliffs by the sea.","Vincent,Carlos,Jonathan,Devin,Victor,Brandon","Love the colors have to say this is my favorite above all,37,360,20","Motion, the light marks in the lower right corner are very appealing.,15,80,20","Makes me think of a natural disaster but I love how it looks. Makes you think,30,140,20","Evokes a strong colorful sense,8,380,20","I really like these colors together and their placement. The dabs of white are a nice contrast to the soft blending,10,340,20","I love this. Reminds me of a coast. The colors flow beautifully,40,320,20","Brandon","I love this. Reminds me of a coast. The colors flow beautifully,40,320,20","Devin","Evokes a strong colorful sense,8,380,20","Carlos","Motion, the light marks in the lower right corner are very appealing.,15,80,20","4"
"39133","","survey-text","139","957509","0.0-137.0-0.0","A2T6PX7CHWLQAS","","","","{""Q0"":""A seaside town in the summer.""}","","","","","","","","","","","","","","","","","","","","","","",""
"3030.464999959804","","image-slider-response","140","960541","0.0-138.0","A2T6PX7CHWLQAS","","","","","8","","","","","","","","","","","","","","","","","","","","","",""
"null","","image-button-response","141","965544","0.0-139.0","A2T6PX7CHWLQAS","img_art/19.jpg","null","","","","","","","","","","","","","","","","","","","","","","","","",""
"6587","","image-button-response","142","972133","0.0-140.0","A2T6PX7CHWLQAS","img_art/19.jpg","1","","","","","","","","","","","","","","","","","","","","","","","","",""
"1502","","image-button-response","143","973637","0.0-141.0-0.0","A2T6PX7CHWLQAS","img_art/19.jpg","2","","","","","","","","","","","","","","","","","","","","","","","","",""
"2358","","image-button-response","144","975997","0.0-142.0-0.0","A2T6PX7CHWLQAS","img_art/19.jpg","4","","","","","","","","","","","","","","","","","","","","","","","","",""
"null","","html-keyboard-response","145","977000","0.0-143.0","A2T6PX7CHWLQAS","<p style=""font-size: 48px;"">+</p>","","","","","null","allTrialResponses","1000","1","14","img_art/19.jpg","8","A seaside town in the summer.","Connor,Carlos,Grant,Devin,Bryan,Brandon","Childish music hall,-20,240,20","I like the watercolor and colors, do not like the deconstructed city scene feel.,0,80,20","It's a cute city scene, but nothing special.,10,200,20","Looks a bit too loose,-2,380,20","Looks like a child's rendering of a city street but not too sure.,0,400,20","Not a fan of the blobbiness,-22,320,20","Carlos","I like the watercolor and colors, do not like the deconstructed city scene feel.,0,80,20","Grant","It's a cute city scene, but nothing special.,10,200,20","Bryan","Looks like a child's rendering of a city street but not too sure.,0,400,20","4"
"29727","","survey-text","146","1006732","0.0-144.0-0.0","A2T6PX7CHWLQAS","","","","{""Q0"":""Just no.  This is a poor attempt at art.""}","","","","","","","","","","","","","","","","","","","","","","",""
"3230.059999972582","","image-slider-response","147","1009964","0.0-145.0","A2T6PX7CHWLQAS","","","","","-50","","","","","","","","","","","","","","","","","","","","","",""
"null","","image-button-response","148","1014980","0.0-146.0","A2T6PX7CHWLQAS","img_art/16.jpg","null","","","","","","","","","","","","","","","","","","","","","","","","",""
"9575","","image-button-response","149","1024557","0.0-147.0","A2T6PX7CHWLQAS","img_art/16.jpg","1","","","","","","","","","","","","","","","","","","","","","","","","",""
"2534","","image-button-response","150","1027093","0.0-148.0-0.0","A2T6PX7CHWLQAS","img_art/16.jpg","0","","","","","","","","","","","","","","","","","","","","","","","","",""
"5598","","image-button-response","151","1032693","0.0-149.0-0.0","A2T6PX7CHWLQAS","img_art/16.jpg","3","","","","","","","","","","","","","","","","","","","","","","","","",""
"null","","html-keyboard-response","152","1033194","0.0-150.0","A2T6PX7CHWLQAS","<p style=""font-size: 48px;"">+</p>","","","","","null","allTrialResponses","500","1","15","img_art/16.jpg","-50","Just no.  This is a poor attempt at art.","Jordan,Carlos,Grant,Jake,Bryan,Alexander","The bear makes me very uncomfortable,-50,160,20","Why is that bear there? It looks like it would be gross to touch. The texture bothers me.,-20,80,20","This is making me feel nervous in an enjoyable way.,20,200,20","This is creepy and puerile.,-45,360,20","Something terrible happened. Either the figure on the right is the victim or another shredded toy.,-49,400,20","Strange and bleak.,-20,120,20","Carlos","Why is that bear there? It looks like it would be gross to touch. The texture bothers me.,-20,80,20","Jordan","The bear makes me very uncomfortable,-50,160,20","Jake","This is creepy and puerile.,-45,360,20","4"
"4909","","survey-text","153","1038116","0.0-151.0-0.0","A2T6PX7CHWLQAS","","","","{""Q0"":""course""}","","","","","","","","","","","","","","","","","","","","","","",""
"65662","","survey-text","154","1103779","0.0-152.0-0.0","A2T6PX7CHWLQAS","","","","{""Q0"":""Great use of color and shape.""}","","","","","","","","","","","","","","","","","","","","","","",""
"2997.845000005327","","image-slider-response","155","1106779","0.0-153.0","A2T6PX7CHWLQAS","","","","","31","","","","","","","","","","","","","","","","","","","","","",""
"null","","image-button-response","156","1111782","0.0-154.0","A2T6PX7CHWLQAS","img_art/28.jpg","null","","","","","","","","","","","","","","","","","","","","","","","","",""
"10099","","image-button-response","157","1121884","0.0-155.0","A2T6PX7CHWLQAS","img_art/28.jpg","1","","","","","","","","","","","","","","","","","","","","","","","","",""
"1950","","image-button-response","158","1123836","0.0-156.0-0.0","A2T6PX7CHWLQAS","img_art/28.jpg","2","","","","","","","","","","","","","","","","","","","","","","","","",""
"6414","","image-button-response","159","1130252","0.0-157.0-0.0","A2T6PX7CHWLQAS","img_art/28.jpg","3","","","","","","","","","","","","","","","","","","","","","","","","",""
"null","","html-keyboard-response","160","1130754","0.0-158.0","A2T6PX7CHWLQAS","<p style=""font-size: 48px;"">+</p>","","","","","null","allTrialResponses","500","1","16","img_art/28.jpg","31","Great use of color and shape.","Jordan,Carlos,Caleb,Jake,Aaron,Cameron","A messy bed room,-7,160,20","Colors are pleasing, shapes are vaguely unpleasant. Kidneys at a smoky bar.,5,80,20","White and dark balance is way off- Seems dull.,-33,40,20","This is very ugly with poor colors.,-23,360,20","It's drab and looks like stereotypical abstract art.,-30,20,20","dislike the colors. it looks like a bike, but misshapen wheels like it was wrecked.,-10,60,20","Carlos","Colors are pleasing, shapes are vaguely unpleasant. Kidneys at a smoky bar.,5,80,20","Caleb","White and dark balance is way off- Seems dull.,-33,40,20","Jake","This is very ugly with poor colors.,-23,360,20","4"
"25379","","survey-text","161","1156139","0.0-159.0-0.0","A2T6PX7CHWLQAS","","","","{""Q0"":""Abstract representation of a broom.  No thanks.""}","","","","","","","","","","","","","","","","","","","","","","",""
"2878.099999972619","","image-slider-response","162","1159018","0.0-160.0","A2T6PX7CHWLQAS","","","","","-43","","","","","","","","","","","","","","","","","","","","","",""
"4166","","image-button-response","163","1164025","0.0-161.0","A2T6PX7CHWLQAS","img_art/5.jpg","2","","","","","","","","","","","","","","","","","","","","","","","","",""
"984","","image-button-response","164","1165011","0.0-162.0","A2T6PX7CHWLQAS","img_art/5.jpg","2","","","","","","","","","","","","","","","","","","","","","","","","",""
"8022","","image-button-response","165","1173035","0.0-163.0-0.0","A2T6PX7CHWLQAS","img_art/5.jpg","1","","","","","","","","","","","","","","","","","","","","","","","","",""
"1046","","image-button-response","166","1174083","0.0-164.0-0.0","A2T6PX7CHWLQAS","img_art/5.jpg","5","","","","","","","","","","","","","","","","","","","","","","","","",""
"null","","html-keyboard-response","167","1175587","0.0-165.0","A2T6PX7CHWLQAS","<p style=""font-size: 48px;"">+</p>","","","","","null","allTrialResponses","1500","1","17","img_art/5.jpg","-43","Abstract representation of a broom.  No thanks.","Isaiah,Carlos,Caleb,Jake,Kyle,Antonio","I feel nothing looking at this.,-5,300,20","It feels very strong and open.,31,80,20","Boring and appears low effort,-41,40,20","This is interesting and nice.,16,360,20","Not sure what to say about this piece honestly. It's okay I guess.,0,340,20","Too much angular things happening, makes me think of stabbing something which makes me uncomfortable,-50,220,20","Caleb","Boring and appears low effort,-41,40,20","Carlos","It feels very strong and open.,31,80,20","Antonio","Too much angular things happening, makes me think of stabbing something which makes me uncomfortable,-50,220,20","4"
"34450","","survey-text","168","1210042","0.0-166.0-0.0","A2T6PX7CHWLQAS","","","","{""Q0"":""This feels claustrophobic and forbidden.  Nice but uncomfortable.""}","","","","","","","","","","","","","","","","","","","","","","",""
"4110.205000033602","","image-slider-response","169","1214154","0.0-167.0","A2T6PX7CHWLQAS","","","","","-12","","","","","","","","","","","","","","","","","","","","","",""
"null","","image-button-response","170","1219163","0.0-168.0","A2T6PX7CHWLQAS","img_art/29.jpg","null","","","","","","","","","","","","","","","","","","","","","","","","",""
"5229","","image-button-response","171","1224394","0.0-169.0","A2T6PX7CHWLQAS","img_art/29.jpg","4","","","","","","","","","","","","","","","","","","","","","","","","",""
"3542","","image-button-response","172","1227938","0.0-170.0-0.0","A2T6PX7CHWLQAS","img_art/29.jpg","5","","","","","","","","","","","","","","","","","","","","","","","","",""
"2774","","image-button-response","173","1230714","0.0-171.0-0.0","A2T6PX7CHWLQAS","img_art/29.jpg","1","","","","","","","","","","","","","","","","","","","","","","","","",""
"null","","html-keyboard-response","174","1231723","0.0-172.0","A2T6PX7CHWLQAS","<p style=""font-size: 48px;"">+</p>","","","","","null","allTrialResponses","1000","1","18","img_art/29.jpg","-12","This feels claustrophobic and forbidden.  Nice but uncomfortable.","Ryan,Carlos,Caleb,Isaac,Malik,Antonio","Once again, very modern, activists will love,27,380,20","It feels like looking through layers of frustration.,19,80,20","Looks wrong. Like a real painting was vandalized.,-50,40,20","It is intriguing but I don't like the red X.,6,280,20","Feels like an abandoned dream,13,40,20","Depressing and with that big red x on it just makes me not like it.,-33,220,20","Malik","Feels like an abandoned dream,13,40,20","Antonio","Depressing and with that big red x on it just makes me not like it.,-33,220,20","Carlos","It feels like looking through layers of frustration.,19,80,20","4"
"40792","","survey-text","175","1272521","0.0-173.0-0.0","A2T6PX7CHWLQAS","","","","{""Q0"":""Uninspiring and uninteresting.""}","","","","","","","","","","","","","","","","","","","","","","",""
"4077.9699999839067","","image-slider-response","176","1276601","0.0-174.0","A2T6PX7CHWLQAS","","","","","-26","","","","","","","","","","","","","","","","","","","","","",""
"null","","image-button-response","177","1281616","0.0-175.0","A2T6PX7CHWLQAS","img_art/6.jpg","null","","","","","","","","","","","","","","","","","","","","","","","","",""
"4199","","image-button-response","178","1285817","0.0-176.0","A2T6PX7CHWLQAS","img_art/6.jpg","2","","","","","","","","","","","","","","","","","","","","","","","","",""
"1438","","image-button-response","179","1287257","0.0-177.0-0.0","A2T6PX7CHWLQAS","img_art/6.jpg","1","","","","","","","","","","","","","","","","","","","","","","","","",""
"4405","","image-button-response","180","1291665","0.0-178.0-0.0","A2T6PX7CHWLQAS","img_art/6.jpg","4","","","","","","","","","","","","","","","","","","","","","","","","",""
"null","","html-keyboard-response","181","1293167","0.0-179.0","A2T6PX7CHWLQAS","<p style=""font-size: 48px;"">+</p>","","","","","null","allTrialResponses","1500","1","19","img_art/6.jpg","-26","Uninspiring and uninteresting.","Chase,Carlos,John,Brendan,Malik,Antonio","It's a bit bland, but looks like a bird standing.,11,120,20","Clean and simple, a pleasant resting place for the eyes.,21,80,20","It makes me stop and think about what the artist is trying to say.It creates a feeling of solitude and tranqulity,30,120,20","just an another tree on a desert?,9,340,20","Lonesome in nature,13,40,20","Lonely and kinda sad,-25,220,20","John","It makes me stop and think about what the artist is trying to say.It creates a feeling of solitude and tranqulity,30,120,20","Carlos","Clean and simple, a pleasant resting place for the eyes.,21,80,20","Malik","Lonesome in nature,13,40,20","4"
"40780","","survey-text","182","1333952","0.0-180.0-0.0","A2T6PX7CHWLQAS","","","","{""Q0"":""Too much.  A bedroom scene with too much added.  ""}","","","","","","","","","","","","","","","","","","","","","","",""
"2534.2999999411404","","image-slider-response","183","1336488","0.0-181.0","A2T6PX7CHWLQAS","","","","","-21","","","","","","","","","","","","","","","","","","","","","",""
"null","","image-button-response","184","1341494","0.0-182.0","A2T6PX7CHWLQAS","img_art/9.jpg","null","","","","","","","","","","","","","","","","","","","","","","","","",""
"5337","","image-button-response","185","1346833","0.0-183.0","A2T6PX7CHWLQAS","img_art/9.jpg","5","","","","","","","","","","","","","","","","","","","","","","","","",""
"1414","","image-button-response","186","1348249","0.0-184.0-0.0","A2T6PX7CHWLQAS","img_art/9.jpg","4","","","","","","","","","","","","","","","","","","","","","","","","",""
"1101","","image-button-response","187","1349352","0.0-185.0-0.0","A2T6PX7CHWLQAS","img_art/9.jpg","1","","","","","","","","","","","","","","","","","","","","","","","","",""
"null","","html-keyboard-response","188","1350854","0.0-186.0","A2T6PX7CHWLQAS","<p style=""font-size: 48px;"">+</p>","","","","","null","allTrialResponses","1500","1","20","img_art/9.jpg","-21","Too much.  A bedroom scene with too much added.  ","Justin,Carlos,John,Alex,Malik,Christopher","It reminds me of an illustration for a fairy tale.,19,280,20","Pleasant in all ways.,27,80,20","Unpleasant, alot of dark colors and strange lines,-26,120,20","Alright, I can see a reclining lady, I'm just glad to be able to tell what's in the picture,5,100,20","Colorful and expressive,15,40,20","I really like the color balance but the image is odd,-5,160,20","Christopher","I really like the color balance but the image is odd,-5,160,20","Malik","Colorful and expressive,15,40,20","Carlos","Pleasant in all ways.,27,80,20","4"
"3087","","survey-text","189","1353952","0.0-187.0-0.0","A2T6PX7CHWLQAS","","","","{""Q0"":""we""}","","","","","","","","","","","","","","","","","","","","","","",""
"48471","","survey-text","190","1402424","0.0-188.0-0.0","A2T6PX7CHWLQAS","","","","{""Q0"":""The color don't blend right.  ""}","","","","","","","","","","","","","","","","","","","","","","",""
"2765.9350000321865","","image-slider-response","191","1405192","0.0-189.0","A2T6PX7CHWLQAS","","","","","-33","","","","","","","","","","","","","","","","","","","","","",""
"4038","","image-button-response","192","1410204","0.0-190.0","A2T6PX7CHWLQAS","img_art/2.jpg","1","","","","","","","","","","","","","","","","","","","","","","","","",""
"5626","","image-button-response","193","1415832","0.0-191.0","A2T6PX7CHWLQAS","img_art/2.jpg","2","","","","","","","","","","","","","","","","","","","","","","","","",""
"1333","","image-button-response","194","1417168","0.0-192.0-0.0","A2T6PX7CHWLQAS","img_art/2.jpg","1","","","","","","","","","","","","","","","","","","","","","","","","",""
"9117","","image-button-response","195","1426288","0.0-193.0-0.0","A2T6PX7CHWLQAS","img_art/2.jpg","4","","","","","","","","","","","","","","","","","","","","","","","","",""
"null","","html-keyboard-response","196","1427291","0.0-194.0","A2T6PX7CHWLQAS","<p style=""font-size: 48px;"">+</p>","","","","","null","allTrialResponses","1000","1","21","img_art/2.jpg","-33","The color don't blend right.  ","Peter,Carlos,Jesse,James,Malik,Christopher","I don't feel indifferent,4,320,20","The colors are soothing, but the composition feels thoughtless.,-11,80,20","Looks childish and i dont like the texture,-25,80,20","The only parts I like is the light blue, red and black. The green color isn't very flattering.,11,380,20","Indistinct and too bright,-21,40,20","nope. just looks like a mess,-28,160,20","Jesse","Looks childish and i dont like the texture,-25,80,20","Carlos","The colors are soothing, but the composition feels thoughtless.,-11,80,20","Malik","Indistinct and too bright,-21,40,20","4"
"29999","","survey-text","197","1457295","0.0-195.0-0.0","A2T6PX7CHWLQAS","","","","{""Q0"":""The complementing but opposing colors create a great effect.""}","","","","","","","","","","","","","","","","","","","","","","",""
"2853.480000048876","","image-slider-response","198","1460151","0.0-196.0","A2T6PX7CHWLQAS","","","","","29","","","","","","","","","","","","","","","","","","","","","",""
"4430","","image-button-response","199","1465154","0.0-197.0","A2T6PX7CHWLQAS","img_art/13.jpg","1","","","","","","","","","","","","","","","","","","","","","","","","",""
"619","","image-button-response","200","1465775","0.0-198.0","A2T6PX7CHWLQAS","img_art/13.jpg","1","","","","","","","","","","","","","","","","","","","","","","","","",""
"3742","","image-button-response","201","1469519","0.0-199.0-0.0","A2T6PX7CHWLQAS","img_art/13.jpg","4","","","","","","","","","","","","","","","","","","","","","","","","",""
"2605","","image-button-response","202","1472127","0.0-200.0-0.0","A2T6PX7CHWLQAS","img_art/13.jpg","5","","","","","","","","","","","","","","","","","","","","","","","","",""
"null","","html-keyboard-response","203","1473636","0.0-201.0","A2T6PX7CHWLQAS","<p style=""font-size: 48px;"">+</p>","","","","","null","allTrialResponses","1500","1","22","img_art/13.jpg","29","The complementing but opposing colors create a great effect.","Devon,Carlos,Jesse,Kenneth,Malik,Anthony","I like this picture. The choice of colors are good,31,400,20","Rain on a cold window.,22,80,20","Really like this. Its like looking out a window into a beautiful storm,39,80,20","I would hang this photo in my room.,21,300,20","Gorgeous contrast and color choice, very pleasing,50,40,20","I like the color scheme,41,200,20","Carlos","Rain on a cold window.,22,80,20","Malik","Gorgeous contrast and color choice, very pleasing,50,40,20","Anthony","I like the color scheme,41,200,20","4"
"28149","","survey-text","204","1501790","0.0-202.0-0.0","A2T6PX7CHWLQAS","","","","{""Q0"":""A painting of a scene that doesn't feel very inspiring to the artist.""}","","","","","","","","","","","","","","","","","","","","","","",""
"3110.329999937676","","image-slider-response","205","1504902","0.0-203.0","A2T6PX7CHWLQAS","","","","","10","","","","","","","","","","","","","","","","","","","","","",""
"2014","","image-button-response","206","1509907","0.0-204.0","A2T6PX7CHWLQAS","img_art/26.jpg","1","","","","","","","","","","","","","","","","","","","","","","","","",""
"6634","","image-button-response","207","1516543","0.0-205.0","A2T6PX7CHWLQAS","img_art/26.jpg","2","","","","","","","","","","","","","","","","","","","","","","","","",""
"678","","image-button-response","208","1517223","0.0-206.0-0.0","A2T6PX7CHWLQAS","img_art/26.jpg","1","","","","","","","","","","","","","","","","","","","","","","","","",""
"3998","","image-button-response","209","1521223","0.0-207.0-0.0","A2T6PX7CHWLQAS","img_art/26.jpg","4","","","","","","","","","","","","","","","","","","","","","","","","",""
"null","","html-keyboard-response","210","1522738","0.0-208.0","A2T6PX7CHWLQAS","<p style=""font-size: 48px;"">+</p>","","","","","null","allTrialResponses","1500","1","23","img_art/26.jpg","10","A painting of a scene that doesn't feel very inspiring to the artist.","Kevin,Carlos,Corey,Jose,Malik,Anthony","Some trees in front of a house.,2,320,20","Pleasant but bland.,10,80,20","its boring and i dont like the color palette,3,260,20","This style of objects that are supposed to be something but then are blurry is interesting.,38,200,20","Feels like still life,-13,40,20","This picture doesn't really stand out.,0,200,20","Corey","its boring and i dont like the color palette,3,260,20","Carlos","Pleasant but bland.,10,80,20","Malik","Feels like still life,-13,40,20","4"
"42581","","survey-text","211","1565326","0.0-209.0-0.0","A2T6PX7CHWLQAS","","","","{""Q0"":""Very striking, just not my style.""}","","","","","","","","","","","","","","","","","","","","","","",""
"3718.085000058636","","image-slider-response","212","1569046","0.0-210.0","A2T6PX7CHWLQAS","","","","","-37","","","","","","","","","","","","","","","","","","","","","",""
"null","","image-button-response","213","1574059","0.0-211.0","A2T6PX7CHWLQAS","img_art/25.jpg","null","","","","","","","","","","","","","","","","","","","","","","","","",""
"4881","","image-button-response","214","1578942","0.0-212.0","A2T6PX7CHWLQAS","img_art/25.jpg","4","","","","","","","","","","","","","","","","","","","","","","","","",""
"1197","","image-button-response","215","1580142","0.0-213.0-0.0","A2T6PX7CHWLQAS","img_art/25.jpg","1","","","","","","","","","","","","","","","","","","","","","","","","",""
"2998","","image-button-response","216","1583142","0.0-214.0-0.0","A2T6PX7CHWLQAS","img_art/25.jpg","0","","","","","","","","","","","","","","","","","","","","","","","","",""
"null","","html-keyboard-response","217","1584144","0.0-215.0","A2T6PX7CHWLQAS","<p style=""font-size: 48px;"">+</p>","","","","","null","allTrialResponses","1000","1","24","img_art/25.jpg","-37","Very striking, just not my style.","Adam,Carlos,Corey,Dalton,Malik,Jorge","high contrast draws attention to the image, but I'm not sure what I'm seeing,-5,40,20","The proportions are unpleasant.,-30,80,20","love the color and the contrast of the black on teal,50,260,20","This reminds me of royalty and servants.,32,300,20","Very cryptic and ancient,36,40,20","Somewhat feel protected by a messenger,33,180,20","Malik","Very cryptic and ancient,36,40,20","Carlos","The proportions are unpleasant.,-30,80,20","Adam","high contrast draws attention to the image, but I'm not sure what I'm seeing,-5,40,20","4"
"43167","","survey-text","218","1627317","0.0-216.0-0.0","A2T6PX7CHWLQAS","","","","{""Q0"":""A building on fire reflected in the adjacent lake.  Chaos and calm.""}","","","","","","","","","","","","","","","","","","","","","","",""
"3958.210000069812","","image-slider-response","219","1631277","0.0-217.0","A2T6PX7CHWLQAS","","","","","36","","","","","","","","","","","","","","","","","","","","","",""
"1806","","image-button-response","220","1636281","0.0-218.0","A2T6PX7CHWLQAS","img_art/22.jpg","1","","","","","","","","","","","","","","","","","","","","","","","","",""
"723","","image-button-response","221","1637006","0.0-219.0","A2T6PX7CHWLQAS","img_art/22.jpg","1","","","","","","","","","","","","","","","","","","","","","","","","",""
"3838","","image-button-response","222","1640846","0.0-220.0-0.0","A2T6PX7CHWLQAS","img_art/22.jpg","4","","","","","","","","","","","","","","","","","","","","","","","","",""
"1237","","image-button-response","223","1642086","0.0-221.0-0.0","A2T6PX7CHWLQAS","img_art/22.jpg","5","","","","","","","","","","","","","","","","","","","","","","","","",""
"null","","html-keyboard-response","224","1643587","0.0-222.0","A2T6PX7CHWLQAS","<p style=""font-size: 48px;"">+</p>","","","","","null","allTrialResponses","1500","1","25","img_art/22.jpg","36","A building on fire reflected in the adjacent lake.  Chaos and calm.","Adam,Carlos,Charles,Spencer,Malik,Seth","Very generic mix of primary colors and shapes. Not a huge fan.,-10,40,20","The colors are pleasant, the shapes are inviting.,21,80,20","I like the key near the sphere in the center,19,100,20","Pretty colors but too blocky for me,-19,120,20","Beautiful forms, using color to define shape,14,40,20","I think the colors are beautiful they remind me of a sunset.,13,60,20","Carlos","The colors are pleasant, the shapes are inviting.,21,80,20","Malik","Beautiful forms, using color to define shape,14,40,20","Seth","I think the colors are beautiful they remind me of a sunset.,13,60,20","4"
"5319","","survey-text","225","1648917","0.0-223.0-0.0","A2T6PX7CHWLQAS","","","","{""Q0"":""table""}","","","","","","","","","","","","","","","","","","","","","","",""
"79107","","survey-text","226","1728028","0.0-224.0-0.0","A2T6PX7CHWLQAS","","","","{""Q0"":""Too busy.  Like a couch pattern.""}","","","","","","","","","","","","","","","","","","","","","","",""
"4310.094999964349","","image-slider-response","227","1732340","0.0-225.0","A2T6PX7CHWLQAS","","","","","-42","","","","","","","","","","","","","","","","","","","","","",""
"2910","","image-button-response","228","1737353","0.0-226.0","A2T6PX7CHWLQAS","img_art/12.jpg","1","","","","","","","","","","","","","","","","","","","","","","","","",""
"889","","image-button-response","229","1738244","0.0-227.0","A2T6PX7CHWLQAS","img_art/12.jpg","1","","","","","","","","","","","","","","","","","","","","","","","","",""
"5445","","image-button-response","230","1743693","0.0-228.0-0.0","A2T6PX7CHWLQAS","img_art/12.jpg","4","","","","","","","","","","","","","","","","","","","","","","","","",""
"2157","","image-button-response","231","1745853","0.0-229.0-0.0","A2T6PX7CHWLQAS","img_art/12.jpg","3","","","","","","","","","","","","","","","","","","","","","","","","",""
"null","","html-keyboard-response","232","1746855","0.0-230.0","A2T6PX7CHWLQAS","<p style=""font-size: 48px;"">+</p>","","","","","null","allTrialResponses","1000","1","26","img_art/12.jpg","-42","Too busy.  Like a couch pattern.","Joseph,Carlos,Jacob,Marcus,Malik,Seth","Yay! Lots of people, lots of lives.,25,220,20","It is very bland and the colors are not cohesive.,-20,80,20","I like this concept.,11,340,20","I like the colors in the bottom half of the painting,10,60,20","I don't like it, but I appreciate the effort and technique,11,40,20","This is beautiful. It looks like 1,000 different sunrises and sunsets.,44,60,20","Carlos","It is very bland and the colors are not cohesive.,-20,80,20","Malik","I don't like it, but I appreciate the effort and technique,11,40,20","Marcus","I like the colors in the bottom half of the painting,10,60,20","4"
"22893","","survey-text","233","1769755","0.0-231.0-0.0","A2T6PX7CHWLQAS","","","","{""Q0"":""Simple, yet busy.  A nice balance.""}","","","","","","","","","","","","","","","","","","","","","","",""
"2574.3149999761954","","image-slider-response","234","1772331","0.0-232.0","A2T6PX7CHWLQAS","","","","","20","","","","","","","","","","","","","","","","","","","","","",""
"1614","","image-button-response","235","1777336","0.0-233.0","A2T6PX7CHWLQAS","img_art/14.jpg","1","","","","","","","","","","","","","","","","","","","","","","","","",""
"1665","","image-button-response","236","1779003","0.0-234.0","A2T6PX7CHWLQAS","img_art/14.jpg","1","","","","","","","","","","","","","","","","","","","","","","","","",""
"717","","image-button-response","237","1779723","0.0-235.0-0.0","A2T6PX7CHWLQAS","img_art/14.jpg","0","","","","","","","","","","","","","","","","","","","","","","","","",""
"4389","","image-button-response","238","1784115","0.0-236.0-0.0","A2T6PX7CHWLQAS","img_art/14.jpg","3","","","","","","","","","","","","","","","","","","","","","","","","",""
"null","","html-keyboard-response","239","1785117","0.0-237.0","A2T6PX7CHWLQAS","<p style=""font-size: 48px;"">+</p>","","","","","null","allTrialResponses","1000","1","27","img_art/14.jpg","20","Simple, yet busy.  A nice balance.","Tristan,Carlos,Samuel,Marcus,Malik,Gregory","In others I might say the colors are garish. Here it works perfectly. The balance is wondrous and unlimiting.,25,300,20","The lighting feels like spring.,20,80,20","tree of life brings hope,7,400,20","I like the colors and the shapes are interesting,11,60,20","It's alright, something I'd see in a guest bedroom,10,40,20","Not as cool as other tree looking paintings,-5,220,20","Carlos","The lighting feels like spring.,20,80,20","Tristan","In others I might say the colors are garish. Here it works perfectly. The balance is wondrous and unlimiting.,25,300,20","Marcus","I like the colors and the shapes are interesting,11,60,20","4"
"28102","","survey-text","240","1813226","0.0-238.0-0.0","A2T6PX7CHWLQAS","","","","{""Q0"":""The curved shape keeps drawing my attention.""}","","","","","","","","","","","","","","","","","","","","","","",""
"2990.220000036061","","image-slider-response","241","1816219","0.0-239.0","A2T6PX7CHWLQAS","","","","","19","","","","","","","","","","","","","","","","","","","","","",""
"2326","","image-button-response","242","1821231","0.0-240.0","A2T6PX7CHWLQAS","img_art/10.jpg","1","","","","","","","","","","","","","","","","","","","","","","","","",""
"474","","image-button-response","243","1821707","0.0-241.0","A2T6PX7CHWLQAS","img_art/10.jpg","0","","","","","","","","","","","","","","","","","","","","","","","","",""
"622","","image-button-response","244","1822331","0.0-242.0-0.0","A2T6PX7CHWLQAS","img_art/10.jpg","1","","","","","","","","","","","","","","","","","","","","","","","","",""
"4678","","image-button-response","245","1827011","0.0-243.0-0.0","A2T6PX7CHWLQAS","img_art/10.jpg","3","","","","","","","","","","","","","","","","","","","","","","","","",""
"null","","html-keyboard-response","246","1828524","0.0-244.0","A2T6PX7CHWLQAS","<p style=""font-size: 48px;"">+</p>","","","","","null","allTrialResponses","1500","1","28","img_art/10.jpg","19","The curved shape keeps drawing my attention.","Tristan,Carlos,Bryce,Marcus,Cody,Miguel","Highly abstract and yet the shapes and colors provide an emotional accessibility for me.,20,300,20","The colors and shapes are soothing but also disconcerting.,21,80,20","Kinda creepy not my favorite,-26,20,20","This makes me think of a city, specifically London.,20,60,20","Feels musical .....,40,180,20","It just looks like a dirty stain.,-38,160,20","Tristan","Highly abstract and yet the shapes and colors provide an emotional accessibility for me.,20,300,20","Carlos","The colors and shapes are soothing but also disconcerting.,21,80,20","Marcus","This makes me think of a city, specifically London.,20,60,20","4"
"23431","","survey-text","247","1851962","0.0-245.0-0.0","A2T6PX7CHWLQAS","","","","{""Q0"":""I enjoy the use of point-of-view.""}","","","","","","","","","","","","","","","","","","","","","","",""
"2294.3400000222027","","image-slider-response","248","1854258","0.0-246.0","A2T6PX7CHWLQAS","","","","","23","","","","","","","","","","","","","","","","","","","","","",""
"2534","","image-button-response","249","1859261","0.0-247.0","A2T6PX7CHWLQAS","img_art/17.jpg","1","","","","","","","","","","","","","","","","","","","","","","","","",""
"627","","image-button-response","250","1859891","0.0-248.0","A2T6PX7CHWLQAS","img_art/17.jpg","1","","","","","","","","","","","","","","","","","","","","","","","","",""
"550","","image-button-response","251","1860443","0.0-249.0-0.0","A2T6PX7CHWLQAS","img_art/17.jpg","0","","","","","","","","","","","","","","","","","","","","","","","","",""
"2342","","image-button-response","252","1862787","0.0-250.0-0.0","A2T6PX7CHWLQAS","img_art/17.jpg","2","","","","","","","","","","","","","","","","","","","","","","","","",""
"null","","html-keyboard-response","253","1863788","0.0-251.0","A2T6PX7CHWLQAS","<p style=""font-size: 48px;"">+</p>","","","","","null","allTrialResponses","1000","1","29","img_art/17.jpg","23","I enjoy the use of point-of-view.","Tristan,Carlos,Dylan,Marcus,Edward,Luke","peaceful. contemplative. balanced. old,10,300,20","It feels like nature overtaking civilization.,21,80,20","This is very beautiful and elegant.,42,40,20","I like this, but it's a bit bland.,10,60,20","I love how soft it is,35,60,20","it looks very intricate and colorful,50,20,20","Carlos","It feels like nature overtaking civilization.,21,80,20","Tristan","peaceful. contemplative. balanced. old,10,300,20","Dylan","This is very beautiful and elegant.,42,40,20","4"
"30127","","survey-text","254","1893922","0.0-252.0-0.0","A2T6PX7CHWLQAS","","","","{""Q0"":""This seems very angry, as if the artist had just experienced something unpleasant.""}","","","","","","","","","","","","","","","","","","","","","","",""
"2301.9999999087304","","image-slider-response","255","1896226","0.0-253.0","A2T6PX7CHWLQAS","","","","","16","","","","","","","","","","","","","","","","","","","","","",""
"null","","image-button-response","256","1901229","0.0-254.0","A2T6PX7CHWLQAS","img_art/1.jpg","null","","","","","","","","","","","","","","","","","","","","","","","","",""
"6915","","image-button-response","257","1908146","0.0-255.0","A2T6PX7CHWLQAS","img_art/1.jpg","0","","","","","","","","","","","","","","","","","","","","","","","","",""
"2806","","image-button-response","258","1910954","0.0-256.0-0.0","A2T6PX7CHWLQAS","img_art/1.jpg","2","","","","","","","","","","","","","","","","","","","","","","","","",""
"1054","","image-button-response","259","1912011","0.0-257.0-0.0","A2T6PX7CHWLQAS","img_art/1.jpg","1","","","","","","","","","","","","","","","","","","","","","","","","",""
"null","","html-keyboard-response","260","1913512","0.0-258.0","A2T6PX7CHWLQAS","<p style=""font-size: 48px;"">+</p>","","","","","null","allTrialResponses","1500","1","30","img_art/1.jpg","16","This seems very angry, as if the artist had just experienced something unpleasant.","Tristan,Carlos,Dylan,Noah,Stephen,Jared","Unpleasing palette. I see a figure but it seems incongrous to the highly abstract background.,-20,300,20","Colors are pleasant, but feels incredibly generic.,9,80,20","I love the warm colors of the art,32,40,20","the bright colours evoke the 90s, and not their best part,-10,260,20","Nothing really going on but good color choices.,-3,140,20","there isnt anything clear to look at,-2,400,20","Tristan","Unpleasing palette. I see a figure but it seems incongrous to the highly abstract background.,-20,300,20","Dylan","I love the warm colors of the art,32,40,20","Carlos","Colors are pleasant, but feels incredibly generic.,9,80,20","4"
"4668","","image-button-response_instructions","261","1918186","0.0-259.0","A2T6PX7CHWLQAS","","0","instructions","","","","","","","","","","","","","","","","","","","","","","","",""
"1176","","image-button-response","262","1919370","0.0-260.0","A2T6PX7CHWLQAS","","0","","","","","","","","","","","","","","","","","","","","","","","","",""
