"rt","url","trial_type","trial_index","time_elapsed","internal_node_id","participant_id","stimulus","button_pressed","Name","responses","response","key_press","variableName","fixationTime","condition","trial","photo","subjectRating","subjectResponse","agentsNames","agent_1_Response","agent_2_Response","agent_3_Response","agent_4_Response","agent_5_Response","agent_6_Response","kept_1_name","kept_1_response","kept_2_name","kept_2_response","kept_3_name","kept_3_response","errorCounter"
"23253","external_page_harvard.html","external-html","0","23480","0.0-0.0","A2UL93BXZ4EJ6G","","","","","","","","","","","","","","","","","","","","","","","","","","",""
"1496","","image-button-response","1","24977","0.0-1.0","A2UL93BXZ4EJ6G","","0","","","","","","","","","","","","","","","","","","","","","","","","",""
"1690","","image-button-response","2","26670","0.0-2.0-0.0","A2UL93BXZ4EJ6G","","1","phone","","","","","","","","","","","","","","","","","","","","","","","",""
"6761","","survey-text","3","33432","0.0-3.0-0.0","A2UL93BXZ4EJ6G","","","","{""Q0"":""A2UL93BXZ4EJ6G""}","","","","","","","","","","","","","","","","","","","","","","",""
"4781","","image-button-response_instructions","4","38214","0.0-4.0","A2UL93BXZ4EJ6G","","0","instructions","","","","","","","","","","","","","","","","","","","","","","","",""
"16223","","image-button-response_instructions","5","54438","0.0-5.0","A2UL93BXZ4EJ6G","img_art/ins/popularity/ins1.png","0","instructions","","","","","","","","","","","","","","","","","","","","","","","",""
"6827","","image-button-response_instructions","6","61266","0.0-6.0","A2UL93BXZ4EJ6G","img_art/ins/popularity/ins2.png","0","instructions","","","","","","","","","","","","","","","","","","","","","","","",""
"7186","","image-button-response_instructions","7","68452","0.0-7.0","A2UL93BXZ4EJ6G","img_art/ins/popularity/ins2Extreme.png","0","instructions","","","","","","","","","","","","","","","","","","","","","","","",""
"8076","","image-button-response_instructions","8","76530","0.0-8.0","A2UL93BXZ4EJ6G","img_art/ins/popularity/ins3KEEPpop.PNG","0","instructions","","","","","","","","","","","","","","","","","","","","","","","",""
"7062","","image-button-response_instructions","9","83592","0.0-9.0","A2UL93BXZ4EJ6G","img_art/ins/popularity/ins3ANamepop.PNG","0","instructions","","","","","","","","","","","","","","","","","","","","","","","",""
"3832","","image-button-response_instructions","10","87425","0.0-10.0","A2UL93BXZ4EJ6G","img_art/ins/popularity/ins3ARatingpop.png","0","instructions","","","","","","","","","","","","","","","","","","","","","","","",""
"3799","","image-button-response_instructions","11","91224","0.0-11.0","A2UL93BXZ4EJ6G","img_art/ins/popularity/ins3ATextpop.png","0","instructions","","","","","","","","","","","","","","","","","","","","","","","",""
"5800","","image-button-response_instructions","12","97024","0.0-12.0","A2UL93BXZ4EJ6G","img_art/ins/popularity/ins3ALikespop.png","0","instructions","","","","","","","","","","","","","","","","","","","","","","","",""
"15111","","image-button-response_instructions","13","112135","0.0-13.0","A2UL93BXZ4EJ6G","img_art/ins/popularity/ins3KEEPpop.PNG","0","instructions","","","","","","","","","","","","","","","","","","","","","","","",""
"8902","","image-button-response_instructions","14","121038","0.0-14.0","A2UL93BXZ4EJ6G","img_art/ins/popularity/ins3_5RED.png","0","instructions","","","","","","","","","","","","","","","","","","","","","","","",""
"5587","","image-button-response_instructions","15","126626","0.0-15.0","A2UL93BXZ4EJ6G","img_art/ins/popularity/ins3KEEPpop.PNG","0","instructions","","","","","","","","","","","","","","","","","","","","","","","",""
"13677","","image-button-response_instructions","16","140304","0.0-16.0","A2UL93BXZ4EJ6G","img_art/ins/popularity/ins4KEEPpop.PNG","0","instructions","","","","","","","","","","","","","","","","","","","","","","","",""
"5482","","image-button-response_instructions","17","145786","0.0-17.0","A2UL93BXZ4EJ6G","img_art/ins/popularity/ins5KEEPpop.PNG","0","instructions","","","","","","","","","","","","","","","","","","","","","","","",""
"1859","","image-button-response_instructions","18","147646","0.0-18.0","A2UL93BXZ4EJ6G","","0","instructions","","","","","","","","","","","","","","","","","","","","","","","",""
"7333","","survey-text","19","154993","0.0-19.0-0.0","A2UL93BXZ4EJ6G","","","","{""Q0"":""but""}","","","","","","","","","","","","","","","","","","","","","","",""
"17316","","survey-text","20","172311","0.0-20.0-0.0","A2UL93BXZ4EJ6G","","","","{""Q0"":""This art is beautiful and I love the colors""}","","","","","","","","","","","","","","","","","","","","","","",""
"3033.3000000044703","","image-slider-response","21","175346","0.0-21.0","A2UL93BXZ4EJ6G","","","","","50","","","","","","","","","","","","","","","","","","","","","",""
"null","","image-button-response","22","180348","0.0-22.0","A2UL93BXZ4EJ6G","img_art/ins/1.jpg","null","","","","","","","","","","","","","","","","","","","","","","","","",""
"1742","","image-button-response","23","182091","0.0-23.0","A2UL93BXZ4EJ6G","img_art/ins/1.jpg","5","","","","","","","","","","","","","","","","","","","","","","","","",""
"7408","","image-button-response","24","189501","0.0-24.0-0.0","A2UL93BXZ4EJ6G","img_art/ins/1.jpg","4","","","","","","","","","","","","","","","","","","","","","","","","",""
"5367","","image-button-response","25","194870","0.0-25.0-0.0","A2UL93BXZ4EJ6G","img_art/ins/1.jpg","2","","","","","","","","","","","","","","","","","","","","","","","","",""
"null","","html-keyboard-response","26","195372","0.0-26.0","A2UL93BXZ4EJ6G","<p style=""font-size: 48px;"">+</p>","","","","","null","allTrialResponses","500","1","-2","img_art/ins/1.jpg","50","This art is beautiful and I love the colors","Adam,Alex,Ben,Carl,Daniel,Jack","Seems like doodles,-20,20,20","very creative work.,36,40,20","This color reminds me of poo,-46,60,20","very calming artwork,42,80,20","It looks like a murder scene.,-48,100,20","I like the sophisticated brushwork,40,120,20","Jack","I like the sophisticated brushwork,40,120,20","Daniel","It looks like a murder scene.,-48,100,20","Ben","This color reminds me of poo,-46,60,20","0"
"15644","","survey-text","27","211019","0.0-27.0-0.0","A2UL93BXZ4EJ6G","","","","{""Q0"":""This art looks like a bench in a park""}","","","","","","","","","","","","","","","","","","","","","","",""
"2349.9000000059605","","image-slider-response","28","213370","0.0-28.0","A2UL93BXZ4EJ6G","","","","","50","","","","","","","","","","","","","","","","","","","","","",""
"2754","","image-button-response","29","218378","0.0-29.0","A2UL93BXZ4EJ6G","img_art/ins/2.jpg","1","","","","","","","","","","","","","","","","","","","","","","","","",""
"771","","image-button-response","30","219150","0.0-30.0","A2UL93BXZ4EJ6G","img_art/ins/2.jpg","1","","","","","","","","","","","","","","","","","","","","","","","","",""
"5703","","image-button-response","31","224854","0.0-31.0-0.0","A2UL93BXZ4EJ6G","img_art/ins/2.jpg","5","","","","","","","","","","","","","","","","","","","","","","","","",""
"796","","image-button-response","32","225652","0.0-32.0-0.0","A2UL93BXZ4EJ6G","img_art/ins/2.jpg","3","","","","","","","","","","","","","","","","","","","","","","","","",""
"null","","html-keyboard-response","33","226654","0.0-33.0","A2UL93BXZ4EJ6G","<p style=""font-size: 48px;"">+</p>","","","","","null","allTrialResponses","1000","1","-1","img_art/ins/2.jpg","50","This art looks like a bench in a park","Kyle,John,Ben,James,Daniel,Jack","Idk, it is just annoying,-32,180,20","love the texture of paint,48,160,20","meaningless painting,-45,60,20","looks too angry,-50,140,20","One of my pet peevs,-48,100,20","I would never be able to compose a sophisticated pallete like this,48,120,20","John","love the texture of paint,48,160,20","Jack","I would never be able to compose a sophisticated pallete like this,48,120,20","James","looks too angry,-50,140,20","0"
"14833","","survey-text","34","241491","0.0-34.0-0.0","A2UL93BXZ4EJ6G","","","","{""Q0"":""I love the feeling calmness that this painting gives me""}","","","","","","","","","","","","","","","","","","","","","","",""
"3698.60000000149","","image-slider-response","35","245190","0.0-35.0","A2UL93BXZ4EJ6G","","","","","50","","","","","","","","","","","","","","","","","","","","","",""
"null","","image-button-response","36","250193","0.0-36.0","A2UL93BXZ4EJ6G","img_art/ins/3.jpg","null","","","","","","","","","","","","","","","","","","","","","","","","",""
"596","","image-button-response","37","250791","0.0-37.0","A2UL93BXZ4EJ6G","img_art/ins/3.jpg","5","","","","","","","","","","","","","","","","","","","","","","","","",""
"1799","","image-button-response","38","252590","0.0-38.0-0.0","A2UL93BXZ4EJ6G","img_art/ins/3.jpg","1","","","","","","","","","","","","","","","","","","","","","","","","",""
"1554","","image-button-response","39","254146","0.0-39.0-0.0","A2UL93BXZ4EJ6G","img_art/ins/3.jpg","2","","","","","","","","","","","","","","","","","","","","","","","","",""
"null","","html-keyboard-response","40","255147","0.0-40.0","A2UL93BXZ4EJ6G","<p style=""font-size: 48px;"">+</p>","","","","","null","allTrialResponses","1000","1","0","img_art/ins/3.jpg","50","I love the feeling calmness that this painting gives me","Sam,John,Mike,James,Ron,Jack","I can feel a rainy day from this painting,18,240,20","I like the overlapping of brushes,41,160,20","enjoy the different shades of blue,22,200,20","My worst nightmare,-42,140,20","It looks depressing,-26,220,20","I feel connected to the artist,40,120,20","Jack","I feel connected to the artist,40,120,20","John","I like the overlapping of brushes,41,160,20","Mike","enjoy the different shades of blue,22,200,20","0"
"10792","","image-button-response_instructions","41","265944","0.0-41.0","A2UL93BXZ4EJ6G","","0","instructions","","","","","","","","","","","","","","","","","","","","","","","",""
"22115","","survey-likert","42","288060","0.0-42.0-0.0","A2UL93BXZ4EJ6G","","","","{""Q0"":"""",""Q1"":0,""Q2"":1}","","","","","","","","","","","","","","","","","","","","","","",""
"3574","","survey-text","43","291638","0.0-43.0-0.0","A2UL93BXZ4EJ6G","","","","{""Q0"":""rock""}","","","","","","","","","","","","","","","","","","","","","","",""
"15565","","survey-text","44","307204","0.0-44.0-0.0","A2UL93BXZ4EJ6G","","","","{""Q0"":""I love how this art piece looks like a bunch of people reaching for something""}","","","","","","","","","","","","","","","","","","","","","","",""
"2825.8000000044703","","image-slider-response","45","310031","0.0-45.0","A2UL93BXZ4EJ6G","","","","","50","","","","","","","","","","","","","","","","","","","","","",""
"null","","image-button-response","46","315046","0.0-46.0","A2UL93BXZ4EJ6G","img_art/23.jpg","null","","","","","","","","","","","","","","","","","","","","","","","","",""
"541","","image-button-response","47","315588","0.0-47.0","A2UL93BXZ4EJ6G","img_art/23.jpg","3","","","","","","","","","","","","","","","","","","","","","","","","",""
"3950","","image-button-response","48","319539","0.0-48.0-0.0","A2UL93BXZ4EJ6G","img_art/23.jpg","4","","","","","","","","","","","","","","","","","","","","","","","","",""
"1151","","image-button-response","49","320692","0.0-49.0-0.0","A2UL93BXZ4EJ6G","img_art/23.jpg","0","","","","","","","","","","","","","","","","","","","","","","","","",""
"null","","html-keyboard-response","50","321200","0.0-50.0","A2UL93BXZ4EJ6G","<p style=""font-size: 48px;"">+</p>","","","","","null","allTrialResponses","500","1","1","img_art/23.jpg","50","I love how this art piece looks like a bunch of people reaching for something","Luke,John,Peter,Isaiah,Tristan,Victor","makes me happy and want to dance,43,20,20","Very bright and eye catching.The White silhouettes remind me of people celebrating.,31,120,20","Reminds me of disco/70's, not my favorite design,-12,320,20","I feel happy and a little excited. Like watching fireworks with family.,26,300,20","So exciting and full of the night.,20,300,20","I like the colors, the tiny dots, and the contrast between the white and background,28,340,20","Isaiah","I feel happy and a little excited. Like watching fireworks with family.,26,300,20","Tristan","So exciting and full of the night.,20,300,20","Luke","makes me happy and want to dance,43,20,20","0"
"13425","","survey-text","51","334628","0.0-51.0-0.0","A2UL93BXZ4EJ6G","","","","{""Q0"":""Reminds me of a busy highway in the city""}","","","","","","","","","","","","","","","","","","","","","","",""
"1834.8999999985099","","image-slider-response","52","336464","0.0-52.0","A2UL93BXZ4EJ6G","","","","","50","","","","","","","","","","","","","","","","","","","","","",""
"null","","image-button-response","53","341469","0.0-53.0","A2UL93BXZ4EJ6G","img_art/11.jpg","null","","","","","","","","","","","","","","","","","","","","","","","","",""
"634","","image-button-response","54","342105","0.0-54.0","A2UL93BXZ4EJ6G","img_art/11.jpg","4","","","","","","","","","","","","","","","","","","","","","","","","",""
"1913","","image-button-response","55","344019","0.0-55.0-0.0","A2UL93BXZ4EJ6G","img_art/11.jpg","3","","","","","","","","","","","","","","","","","","","","","","","","",""
"3084","","image-button-response","56","347104","0.0-56.0-0.0","A2UL93BXZ4EJ6G","img_art/11.jpg","0","","","","","","","","","","","","","","","","","","","","","","","","",""
"null","","html-keyboard-response","57","348107","0.0-57.0","A2UL93BXZ4EJ6G","<p style=""font-size: 48px;"">+</p>","","","","","null","allTrialResponses","1000","1","2","img_art/11.jpg","50","Reminds me of a busy highway in the city","Luke,Jonathan,Paul,Isaiah,Tristan,Alexis","it reminds me of music,43,20,20","Those vertical strokes are to die for and I love these colors !!!,50,140,20","I like how it reminds me of music and at the same time it looks like colorful train tracks.,10,300,20","I feel excited, like I'm in the middle of a bustling city.,26,300,20","Simple and complex. Hopeful yet dark. I love this,35,300,20","This photo makes me feel bleak,-16,140,20","Tristan","Simple and complex. Hopeful yet dark. I love this,35,300,20","Isaiah","I feel excited, like I'm in the middle of a bustling city.,26,300,20","Luke","it reminds me of music,43,20,20","0"
"23414","","survey-text","58","371524","0.0-58.0-0.0","A2UL93BXZ4EJ6G","","","","{""Q0"":""I love the way this photo looks like a tree in forest and yet in a modern setting""}","","","","","","","","","","","","","","","","","","","","","","",""
"2334.89999999851","","image-slider-response","59","373861","0.0-59.0","A2UL93BXZ4EJ6G","","","","","50","","","","","","","","","","","","","","","","","","","","","",""
"null","","image-button-response","60","378863","0.0-60.0","A2UL93BXZ4EJ6G","img_art/17.jpg","null","","","","","","","","","","","","","","","","","","","","","","","","",""
"2332","","image-button-response","61","381197","0.0-61.0","A2UL93BXZ4EJ6G","img_art/17.jpg","3","","","","","","","","","","","","","","","","","","","","","","","","",""
"808","","image-button-response","62","382006","0.0-62.0-0.0","A2UL93BXZ4EJ6G","img_art/17.jpg","1","","","","","","","","","","","","","","","","","","","","","","","","",""
"1063","","image-button-response","63","383072","0.0-63.0-0.0","A2UL93BXZ4EJ6G","img_art/17.jpg","0","","","","","","","","","","","","","","","","","","","","","","","","",""
"null","","html-keyboard-response","64","383585","0.0-64.0","A2UL93BXZ4EJ6G","<p style=""font-size: 48px;"">+</p>","","","","","null","allTrialResponses","500","1","3","img_art/17.jpg","50","I love the way this photo looks like a tree in forest and yet in a modern setting","Luke,Blake,Jose,Isaiah,Tristan,Evan","it looks very intricate and colorful,50,20,20","soft and warm light colors are relaxing,12,280,20","Looks like a weird blurry heaven again! I dig,32,200,20","The painting makes me feel relaxed, and a bit lonely, like I'm sitting at a park waiting for someone.,30,300,20","peaceful. contemplative. balanced. old,10,300,20","This reminds me of spring,24,140,20","Isaiah","The painting makes me feel relaxed, and a bit lonely, like I'm sitting at a park waiting for someone.,30,300,20","Blake","soft and warm light colors are relaxing,12,280,20","Luke","it looks very intricate and colorful,50,20,20","0"
"21105","","survey-text","65","404693","0.0-65.0-0.0","A2UL93BXZ4EJ6G","","","","{""Q0"":""Reminds me of the slums of the city where people can look out into the river and see the bridge""}","","","","","","","","","","","","","","","","","","","","","","",""
"2014.8999999985099","","image-slider-response","66","406710","0.0-66.0","A2UL93BXZ4EJ6G","","","","","50","","","","","","","","","","","","","","","","","","","","","",""
"4630","","image-button-response","67","411712","0.0-67.0","A2UL93BXZ4EJ6G","img_art/19.jpg","1","","","","","","","","","","","","","","","","","","","","","","","","",""
"1701","","image-button-response","68","413413","0.0-68.0","A2UL93BXZ4EJ6G","img_art/19.jpg","1","","","","","","","","","","","","","","","","","","","","","","","","",""
"2646","","image-button-response","69","416060","0.0-69.0-0.0","A2UL93BXZ4EJ6G","img_art/19.jpg","5","","","","","","","","","","","","","","","","","","","","","","","","",""
"1810","","image-button-response","70","417872","0.0-70.0-0.0","A2UL93BXZ4EJ6G","img_art/19.jpg","3","","","","","","","","","","","","","","","","","","","","","","","","",""
"null","","html-keyboard-response","71","418373","0.0-71.0","A2UL93BXZ4EJ6G","<p style=""font-size: 48px;"">+</p>","","","","","null","allTrialResponses","500","1","4","img_art/19.jpg","50","Reminds me of the slums of the city where people can look out into the river and see the bridge","Luke,Blake,Brian,Isaiah,Alejandro,Spencer","it draws my eye and my mind fills in the spaces,14,20,20","an old cityfrom many years ago. its ok,6,280,20","I like this style but don't really like the specific setting of the landscape,-7,380,20","I feel a little anxious and happy. I'm about to walk into a market and any number of treasures could be found,14,300,20","It is an interesting piece but there are too many muted tones,22,80,20","Very abstract but I like it, it's busy, lots of colors,43,120,20","Blake","an old cityfrom many years ago. its ok,6,280,20","Spencer","Very abstract but I like it, it's busy, lots of colors,43,120,20","Isaiah","I feel a little anxious and happy. I'm about to walk into a market and any number of treasures could be found,14,300,20","0"
"19444","","survey-text","72","437821","0.0-72.0-0.0","A2UL93BXZ4EJ6G","","","","{""Q0"":""I have no idea what is going on with the painting and it makes me feel weird""}","","","","","","","","","","","","","","","","","","","","","","",""
"2187.89999999851","","image-slider-response","73","440010","0.0-73.0","A2UL93BXZ4EJ6G","","","","","-50","","","","","","","","","","","","","","","","","","","","","",""
"3068","","image-button-response","74","445012","0.0-74.0","A2UL93BXZ4EJ6G","img_art/7.jpg","2","","","","","","","","","","","","","","","","","","","","","","","","",""
"1076","","image-button-response","75","446089","0.0-75.0","A2UL93BXZ4EJ6G","img_art/7.jpg","2","","","","","","","","","","","","","","","","","","","","","","","","",""
"5433","","image-button-response","76","451524","0.0-76.0-0.0","A2UL93BXZ4EJ6G","img_art/7.jpg","5","","","","","","","","","","","","","","","","","","","","","","","","",""
"1852","","image-button-response","77","453378","0.0-77.0-0.0","A2UL93BXZ4EJ6G","img_art/7.jpg","0","","","","","","","","","","","","","","","","","","","","","","","","",""
"null","","html-keyboard-response","78","454888","0.0-78.0","A2UL93BXZ4EJ6G","<p style=""font-size: 48px;"">+</p>","","","","","null","allTrialResponses","1500","1","5","img_art/7.jpg","-50","I have no idea what is going on with the painting and it makes me feel weird","Jordan,Blake,Jason,Isaiah,Patrick,Spencer","Looks like a skin disease,-31,160,20","hot desert with big rocks.,-19,280,20","Boring  and lacks color,-11,20,20","I feel relaxed and a little nostalgic, like I'm exploring the wall of a very old building.,18,300,20","It feels cold and hard,-40,280,20","I love it, it looks like a landscape photograph in desert or rocky mountain,50,120,20","Jason","Boring  and lacks color,-11,20,20","Spencer","I love it, it looks like a landscape photograph in desert or rocky mountain,50,120,20","Jordan","Looks like a skin disease,-31,160,20","0"
"4642","","survey-text","79","459537","0.0-79.0-0.0","A2UL93BXZ4EJ6G","","","","{""Q0"":""sky""}","","","","","","","","","","","","","","","","","","","","","","",""
"15961","","survey-text","80","475498","0.0-80.0-0.0","A2UL93BXZ4EJ6G","","","","{""Q0"":""this painting reminds of a scene if I were to sit on a bench and people watch""}","","","","","","","","","","","","","","","","","","","","","","",""
"1989.7000000029802","","image-slider-response","81","477489","0.0-81.0","A2UL93BXZ4EJ6G","","","","","50","","","","","","","","","","","","","","","","","","","","","",""
"null","","image-button-response","82","482491","0.0-82.0","A2UL93BXZ4EJ6G","img_art/26.jpg","null","","","","","","","","","","","","","","","","","","","","","","","","",""
"491","","image-button-response","83","482983","0.0-83.0","A2UL93BXZ4EJ6G","img_art/26.jpg","0","","","","","","","","","","","","","","","","","","","","","","","","",""
"5970","","image-button-response","84","488954","0.0-84.0-0.0","A2UL93BXZ4EJ6G","img_art/26.jpg","5","","","","","","","","","","","","","","","","","","","","","","","","",""
"4247","","image-button-response","85","493202","0.0-85.0-0.0","A2UL93BXZ4EJ6G","img_art/26.jpg","1","","","","","","","","","","","","","","","","","","","","","","","","",""
"null","","html-keyboard-response","86","493703","0.0-86.0","A2UL93BXZ4EJ6G","<p style=""font-size: 48px;"">+</p>","","","","","null","allTrialResponses","500","1","6","img_art/26.jpg","50","this painting reminds of a scene if I were to sit on a bench and people watch","Jordan,Alexander,Jason,Mitchell,Miguel,Spencer","Reminds me of walks in my dads city when I was little,22,160,20","Confusing park picture.,8,120,20","The colors look faded and blurry,2,20,20","Incomplete, The artist painted his impression of somthing he was thinking of,0,180,20","Murky, messy, kid like.,-45,160,20","Really like it, a very nice neighborhood scene to me,42,120,20","Jordan","Reminds me of walks in my dads city when I was little,22,160,20","Spencer","Really like it, a very nice neighborhood scene to me,42,120,20","Alexander","Confusing park picture.,8,120,20","0"
"20841","","survey-text","87","514549","0.0-87.0-0.0","A2UL93BXZ4EJ6G","","","","{""Q0"":""I love the complexity and colors of this painting and how the colors gradually change into each other. ""}","","","","","","","","","","","","","","","","","","","","","","",""
"1827.8999999985099","","image-slider-response","88","516378","0.0-88.0","A2UL93BXZ4EJ6G","","","","","50","","","","","","","","","","","","","","","","","","","","","",""
"null","","image-button-response","89","521380","0.0-89.0","A2UL93BXZ4EJ6G","img_art/12.jpg","null","","","","","","","","","","","","","","","","","","","","","","","","",""
"591","","image-button-response","90","521972","0.0-90.0","A2UL93BXZ4EJ6G","img_art/12.jpg","2","","","","","","","","","","","","","","","","","","","","","","","","",""
"4304","","image-button-response","91","526278","0.0-91.0-0.0","A2UL93BXZ4EJ6G","img_art/12.jpg","5","","","","","","","","","","","","","","","","","","","","","","","","",""
"2406","","image-button-response","92","528685","0.0-92.0-0.0","A2UL93BXZ4EJ6G","img_art/12.jpg","0","","","","","","","","","","","","","","","","","","","","","","","","",""
"null","","html-keyboard-response","93","530198","0.0-93.0","A2UL93BXZ4EJ6G","<p style=""font-size: 48px;"">+</p>","","","","","null","allTrialResponses","1500","1","7","img_art/12.jpg","50","I love the complexity and colors of this painting and how the colors gradually change into each other. ","Jordan,Alexander,Benjamin,Jake,Elijah,Spencer","Made me uncomfortable, reminded me of the 90s,-9,160,20","Ugly color combinations, no focus.,-25,120,20","Like how all the colors seem to blend together.,15,260,20","It's strange looking and unappealing.,-4,360,20","It makes me feel confused,-15,80,20","Looks like a puzzle I want to put together, but not hang in my den,2,120,20","Benjamin","Like how all the colors seem to blend together.,15,260,20","Spencer","Looks like a puzzle I want to put together, but not hang in my den,2,120,20","Jordan","Made me uncomfortable, reminded me of the 90s,-9,160,20","0"
"16851","","survey-text","94","547053","0.0-94.0-0.0","A2UL93BXZ4EJ6G","","","","{""Q0"":""Looks like a bird that is perched on one leg. simple yet elegant ""}","","","","","","","","","","","","","","","","","","","","","","",""
"1917.8999999985099","","image-slider-response","95","548972","0.0-95.0","A2UL93BXZ4EJ6G","","","","","50","","","","","","","","","","","","","","","","","","","","","",""
"null","","image-button-response","96","553974","0.0-96.0","A2UL93BXZ4EJ6G","img_art/6.jpg","null","","","","","","","","","","","","","","","","","","","","","","","","",""
"666","","image-button-response","97","554641","0.0-97.0","A2UL93BXZ4EJ6G","img_art/6.jpg","4","","","","","","","","","","","","","","","","","","","","","","","","",""
"412","","image-button-response","98","555054","0.0-98.0-0.0","A2UL93BXZ4EJ6G","img_art/6.jpg","3","","","","","","","","","","","","","","","","","","","","","","","","",""
"1644","","image-button-response","99","556699","0.0-99.0-0.0","A2UL93BXZ4EJ6G","img_art/6.jpg","2","","","","","","","","","","","","","","","","","","","","","","","","",""
"null","","html-keyboard-response","100","557700","0.0-100.0","A2UL93BXZ4EJ6G","<p style=""font-size: 48px;"">+</p>","","","","","null","allTrialResponses","1000","1","8","img_art/6.jpg","50","Looks like a bird that is perched on one leg. simple yet elegant ","Jordan,Zachary,Benjamin,Malik,James,Spencer","This picture is weird,-6,160,20","Reminds me of a plant poking through the soil. It reminds me of new life.,31,400,20","Something very simplistic about it. The colors mesh well.,10,260,20","Lonesome in nature,13,40,20","Nice desert scene,10,380,20","Boring, looks like a sad tree in wind,-37,120,20","James","Nice desert scene,10,380,20","Malik","Lonesome in nature,13,40,20","Benjamin","Something very simplistic about it. The colors mesh well.,10,260,20","0"
"21443","","survey-text","101","579148","0.0-101.0-0.0","A2UL93BXZ4EJ6G","","","","{""Q0"":""I love how this art has so many colors that work well together in order to give it an earth vibe.""}","","","","","","","","","","","","","","","","","","","","","","",""
"1761.8999999985099","","image-slider-response","102","580911","0.0-102.0","A2UL93BXZ4EJ6G","","","","","50","","","","","","","","","","","","","","","","","","","","","",""
"null","","image-button-response","103","585913","0.0-103.0","A2UL93BXZ4EJ6G","img_art/14.jpg","null","","","","","","","","","","","","","","","","","","","","","","","","",""
"994","","image-button-response","104","586908","0.0-104.0","A2UL93BXZ4EJ6G","img_art/14.jpg","1","","","","","","","","","","","","","","","","","","","","","","","","",""
"7282","","image-button-response","105","594192","0.0-105.0-0.0","A2UL93BXZ4EJ6G","img_art/14.jpg","2","","","","","","","","","","","","","","","","","","","","","","","","",""
"422","","image-button-response","106","594615","0.0-106.0-0.0","A2UL93BXZ4EJ6G","img_art/14.jpg","0","","","","","","","","","","","","","","","","","","","","","","","","",""
"null","","html-keyboard-response","107","595122","0.0-107.0","A2UL93BXZ4EJ6G","<p style=""font-size: 48px;"">+</p>","","","","","null","allTrialResponses","500","1","9","img_art/14.jpg","50","I love how this art has so many colors that work well together in order to give it an earth vibe.","Stephen,Steven,Benjamin,Malik,James,Daniel","I'm a fan of the background.,13,140,20","this one isn't bad, reminds me a tree that gives life, and people are waiting for someone new to be born,27,160,20","Reminds me of the outdoors.,12,260,20","It's alright, something I'd see in a guest bedroom,10,40,20","It uses interesting techniques on this picture, but I have no feelings for or against.,1,380,20","Baby's room palette with tree confusion in a more confused substrate.,-15,320,20","Steven","this one isn't bad, reminds me a tree that gives life, and people are waiting for someone new to be born,27,160,20","Benjamin","Reminds me of the outdoors.,12,260,20","Stephen","I'm a fan of the background.,13,140,20","0"
"17560","","survey-text","108","612687","0.0-108.0-0.0","A2UL93BXZ4EJ6G","","","","{""Q0"":""This one gave me goosebumps to look at. Too dark for me""}","","","","","","","","","","","","","","","","","","","","","","",""
"1978","","image-slider-response","109","614666","0.0-109.0","A2UL93BXZ4EJ6G","","","","","-50","","","","","","","","","","","","","","","","","","","","","",""
"null","","image-button-response","110","619681","0.0-110.0","A2UL93BXZ4EJ6G","img_art/15.jpg","null","","","","","","","","","","","","","","","","","","","","","","","","",""
"1027","","image-button-response","111","620710","0.0-111.0","A2UL93BXZ4EJ6G","img_art/15.jpg","1","","","","","","","","","","","","","","","","","","","","","","","","",""
"2834","","image-button-response","112","623545","0.0-112.0-0.0","A2UL93BXZ4EJ6G","img_art/15.jpg","4","","","","","","","","","","","","","","","","","","","","","","","","",""
"484","","image-button-response","113","624030","0.0-113.0-0.0","A2UL93BXZ4EJ6G","img_art/15.jpg","3","","","","","","","","","","","","","","","","","","","","","","","","",""
"null","","html-keyboard-response","114","624533","0.0-114.0","A2UL93BXZ4EJ6G","<p style=""font-size: 48px;"">+</p>","","","","","null","allTrialResponses","500","1","10","img_art/15.jpg","-50","This one gave me goosebumps to look at. Too dark for me","Stephen,Steven,Benjamin,Gabriel,Nicholas,Ian","I like how the black and blue clash.,14,140,20","I'm just not into it,-5,160,20","Reminds me of blueberry bushes.,7,260,20","i kinda like this one but wouldnt buy it for myself,17,160,20","Not interesting enough. Boring,-37,240,20","This gives a skin crawling feeling. Like something that you could see under a mircoscope,10,260,20","Steven","I'm just not into it,-5,160,20","Nicholas","Not interesting enough. Boring,-37,240,20","Gabriel","i kinda like this one but wouldnt buy it for myself,17,160,20","0"
"3736","","survey-text","115","628279","0.0-115.0-0.0","A2UL93BXZ4EJ6G","","","","{""Q0"":""our""}","","","","","","","","","","","","","","","","","","","","","","",""
"28075","","survey-text","116","656354","0.0-116.0-0.0","A2UL93BXZ4EJ6G","","","","{""Q0"":""I like how this one reminds me of music and a guitar. almost looks like sheet music. ""}","","","","","","","","","","","","","","","","","","","","","","",""
"2739","","image-slider-response","117","659095","0.0-117.0","A2UL93BXZ4EJ6G","","","","","50","","","","","","","","","","","","","","","","","","","","","",""
"null","","image-button-response","118","664110","0.0-118.0","A2UL93BXZ4EJ6G","img_art/10.jpg","null","","","","","","","","","","","","","","","","","","","","","","","","",""
"2207","","image-button-response","119","666318","0.0-119.0","A2UL93BXZ4EJ6G","img_art/10.jpg","3","","","","","","","","","","","","","","","","","","","","","","","","",""
"3092","","image-button-response","120","669412","0.0-120.0-0.0","A2UL93BXZ4EJ6G","img_art/10.jpg","0","","","","","","","","","","","","","","","","","","","","","","","","",""
"1825","","image-button-response","121","671239","0.0-121.0-0.0","A2UL93BXZ4EJ6G","img_art/10.jpg","0","","","","","","","","","","","","","","","","","","","","","","","","",""
"716","","image-button-response","122","676032","0.0-121.1-0.1","A2UL93BXZ4EJ6G","img_art/10.jpg","4","","","","","","","","","","","","","","","","","","","","","","","","",""
"null","","html-keyboard-response","123","676533","0.0-122.0","A2UL93BXZ4EJ6G","<p style=""font-size: 48px;"">+</p>","","","","","null","allTrialResponses","500","1","11","img_art/10.jpg","50","I like how this one reminds me of music and a guitar. almost looks like sheet music. ","Jesus,Steven,Charles,Gabriel,Nicholas,Sean","The design is very fluid and fun to interpret,35,100,20","I dont like it, there is too much going on,-19,160,20","Also too all over the place, I don't see any pattern or anything that's supposed to stand out,-19,100,20","reminds me of a violin,9,160,20","I like it but do not love it. It is sort of depressing,13,240,20","I see a rollercoaster,23,40,20","Gabriel","reminds me of a violin,9,160,20","Jesus","The design is very fluid and fun to interpret,35,100,20","Nicholas","I like it but do not love it. It is sort of depressing,13,240,20","2"
"26294","","survey-text","124","702833","0.0-123.0-0.0","A2UL93BXZ4EJ6G","","","","{""Q0"":""This one looks like a woman is sleeping. Sleeping beauty is the first thing that came to my mind ""}","","","","","","","","","","","","","","","","","","","","","","",""
"1875.8999999985099","","image-slider-response","125","704710","0.0-124.0","A2UL93BXZ4EJ6G","","","","","50","","","","","","","","","","","","","","","","","","","","","",""
"null","","image-button-response","126","709712","0.0-125.0","A2UL93BXZ4EJ6G","img_art/9.jpg","null","","","","","","","","","","","","","","","","","","","","","","","","",""
"6881","","image-button-response","127","716594","0.0-126.0","A2UL93BXZ4EJ6G","img_art/9.jpg","1","","","","","","","","","","","","","","","","","","","","","","","","",""
"1585","","image-button-response","128","718180","0.0-127.0-0.0","A2UL93BXZ4EJ6G","img_art/9.jpg","5","","","","","","","","","","","","","","","","","","","","","","","","",""
"379","","image-button-response","129","718560","0.0-128.0-0.0","A2UL93BXZ4EJ6G","img_art/9.jpg","4","","","","","","","","","","","","","","","","","","","","","","","","",""
"null","","html-keyboard-response","130","719562","0.0-129.0","A2UL93BXZ4EJ6G","<p style=""font-size: 48px;"">+</p>","","","","","null","allTrialResponses","1000","1","12","img_art/9.jpg","50","This one looks like a woman is sleeping. Sleeping beauty is the first thing that came to my mind ","Jesus,Devin,Jesse,Gabriel,Nicholas,Kevin","I enjoy the design, but the colors look waxy,-7,100,20","I really like the colors and details.,8,380,20","The lack of concrete form kind of turns me off,-2,80,20","i like the colors but not the composition,-17,160,20","Some nice colors but i do not like it,-18,240,20","This is a picture of a scary mans head sideways.,-24,320,20","Devin","I really like the colors and details.,8,380,20","Kevin","This is a picture of a scary mans head sideways.,-24,320,20","Nicholas","Some nice colors but i do not like it,-18,240,20","2"
"26574","","survey-text","131","746141","0.0-130.0-0.0","A2UL93BXZ4EJ6G","","","","{""Q0"":""I am not a fan of this one. I would definitely skip it quickly if I were to see it anywhere in a museum or in public.""}","","","","","","","","","","","","","","","","","","","","","","",""
"2267.89999999851","","image-slider-response","132","748410","0.0-131.0","A2UL93BXZ4EJ6G","","","","","-50","","","","","","","","","","","","","","","","","","","","","",""
"null","","image-button-response","133","753421","0.0-132.0","A2UL93BXZ4EJ6G","img_art/16.jpg","null","","","","","","","","","","","","","","","","","","","","","","","","",""
"861","","image-button-response","134","754284","0.0-133.0","A2UL93BXZ4EJ6G","img_art/16.jpg","1","","","","","","","","","","","","","","","","","","","","","","","","",""
"1612","","image-button-response","135","755897","0.0-134.0-0.0","A2UL93BXZ4EJ6G","img_art/16.jpg","2","","","","","","","","","","","","","","","","","","","","","","","","",""
"1849","","image-button-response","136","757748","0.0-135.0-0.0","A2UL93BXZ4EJ6G","img_art/16.jpg","5","","","","","","","","","","","","","","","","","","","","","","","","",""
"null","","html-keyboard-response","137","759250","0.0-136.0","A2UL93BXZ4EJ6G","<p style=""font-size: 48px;"">+</p>","","","","","null","allTrialResponses","1500","1","13","img_art/16.jpg","-50","I am not a fan of this one. I would definitely skip it quickly if I were to see it anywhere in a museum or in public.","Ryan,Devin,Bryce,Timothy,Nicholas,Kevin","Very modern, reminds me of bansky,43,380,20","That bear looks unfitting!,-8,380,20","The teddy bear is scary as hell.,-44,20,20","This feels like images of a painful childhood,-50,240,20","Creepy teddybear,-50,240,20","Hmm i don't know what going on here.,1,320,20","Devin","That bear looks unfitting!,-8,380,20","Bryce","The teddy bear is scary as hell.,-44,20,20","Kevin","Hmm i don't know what going on here.,1,320,20","2"
"20696","","survey-text","138","779952","0.0-137.0-0.0","A2UL93BXZ4EJ6G","","","","{""Q0"":""This art piece is amazing tome. I love the color and how the black looks like the statue of liberty""}","","","","","","","","","","","","","","","","","","","","","","",""
"1978.7999999970198","","image-slider-response","139","781932","0.0-138.0","A2UL93BXZ4EJ6G","","","","","50","","","","","","","","","","","","","","","","","","","","","",""
"null","","image-button-response","140","786937","0.0-139.0","A2UL93BXZ4EJ6G","img_art/25.jpg","null","","","","","","","","","","","","","","","","","","","","","","","","",""
"1929","","image-button-response","141","788867","0.0-140.0","A2UL93BXZ4EJ6G","img_art/25.jpg","4","","","","","","","","","","","","","","","","","","","","","","","","",""
"2821","","image-button-response","142","791690","0.0-141.0-0.0","A2UL93BXZ4EJ6G","img_art/25.jpg","2","","","","","","","","","","","","","","","","","","","","","","","","",""
"3412","","image-button-response","143","795103","0.0-142.0-0.0","A2UL93BXZ4EJ6G","img_art/25.jpg","5","","","","","","","","","","","","","","","","","","","","","","","","",""
"null","","html-keyboard-response","144","796105","0.0-143.0","A2UL93BXZ4EJ6G","<p style=""font-size: 48px;"">+</p>","","","","","null","allTrialResponses","1000","1","14","img_art/25.jpg","50","This art piece is amazing tome. I love the color and how the black looks like the statue of liberty","Devon,Devin,Bryce,David,Christopher,Kevin","i feel a bit dull, a bit scared,-20,400,20","It looks a bit strange to me, neck too long,-19,380,20","I LOVE fhe scary skeleton.,28,20,20","Depicts something negative, such as ritual. I'm not a fan.,-10,340,20","green is really cool, and the pieces in black fit together and are interesting,20,160,20","That on i find a bit creapy.,-19,320,20","Christopher","green is really cool, and the pieces in black fit together and are interesting,20,160,20","Bryce","I LOVE fhe scary skeleton.,28,20,20","Kevin","That on i find a bit creapy.,-19,320,20","2"
"20449","","survey-text","145","816560","0.0-144.0-0.0","A2UL93BXZ4EJ6G","","","","{""Q0"":""This reminds me of the warm summer days that go into the cool nights. ""}","","","","","","","","","","","","","","","","","","","","","","",""
"2798","","image-slider-response","146","819359","0.0-145.0","A2UL93BXZ4EJ6G","","","","","50","","","","","","","","","","","","","","","","","","","","","",""
"null","","image-button-response","147","824362","0.0-146.0","A2UL93BXZ4EJ6G","img_art/22.jpg","null","","","","","","","","","","","","","","","","","","","","","","","","",""
"2863","","image-button-response","148","827227","0.0-147.0","A2UL93BXZ4EJ6G","img_art/22.jpg","1","","","","","","","","","","","","","","","","","","","","","","","","",""
"878","","image-button-response","149","828107","0.0-148.0-0.0","A2UL93BXZ4EJ6G","img_art/22.jpg","2","","","","","","","","","","","","","","","","","","","","","","","","",""
"1942","","image-button-response","150","830051","0.0-149.0-0.0","A2UL93BXZ4EJ6G","img_art/22.jpg","0","","","","","","","","","","","","","","","","","","","","","","","","",""
"null","","html-keyboard-response","151","830554","0.0-150.0","A2UL93BXZ4EJ6G","<p style=""font-size: 48px;"">+</p>","","","","","null","allTrialResponses","500","1","15","img_art/22.jpg","50","This reminds me of the warm summer days that go into the cool nights. ","Grant,Shane,Bryce,Adam,Christopher,Kevin","The way the colors seem to be reflected is a bit mesmerizing.,10,200,20","Sunsets at the beach,42,80,20","So colorful i love it!,22,20,20","Very generic mix of primary colors and shapes. Not a huge fan.,-10,40,20","boring, too many red and yellow tones for my taste,-15,160,20","Looks hot where ever that is.,-8,320,20","Shane","Sunsets at the beach,42,80,20","Bryce","So colorful i love it!,22,20,20","Grant","The way the colors seem to be reflected is a bit mesmerizing.,10,200,20","2"
"3650","","survey-text","152","834214","0.0-151.0-0.0","A2UL93BXZ4EJ6G","","","","{""Q0"":""course""}","","","","","","","","","","","","","","","","","","","","","","",""
"19166","","survey-text","153","853381","0.0-152.0-0.0","A2UL93BXZ4EJ6G","","","","{""Q0"":""This art piece is amazing and so intricate. I would love to have this in my house. ""}","","","","","","","","","","","","","","","","","","","","","","",""
"1799.1999999955297","","image-slider-response","154","855182","0.0-153.0","A2UL93BXZ4EJ6G","","","","","50","","","","","","","","","","","","","","","","","","","","","",""
"null","","image-button-response","155","860186","0.0-154.0","A2UL93BXZ4EJ6G","img_art/8.jpg","null","","","","","","","","","","","","","","","","","","","","","","","","",""
"394","","image-button-response","156","860581","0.0-155.0","A2UL93BXZ4EJ6G","img_art/8.jpg","5","","","","","","","","","","","","","","","","","","","","","","","","",""
"2869","","image-button-response","157","863452","0.0-156.0-0.0","A2UL93BXZ4EJ6G","img_art/8.jpg","4","","","","","","","","","","","","","","","","","","","","","","","","",""
"619","","image-button-response","158","864073","0.0-157.0-0.0","A2UL93BXZ4EJ6G","img_art/8.jpg","3","","","","","","","","","","","","","","","","","","","","","","","","",""
"null","","html-keyboard-response","159","865074","0.0-158.0","A2UL93BXZ4EJ6G","<p style=""font-size: 48px;"">+</p>","","","","","null","allTrialResponses","1000","1","16","img_art/8.jpg","50","This art piece is amazing and so intricate. I would love to have this in my house. ","Grant,Shane,Bryce,Derek,Caleb,Antonio","The stylized faces remind me of German expressionism in a very good way.,40,200,20","Ancient city looked after by diety,38,80,20","Its kinda like an optical illusion.,22,20,20","It's simply gorgeous. This artist is very talented,50,360,20","Despite the detail, this picture is very abstract!,31,40,20","I love the colors in it and also the faces and door ways. Made me feel hopeful,35,220,20","Antonio","I love the colors in it and also the faces and door ways. Made me feel hopeful,35,220,20","Caleb","Despite the detail, this picture is very abstract!,31,40,20","Derek","It's simply gorgeous. This artist is very talented,50,360,20","2"
"27072","","survey-text","160","892152","0.0-159.0-0.0","A2UL93BXZ4EJ6G","","","","{""Q0"":""The weird green squiggly marks throw me off but it makes the art piece look more playful. ""}","","","","","","","","","","","","","","","","","","","","","","",""
"2189.2000000029802","","image-slider-response","161","894343","0.0-160.0","A2UL93BXZ4EJ6G","","","","","50","","","","","","","","","","","","","","","","","","","","","",""
"null","","image-button-response","162","899345","0.0-161.0","A2UL93BXZ4EJ6G","img_art/27.jpg","null","","","","","","","","","","","","","","","","","","","","","","","","",""
"1440","","image-button-response","163","900787","0.0-162.0","A2UL93BXZ4EJ6G","img_art/27.jpg","1","","","","","","","","","","","","","","","","","","","","","","","","",""
"1891","","image-button-response","164","902680","0.0-163.0-0.0","A2UL93BXZ4EJ6G","img_art/27.jpg","3","","","","","","","","","","","","","","","","","","","","","","","","",""
"1645","","image-button-response","165","904327","0.0-164.0-0.0","A2UL93BXZ4EJ6G","img_art/27.jpg","0","","","","","","","","","","","","","","","","","","","","","","","","",""
"null","","html-keyboard-response","166","905328","0.0-165.0","A2UL93BXZ4EJ6G","<p style=""font-size: 48px;"">+</p>","","","","","null","allTrialResponses","1000","1","17","img_art/27.jpg","50","The weird green squiggly marks throw me off but it makes the art piece look more playful. ","Taylor,Cameron,Marcus,Derek,Caleb,Antonio","Looks like a child added his own interpretation with a black marker.,-5,200,20","Like it, autumn colors, trees and foliage scene.,25,60,20","It's okay. Not really interesting to me.,-10,60,20","I love the mood of this painting,30,360,20","An abstract piece with such lifeless colors.,-26,40,20","Didnt actually make me feel anything, sort of bland,3,220,20","Cameron","Like it, autumn colors, trees and foliage scene.,25,60,20","Derek","I love the mood of this painting,30,360,20","Taylor","Looks like a child added his own interpretation with a black marker.,-5,200,20","2"
"16605","","survey-text","167","921941","0.0-166.0-0.0","A2UL93BXZ4EJ6G","","","","{""Q0"":""This art piece reminds me of a street performer. ""}","","","","","","","","","","","","","","","","","","","","","","",""
"2140","","image-slider-response","168","924082","0.0-167.0","A2UL93BXZ4EJ6G","","","","","50","","","","","","","","","","","","","","","","","","","","","",""
"null","","image-button-response","169","929090","0.0-168.0","A2UL93BXZ4EJ6G","img_art/28.jpg","null","","","","","","","","","","","","","","","","","","","","","","","","",""
"2977","","image-button-response","170","932068","0.0-169.0","A2UL93BXZ4EJ6G","img_art/28.jpg","5","","","","","","","","","","","","","","","","","","","","","","","","",""
"2034","","image-button-response","171","934104","0.0-170.0-0.0","A2UL93BXZ4EJ6G","img_art/28.jpg","4","","","","","","","","","","","","","","","","","","","","","","","","",""
"1168","","image-button-response","172","935274","0.0-171.0-0.0","A2UL93BXZ4EJ6G","img_art/28.jpg","3","","","","","","","","","","","","","","","","","","","","","","","","",""
"null","","html-keyboard-response","173","935776","0.0-172.0","A2UL93BXZ4EJ6G","<p style=""font-size: 48px;"">+</p>","","","","","null","allTrialResponses","500","1","18","img_art/28.jpg","50","This art piece reminds me of a street performer. ","Taylor,Cameron,Chase,Derek,Garrett,Shawn","Bug meets bug in a dark alley.,-20,200,20","dislike the colors. it looks like a bike, but misshapen wheels like it was wrecked.,-10,60,20","I don't like the washed out colors.,-15,120,20","The colors are dull but there's some kind of nostalgic essence of this painting,15,360,20","I don't like the way the colors look; I think very disgusting colors were used.,-20,180,20","Evocative but a little dreary.,20,100,20","Shawn","Evocative but a little dreary.,20,100,20","Garrett","I don't like the way the colors look; I think very disgusting colors were used.,-20,180,20","Derek","The colors are dull but there's some kind of nostalgic essence of this painting,15,360,20","2"
"24470","","survey-text","174","960254","0.0-173.0-0.0","A2UL93BXZ4EJ6G","","","","{""Q0"":""The way the sweeping paint lines look give it a whimsical feel to it. I love it""}","","","","","","","","","","","","","","","","","","","","","","",""
"1792.7000000029802","","image-slider-response","175","962048","0.0-174.0","A2UL93BXZ4EJ6G","","","","","50","","","","","","","","","","","","","","","","","","","","","",""
"null","","image-button-response","176","967051","0.0-175.0","A2UL93BXZ4EJ6G","img_art/30.jpg","null","","","","","","","","","","","","","","","","","","","","","","","","",""
"501","","image-button-response","177","967554","0.0-176.0","A2UL93BXZ4EJ6G","img_art/30.jpg","3","","","","","","","","","","","","","","","","","","","","","","","","",""
"4273","","image-button-response","178","971829","0.0-177.0-0.0","A2UL93BXZ4EJ6G","img_art/30.jpg","2","","","","","","","","","","","","","","","","","","","","","","","","",""
"409","","image-button-response","179","972240","0.0-178.0-0.0","A2UL93BXZ4EJ6G","img_art/30.jpg","1","","","","","","","","","","","","","","","","","","","","","","","","",""
"null","","html-keyboard-response","180","973241","0.0-179.0","A2UL93BXZ4EJ6G","<p style=""font-size: 48px;"">+</p>","","","","","null","allTrialResponses","1000","1","19","img_art/30.jpg","50","The way the sweeping paint lines look give it a whimsical feel to it. I love it","Anthony,Alex,Richard,Derek,Garrett,Shawn","The color scheme used in this piece is very ugly.,-50,200,20","Don't like it at all, looks like a someone smeared paint with their fingers,-25,100,20","looks very childish, like your kid did it,-33,340,20","Looks quite basic but the colors are nice and there is a wildness about it that I love,0,360,20","I feel like the colors are too repetitive and not very eyecatching.,-20,180,20","Muddy, sloppy, unprofessional,-44,100,20","Derek","Looks quite basic but the colors are nice and there is a wildness about it that I love,0,360,20","Richard","looks very childish, like your kid did it,-33,340,20","Alex","Don't like it at all, looks like a someone smeared paint with their fingers,-25,100,20","2"
"28355","","survey-text","181","1001604","0.0-180.0-0.0","A2UL93BXZ4EJ6G","","","","{""Q0"":""I love how the colors contrast with one another. feels chaotic a little""}","","","","","","","","","","","","","","","","","","","","","","",""
"1555.7999999970198","","image-slider-response","182","1003161","0.0-181.0","A2UL93BXZ4EJ6G","","","","","50","","","","","","","","","","","","","","","","","","","","","",""
"null","","image-button-response","183","1008163","0.0-182.0","A2UL93BXZ4EJ6G","img_art/13.jpg","null","","","","","","","","","","","","","","","","","","","","","","","","",""
"2227","","image-button-response","184","1010392","0.0-183.0","A2UL93BXZ4EJ6G","img_art/13.jpg","1","","","","","","","","","","","","","","","","","","","","","","","","",""
"1770","","image-button-response","185","1012164","0.0-184.0-0.0","A2UL93BXZ4EJ6G","img_art/13.jpg","2","","","","","","","","","","","","","","","","","","","","","","","","",""
"1134","","image-button-response","186","1013300","0.0-185.0-0.0","A2UL93BXZ4EJ6G","img_art/13.jpg","0","","","","","","","","","","","","","","","","","","","","","","","","",""
"null","","html-keyboard-response","187","1014813","0.0-186.0","A2UL93BXZ4EJ6G","<p style=""font-size: 48px;"">+</p>","","","","","null","allTrialResponses","1500","1","20","img_art/13.jpg","50","I love how the colors contrast with one another. feels chaotic a little","Austin,Alex,Richard,Derek,Eric,Cody","Love the splash of colors,50,240,20","I like the blue colors and the symmetry and paint splatters but I would not hang it in my house,8,100,20","kind of like the pattern and colors but don't love it,13,340,20","This looks like a staple bedroom or bathroom piece,41,360,20","I love the style of this piece, but the color choice could've been more eye catching or calming.,40,100,20","It's pretty ...........,41,180,20","Alex","I like the blue colors and the symmetry and paint splatters but I would not hang it in my house,8,100,20","Richard","kind of like the pattern and colors but don't love it,13,340,20","Austin","Love the splash of colors,50,240,20","2"
"4102","","survey-text","188","1018928","0.0-187.0-0.0","A2UL93BXZ4EJ6G","","","","{""Q0"":""we""}","","","","","","","","","","","","","","","","","","","","","","",""
"11479","","survey-text","189","1030408","0.0-188.0-0.0","A2UL93BXZ4EJ6G","","","","{""Q0"":""looks like a murder scene""}","","","","","","","","","","","","","","","","","","","","","","",""
"2756.89999999851","","image-slider-response","190","1033166","0.0-189.0","A2UL93BXZ4EJ6G","","","","","-50","","","","","","","","","","","","","","","","","","","","","",""
"null","","image-button-response","191","1038168","0.0-190.0","A2UL93BXZ4EJ6G","img_art/3.jpg","null","","","","","","","","","","","","","","","","","","","","","","","","",""
"2382","","image-button-response","192","1040552","0.0-191.0","A2UL93BXZ4EJ6G","img_art/3.jpg","5","","","","","","","","","","","","","","","","","","","","","","","","",""
"1284","","image-button-response","193","1041837","0.0-192.0-0.0","A2UL93BXZ4EJ6G","img_art/3.jpg","0","","","","","","","","","","","","","","","","","","","","","","","","",""
"1033","","image-button-response","194","1042873","0.0-193.0-0.0","A2UL93BXZ4EJ6G","img_art/3.jpg","3","","","","","","","","","","","","","","","","","","","","","","","","",""
"null","","html-keyboard-response","195","1043874","0.0-194.0","A2UL93BXZ4EJ6G","<p style=""font-size: 48px;"">+</p>","","","","","null","allTrialResponses","1000","1","21","img_art/3.jpg","-50","looks like a murder scene","Austin,Alex,Richard,Nathaniel,Jeremy,Corey","It doesn't invoke any excitement,-21,240,20","Ok, just a bunch of red lines and a grey smudge. Would pass this right by in a gallery,-12,100,20","7th grade art, not much effort to do this.,-39,340,20","Just scribbles. People buy that?,-47,220,20","seems too angry,-50,60,20","seems distressing. a blood scene,-3,260,20","Corey","seems distressing. a blood scene,-3,260,20","Austin","It doesn't invoke any excitement,-21,240,20","Nathaniel","Just scribbles. People buy that?,-47,220,20","2"
"16419","","survey-text","196","1060301","0.0-195.0-0.0","A2UL93BXZ4EJ6G","","","","{""Q0"":""This art piece is very calming and could even be abstract""}","","","","","","","","","","","","","","","","","","","","","","",""
"2012.8000000044703","","image-slider-response","197","1062315","0.0-196.0","A2UL93BXZ4EJ6G","","","","","50","","","","","","","","","","","","","","","","","","","","","",""
"1821","","image-button-response","198","1067323","0.0-197.0","A2UL93BXZ4EJ6G","img_art/24.jpg","0","","","","","","","","","","","","","","","","","","","","","","","","",""
"656","","image-button-response","199","1067981","0.0-198.0","A2UL93BXZ4EJ6G","img_art/24.jpg","0","","","","","","","","","","","","","","","","","","","","","","","","",""
"2185","","image-button-response","200","1070168","0.0-199.0-0.0","A2UL93BXZ4EJ6G","img_art/24.jpg","5","","","","","","","","","","","","","","","","","","","","","","","","",""
"922","","image-button-response","201","1071092","0.0-200.0-0.0","A2UL93BXZ4EJ6G","img_art/24.jpg","3","","","","","","","","","","","","","","","","","","","","","","","","",""
"null","","html-keyboard-response","202","1071593","0.0-201.0","A2UL93BXZ4EJ6G","<p style=""font-size: 48px;"">+</p>","","","","","null","allTrialResponses","500","1","22","img_art/24.jpg","50","This art piece is very calming and could even be abstract","Austin,Trevor,Jack,Nathaniel,Bradley,Corey","Evokes pleasant feelings,50,240,20","I like how it looks like a waterfall in an exotic place,50,280,20","colors are a bit cramped together. really unique take on a waterfall though.,32,320,20","Feels surreal, in a way, and vibrant,37,220,20","Hmm. Don't know what to make of this one.,1,300,20","peaceful and serene but Im not the biggest landscape fan,4,260,20","Austin","Evokes pleasant feelings,50,240,20","Corey","peaceful and serene but Im not the biggest landscape fan,4,260,20","Nathaniel","Feels surreal, in a way, and vibrant,37,220,20","2"
"17228","","survey-text","203","1088830","0.0-202.0-0.0","A2UL93BXZ4EJ6G","","","","{""Q0"":""This piece reminds me of a sunset in the city. ""}","","","","","","","","","","","","","","","","","","","","","","",""
"1798.8999999985099","","image-slider-response","204","1090630","0.0-203.0","A2UL93BXZ4EJ6G","","","","","50","","","","","","","","","","","","","","","","","","","","","",""
"null","","image-button-response","205","1095632","0.0-204.0","A2UL93BXZ4EJ6G","img_art/21.jpg","null","","","","","","","","","","","","","","","","","","","","","","","","",""
"119","","image-button-response","206","1095752","0.0-205.0","A2UL93BXZ4EJ6G","img_art/21.jpg","5","","","","","","","","","","","","","","","","","","","","","","","","",""
"2474","","image-button-response","207","1098228","0.0-206.0-0.0","A2UL93BXZ4EJ6G","img_art/21.jpg","3","","","","","","","","","","","","","","","","","","","","","","","","",""
"910","","image-button-response","208","1099140","0.0-207.0-0.0","A2UL93BXZ4EJ6G","img_art/21.jpg","0","","","","","","","","","","","","","","","","","","","","","","","","",""
"null","","html-keyboard-response","209","1100641","0.0-208.0","A2UL93BXZ4EJ6G","<p style=""font-size: 48px;"">+</p>","","","","","null","allTrialResponses","1500","1","23","img_art/21.jpg","50","This piece reminds me of a sunset in the city. ","Austin,Jorge,Mark,Nathaniel,Lucas,Corey","Touches the heart,50,240,20","mythical between good and evil,16,180,20","It feels like a day at sea but the pink is slightly jarring and holding my eye.,26,80,20","Looks like two ships on fire. Cool image.,12,220,20","Looks like a war. Many things happening on the painting, really enjoy it.,30,380,20","i like the colors and the blending,17,260,20","Corey","i like the colors and the blending,17,260,20","Nathaniel","Looks like two ships on fire. Cool image.,12,220,20","Austin","Touches the heart,50,240,20","2"
"14173","","survey-text","210","1114822","0.0-209.0-0.0","A2UL93BXZ4EJ6G","","","","{""Q0"":""this gives me a feeling of incomplete ""}","","","","","","","","","","","","","","","","","","","","","","",""
"2367.8000000044703","","image-slider-response","211","1117191","0.0-210.0","A2UL93BXZ4EJ6G","","","","","-50","","","","","","","","","","","","","","","","","","","","","",""
"null","","image-button-response","212","1122193","0.0-211.0","A2UL93BXZ4EJ6G","img_art/5.jpg","null","","","","","","","","","","","","","","","","","","","","","","","","",""
"715","","image-button-response","213","1122909","0.0-212.0","A2UL93BXZ4EJ6G","img_art/5.jpg","2","","","","","","","","","","","","","","","","","","","","","","","","",""
"3283","","image-button-response","214","1126194","0.0-213.0-0.0","A2UL93BXZ4EJ6G","img_art/5.jpg","3","","","","","","","","","","","","","","","","","","","","","","","","",""
"693","","image-button-response","215","1126889","0.0-214.0-0.0","A2UL93BXZ4EJ6G","img_art/5.jpg","1","","","","","","","","","","","","","","","","","","","","","","","","",""
"null","","html-keyboard-response","216","1128390","0.0-215.0","A2UL93BXZ4EJ6G","<p style=""font-size: 48px;"">+</p>","","","","","null","allTrialResponses","1500","1","24","img_art/5.jpg","-50","this gives me a feeling of incomplete ","Austin,Travis,Nathan,Nathaniel,Joshua,Corey","Perfect for art exhibition,39,240,20","This was awful and it looked like someone took minimul effort with it... no time at all.,-49,260,20","Not a fan of the themes,-30,200,20","Not sure what that even is. Looks like a 2-year old drawing,-40,220,20","Very basic, but at least has some color to it.,-9,240,20","simple. love the color scheme,27,260,20","Nathan","Not a fan of the themes,-30,200,20","Nathaniel","Not sure what that even is. Looks like a 2-year old drawing,-40,220,20","Travis","This was awful and it looked like someone took minimul effort with it... no time at all.,-49,260,20","2"
"13510","","survey-text","217","1141907","0.0-216.0-0.0","A2UL93BXZ4EJ6G","","","","{""Q0"":""I love the colors and it makes me feel cozy inside. ""}","","","","","","","","","","","","","","","","","","","","","","",""
"1886.9000000059605","","image-slider-response","218","1143795","0.0-217.0","A2UL93BXZ4EJ6G","","","","","50","","","","","","","","","","","","","","","","","","","","","",""
"null","","image-button-response","219","1148810","0.0-218.0","A2UL93BXZ4EJ6G","img_art/1.jpg","null","","","","","","","","","","","","","","","","","","","","","","","","",""
"635","","image-button-response","220","1149446","0.0-219.0","A2UL93BXZ4EJ6G","img_art/1.jpg","0","","","","","","","","","","","","","","","","","","","","","","","","",""
"4234","","image-button-response","221","1153682","0.0-220.0-0.0","A2UL93BXZ4EJ6G","img_art/1.jpg","5","","","","","","","","","","","","","","","","","","","","","","","","",""
"1208","","image-button-response","222","1154891","0.0-221.0-0.0","A2UL93BXZ4EJ6G","img_art/1.jpg","3","","","","","","","","","","","","","","","","","","","","","","","","",""
"null","","html-keyboard-response","223","1156392","0.0-222.0","A2UL93BXZ4EJ6G","<p style=""font-size: 48px;"">+</p>","","","","","null","allTrialResponses","1500","1","25","img_art/1.jpg","50","I love the colors and it makes me feel cozy inside. ","Bryan,Travis,Nathan,Nathaniel,Kyle,Angel","Again, like the colors & abstractness.,29,400,20","I didn't like this too much...I didn't like the red and the jaggedness to it.,-29,260,20","Not a fan of the mood, overly party-ish and bright colors do not suit my taste,-40,200,20","A bit of a smokey mess, but it does have an air of mystery I like,7,220,20","Too similar to some of the other pieces,-18,340,20","For some reason this makes me want to go ice skating. It's whimsical and free but also very smooth.,20,180,20","Bryan","Again, like the colors & abstractness.,29,400,20","Angel","For some reason this makes me want to go ice skating. It's whimsical and free but also very smooth.,20,180,20","Nathaniel","A bit of a smokey mess, but it does have an air of mystery I like,7,220,20","2"
"3169","","survey-text","224","1159575","0.0-223.0-0.0","A2UL93BXZ4EJ6G","","","","{""Q0"":""table""}","","","","","","","","","","","","","","","","","","","","","","",""
"25265","","survey-text","225","1184841","0.0-224.0-0.0","A2UL93BXZ4EJ6G","","","","{""Q0"":""the textures and the lines in this painting are really eye catching and just makes you want to stare""}","","","","","","","","","","","","","","","","","","","","","","",""
"1684.8999999985099","","image-slider-response","226","1186527","0.0-225.0","A2UL93BXZ4EJ6G","","","","","50","","","","","","","","","","","","","","","","","","","","","",""
"null","","image-button-response","227","1191537","0.0-226.0","A2UL93BXZ4EJ6G","img_art/29.jpg","null","","","","","","","","","","","","","","","","","","","","","","","","",""
"639","","image-button-response","228","1192176","0.0-227.0","A2UL93BXZ4EJ6G","img_art/29.jpg","2","","","","","","","","","","","","","","","","","","","","","","","","",""
"4417","","image-button-response","229","1196594","0.0-228.0-0.0","A2UL93BXZ4EJ6G","img_art/29.jpg","1","","","","","","","","","","","","","","","","","","","","","","","","",""
"3250","","image-button-response","230","1199845","0.0-229.0-0.0","A2UL93BXZ4EJ6G","img_art/29.jpg","0","","","","","","","","","","","","","","","","","","","","","","","","",""
"null","","html-keyboard-response","231","1200846","0.0-230.0","A2UL93BXZ4EJ6G","<p style=""font-size: 48px;"">+</p>","","","","","null","allTrialResponses","1000","1","26","img_art/29.jpg","50","the textures and the lines in this painting are really eye catching and just makes you want to stare","Bryan,Carlos,Gregory,Nathaniel,Logan,Angel","Doesn't do much for me. I like some of the colors but not much else.,-10,400,20","It feels like looking through layers of frustration.,19,80,20","3D looks is really cool,30,220,20","Giant messy blob. Looks like it tries to be edgy, but fails.,-40,220,20","is this supposed to be edgy,-21,360,20","This piece feels gross. Makes me think of pollution/litter strewn across a dirty street.,-20,180,20","Gregory","3D looks is really cool,30,220,20","Carlos","It feels like looking through layers of frustration.,19,80,20","Bryan","Doesn't do much for me. I like some of the colors but not much else.,-10,400,20","2"
"19621","","survey-text","232","1220475","0.0-231.0-0.0","A2UL93BXZ4EJ6G","","","","{""Q0"":""This reminds me of a scene from a western with the cattle skull and building in the back""}","","","","","","","","","","","","","","","","","","","","","","",""
"1892.7999999970198","","image-slider-response","233","1222369","0.0-232.0","A2UL93BXZ4EJ6G","","","","","50","","","","","","","","","","","","","","","","","","","","","",""
"null","","image-button-response","234","1227371","0.0-233.0","A2UL93BXZ4EJ6G","img_art/20.jpg","null","","","","","","","","","","","","","","","","","","","","","","","","",""
"624","","image-button-response","235","1227997","0.0-234.0","A2UL93BXZ4EJ6G","img_art/20.jpg","3","","","","","","","","","","","","","","","","","","","","","","","","",""
"2223","","image-button-response","236","1230221","0.0-235.0-0.0","A2UL93BXZ4EJ6G","img_art/20.jpg","5","","","","","","","","","","","","","","","","","","","","","","","","",""
"2609","","image-button-response","237","1232831","0.0-236.0-0.0","A2UL93BXZ4EJ6G","img_art/20.jpg","0","","","","","","","","","","","","","","","","","","","","","","","","",""
"null","","html-keyboard-response","238","1233832","0.0-237.0","A2UL93BXZ4EJ6G","<p style=""font-size: 48px;"">+</p>","","","","","null","allTrialResponses","1000","1","27","img_art/20.jpg","50","This reminds me of a scene from a western with the cattle skull and building in the back","Bryan,Carlos,Gregory,Michael,Ethan,Andrew","Reminds me of Georgia O'Keefe.,11,400,20","It feels like it ""almost"" several things.,-10,80,20","Looks like some type of future dystopian civilization,35,220,20","Brings about an emotion response of dspair. Loose lines but yet has a cohesion.,8,140,20","I can tell this artist has experience. I just don't care for the color combo.,7,120,20","I just love this painting,47,160,20","Michael","Brings about an emotion response of dspair. Loose lines but yet has a cohesion.,8,140,20","Andrew","I just love this painting,47,160,20","Bryan","Reminds me of Georgia O'Keefe.,11,400,20","2"
"19182","","survey-text","239","1253022","0.0-238.0-0.0","A2UL93BXZ4EJ6G","","","","{""Q0"":""This piece reminds me a war and a soldier riding on a horse. ""}","","","","","","","","","","","","","","","","","","","","","","",""
"2220.2999999970198","","image-slider-response","240","1255243","0.0-239.0","A2UL93BXZ4EJ6G","","","","","50","","","","","","","","","","","","","","","","","","","","","",""
"null","","image-button-response","241","1260246","0.0-240.0","A2UL93BXZ4EJ6G","img_art/18.jpg","null","","","","","","","","","","","","","","","","","","","","","","","","",""
"1958","","image-button-response","242","1262206","0.0-241.0","A2UL93BXZ4EJ6G","img_art/18.jpg","4","","","","","","","","","","","","","","","","","","","","","","","","",""
"738","","image-button-response","243","1262946","0.0-242.0-0.0","A2UL93BXZ4EJ6G","img_art/18.jpg","3","","","","","","","","","","","","","","","","","","","","","","","","",""
"1648","","image-button-response","244","1264595","0.0-243.0-0.0","A2UL93BXZ4EJ6G","img_art/18.jpg","1","","","","","","","","","","","","","","","","","","","","","","","","",""
"null","","html-keyboard-response","245","1265597","0.0-244.0","A2UL93BXZ4EJ6G","<p style=""font-size: 48px;"">+</p>","","","","","null","allTrialResponses","1000","1","28","img_art/18.jpg","50","This piece reminds me a war and a soldier riding on a horse. ","Bryan,Jared,Juan,Michael,Colton,Andrew","First saw sailing ship in bad weather but then saw woman in upper left - not sure what I'm seeing.,21,400,20","it looks like people,9,400,20","Again, this is too abtract.,-25,260,20","Not my style but I can see some serious skill went int it.,21,140,20","reminds me of greek mythology,22,220,20","Another ominous painting,-10,160,20","Colton","reminds me of greek mythology,22,220,20","Michael","Not my style but I can see some serious skill went int it.,21,140,20","Jared","it looks like people,9,400,20","2"
"28410","","survey-text","246","1294017","0.0-245.0-0.0","A2UL93BXZ4EJ6G","","","","{""Q0"":""Looks like a plant. The colors are very boring""}","","","","","","","","","","","","","","","","","","","","","","",""
"1664.8000000044703","","image-slider-response","247","1295683","0.0-246.0","A2UL93BXZ4EJ6G","","","","","-50","","","","","","","","","","","","","","","","","","","","","",""
"null","","image-button-response","248","1300685","0.0-247.0","A2UL93BXZ4EJ6G","img_art/4.jpg","null","","","","","","","","","","","","","","","","","","","","","","","","",""
"717","","image-button-response","249","1301404","0.0-248.0","A2UL93BXZ4EJ6G","img_art/4.jpg","4","","","","","","","","","","","","","","","","","","","","","","","","",""
"1263","","image-button-response","250","1302668","0.0-249.0-0.0","A2UL93BXZ4EJ6G","img_art/4.jpg","1","","","","","","","","","","","","","","","","","","","","","","","","",""
"401","","image-button-response","251","1303072","0.0-250.0-0.0","A2UL93BXZ4EJ6G","img_art/4.jpg","2","","","","","","","","","","","","","","","","","","","","","","","","",""
"null","","html-keyboard-response","252","1303573","0.0-251.0","A2UL93BXZ4EJ6G","<p style=""font-size: 48px;"">+</p>","","","","","null","allTrialResponses","500","1","29","img_art/4.jpg","-50","Looks like a plant. The colors are very boring","Cole,Jared,Dylan,Michael,Colton,Hunter","Fingerpaint of a hand?,-30,200,20","it looks like a deformed hand,-9,400,20","This artwork looks like a child did it,-41,40,20","Looks like a child did it.,-42,140,20","I really don't like the colors,-26,220,20","appealing warm palette,6,240,20","Colton","I really don't like the colors,-26,220,20","Jared","it looks like a deformed hand,-9,400,20","Dylan","This artwork looks like a child did it,-41,40,20","2"
"16953","","survey-text","253","1320534","0.0-252.0-0.0","A2UL93BXZ4EJ6G","","","","{""Q0"":""This artwork looks like someone painted a frog and then threw all kinds of color on it. ""}","","","","","","","","","","","","","","","","","","","","","","",""
"2417.8000000044703","","image-slider-response","254","1322953","0.0-253.0","A2UL93BXZ4EJ6G","","","","","-50","","","","","","","","","","","","","","","","","","","","","",""
"null","","image-button-response","255","1327966","0.0-254.0","A2UL93BXZ4EJ6G","img_art/2.jpg","null","","","","","","","","","","","","","","","","","","","","","","","","",""
"494","","image-button-response","256","1328460","0.0-255.0","A2UL93BXZ4EJ6G","img_art/2.jpg","0","","","","","","","","","","","","","","","","","","","","","","","","",""
"3226","","image-button-response","257","1331687","0.0-256.0-0.0","A2UL93BXZ4EJ6G","img_art/2.jpg","3","","","","","","","","","","","","","","","","","","","","","","","","",""
"696","","image-button-response","258","1332385","0.0-257.0-0.0","A2UL93BXZ4EJ6G","img_art/2.jpg","4","","","","","","","","","","","","","","","","","","","","","","","","",""
"null","","html-keyboard-response","259","1333894","0.0-258.0","A2UL93BXZ4EJ6G","<p style=""font-size: 48px;"">+</p>","","","","","null","allTrialResponses","1500","1","30","img_art/2.jpg","-50","This artwork looks like someone painted a frog and then threw all kinds of color on it. ","Matthew,Jared,Dylan,Justin,Colton,Noah","I think I can make out a face in there.,25,120,20","looks like a happy child,15,400,20","This is ugly- too plain and busy at the same time,-9,40,20","This one feels rather flat and not engaging.,-15,280,20","too blocky and don't like color combination,-32,220,20","again, I struggle to see the art and I dislike the green in particular.,-31,260,20","Matthew","I think I can make out a face in there.,25,120,20","Justin","This one feels rather flat and not engaging.,-15,280,20","Colton","too blocky and don't like color combination,-32,220,20","2"
"5980","","image-button-response_instructions","260","1339883","0.0-259.0","A2UL93BXZ4EJ6G","","0","instructions","","","","","","","","","","","","","","","","","","","","","","","",""
"1010","","image-button-response","261","1340902","0.0-260.0","A2UL93BXZ4EJ6G","","0","","","","","","","","","","","","","","","","","","","","","","","","",""
