"rt","url","trial_type","trial_index","time_elapsed","internal_node_id","participant_id","stimulus","button_pressed","Name","responses","response","key_press","variableName","fixationTime","condition","trial","photo","subjectRating","subjectResponse","agentsNames","agent_1_Response","agent_2_Response","agent_3_Response","agent_4_Response","agent_5_Response","agent_6_Response","kept_1_name","kept_1_response","kept_2_name","kept_2_response","kept_3_name","kept_3_response","errorCounter"
"13156","external_page_harvard.html","external-html","0","13238","0.0-0.0","A2V3TUCFVUAKOM","","","","","","","","","","","","","","","","","","","","","","","","","","",""
"2039","","image-button-response","1","15279","0.0-1.0","A2V3TUCFVUAKOM","","1","","","","","","","","","","","","","","","","","","","","","","","","",""
"4569","","image-button-response","2","19855","0.0-2.0-0.0","A2V3TUCFVUAKOM","","1","phone","","","","","","","","","","","","","","","","","","","","","","","",""
"11616","","survey-text","3","31472","0.0-3.0-0.0","A2V3TUCFVUAKOM","","","","{""Q0"":""A2V3TUCFVUAKOM""}","","","","","","","","","","","","","","","","","","","","","","",""
"9565","","image-button-response_instructions","4","41039","0.0-4.0","A2V3TUCFVUAKOM","","0","instructions","","","","","","","","","","","","","","","","","","","","","","","",""
"21","","image-button-response_instructions","5","41062","0.0-5.0","A2V3TUCFVUAKOM","img_art/ins/popularity/ins1.png","0","instructions","","","","","","","","","","","","","","","","","","","","","","","",""
"9556","","image-button-response_instructions","6","50619","0.0-6.0","A2V3TUCFVUAKOM","img_art/ins/popularity/ins2.png","0","instructions","","","","","","","","","","","","","","","","","","","","","","","",""
"16132","","image-button-response_instructions","7","66753","0.0-7.0","A2V3TUCFVUAKOM","img_art/ins/popularity/ins2Extreme.png","0","instructions","","","","","","","","","","","","","","","","","","","","","","","",""
"8093","","image-button-response_instructions","8","74848","0.0-8.0","A2V3TUCFVUAKOM","img_art/ins/popularity/ins3KEEPpop.PNG","0","instructions","","","","","","","","","","","","","","","","","","","","","","","",""
"7961","","image-button-response_instructions","9","82811","0.0-9.0","A2V3TUCFVUAKOM","img_art/ins/popularity/ins3ANamepop.PNG","0","instructions","","","","","","","","","","","","","","","","","","","","","","","",""
"4595","","image-button-response_instructions","10","87407","0.0-10.0","A2V3TUCFVUAKOM","img_art/ins/popularity/ins3ARatingpop.png","0","instructions","","","","","","","","","","","","","","","","","","","","","","","",""
"8082","","image-button-response_instructions","11","95490","0.0-11.0","A2V3TUCFVUAKOM","img_art/ins/popularity/ins3ATextpop.png","0","instructions","","","","","","","","","","","","","","","","","","","","","","","",""
"15317","","image-button-response_instructions","12","110809","0.0-12.0","A2V3TUCFVUAKOM","img_art/ins/popularity/ins3ALikespop.png","0","instructions","","","","","","","","","","","","","","","","","","","","","","","",""
"17492","","image-button-response_instructions","13","128303","0.0-13.0","A2V3TUCFVUAKOM","img_art/ins/popularity/ins3KEEPpop.PNG","0","instructions","","","","","","","","","","","","","","","","","","","","","","","",""
"15230","","image-button-response_instructions","14","143534","0.0-14.0","A2V3TUCFVUAKOM","img_art/ins/popularity/ins3_5RED.png","0","instructions","","","","","","","","","","","","","","","","","","","","","","","",""
"8556","","image-button-response_instructions","15","152093","0.0-15.0","A2V3TUCFVUAKOM","img_art/ins/popularity/ins3KEEPpop.PNG","0","instructions","","","","","","","","","","","","","","","","","","","","","","","",""
"14659","","image-button-response_instructions","16","166753","0.0-16.0","A2V3TUCFVUAKOM","img_art/ins/popularity/ins4KEEPpop.PNG","0","instructions","","","","","","","","","","","","","","","","","","","","","","","",""
"8123","","image-button-response_instructions","17","174876","0.0-17.0","A2V3TUCFVUAKOM","img_art/ins/popularity/ins5KEEPpop.PNG","0","instructions","","","","","","","","","","","","","","","","","","","","","","","",""
"2420","","image-button-response_instructions","18","177298","0.0-18.0","A2V3TUCFVUAKOM","","0","instructions","","","","","","","","","","","","","","","","","","","","","","","",""
"8673","","survey-text","19","185997","0.0-19.0-0.0","A2V3TUCFVUAKOM","","","","{""Q0"":""but""}","","","","","","","","","","","","","","","","","","","","","","",""
"28160","","survey-text","20","214162","0.0-20.0-0.0","A2V3TUCFVUAKOM","","","","{""Q0"":""The colors are soothing. ""}","","","","","","","","","","","","","","","","","","","","","","",""
"6270.399999976158","","image-slider-response","21","220436","0.0-21.0","A2V3TUCFVUAKOM","","","","","22","","","","","","","","","","","","","","","","","","","","","",""
"null","","image-button-response","22","225441","0.0-22.0","A2V3TUCFVUAKOM","img_art/ins/1.jpg","null","","","","","","","","","","","","","","","","","","","","","","","","",""
"16393","","image-button-response","23","241837","0.0-23.0","A2V3TUCFVUAKOM","img_art/ins/1.jpg","0","","","","","","","","","","","","","","","","","","","","","","","","",""
"10418","","image-button-response","24","252258","0.0-24.0-0.0","A2V3TUCFVUAKOM","img_art/ins/1.jpg","4","","","","","","","","","","","","","","","","","","","","","","","","",""
"3642","","image-button-response","25","255902","0.0-25.0-0.0","A2V3TUCFVUAKOM","img_art/ins/1.jpg","5","","","","","","","","","","","","","","","","","","","","","","","","",""
"null","","html-keyboard-response","26","256914","0.0-26.0","A2V3TUCFVUAKOM","<p style=""font-size: 48px;"">+</p>","","","","","null","allTrialResponses","1000","1","-2","img_art/ins/1.jpg","22","The colors are soothing. ","Allison,Ashley,Beth,Dora,Erika,Jen","looks like a lot of things going on in the mist,20,20,20","I just don't get why these type of art would be popular,-32,40,20","This color reminds me of poo,-46,60,20","looks like what my niece in 3rd grade did this afternoon,-50,80,20","I like the sophisticated brushwork,40,100,20","It reminds me of a candy land dream I had,36,120,20","Allison","looks like a lot of things going on in the mist,20,20,20","Erika","I like the sophisticated brushwork,40,100,20","Jen","It reminds me of a candy land dream I had,36,120,20","0"
"33608","","survey-text","27","290529","0.0-27.0-0.0","A2V3TUCFVUAKOM","","","","{""Q0"":""It reminds me of a dark alley.""}","","","","","","","","","","","","","","","","","","","","","","",""
"5321","","image-slider-response","28","295852","0.0-28.0","A2V3TUCFVUAKOM","","","","","15","","","","","","","","","","","","","","","","","","","","","",""
"4948","","image-button-response","29","300866","0.0-29.0","A2V3TUCFVUAKOM","img_art/ins/2.jpg","1","","","","","","","","","","","","","","","","","","","","","","","","",""
"1765","","image-button-response","30","302635","0.0-30.0","A2V3TUCFVUAKOM","img_art/ins/2.jpg","1","","","","","","","","","","","","","","","","","","","","","","","","",""
"19272","","image-button-response","31","321910","0.0-31.0-0.0","A2V3TUCFVUAKOM","img_art/ins/2.jpg","5","","","","","","","","","","","","","","","","","","","","","","","","",""
"5057","","image-button-response","32","326970","0.0-32.0-0.0","A2V3TUCFVUAKOM","img_art/ins/2.jpg","4","","","","","","","","","","","","","","","","","","","","","","","","",""
"null","","html-keyboard-response","33","327476","0.0-33.0","A2V3TUCFVUAKOM","<p style=""font-size: 48px;"">+</p>","","","","","null","allTrialResponses","500","1","-1","img_art/ins/2.jpg","15","It reminds me of a dark alley.","Allison,Kara,Katie,Jenna,Erika,Jen","I don't have strong feelings about this,10,20,20","I like the blocks of color arrangements,30,160,20","too much color!,-28,180,20","One of my pet peevs,-48,140,20","I would never be able to compose a sophisticated pallete like this,48,100,20","It reminds me of a fireplace,36,120,20","Kara","I like the blocks of color arrangements,30,160,20","Jen","It reminds me of a fireplace,36,120,20","Erika","I would never be able to compose a sophisticated pallete like this,48,100,20","0"
"12924","","survey-text","34","340405","0.0-34.0-0.0","A2V3TUCFVUAKOM","","","","{""Q0"":""It looks like snow and ice. ""}","","","","","","","","","","","","","","","","","","","","","","",""
"77311.69999992847","","image-slider-response","35","417721","0.0-35.0","A2V3TUCFVUAKOM","","","","","14","","","","","","","","","","","","","","","","","","","","","",""
"3858","","image-button-response","36","422737","0.0-36.0","A2V3TUCFVUAKOM","img_art/ins/3.jpg","1","","","","","","","","","","","","","","","","","","","","","","","","",""
"1068","","image-button-response","37","423808","0.0-37.0","A2V3TUCFVUAKOM","img_art/ins/3.jpg","1","","","","","","","","","","","","","","","","","","","","","","","","",""
"4037","","image-button-response","38","427848","0.0-38.0-0.0","A2V3TUCFVUAKOM","img_art/ins/3.jpg","5","","","","","","","","","","","","","","","","","","","","","","","","",""
"10158","","image-button-response","39","438009","0.0-39.0-0.0","A2V3TUCFVUAKOM","img_art/ins/3.jpg","4","","","","","","","","","","","","","","","","","","","","","","","","",""
"null","","html-keyboard-response","40","439012","0.0-40.0","A2V3TUCFVUAKOM","<p style=""font-size: 48px;"">+</p>","","","","","null","allTrialResponses","1000","1","0","img_art/ins/3.jpg","14","It looks like snow and ice. ","Mary,Kara,Rose,Leslie,Erika,Jen","I like the overlapping of brushes,41,220,20","calming blue is very nice,36,160,20","My daily routine, it's depressing,-20,240,20","It's an alright work,15,200,20","I feel connected to the artist,40,100,20","I can feel a rainy day from this painting,18,120,20","Kara","calming blue is very nice,36,160,20","Jen","I can feel a rainy day from this painting,18,120,20","Erika","I feel connected to the artist,40,100,20","0"
"9515","","image-button-response_instructions","41","448534","0.0-41.0","A2V3TUCFVUAKOM","","0","instructions","","","","","","","","","","","","","","","","","","","","","","","",""
"12497","","survey-likert","42","461032","0.0-42.0-0.0","A2V3TUCFVUAKOM","","","","{""Q0"":"""",""Q1"":0,""Q2"":1}","","","","","","","","","","","","","","","","","","","","","","",""
"6146","","survey-text","43","467186","0.0-43.0-0.0","A2V3TUCFVUAKOM","","","","{""Q0"":""rock""}","","","","","","","","","","","","","","","","","","","","","","",""
"18440","","survey-text","44","485629","0.0-44.0-0.0","A2V3TUCFVUAKOM","","","","{""Q0"":""It looks like a day in the park.""}","","","","","","","","","","","","","","","","","","","","","","",""
"4777","","image-slider-response","45","490408","0.0-45.0","A2V3TUCFVUAKOM","","","","","17","","","","","","","","","","","","","","","","","","","","","",""
"null","","image-button-response","46","495449","0.0-46.0","A2V3TUCFVUAKOM","img_art/2.jpg","null","","","","","","","","","","","","","","","","","","","","","","","","",""
"6001","","image-button-response","47","501452","0.0-47.0","A2V3TUCFVUAKOM","img_art/2.jpg","5","","","","","","","","","","","","","","","","","","","","","","","","",""
"3591","","image-button-response","48","505045","0.0-48.0-0.0","A2V3TUCFVUAKOM","img_art/2.jpg","2","","","","","","","","","","","","","","","","","","","","","","","","",""
"5370","","image-button-response","49","510418","0.0-49.0-0.0","A2V3TUCFVUAKOM","img_art/2.jpg","1","","","","","","","","","","","","","","","","","","","","","","","","",""
"null","","html-keyboard-response","50","510924","0.0-50.0","A2V3TUCFVUAKOM","<p style=""font-size: 48px;"">+</p>","","","","","null","allTrialResponses","500","1","1","img_art/2.jpg","17","It looks like a day in the park.","Jacqueline,Alexandria,Amanda,Savannah,Jasmine,Abigail","A bit ugly with the greens.,-20,300,20","too abstract and confusing,-19,80,20","Very simple and childish,40,180,20","Very gross colors. What were they thinking?,-47,200,20","Color picks are a bad mesh with each other,-17,340,20","Reminds me of my baby brother,11,20,20","Abigail","Reminds me of my baby brother,11,20,20","Amanda","Very simple and childish,40,180,20","Alexandria","too abstract and confusing,-19,80,20","0"
"12714","","survey-text","51","523643","0.0-51.0-0.0","A2V3TUCFVUAKOM","","","","{""Q0"":""It looks like a bird sitting on a fence. ""}","","","","","","","","","","","","","","","","","","","","","","",""
"5064.899999976158","","image-slider-response","52","528711","0.0-52.0","A2V3TUCFVUAKOM","","","","","30","","","","","","","","","","","","","","","","","","","","","",""
"2942","","image-button-response","53","533715","0.0-53.0","A2V3TUCFVUAKOM","img_art/6.jpg","1","","","","","","","","","","","","","","","","","","","","","","","","",""
"5884","","image-button-response","54","539602","0.0-54.0","A2V3TUCFVUAKOM","img_art/6.jpg","3","","","","","","","","","","","","","","","","","","","","","","","","",""
"8137","","image-button-response","55","547740","0.0-55.0-0.0","A2V3TUCFVUAKOM","img_art/6.jpg","1","","","","","","","","","","","","","","","","","","","","","","","","",""
"1123","","image-button-response","56","548866","0.0-56.0-0.0","A2V3TUCFVUAKOM","img_art/6.jpg","4","","","","","","","","","","","","","","","","","","","","","","","","",""
"null","","html-keyboard-response","57","549376","0.0-57.0","A2V3TUCFVUAKOM","<p style=""font-size: 48px;"">+</p>","","","","","null","allTrialResponses","500","1","2","img_art/6.jpg","30","It looks like a bird sitting on a fence. ","Leah,Alexandria,Amanda,Tiffany,Leslie,Abigail","Boring, looks like a sad tree in wind,-37,360,20","i like it but it is very neutral,9,80,20","Makes me feel lonely,-22,180,20","The painting makes me happy. Like I'm looking at a little bird.,6,360,20","The limited colors make me feel lonely.,36,380,20","This picture is weird,-6,20,20","Tiffany","The painting makes me happy. Like I'm looking at a little bird.,6,360,20","Alexandria","i like it but it is very neutral,9,80,20","Leslie","The limited colors make me feel lonely.,36,380,20","0"
"14854","","survey-text","58","564236","0.0-58.0-0.0","A2V3TUCFVUAKOM","","","","{""Q0"":""Looks like a busy little town. It's a little gloomy. ""}","","","","","","","","","","","","","","","","","","","","","","",""
"4624.299999952316","","image-slider-response","59","568862","0.0-59.0","A2V3TUCFVUAKOM","","","","","4","","","","","","","","","","","","","","","","","","","","","",""
"null","","image-button-response","60","573872","0.0-60.0","A2V3TUCFVUAKOM","img_art/11.jpg","null","","","","","","","","","","","","","","","","","","","","","","","","",""
"3494","","image-button-response","61","577370","0.0-61.0","A2V3TUCFVUAKOM","img_art/11.jpg","4","","","","","","","","","","","","","","","","","","","","","","","","",""
"2194","","image-button-response","62","579566","0.0-62.0-0.0","A2V3TUCFVUAKOM","img_art/11.jpg","5","","","","","","","","","","","","","","","","","","","","","","","","",""
"5616","","image-button-response","63","585185","0.0-63.0-0.0","A2V3TUCFVUAKOM","img_art/11.jpg","0","","","","","","","","","","","","","","","","","","","","","","","","",""
"null","","html-keyboard-response","64","586188","0.0-64.0","A2V3TUCFVUAKOM","<p style=""font-size: 48px;"">+</p>","","","","","null","allTrialResponses","1000","1","3","img_art/11.jpg","4","Looks like a busy little town. It's a little gloomy. ","Jordan,Alexandria,Emily,Tiffany,Leslie,Madeline","Oh, I love this one, it says to me that life is very busy,50,20,20","it reminds me of music,43,80,20","It's kind of cool and I see it looks clean.,22,40,20","I feel excited, like I'm in the middle of a bustling city.,26,360,20","This elicits no reaction in me.,0,380,20","I like the vibe of the painting,-3,40,20","Leslie","This elicits no reaction in me.,0,380,20","Madeline","I like the vibe of the painting,-3,40,20","Jordan","Oh, I love this one, it says to me that life is very busy,50,20,20","0"
"14347","","survey-text","65","600540","0.0-65.0-0.0","A2V3TUCFVUAKOM","","","","{""Q0"":""It looks like a quiet little street. ""}","","","","","","","","","","","","","","","","","","","","","","",""
"4545.200000047684","","image-slider-response","66","605087","0.0-66.0","A2V3TUCFVUAKOM","","","","","12","","","","","","","","","","","","","","","","","","","","","",""
"null","","image-button-response","67","610091","0.0-67.0","A2V3TUCFVUAKOM","img_art/26.jpg","null","","","","","","","","","","","","","","","","","","","","","","","","",""
"1017","","image-button-response","68","611110","0.0-68.0","A2V3TUCFVUAKOM","img_art/26.jpg","0","","","","","","","","","","","","","","","","","","","","","","","","",""
"1071","","image-button-response","69","612183","0.0-69.0-0.0","A2V3TUCFVUAKOM","img_art/26.jpg","1","","","","","","","","","","","","","","","","","","","","","","","","",""
"3829","","image-button-response","70","616014","0.0-70.0-0.0","A2V3TUCFVUAKOM","img_art/26.jpg","4","","","","","","","","","","","","","","","","","","","","","","","","",""
"null","","html-keyboard-response","71","617024","0.0-71.0","A2V3TUCFVUAKOM","<p style=""font-size: 48px;"">+</p>","","","","","null","allTrialResponses","1000","1","4","img_art/26.jpg","12","It looks like a quiet little street. ","Jordan,Olivia,Danielle,Shelby,Leslie,Madeline","This one is nicer, looks like a walk in a small, dreamy city,20,20,20","reminds me of a hometown,7,40,20","It's a little too yellow-y for me, I'm not a huge fan of the color schemes or setting it portrays.,-20,340,20","Very pleasent little scene,40,240,20","It's a cute city scene. I like the trees.,10,380,20","I like the shapes but needs more detail i think,3,40,20","Jordan","This one is nicer, looks like a walk in a small, dreamy city,20,20,20","Olivia","reminds me of a hometown,7,40,20","Leslie","It's a cute city scene. I like the trees.,10,380,20","0"
"7216","","survey-text","72","624246","0.0-72.0-0.0","A2V3TUCFVUAKOM","","","","{""Q0"":""It reminds me of the moon. ""}","","","","","","","","","","","","","","","","","","","","","","",""
"3894.0999999046326","","image-slider-response","73","628142","0.0-73.0","A2V3TUCFVUAKOM","","","","","5","","","","","","","","","","","","","","","","","","","","","",""
"2515","","image-button-response","74","633153","0.0-74.0","A2V3TUCFVUAKOM","img_art/7.jpg","0","","","","","","","","","","","","","","","","","","","","","","","","",""
"997","","image-button-response","75","634153","0.0-75.0","A2V3TUCFVUAKOM","img_art/7.jpg","0","","","","","","","","","","","","","","","","","","","","","","","","",""
"3824","","image-button-response","76","637979","0.0-76.0-0.0","A2V3TUCFVUAKOM","img_art/7.jpg","4","","","","","","","","","","","","","","","","","","","","","","","","",""
"2691","","image-button-response","77","640673","0.0-77.0-0.0","A2V3TUCFVUAKOM","img_art/7.jpg","5","","","","","","","","","","","","","","","","","","","","","","","","",""
"null","","html-keyboard-response","78","642174","0.0-78.0","A2V3TUCFVUAKOM","<p style=""font-size: 48px;"">+</p>","","","","","null","allTrialResponses","1500","1","5","img_art/7.jpg","5","It reminds me of the moon. ","Jordan,Olivia,Katelyn,Courtney,Leslie,Anna","looks like the surface of the moon.,1,20,20","looking down on earth,19,40,20","Makes me think of the beach which makes me happy,14,100,20","That a desert floor,16,280,20","This elicits no reaction in me.,0,380,20","It's kind of ugly but I like the texture.,10,300,20","Jordan","looks like the surface of the moon.,1,20,20","Leslie","This elicits no reaction in me.,0,380,20","Anna","It's kind of ugly but I like the texture.,10,300,20","0"
"2818","","survey-text","79","645008","0.0-79.0-0.0","A2V3TUCFVUAKOM","","","","{""Q0"":""sky""}","","","","","","","","","","","","","","","","","","","","","","",""
"36453","","survey-text","80","681464","0.0-80.0-0.0","A2V3TUCFVUAKOM","","","","{""Q0"":""Looks like a lady laying down. ""}","","","","","","","","","","","","","","","","","","","","","","",""
"9437.600000023842","","image-slider-response","81","690904","0.0-81.0","A2V3TUCFVUAKOM","","","","","1","","","","","","","","","","","","","","","","","","","","","",""
"null","","image-button-response","82","695918","0.0-82.0","A2V3TUCFVUAKOM","img_art/9.jpg","null","","","","","","","","","","","","","","","","","","","","","","","","",""
"590","","image-button-response","83","696512","0.0-83.0","A2V3TUCFVUAKOM","img_art/9.jpg","4","","","","","","","","","","","","","","","","","","","","","","","","",""
"4411","","image-button-response","84","700926","0.0-84.0-0.0","A2V3TUCFVUAKOM","img_art/9.jpg","3","","","","","","","","","","","","","","","","","","","","","","","","",""
"5531","","image-button-response","85","706461","0.0-85.0-0.0","A2V3TUCFVUAKOM","img_art/9.jpg","5","","","","","","","","","","","","","","","","","","","","","","","","",""
"null","","html-keyboard-response","86","707965","0.0-86.0","A2V3TUCFVUAKOM","<p style=""font-size: 48px;"">+</p>","","","","","null","allTrialResponses","1500","1","6","img_art/9.jpg","1","Looks like a lady laying down. ","Jordan,Chloe,Sydney,Alexis,Leslie,Anna","I just dont like it, no reaction from me at all,-50,20,20","Cheesy. Looks unprofessional,-20,220,20","I see some of my favorite colors which I like, but I don't like what's portrayed.,35,320,20","I like the sense of forboding, the green creates a claustrophobic feeling,10,100,20","The colors are pretty, and remind me of a circus.,5,380,20","It looks like a child's crayon drawing.,-10,300,20","Leslie","The colors are pretty, and remind me of a circus.,5,380,20","Alexis","I like the sense of forboding, the green creates a claustrophobic feeling,10,100,20","Anna","It looks like a child's crayon drawing.,-10,300,20","0"
"21742","","survey-text","87","729712","0.0-87.0-0.0","A2V3TUCFVUAKOM","","","","{""Q0"":""Looks like a crazy dream. It's neat. ""}","","","","","","","","","","","","","","","","","","","","","","",""
"4092.2999999523163","","image-slider-response","88","733807","0.0-88.0","A2V3TUCFVUAKOM","","","","","28","","","","","","","","","","","","","","","","","","","","","",""
"null","","image-button-response","89","738825","0.0-89.0","A2V3TUCFVUAKOM","img_art/8.jpg","null","","","","","","","","","","","","","","","","","","","","","","","","",""
"707","","image-button-response","90","739533","0.0-90.0","A2V3TUCFVUAKOM","img_art/8.jpg","1","","","","","","","","","","","","","","","","","","","","","","","","",""
"6762","","image-button-response","91","746298","0.0-91.0-0.0","A2V3TUCFVUAKOM","img_art/8.jpg","2","","","","","","","","","","","","","","","","","","","","","","","","",""
"7326","","image-button-response","92","753626","0.0-92.0-0.0","A2V3TUCFVUAKOM","img_art/8.jpg","3","","","","","","","","","","","","","","","","","","","","","","","","",""
"null","","html-keyboard-response","93","755129","0.0-93.0","A2V3TUCFVUAKOM","<p style=""font-size: 48px;"">+</p>","","","","","null","allTrialResponses","1500","1","7","img_art/8.jpg","28","Looks like a crazy dream. It's neat. ","Julia,Isabella,Alyssa,Alexis,Leslie,Anna","it's a little too classical for my tastes,-25,40,20","Ancient city looked after by diety,38,280,20","I like how the more you like at it there are more things to discover.Very creative.,33,160,20","Reminds me of old 80s fantasy book covers. Nostalgic,23,100,20","The stylized faces remind me of German expressionism in a very good way.,40,380,20","The shapes and colors work well together.,40,300,20","Isabella","Ancient city looked after by diety,38,280,20","Alyssa","I like how the more you like at it there are more things to discover.Very creative.,33,160,20","Alexis","Reminds me of old 80s fantasy book covers. Nostalgic,23,100,20","0"
"23923","","survey-text","94","779058","0.0-94.0-0.0","A2V3TUCFVUAKOM","","","","{""Q0"":""Looks kind of like a mess. ""}","","","","","","","","","","","","","","","","","","","","","","",""
"5419.600000023842","","image-slider-response","95","784480","0.0-95.0","A2V3TUCFVUAKOM","","","","","-15","","","","","","","","","","","","","","","","","","","","","",""
"3609","","image-button-response","96","789483","0.0-96.0","A2V3TUCFVUAKOM","img_art/27.jpg","0","","","","","","","","","","","","","","","","","","","","","","","","",""
"588","","image-button-response","97","790075","0.0-97.0","A2V3TUCFVUAKOM","img_art/27.jpg","0","","","","","","","","","","","","","","","","","","","","","","","","",""
"3055","","image-button-response","98","793131","0.0-98.0-0.0","A2V3TUCFVUAKOM","img_art/27.jpg","3","","","","","","","","","","","","","","","","","","","","","","","","",""
"10722","","image-button-response","99","803856","0.0-99.0-0.0","A2V3TUCFVUAKOM","img_art/27.jpg","2","","","","","","","","","","","","","","","","","","","","","","","","",""
"null","","html-keyboard-response","100","804357","0.0-100.0","A2V3TUCFVUAKOM","<p style=""font-size: 48px;"">+</p>","","","","","null","allTrialResponses","500","1","8","img_art/27.jpg","-15","Looks kind of like a mess. ","Meghan,Isabella,Alyssa,Alexis,Paige,Cynthia","again looks like childrens artwork,-40,220,20","Makes me feel warm inside,21,280,20","Looks as if a toddler painted it,-20,160,20","Too abstract, doesn't remind me of anything,-42,100,20","Pleased. Reminds me of a child drawing,46,60,20","dirty and misunderstood,-47,320,20","Meghan","again looks like childrens artwork,-40,220,20","Alexis","Too abstract, doesn't remind me of anything,-42,100,20","Alyssa","Looks as if a toddler painted it,-20,160,20","0"
"28299","","survey-text","101","832662","0.0-101.0-0.0","A2V3TUCFVUAKOM","","","","{""Q0"":""It looks kind of spooky in a good way. ""}","","","","","","","","","","","","","","","","","","","","","","",""
"9786.800000071526","","image-slider-response","102","842454","0.0-102.0","A2V3TUCFVUAKOM","","","","","33","","","","","","","","","","","","","","","","","","","","","",""
"null","","image-button-response","103","847461","0.0-103.0","A2V3TUCFVUAKOM","img_art/25.jpg","null","","","","","","","","","","","","","","","","","","","","","","","","",""
"4003","","image-button-response","104","851467","0.0-104.0","A2V3TUCFVUAKOM","img_art/25.jpg","4","","","","","","","","","","","","","","","","","","","","","","","","",""
"4176","","image-button-response","105","855645","0.0-105.0-0.0","A2V3TUCFVUAKOM","img_art/25.jpg","3","","","","","","","","","","","","","","","","","","","","","","","","",""
"1049","","image-button-response","106","856697","0.0-106.0-0.0","A2V3TUCFVUAKOM","img_art/25.jpg","5","","","","","","","","","","","","","","","","","","","","","","","","",""
"null","","html-keyboard-response","107","858211","0.0-107.0","A2V3TUCFVUAKOM","<p style=""font-size: 48px;"">+</p>","","","","","null","allTrialResponses","1500","1","9","img_art/25.jpg","33","It looks kind of spooky in a good way. ","Meghan,Victoria,Alyssa,Alexis,Brianna,Kylie","reminds me of a zombie,-36,220,20","makes me think of a scary movie,-20,400,20","Dark silhouette against the murky background Illicites an ominous feeling. Don't really like it.,-20,160,20","Reminds me of cave drawings,21,100,20","This would definitely be hanging in my bedroom in my house,50,20,20","Egyptian heiroglyphics and painting,15,300,20","Brianna","This would definitely be hanging in my bedroom in my house,50,20,20","Alexis","Reminds me of cave drawings,21,100,20","Kylie","Egyptian heiroglyphics and painting,15,300,20","0"
"19076","","survey-text","108","877295","0.0-108.0-0.0","A2V3TUCFVUAKOM","","","","{""Q0"":""Just looks like colors.""}","","","","","","","","","","","","","","","","","","","","","","",""
"5833.599999904633","","image-slider-response","109","883132","0.0-109.0","A2V3TUCFVUAKOM","","","","","-22","","","","","","","","","","","","","","","","","","","","","",""
"null","","image-button-response","110","888143","0.0-110.0","A2V3TUCFVUAKOM","img_art/1.jpg","null","","","","","","","","","","","","","","","","","","","","","","","","",""
"5542","","image-button-response","111","893687","0.0-111.0","A2V3TUCFVUAKOM","img_art/1.jpg","3","","","","","","","","","","","","","","","","","","","","","","","","",""
"1822","","image-button-response","112","895511","0.0-112.0-0.0","A2V3TUCFVUAKOM","img_art/1.jpg","5","","","","","","","","","","","","","","","","","","","","","","","","",""
"2858","","image-button-response","113","898371","0.0-113.0-0.0","A2V3TUCFVUAKOM","img_art/1.jpg","2","","","","","","","","","","","","","","","","","","","","","","","","",""
"null","","html-keyboard-response","114","899880","0.0-114.0","A2V3TUCFVUAKOM","<p style=""font-size: 48px;"">+</p>","","","","","null","allTrialResponses","1500","1","10","img_art/1.jpg","-22","Just looks like colors.","Emma,Kathryn,Haley,Alexis,Brianna,Kylie","Pretty, nice use of color,40,60,20","For some reason this makes me want to go ice skating. It's whimsical and free but also very smooth.,20,140,20","Pleasant, but a tad too monochromatic in some areas for my taste,7,220,20","Taco Bell wallpaper. Doesn't really make me feel anything,3,100,20","It's very colorful, and I like it,11,20,20","I don't know how I feel about this,1,300,20","Alexis","Taco Bell wallpaper. Doesn't really make me feel anything,3,100,20","Kylie","I don't know how I feel about this,1,300,20","Haley","Pleasant, but a tad too monochromatic in some areas for my taste,7,220,20","0"
"4577","","survey-text","115","904469","0.0-115.0-0.0","A2V3TUCFVUAKOM","","","","{""Q0"":""our""}","","","","","","","","","","","","","","","","","","","","","","",""
"14066","","survey-text","116","918537","0.0-116.0-0.0","A2V3TUCFVUAKOM","","","","{""Q0"":""Looks like a pretty waterfall. ""}","","","","","","","","","","","","","","","","","","","","","","",""
"5513.800000071526","","image-slider-response","117","924054","0.0-117.0","A2V3TUCFVUAKOM","","","","","28","","","","","","","","","","","","","","","","","","","","","",""
"null","","image-button-response","118","929072","0.0-118.0","A2V3TUCFVUAKOM","img_art/24.jpg","null","","","","","","","","","","","","","","","","","","","","","","","","",""
"5721","","image-button-response","119","934795","0.0-119.0","A2V3TUCFVUAKOM","img_art/24.jpg","3","","","","","","","","","","","","","","","","","","","","","","","","",""
"2022","","image-button-response","120","936820","0.0-120.0-0.0","A2V3TUCFVUAKOM","img_art/24.jpg","5","","","","","","","","","","","","","","","","","","","","","","","","",""
"1831","","image-button-response","121","938655","0.0-121.0-0.0","A2V3TUCFVUAKOM","img_art/24.jpg","2","","","","","","","","","","","","","","","","","","","","","","","","",""
"null","","html-keyboard-response","122","939675","0.0-122.0","A2V3TUCFVUAKOM","<p style=""font-size: 48px;"">+</p>","","","","","null","allTrialResponses","1000","1","11","img_art/24.jpg","28","Looks like a pretty waterfall. ","Rebecca,Amy,Haley,Alexis,Melissa,Kylie","organized mess at first glance, would love to inspect this in closer proximity,39,100,20","The contorted angles of the flowing water upset the harmony,-20,220,20","Beautiful colors and texture,20,220,20","Simple. Not too abstract. Love the different flower colors.,20,100,20","feels overdone, but still executed well,0,240,20","Forest waterfall,40,300,20","Alexis","Simple. Not too abstract. Love the different flower colors.,20,100,20","Kylie","Forest waterfall,40,300,20","Haley","Beautiful colors and texture,20,220,20","0"
"17641","","survey-text","123","957327","0.0-123.0-0.0","A2V3TUCFVUAKOM","","","","{""Q0"":""Gloomy blob of colors.""}","","","","","","","","","","","","","","","","","","","","","","",""
"4878.699999928474","","image-slider-response","124","962208","0.0-124.0","A2V3TUCFVUAKOM","","","","","-23","","","","","","","","","","","","","","","","","","","","","",""
"4015","","image-button-response","125","967216","0.0-125.0","A2V3TUCFVUAKOM","img_art/22.jpg","0","","","","","","","","","","","","","","","","","","","","","","","","",""
"1367","","image-button-response","126","968585","0.0-126.0","A2V3TUCFVUAKOM","img_art/22.jpg","0","","","","","","","","","","","","","","","","","","","","","","","","",""
"716","","image-button-response","127","969304","0.0-127.0-0.0","A2V3TUCFVUAKOM","img_art/22.jpg","1","","","","","","","","","","","","","","","","","","","","","","","","",""
"6496","","image-button-response","128","975802","0.0-128.0-0.0","A2V3TUCFVUAKOM","img_art/22.jpg","3","","","","","","","","","","","","","","","","","","","","","","","","",""
"null","","html-keyboard-response","129","976806","0.0-129.0","A2V3TUCFVUAKOM","<p style=""font-size: 48px;"">+</p>","","","","","null","allTrialResponses","1000","1","12","img_art/22.jpg","-23","Gloomy blob of colors.","Sabrina,Vanessa,Haley,Alexis,Heather,Kylie","Just not feeling it,-19,120,20","I don't like the colors or the way they've been arranged.,-20,380,20","Beautiful. I love the color contrast and gradients.,50,220,20","Don't like this type of abstract work,-39,100,20","i think its pretty but im not sure what i see,1,260,20","Climate change in a big city,35,300,20","Sabrina","Just not feeling it,-19,120,20","Vanessa","I don't like the colors or the way they've been arranged.,-20,380,20","Alexis","Don't like this type of abstract work,-39,100,20","0"
"19226","","survey-text","130","996037","0.0-130.0-0.0","A2V3TUCFVUAKOM","","","","{""Q0"":""Looks a mess. ""}","","","","","","","","","","","","","","","","","","","","","","",""
"4573.700000047684","","image-slider-response","131","1000613","0.0-131.0","A2V3TUCFVUAKOM","","","","","-24","","","","","","","","","","","","","","","","","","","","","",""
"3653","","image-button-response","132","1005616","0.0-132.0","A2V3TUCFVUAKOM","img_art/29.jpg","1","","","","","","","","","","","","","","","","","","","","","","","","",""
"620","","image-button-response","133","1006239","0.0-133.0","A2V3TUCFVUAKOM","img_art/29.jpg","1","","","","","","","","","","","","","","","","","","","","","","","","",""
"699","","image-button-response","134","1006940","0.0-134.0-0.0","A2V3TUCFVUAKOM","img_art/29.jpg","2","","","","","","","","","","","","","","","","","","","","","","","","",""
"5918","","image-button-response","135","1012860","0.0-135.0-0.0","A2V3TUCFVUAKOM","img_art/29.jpg","3","","","","","","","","","","","","","","","","","","","","","","","","",""
"null","","html-keyboard-response","136","1014367","0.0-136.0","A2V3TUCFVUAKOM","<p style=""font-size: 48px;"">+</p>","","","","","null","allTrialResponses","1500","1","13","img_art/29.jpg","-24","Looks a mess. ","Sabrina,Vanessa,Kelsey,Alexis,Gabrielle,Makayla","I love the representation of a mess,50,120,20","I hate the red x over everything, hate the black hate how hopeless this is.,-50,380,20","dont like this one,-20,240,20","The black color is great, but I'm really not a fan of this hectic style,-40,100,20","it's OK, no clue to what's going on but good use of light and dark,4,160,20","Looks like a jail cell,-15,80,20","Vanessa","I hate the red x over everything, hate the black hate how hopeless this is.,-50,380,20","Kelsey","dont like this one,-20,240,20","Alexis","The black color is great, but I'm really not a fan of this hectic style,-40,100,20","0"
"26610","","survey-text","137","1040983","0.0-137.0-0.0","A2V3TUCFVUAKOM","","","","{""Q0"":""Looks kind of chaotic ""}","","","","","","","","","","","","","","","","","","","","","","",""
"5294.899999976158","","image-slider-response","138","1046279","0.0-138.0","A2V3TUCFVUAKOM","","","","","-30","","","","","","","","","","","","","","","","","","","","","",""
"null","","image-button-response","139","1051289","0.0-139.0","A2V3TUCFVUAKOM","img_art/12.jpg","null","","","","","","","","","","","","","","","","","","","","","","","","",""
"1815","","image-button-response","140","1053106","0.0-140.0","A2V3TUCFVUAKOM","img_art/12.jpg","1","","","","","","","","","","","","","","","","","","","","","","","","",""
"1379","","image-button-response","141","1054487","0.0-141.0-0.0","A2V3TUCFVUAKOM","img_art/12.jpg","2","","","","","","","","","","","","","","","","","","","","","","","","",""
"1134","","image-button-response","142","1055623","0.0-142.0-0.0","A2V3TUCFVUAKOM","img_art/12.jpg","5","","","","","","","","","","","","","","","","","","","","","","","","",""
"null","","html-keyboard-response","143","1056133","0.0-143.0","A2V3TUCFVUAKOM","<p style=""font-size: 48px;"">+</p>","","","","","null","allTrialResponses","500","1","14","img_art/12.jpg","-30","Looks kind of chaotic ","Dominique,Vanessa,Kelsey,Alexis,Jennifer,Andrea","I have seen some like this before very popular and full of life,42,400,20","This is too abstract and the colors are too worn out.,-23,380,20","dont like the squares,-16,240,20","I like the cubic feel.,11,100,20","This piece doesn't provoke any kind of reaction,0,380,20","It just feels like a jigsaw puzzle,-4,240,20","Vanessa","This is too abstract and the colors are too worn out.,-23,380,20","Kelsey","dont like the squares,-16,240,20","Andrea","It just feels like a jigsaw puzzle,-4,240,20","0"
"38922","","survey-text","144","1095063","0.0-144.0-0.0","A2V3TUCFVUAKOM","","","","{""Q0"":""No idea what this is supposed to be. ""}","","","","","","","","","","","","","","","","","","","","","","",""
"6396.699999928474","","image-slider-response","145","1101462","0.0-145.0","A2V3TUCFVUAKOM","","","","","-18","","","","","","","","","","","","","","","","","","","","","",""
"null","","image-button-response","146","1106467","0.0-146.0","A2V3TUCFVUAKOM","img_art/28.jpg","null","","","","","","","","","","","","","","","","","","","","","","","","",""
"3944","","image-button-response","147","1110412","0.0-147.0","A2V3TUCFVUAKOM","img_art/28.jpg","0","","","","","","","","","","","","","","","","","","","","","","","","",""
"7136","","image-button-response","148","1117551","0.0-148.0-0.0","A2V3TUCFVUAKOM","img_art/28.jpg","4","","","","","","","","","","","","","","","","","","","","","","","","",""
"10888","","image-button-response","149","1128442","0.0-149.0-0.0","A2V3TUCFVUAKOM","img_art/28.jpg","3","","","","","","","","","","","","","","","","","","","","","","","","",""
"null","","html-keyboard-response","150","1129948","0.0-150.0","A2V3TUCFVUAKOM","<p style=""font-size: 48px;"">+</p>","","","","","null","allTrialResponses","1500","1","15","img_art/28.jpg","-18","No idea what this is supposed to be. ","Angelica,Vanessa,Kelsey,Caitlin,Kimberly,Andrea","This is very ugly with poor colors.,-23,280,20","It's such a blah piece and way too abstract.,-50,380,20","this one is rather disturbing,-22,240,20","Bug meets bug in a dark alley.,-20,80,20","The thing on the right is kind of weird/fetus-y,-12,260,20","It reminds me of the cantina in Star Wars.,37,240,20","Angelica","This is very ugly with poor colors.,-23,280,20","Kimberly","The thing on the right is kind of weird/fetus-y,-12,260,20","Caitlin","Bug meets bug in a dark alley.,-20,80,20","0"
"6030","","survey-text","151","1135994","0.0-151.0-0.0","A2V3TUCFVUAKOM","","","","{""Q0"":""course""}","","","","","","","","","","","","","","","","","","","","","","",""
"13271","","survey-text","152","1149268","0.0-152.0-0.0","A2V3TUCFVUAKOM","","","","{""Q0"":""Looks like a pretty purple tree. ""}","","","","","","","","","","","","","","","","","","","","","","",""
"6092.600000023842","","image-slider-response","153","1155363","0.0-153.0","A2V3TUCFVUAKOM","","","","","27","","","","","","","","","","","","","","","","","","","","","",""
"4514","","image-button-response","154","1160366","0.0-154.0","A2V3TUCFVUAKOM","img_art/17.jpg","2","","","","","","","","","","","","","","","","","","","","","","","","",""
"1424","","image-button-response","155","1161792","0.0-155.0","A2V3TUCFVUAKOM","img_art/17.jpg","2","","","","","","","","","","","","","","","","","","","","","","","","",""
"3453","","image-button-response","156","1165246","0.0-156.0-0.0","A2V3TUCFVUAKOM","img_art/17.jpg","5","","","","","","","","","","","","","","","","","","","","","","","","",""
"7655","","image-button-response","157","1172904","0.0-157.0-0.0","A2V3TUCFVUAKOM","img_art/17.jpg","3","","","","","","","","","","","","","","","","","","","","","","","","",""
"null","","html-keyboard-response","158","1174417","0.0-158.0","A2V3TUCFVUAKOM","<p style=""font-size: 48px;"">+</p>","","","","","null","allTrialResponses","1500","1","16","img_art/17.jpg","27","Looks like a pretty purple tree. ","Angelica,Mary,Margaret,Caitlin,Kimberly,Brittany","This could have been good but was poorly done.,-5,280,20","The colors are nice and soft but not very complimentary.,7,180,20","gentle watercolor vibes,12,100,20","Somewhat should trim the tree branches at the shopping mall.,10,80,20","I like the trees, but the doors less so,19,260,20","I like the colors and the design.,20,40,20","Margaret","gentle watercolor vibes,12,100,20","Brittany","I like the colors and the design.,20,40,20","Caitlin","Somewhat should trim the tree branches at the shopping mall.,10,80,20","0"
"16094","","survey-text","159","1190518","0.0-159.0-0.0","A2V3TUCFVUAKOM","","","","{""Q0"":""It's a little creepy. ""}","","","","","","","","","","","","","","","","","","","","","","",""
"5799.700000047684","","image-slider-response","160","1196319","0.0-160.0","A2V3TUCFVUAKOM","","","","","-18","","","","","","","","","","","","","","","","","","","","","",""
"4657","","image-button-response","161","1201329","0.0-161.0","A2V3TUCFVUAKOM","img_art/18.jpg","2","","","","","","","","","","","","","","","","","","","","","","","","",""
"780","","image-button-response","162","1202112","0.0-162.0","A2V3TUCFVUAKOM","img_art/18.jpg","2","","","","","","","","","","","","","","","","","","","","","","","","",""
"5110","","image-button-response","163","1207225","0.0-163.0-0.0","A2V3TUCFVUAKOM","img_art/18.jpg","4","","","","","","","","","","","","","","","","","","","","","","","","",""
"4382","","image-button-response","164","1211610","0.0-164.0-0.0","A2V3TUCFVUAKOM","img_art/18.jpg","4","","","","","","","","","","","","","","","","","","","","","","","","",""
"2826","","image-button-response","165","1218895","0.0-164.1-0.1","A2V3TUCFVUAKOM","img_art/18.jpg","3","","","","","","","","","","","","","","","","","","","","","","","","",""
"null","","html-keyboard-response","166","1219404","0.0-165.0","A2V3TUCFVUAKOM","<p style=""font-size: 48px;"">+</p>","","","","","null","allTrialResponses","500","1","17","img_art/18.jpg","-18","It's a little creepy. ","Allison,Crystal,Margaret,Caitlin,Michelle,Brittany","Colors are okay. Reminds me of cavalry.,10,140,20","I love this because abstractly depicts the apocalypse. The white horse and its rider as Death, described in religious texts and pop culture. ""He rode a pale horse and his name was death."",50,300,20","reminds me of dying at sea in the 1700s,-8,100,20","Bad guys are after the good guy.,-10,80,20","The small lines elicit a very nauseating response for some reason, too Dali like for me,-19,280,20","This is really interesting to look at. I like the colors and the spectral look.,27,40,20","Margaret","reminds me of dying at sea in the 1700s,-8,100,20","Michelle","The small lines elicit a very nauseating response for some reason, too Dali like for me,-19,280,20","Caitlin","Bad guys are after the good guy.,-10,80,20","2"
"10992","","survey-text","167","1230405","0.0-166.0-0.0","A2V3TUCFVUAKOM","","","","{""Q0"":""Looks like a toddler painted a violin ""}","","","","","","","","","","","","","","","","","","","","","","",""
"4067.899999976158","","image-slider-response","168","1234476","0.0-167.0","A2V3TUCFVUAKOM","","","","","-32","","","","","","","","","","","","","","","","","","","","","",""
"null","","image-button-response","169","1239489","0.0-168.0","A2V3TUCFVUAKOM","img_art/10.jpg","null","","","","","","","","","","","","","","","","","","","","","","","","",""
"1863","","image-button-response","170","1241355","0.0-169.0","A2V3TUCFVUAKOM","img_art/10.jpg","4","","","","","","","","","","","","","","","","","","","","","","","","",""
"2439","","image-button-response","171","1243796","0.0-170.0-0.0","A2V3TUCFVUAKOM","img_art/10.jpg","0","","","","","","","","","","","","","","","","","","","","","","","","",""
"1662","","image-button-response","172","1245461","0.0-171.0-0.0","A2V3TUCFVUAKOM","img_art/10.jpg","2","","","","","","","","","","","","","","","","","","","","","","","","",""
"null","","html-keyboard-response","173","1245983","0.0-172.0","A2V3TUCFVUAKOM","<p style=""font-size: 48px;"">+</p>","","","","","null","allTrialResponses","500","1","18","img_art/10.jpg","-32","Looks like a toddler painted a violin ","Monica,Jamie,Margaret,Caitlin,Michelle,Katherine","It doesn't look pleasing to the eye, it kind of looks like an animal but a dirty one,-38,360,20","Well done designs for being considered abstract,45,320,20","I think this was going to be a guitar but then the artist got mad and gave up,-4,100,20","The roller coaster from hell !!!,-10,80,20","This could be a guitar, or it could be a completely random shape.,-3,280,20","This is pretty rad. The outline looks like a music staff,15,120,20","Michelle","This could be a guitar, or it could be a completely random shape.,-3,280,20","Monica","It doesn't look pleasing to the eye, it kind of looks like an animal but a dirty one,-38,360,20","Margaret","I think this was going to be a guitar but then the artist got mad and gave up,-4,100,20","2"
"21725","","survey-text","174","1267715","0.0-173.0-0.0","A2V3TUCFVUAKOM","","","","{""Q0"":""Random colors with random brush strokes. ""}","","","","","","","","","","","","","","","","","","","","","","",""
"5507.299999952316","","image-slider-response","175","1273225","0.0-174.0","A2V3TUCFVUAKOM","","","","","-18","","","","","","","","","","","","","","","","","","","","","",""
"4719","","image-button-response","176","1278240","0.0-175.0","A2V3TUCFVUAKOM","img_art/30.jpg","5","","","","","","","","","","","","","","","","","","","","","","","","",""
"1941","","image-button-response","177","1280183","0.0-176.0","A2V3TUCFVUAKOM","img_art/30.jpg","2","","","","","","","","","","","","","","","","","","","","","","","","",""
"1082","","image-button-response","178","1281267","0.0-177.0-0.0","A2V3TUCFVUAKOM","img_art/30.jpg","5","","","","","","","","","","","","","","","","","","","","","","","","",""
"2174","","image-button-response","179","1283443","0.0-178.0-0.0","A2V3TUCFVUAKOM","img_art/30.jpg","4","","","","","","","","","","","","","","","","","","","","","","","","",""
"null","","html-keyboard-response","180","1284950","0.0-179.0","A2V3TUCFVUAKOM","<p style=""font-size: 48px;"">+</p>","","","","","null","allTrialResponses","1500","1","19","img_art/30.jpg","-18","Random colors with random brush strokes. ","Monica,Alexa,Margaret,Kaylee,Michelle,Autumn","It looked like a random scribble but I can see a person's face in it now and I think it's clever,13,360,20","Looks quite basic but the colors are nice and there is a wildness about it that I love,0,40,20","I dont like the colors whatsoever,-15,100,20","i cant really get it,-35,200,20","Don't like it at all, looks like a someone smeared paint with their fingers,-25,280,20","Absolutely messy,-31,340,20","Margaret","I dont like the colors whatsoever,-15,100,20","Autumn","Absolutely messy,-31,340,20","Michelle","Don't like it at all, looks like a someone smeared paint with their fingers,-25,280,20","2"
"26017","","survey-text","181","1310976","0.0-180.0-0.0","A2V3TUCFVUAKOM","","","","{""Q0"":""Weird black blobs.""}","","","","","","","","","","","","","","","","","","","","","","",""
"3573.7999999523163","","image-slider-response","182","1314552","0.0-181.0","A2V3TUCFVUAKOM","","","","","-25","","","","","","","","","","","","","","","","","","","","","",""
"3928","","image-button-response","183","1319573","0.0-182.0","A2V3TUCFVUAKOM","img_art/15.jpg","5","","","","","","","","","","","","","","","","","","","","","","","","",""
"1280","","image-button-response","184","1320855","0.0-183.0","A2V3TUCFVUAKOM","img_art/15.jpg","5","","","","","","","","","","","","","","","","","","","","","","","","",""
"931","","image-button-response","185","1321788","0.0-184.0-0.0","A2V3TUCFVUAKOM","img_art/15.jpg","3","","","","","","","","","","","","","","","","","","","","","","","","",""
"2591","","image-button-response","186","1324381","0.0-185.0-0.0","A2V3TUCFVUAKOM","img_art/15.jpg","4","","","","","","","","","","","","","","","","","","","","","","","","",""
"null","","html-keyboard-response","187","1325898","0.0-186.0","A2V3TUCFVUAKOM","<p style=""font-size: 48px;"">+</p>","","","","","null","allTrialResponses","1500","1","20","img_art/15.jpg","-25","Weird black blobs.","Amber,Kayla,Margaret,Gabriela,Michelle,Autumn","Reminds me of blueberry bushes.,7,200,20","Bushes, good! Life, good!,12,180,20","i like the pop of blue within all the black,8,100,20","it is dark and gloomy,-9,140,20","Interesting to look at but I don't appreciate the abstraction,2,280,20","Simple but not good,-34,340,20","Autumn","Simple but not good,-34,340,20","Gabriela","it is dark and gloomy,-9,140,20","Michelle","Interesting to look at but I don't appreciate the abstraction,2,280,20","2"
"3635","","survey-text","188","1329549","0.0-187.0-0.0","A2V3TUCFVUAKOM","","","","{""Q0"":""we""}","","","","","","","","","","","","","","","","","","","","","","",""
"13226","","survey-text","189","1342778","0.0-188.0-0.0","A2V3TUCFVUAKOM","","","","{""Q0"":""Looks like a bell""}","","","","","","","","","","","","","","","","","","","","","","",""
"6936.399999976158","","image-slider-response","190","1349718","0.0-189.0","A2V3TUCFVUAKOM","","","","","4","","","","","","","","","","","","","","","","","","","","","",""
"null","","image-button-response","191","1354730","0.0-190.0","A2V3TUCFVUAKOM","img_art/5.jpg","null","","","","","","","","","","","","","","","","","","","","","","","","",""
"3172","","image-button-response","192","1357905","0.0-191.0","A2V3TUCFVUAKOM","img_art/5.jpg","3","","","","","","","","","","","","","","","","","","","","","","","","",""
"1507","","image-button-response","193","1359414","0.0-192.0-0.0","A2V3TUCFVUAKOM","img_art/5.jpg","4","","","","","","","","","","","","","","","","","","","","","","","","",""
"3151","","image-button-response","194","1362568","0.0-193.0-0.0","A2V3TUCFVUAKOM","img_art/5.jpg","5","","","","","","","","","","","","","","","","","","","","","","","","",""
"null","","html-keyboard-response","195","1363078","0.0-194.0","A2V3TUCFVUAKOM","<p style=""font-size: 48px;"">+</p>","","","","","null","allTrialResponses","500","1","21","img_art/5.jpg","4","Looks like a bell","Madison,Bailey,Kaitlyn,Gabriela,Michelle,Autumn","Bright and luminous,31,60,20","Not sure what that even is. Looks like a 2-year old drawing,-40,360,20","Wish the background had been kept clean; distracts from main object,11,80,20","I am confused as to what this is supposed to be,6,140,20","What is this? It looks like no effort was put into this work,-2,280,20","Appealing but shapeless,24,340,20","Gabriela","I am confused as to what this is supposed to be,6,140,20","Michelle","What is this? It looks like no effort was put into this work,-2,280,20","Autumn","Appealing but shapeless,24,340,20","2"
"32890","","survey-text","196","1395979","0.0-195.0-0.0","A2V3TUCFVUAKOM","","","","{""Q0"":""Pretty creepy mess of a picture""}","","","","","","","","","","","","","","","","","","","","","","",""
"4685.800000071526","","image-slider-response","197","1400667","0.0-196.0","A2V3TUCFVUAKOM","","","","","-30","","","","","","","","","","","","","","","","","","","","","",""
"2233","","image-button-response","198","1405669","0.0-197.0","A2V3TUCFVUAKOM","img_art/16.jpg","0","","","","","","","","","","","","","","","","","","","","","","","","",""
"1061","","image-button-response","199","1406733","0.0-198.0","A2V3TUCFVUAKOM","img_art/16.jpg","0","","","","","","","","","","","","","","","","","","","","","","","","",""
"2570","","image-button-response","200","1409305","0.0-199.0-0.0","A2V3TUCFVUAKOM","img_art/16.jpg","1","","","","","","","","","","","","","","","","","","","","","","","","",""
"1962","","image-button-response","201","1411269","0.0-200.0-0.0","A2V3TUCFVUAKOM","img_art/16.jpg","3","","","","","","","","","","","","","","","","","","","","","","","","",""
"null","","html-keyboard-response","202","1412771","0.0-201.0","A2V3TUCFVUAKOM","<p style=""font-size: 48px;"">+</p>","","","","","null","allTrialResponses","1500","1","22","img_art/16.jpg","-30","Pretty creepy mess of a picture","Christina,Brooke,Laura,Gabriela,Michelle,Autumn","very creepy with a bear and a gun,-50,240,20","Don't like teddy bears in art. I could draw that house.,-20,60,20","depressing and confrontational,-9,320,20","It looks very generic, like items were pasted onto the background,-38,140,20","I'm a fan of collage and of reminiscing about childhood so this was nice,10,280,20","Very cool abstraction.,19,340,20","Christina","very creepy with a bear and a gun,-50,240,20","Brooke","Don't like teddy bears in art. I could draw that house.,-20,60,20","Gabriela","It looks very generic, like items were pasted onto the background,-38,140,20","2"
"28430","","survey-text","203","1441211","0.0-202.0-0.0","A2V3TUCFVUAKOM","","","","{""Q0"":""Looks like a weird tree. ""}","","","","","","","","","","","","","","","","","","","","","","",""
"7806.100000023842","","image-slider-response","204","1449019","0.0-203.0","A2V3TUCFVUAKOM","","","","","-2","","","","","","","","","","","","","","","","","","","","","",""
"4563","","image-button-response","205","1454024","0.0-204.0","A2V3TUCFVUAKOM","img_art/14.jpg","0","","","","","","","","","","","","","","","","","","","","","","","","",""
"713","","image-button-response","206","1454740","0.0-205.0","A2V3TUCFVUAKOM","img_art/14.jpg","0","","","","","","","","","","","","","","","","","","","","","","","","",""
"2901","","image-button-response","207","1457643","0.0-206.0-0.0","A2V3TUCFVUAKOM","img_art/14.jpg","0","","","","","","","","","","","","","","","","","","","","","","","","",""
"3807","","image-button-response","208","1464946","0.0-206.1-0.1","A2V3TUCFVUAKOM","img_art/14.jpg","5","","","","","","","","","","","","","","","","","","","","","","","","",""
"2354","","image-button-response","209","1467302","0.0-207.0-0.0","A2V3TUCFVUAKOM","img_art/14.jpg","3","","","","","","","","","","","","","","","","","","","","","","","","",""
"null","","html-keyboard-response","210","1468306","0.0-208.0","A2V3TUCFVUAKOM","<p style=""font-size: 48px;"">+</p>","","","","","null","allTrialResponses","1000","1","23","img_art/14.jpg","-2","Looks like a weird tree. ","Christina,Brooke,Samantha,Gabriela,Diana,Natalie","has a tree look to it and it's colors are happy,9,240,20","cotton candy skies. pretty.,35,60,20","I love the feeling of the tree and people. Makes me happy,50,140,20","It looks like a table centerpiece,-22,140,20","This piece feels inviting. It's like opening up the pages of your favorite book for the first time.,26,380,20","my reaction is that the picture is wierd,-14,400,20","Christina","has a tree look to it and it's colors are happy,9,240,20","Natalie","my reaction is that the picture is wierd,-14,400,20","Gabriela","It looks like a table centerpiece,-22,140,20","4"
"10962","","survey-text","211","1479277","0.0-209.0-0.0","A2V3TUCFVUAKOM","","","","{""Q0"":""Looks like a cute little city near the water. ""}","","","","","","","","","","","","","","","","","","","","","","",""
"4929.199999928474","","image-slider-response","212","1484208","0.0-210.0","A2V3TUCFVUAKOM","","","","","22","","","","","","","","","","","","","","","","","","","","","",""
"4524","","image-button-response","213","1489223","0.0-211.0","A2V3TUCFVUAKOM","img_art/19.jpg","0","","","","","","","","","","","","","","","","","","","","","","","","",""
"713","","image-button-response","214","1489938","0.0-212.0","A2V3TUCFVUAKOM","img_art/19.jpg","0","","","","","","","","","","","","","","","","","","","","","","","","",""
"5770","","image-button-response","215","1495710","0.0-213.0-0.0","A2V3TUCFVUAKOM","img_art/19.jpg","4","","","","","","","","","","","","","","","","","","","","","","","","",""
"6591","","image-button-response","216","1502303","0.0-214.0-0.0","A2V3TUCFVUAKOM","img_art/19.jpg","2","","","","","","","","","","","","","","","","","","","","","","","","",""
"null","","html-keyboard-response","217","1503305","0.0-215.0","A2V3TUCFVUAKOM","<p style=""font-size: 48px;"">+</p>","","","","","null","allTrialResponses","1000","1","24","img_art/19.jpg","22","Looks like a cute little city near the water. ","Christina,Kelly,Cassidy,Gabriela,Catherine,Natalie","i like the colors and the way it looks like an actual scene,18,240,20","TOo much brown.,-24,220,20","too much going on, can't tell what it is,-14,140,20","it looks messy and non-unique.,-9,140,20","Higher power looking down at its creation with a half smile and some hurt.,45,160,20","the picture gave me anxiety,-38,400,20","Christina","i like the colors and the way it looks like an actual scene,18,240,20","Catherine","Higher power looking down at its creation with a half smile and some hurt.,45,160,20","Cassidy","too much going on, can't tell what it is,-14,140,20","4"
"15489","","survey-text","218","1518806","0.0-216.0-0.0","A2V3TUCFVUAKOM","","","","{""Q0"":""Looks like a bloody cliff over water""}","","","","","","","","","","","","","","","","","","","","","","",""
"4659.200000047684","","image-slider-response","219","1523467","0.0-217.0","A2V3TUCFVUAKOM","","","","","-6","","","","","","","","","","","","","","","","","","","","","",""
"4447","","image-button-response","220","1528470","0.0-218.0","A2V3TUCFVUAKOM","img_art/21.jpg","3","","","","","","","","","","","","","","","","","","","","","","","","",""
"730","","image-button-response","221","1529202","0.0-219.0","A2V3TUCFVUAKOM","img_art/21.jpg","3","","","","","","","","","","","","","","","","","","","","","","","","",""
"5368","","image-button-response","222","1534571","0.0-220.0-0.0","A2V3TUCFVUAKOM","img_art/21.jpg","2","","","","","","","","","","","","","","","","","","","","","","","","",""
"3523","","image-button-response","223","1538097","0.0-221.0-0.0","A2V3TUCFVUAKOM","img_art/21.jpg","4","","","","","","","","","","","","","","","","","","","","","","","","",""
"null","","html-keyboard-response","224","1539600","0.0-222.0","A2V3TUCFVUAKOM","<p style=""font-size: 48px;"">+</p>","","","","","null","allTrialResponses","1500","1","25","img_art/21.jpg","-6","Looks like a bloody cliff over water","Christina,Ashley,Cassidy,Sara,Catherine,Lauren","it has a lot of happy colors and it's very classic looking,35,240,20","Disturbing, land meets ocean, lvoely really.,43,320,20","I really like these colors together and their placement. The dabs of white are a nice contrast to the soft blending,10,140,20","It looks confusing,-21,160,20","Nature, water, ever changing. Cold then warm. Reaction is mostly positive and some negative,30,160,20","I like how the piece has the possibility of depicting some type of story.,30,340,20","Sara","It looks confusing,-21,160,20","Cassidy","I really like these colors together and their placement. The dabs of white are a nice contrast to the soft blending,10,140,20","Catherine","Nature, water, ever changing. Cold then warm. Reaction is mostly positive and some negative,30,160,20","4"
"3143","","survey-text","225","1542760","0.0-223.0-0.0","A2V3TUCFVUAKOM","","","","{""Q0"":""table""}","","","","","","","","","","","","","","","","","","","","","","",""
"14993","","survey-text","226","1557756","0.0-224.0-0.0","A2V3TUCFVUAKOM","","","","{""Q0"":""Very loud colors with no purpose. ""}","","","","","","","","","","","","","","","","","","","","","","",""
"6320.899999976158","","image-slider-response","227","1564079","0.0-225.0","A2V3TUCFVUAKOM","","","","","-30","","","","","","","","","","","","","","","","","","","","","",""
"null","","image-button-response","228","1569096","0.0-226.0","A2V3TUCFVUAKOM","img_art/23.jpg","null","","","","","","","","","","","","","","","","","","","","","","","","",""
"11025","","image-button-response","229","1580123","0.0-227.0","A2V3TUCFVUAKOM","img_art/23.jpg","4","","","","","","","","","","","","","","","","","","","","","","","","",""
"1530","","image-button-response","230","1581657","0.0-228.0-0.0","A2V3TUCFVUAKOM","img_art/23.jpg","0","","","","","","","","","","","","","","","","","","","","","","","","",""
"775","","image-button-response","231","1582435","0.0-229.0-0.0","A2V3TUCFVUAKOM","img_art/23.jpg","0","","","","","","","","","","","","","","","","","","","","","","","","",""
"2452","","image-button-response","232","1588232","0.0-229.1-0.1","A2V3TUCFVUAKOM","img_art/23.jpg","1","","","","","","","","","","","","","","","","","","","","","","","","",""
"null","","html-keyboard-response","233","1589742","0.0-230.0","A2V3TUCFVUAKOM","<p style=""font-size: 48px;"">+</p>","","","","","null","allTrialResponses","1500","1","26","img_art/23.jpg","-30","Very loud colors with no purpose. ","Briana,Maria,Cassidy,Sara,Catherine,Jenna","White in the middle look like people dancing naked,19,400,20","the pattern of colours imbues in me a sense of infinity, which I find soothing,10,120,20","I like the colors, the tiny dots, and the contrast between the white and background,28,140,20","Beautiful color scheme,21,160,20","Partying, dancing, delusion, kaus.,10,160,20","awesome colors. love the white drawing the eye to the center. oddly comforting.,50,360,20","Catherine","Partying, dancing, delusion, kaus.,10,160,20","Briana","White in the middle look like people dancing naked,19,400,20","Maria","the pattern of colours imbues in me a sense of infinity, which I find soothing,10,120,20","6"
"20674","","survey-text","234","1610425","0.0-231.0-0.0","A2V3TUCFVUAKOM","","","","{""Q0"":""Looks like a birch tree with paint on it. ""}","","","","","","","","","","","","","","","","","","","","","","",""
"5656.899999976158","","image-slider-response","235","1616085","0.0-232.0","A2V3TUCFVUAKOM","","","","","-15","","","","","","","","","","","","","","","","","","","","","",""
"null","","image-button-response","236","1621089","0.0-233.0","A2V3TUCFVUAKOM","img_art/13.jpg","null","","","","","","","","","","","","","","","","","","","","","","","","",""
"383","","image-button-response","237","1621475","0.0-234.0","A2V3TUCFVUAKOM","img_art/13.jpg","5","","","","","","","","","","","","","","","","","","","","","","","","",""
"3643","","image-button-response","238","1625120","0.0-235.0-0.0","A2V3TUCFVUAKOM","img_art/13.jpg","0","","","","","","","","","","","","","","","","","","","","","","","","",""
"4262","","image-button-response","239","1629385","0.0-236.0-0.0","A2V3TUCFVUAKOM","img_art/13.jpg","2","","","","","","","","","","","","","","","","","","","","","","","","",""
"null","","html-keyboard-response","240","1630392","0.0-237.0","A2V3TUCFVUAKOM","<p style=""font-size: 48px;"">+</p>","","","","","null","allTrialResponses","1000","1","27","img_art/13.jpg","-15","Looks like a birch tree with paint on it. ","Briana,Maria,Taylor,Mikayla,Catherine,Breanna","The blue colors are very calming. Reminds me of water,33,400,20","evokes a dampening feeling,-9,120,20","It makes me think of sitting inside on a rainy day while drinking a warm coffee,32,340,20","My favorite!,47,300,20","Magnified rain around trees. Beautiful happy colors. The little person on the right feels nature is huge.,45,160,20","Makes me feel nice and calm,18,380,20","Breanna","Makes me feel nice and calm,18,380,20","Briana","The blue colors are very calming. Reminds me of water,33,400,20","Taylor","It makes me think of sitting inside on a rainy day while drinking a warm coffee,32,340,20","6"
"18473","","survey-text","241","1648874","0.0-238.0-0.0","A2V3TUCFVUAKOM","","","","{""Q0"":""It looks like a kid finger painted with poop. ""}","","","","","","","","","","","","","","","","","","","","","","",""
"7391.299999952316","","image-slider-response","242","1656268","0.0-239.0","A2V3TUCFVUAKOM","","","","","-42","","","","","","","","","","","","","","","","","","","","","",""
"null","","image-button-response","243","1661282","0.0-240.0","A2V3TUCFVUAKOM","img_art/4.jpg","null","","","","","","","","","","","","","","","","","","","","","","","","",""
"1770","","image-button-response","244","1663054","0.0-241.0","A2V3TUCFVUAKOM","img_art/4.jpg","1","","","","","","","","","","","","","","","","","","","","","","","","",""
"1782","","image-button-response","245","1664837","0.0-242.0-0.0","A2V3TUCFVUAKOM","img_art/4.jpg","3","","","","","","","","","","","","","","","","","","","","","","","","",""
"4554","","image-button-response","246","1669394","0.0-243.0-0.0","A2V3TUCFVUAKOM","img_art/4.jpg","0","","","","","","","","","","","","","","","","","","","","","","","","",""
"null","","html-keyboard-response","247","1670896","0.0-244.0","A2V3TUCFVUAKOM","<p style=""font-size: 48px;"">+</p>","","","","","null","allTrialResponses","1500","1","28","img_art/4.jpg","-42","It looks like a kid finger painted with poop. ","Briana,Shannon,Taylor,Alexandra,Chelsea,Breanna","Fingerpaint of a hand?,-30,400,20","I think that this picture is too boring in terms of color and it looks ugly.,-41,220,20","Reminds me of a first place trophy,30,340,20","This artwork looks like a child did it,-41,60,20","The colors remind me of McDonalds.,-41,180,20","Looks like a hand, not very impressed,-22,380,20","Shannon","I think that this picture is too boring in terms of color and it looks ugly.,-41,220,20","Alexandra","This artwork looks like a child did it,-41,60,20","Briana","Fingerpaint of a hand?,-30,400,20","6"
"31186","","survey-text","248","1702099","0.0-245.0-0.0","A2V3TUCFVUAKOM","","","","{""Q0"":""Looks like a toddlers painting. ""}","","","","","","","","","","","","","","","","","","","","","","",""
"4714.299999952316","","image-slider-response","249","1706815","0.0-246.0","A2V3TUCFVUAKOM","","","","","-22","","","","","","","","","","","","","","","","","","","","","",""
"null","","image-button-response","250","1711823","0.0-247.0","A2V3TUCFVUAKOM","img_art/3.jpg","null","","","","","","","","","","","","","","","","","","","","","","","","",""
"386","","image-button-response","251","1712209","0.0-248.0","A2V3TUCFVUAKOM","img_art/3.jpg","1","","","","","","","","","","","","","","","","","","","","","","","","",""
"1636","","image-button-response","252","1713849","0.0-249.0-0.0","A2V3TUCFVUAKOM","img_art/3.jpg","2","","","","","","","","","","","","","","","","","","","","","","","","",""
"3470","","image-button-response","253","1717322","0.0-250.0-0.0","A2V3TUCFVUAKOM","img_art/3.jpg","3","","","","","","","","","","","","","","","","","","","","","","","","",""
"null","","html-keyboard-response","254","1718335","0.0-251.0","A2V3TUCFVUAKOM","<p style=""font-size: 48px;"">+</p>","","","","","null","allTrialResponses","1000","1","29","img_art/3.jpg","-22","Looks like a toddlers painting. ","Briana,Shannon,Rachel,Alexandra,Mackenzie,Lindsey","Sharp peaks look like sharp teeth,-37,400,20","I can't tell what this image is supposed to be it looks extremely ugly and color variety is boring.,-50,220,20","Too red and chaotic. Not calming.,-41,80,20","I could scribble on paper and mimic this,-48,60,20","I like the simplicity of it.,20,20,20","Angry red crayons, like a child throwing a tantrum. No thanks.,-10,400,20","Shannon","I can't tell what this image is supposed to be it looks extremely ugly and color variety is boring.,-50,220,20","Rachel","Too red and chaotic. Not calming.,-41,80,20","Alexandra","I could scribble on paper and mimic this,-48,60,20","6"
"42816","","survey-text","255","1761161","0.0-252.0-0.0","A2V3TUCFVUAKOM","","","","{""Q0"":""It looks like an over turned truck in a car accident. ""}","","","","","","","","","","","","","","","","","","","","","","",""
"4635.599999904633","","image-slider-response","256","1765799","0.0-253.0","A2V3TUCFVUAKOM","","","","","-30","","","","","","","","","","","","","","","","","","","","","",""
"null","","image-button-response","257","1770817","0.0-254.0","A2V3TUCFVUAKOM","img_art/20.jpg","null","","","","","","","","","","","","","","","","","","","","","","","","",""
"4585","","image-button-response","258","1775403","0.0-255.0","A2V3TUCFVUAKOM","img_art/20.jpg","2","","","","","","","","","","","","","","","","","","","","","","","","",""
"9654","","image-button-response","259","1785061","0.0-256.0-0.0","A2V3TUCFVUAKOM","img_art/20.jpg","3","","","","","","","","","","","","","","","","","","","","","","","","",""
"13117","","image-button-response","260","1798181","0.0-257.0-0.0","A2V3TUCFVUAKOM","img_art/20.jpg","5","","","","","","","","","","","","","","","","","","","","","","","","",""
"null","","html-keyboard-response","261","1799196","0.0-258.0","A2V3TUCFVUAKOM","<p style=""font-size: 48px;"">+</p>","","","","","null","allTrialResponses","1000","1","30","img_art/20.jpg","-30","It looks like an over turned truck in a car accident. ","Caroline,Shannon,Rachel,Alexandra,Sierra,Morgan","Makes me feel weary,21,100,20","I really like this. There are lots of objects the artist wanted to show and the colors are good.,38,220,20","While interesting in technique.. It looks like a blurry car wreck. Does not evoke great emotions.,-20,80,20","The white blob looks like a face and it's creepy,-30,60,20","i like the rounded edges,18,260,20","The beach and industry.,12,380,20","Rachel","While interesting in technique.. It looks like a blurry car wreck. Does not evoke great emotions.,-20,80,20","Alexandra","The white blob looks like a face and it's creepy,-30,60,20","Morgan","The beach and industry.,12,380,20","6"
"9345","","image-button-response_instructions","262","1808550","0.0-259.0","A2V3TUCFVUAKOM","","0","instructions","","","","","","","","","","","","","","","","","","","","","","","",""
"1772","","image-button-response","263","1810329","0.0-260.0","A2V3TUCFVUAKOM","","0","","","","","","","","","","","","","","","","","","","","","","","","",""
