"rt","url","trial_type","trial_index","time_elapsed","internal_node_id","participant_id","stimulus","button_pressed","Name","responses","response","key_press","variableName","fixationTime","condition","trial","photo","subjectRating","subjectResponse","agentsNames","agent_1_Response","agent_2_Response","agent_3_Response","agent_4_Response","agent_5_Response","agent_6_Response","kept_1_name","kept_1_response","kept_2_name","kept_2_response","kept_3_name","kept_3_response","errorCounter"
"11001","external_page_harvard.html","external-html","0","11110","0.0-0.0","A2V66KLFVJTLKC","","","","","","","","","","","","","","","","","","","","","","","","","","",""
"1903","","image-button-response","1","13024","0.0-1.0","A2V66KLFVJTLKC","","1","","","","","","","","","","","","","","","","","","","","","","","","",""
"6148","","image-button-response","2","19214","0.0-2.0-0.0","A2V66KLFVJTLKC","","1","phone","","","","","","","","","","","","","","","","","","","","","","","",""
"11416","","survey-text","3","30641","0.0-3.0-0.0","A2V66KLFVJTLKC","","","","{""Q0"":""A2V66KLFVJTLKC""}","","","","","","","","","","","","","","","","","","","","","","",""
"17034","","image-button-response_instructions","4","47691","0.0-4.0","A2V66KLFVJTLKC","","0","instructions","","","","","","","","","","","","","","","","","","","","","","","",""
"33474","","image-button-response_instructions","5","81175","0.0-5.0","A2V66KLFVJTLKC","img_art/ins/popularity/ins1.png","0","instructions","","","","","","","","","","","","","","","","","","","","","","","",""
"8022","","image-button-response_instructions","6","89206","0.0-6.0","A2V66KLFVJTLKC","img_art/ins/popularity/ins2.png","0","instructions","","","","","","","","","","","","","","","","","","","","","","","",""
"3998","","image-button-response_instructions","7","93211","0.0-7.0","A2V66KLFVJTLKC","img_art/ins/popularity/ins2Extreme.png","0","instructions","","","","","","","","","","","","","","","","","","","","","","","",""
"28613","","image-button-response_instructions","8","121831","0.0-8.0","A2V66KLFVJTLKC","img_art/ins/popularity/ins3KEEPpop.PNG","0","instructions","","","","","","","","","","","","","","","","","","","","","","","",""
"3446","","image-button-response_instructions","9","125285","0.0-9.0","A2V66KLFVJTLKC","img_art/ins/popularity/ins3ANamepop.PNG","0","instructions","","","","","","","","","","","","","","","","","","","","","","","",""
"4330","","image-button-response_instructions","10","129621","0.0-10.0","A2V66KLFVJTLKC","img_art/ins/popularity/ins3ARatingpop.png","0","instructions","","","","","","","","","","","","","","","","","","","","","","","",""
"4401","","image-button-response_instructions","11","134029","0.0-11.0","A2V66KLFVJTLKC","img_art/ins/popularity/ins3ATextpop.png","0","instructions","","","","","","","","","","","","","","","","","","","","","","","",""
"9016","","image-button-response_instructions","12","143051","0.0-12.0","A2V66KLFVJTLKC","img_art/ins/popularity/ins3ALikespop.png","0","instructions","","","","","","","","","","","","","","","","","","","","","","","",""
"18119","","image-button-response_instructions","13","161180","0.0-13.0","A2V66KLFVJTLKC","img_art/ins/popularity/ins3KEEPpop.PNG","0","instructions","","","","","","","","","","","","","","","","","","","","","","","",""
"11581","","image-button-response_instructions","14","172767","0.0-14.0","A2V66KLFVJTLKC","img_art/ins/popularity/ins3_5RED.png","0","instructions","","","","","","","","","","","","","","","","","","","","","","","",""
"5391","","image-button-response_instructions","15","178164","0.0-15.0","A2V66KLFVJTLKC","img_art/ins/popularity/ins3KEEPpop.PNG","0","instructions","","","","","","","","","","","","","","","","","","","","","","","",""
"18322","","image-button-response_instructions","16","196493","0.0-16.0","A2V66KLFVJTLKC","img_art/ins/popularity/ins4KEEPpop.PNG","0","instructions","","","","","","","","","","","","","","","","","","","","","","","",""
"7455","","image-button-response_instructions","17","203955","0.0-17.0","A2V66KLFVJTLKC","img_art/ins/popularity/ins5KEEPpop.PNG","0","instructions","","","","","","","","","","","","","","","","","","","","","","","",""
"2918","","image-button-response_instructions","18","206881","0.0-18.0","A2V66KLFVJTLKC","","0","instructions","","","","","","","","","","","","","","","","","","","","","","","",""
"7743","","survey-text","19","214710","0.0-19.0-0.0","A2V66KLFVJTLKC","","","","{""Q0"":""but""}","","","","","","","","","","","","","","","","","","","","","","",""
"16785","","survey-text","20","231506","0.0-20.0-0.0","A2V66KLFVJTLKC","","","","{""Q0"":""i don't call that art""}","","","","","","","","","","","","","","","","","","","","","","",""
"5913.300000000745","","image-slider-response","21","237434","0.0-21.0","A2V66KLFVJTLKC","","","","","-47","","","","","","","","","","","","","","","","","","","","","",""
"null","","image-button-response","22","242454","0.0-22.0","A2V66KLFVJTLKC","img_art/ins/1.jpg","null","","","","","","","","","","","","","","","","","","","","","","","","",""
"7286","","image-button-response","23","249753","0.0-23.0","A2V66KLFVJTLKC","img_art/ins/1.jpg","1","","","","","","","","","","","","","","","","","","","","","","","","",""
"4232","","image-button-response","24","253999","0.0-24.0-0.0","A2V66KLFVJTLKC","img_art/ins/1.jpg","3","","","","","","","","","","","","","","","","","","","","","","","","",""
"1618","","image-button-response","25","255633","0.0-25.0-0.0","A2V66KLFVJTLKC","img_art/ins/1.jpg","2","","","","","","","","","","","","","","","","","","","","","","","","",""
"null","","html-keyboard-response","26","256144","0.0-26.0","A2V66KLFVJTLKC","<p style=""font-size: 48px;"">+</p>","","","","","null","allTrialResponses","500","1","-2","img_art/ins/1.jpg","-47","i don't call that art","Allison,Ashley,Beth,Dora,Erika,Jen","looks like a lot of things going on in the mist,20,20,20","I just don't get why these type of art would be popular,-32,40,20","This color reminds me of poo,-46,60,20","looks like what my niece in 3rd grade did this afternoon,-50,80,20","I like the sophisticated brushwork,40,100,20","It reminds me of a candy land dream I had,36,120,20","Ashley","I just don't get why these type of art would be popular,-32,40,20","Dora","looks like what my niece in 3rd grade did this afternoon,-50,80,20","Beth","This color reminds me of poo,-46,60,20","0"
"19111","","survey-text","27","275276","0.0-27.0-0.0","A2V66KLFVJTLKC","","","","{""Q0"":""reminds me of a painting i have""}","","","","","","","","","","","","","","","","","","","","","","",""
"4909.5","","image-slider-response","28","280194","0.0-28.0","A2V66KLFVJTLKC","","","","","40","","","","","","","","","","","","","","","","","","","","","",""
"null","","image-button-response","29","285210","0.0-29.0","A2V66KLFVJTLKC","img_art/ins/2.jpg","null","","","","","","","","","","","","","","","","","","","","","","","","",""
"12538","","image-button-response","30","297759","0.0-30.0","A2V66KLFVJTLKC","img_art/ins/2.jpg","3","","","","","","","","","","","","","","","","","","","","","","","","",""
"5266","","image-button-response","31","303039","0.0-31.0-0.0","A2V66KLFVJTLKC","img_art/ins/2.jpg","4","","","","","","","","","","","","","","","","","","","","","","","","",""
"1878","","image-button-response","32","304932","0.0-32.0-0.0","A2V66KLFVJTLKC","img_art/ins/2.jpg","2","","","","","","","","","","","","","","","","","","","","","","","","",""
"null","","html-keyboard-response","33","306441","0.0-33.0","A2V66KLFVJTLKC","<p style=""font-size: 48px;"">+</p>","","","","","null","allTrialResponses","1500","1","-1","img_art/ins/2.jpg","40","reminds me of a painting i have","Jenna,Ashley,Beth,Dora,Kara,Katie","One of my pet peevs,-48,140,20","Idk, it is just annoying,-32,40,20","meaningless painting,-45,60,20","looks too angry,-50,80,20","I like the blocks of color arrangements,30,160,20","too much color!,-28,180,20","Dora","looks too angry,-50,80,20","Kara","I like the blocks of color arrangements,30,160,20","Beth","meaningless painting,-45,60,20","0"
"10433","","survey-text","34","316894","0.0-34.0-0.0","A2V66KLFVJTLKC","","","","{""Q0"":""too much blue""}","","","","","","","","","","","","","","","","","","","","","","",""
"4887.10000000149","","image-slider-response","35","321791","0.0-35.0","A2V66KLFVJTLKC","","","","","-9","","","","","","","","","","","","","","","","","","","","","",""
"3869","","image-button-response","36","326806","0.0-36.0","A2V66KLFVJTLKC","img_art/ins/3.jpg","2","","","","","","","","","","","","","","","","","","","","","","","","",""
"3556","","image-button-response","37","330373","0.0-37.0","A2V66KLFVJTLKC","img_art/ins/3.jpg","2","","","","","","","","","","","","","","","","","","","","","","","","",""
"11304","","image-button-response","38","341694","0.0-38.0-0.0","A2V66KLFVJTLKC","img_art/ins/3.jpg","5","","","","","","","","","","","","","","","","","","","","","","","","",""
"1359","","image-button-response","39","343070","0.0-39.0-0.0","A2V66KLFVJTLKC","img_art/ins/3.jpg","3","","","","","","","","","","","","","","","","","","","","","","","","",""
"null","","html-keyboard-response","40","344078","0.0-40.0","A2V66KLFVJTLKC","<p style=""font-size: 48px;"">+</p>","","","","","null","allTrialResponses","1000","1","0","img_art/ins/3.jpg","-9","too much blue","Mary,Leslie,Beth,Dora,Kara,Rose","I like the overlapping of brushes,41,220,20","It's an alright work,15,200,20","This thing gives me anxiety,-41,60,20","My worst nightmare,-42,80,20","calming blue is very nice,36,160,20","My daily routine, it's depressing,-20,240,20","Beth","This thing gives me anxiety,-41,60,20","Rose","My daily routine, it's depressing,-20,240,20","Dora","My worst nightmare,-42,80,20","0"
"6799","","image-button-response_instructions","41","350920","0.0-41.0","A2V66KLFVJTLKC","","0","instructions","","","","","","","","","","","","","","","","","","","","","","","",""
"12493","","survey-likert","42","363423","0.0-42.0-0.0","A2V66KLFVJTLKC","","","","{""Q0"":"""",""Q1"":0,""Q2"":1}","","","","","","","","","","","","","","","","","","","","","","",""
"6943","","survey-text","43","370416","0.0-43.0-0.0","A2V66KLFVJTLKC","","","","{""Q0"":""rock""}","","","","","","","","","","","","","","","","","","","","","","",""
"26135","","survey-text","44","396560","0.0-44.0-0.0","A2V66KLFVJTLKC","","","","{""Q0"":""reminds me of a jesus painting""}","","","","","","","","","","","","","","","","","","","","","","",""
"5278.89999999851","","image-slider-response","45","401849","0.0-45.0","A2V66KLFVJTLKC","","","","","-1","","","","","","","","","","","","","","","","","","","","","",""
"null","","image-button-response","46","406948","0.0-46.0","A2V66KLFVJTLKC","img_art/4.jpg","null","","","","","","","","","","","","","","","","","","","","","","","","",""
"7678","","image-button-response","47","414643","0.0-47.0","A2V66KLFVJTLKC","img_art/4.jpg","5","","","","","","","","","","","","","","","","","","","","","","","","",""
"8643","","image-button-response","48","423300","0.0-48.0-0.0","A2V66KLFVJTLKC","img_art/4.jpg","3","","","","","","","","","","","","","","","","","","","","","","","","",""
"3010","","image-button-response","49","426325","0.0-49.0-0.0","A2V66KLFVJTLKC","img_art/4.jpg","1","","","","","","","","","","","","","","","","","","","","","","","","",""
"null","","html-keyboard-response","50","427332","0.0-50.0","A2V66KLFVJTLKC","<p style=""font-size: 48px;"">+</p>","","","","","null","allTrialResponses","1000","1","1","img_art/4.jpg","-1","reminds me of a jesus painting","Hailey,Lauren,Shannon,Miranda,Leah,Lindsey","ugly puke yellow is cold and dark,-29,200,20","I like the design. It can be interpreted in various ways, such as a hand of horror or still piece.,15,340,20","I think that this picture is too boring in terms of color and it looks ugly.,-41,220,20","I just don't understand this one at all, I do not like it,-43,320,20","To me just looking at paint scrawls,-41,360,20","Looks like feces smeared on the canvas. I hate it.,-50,400,20","Lindsey","Looks like feces smeared on the canvas. I hate it.,-50,400,20","Miranda","I just don't understand this one at all, I do not like it,-43,320,20","Lauren","I like the design. It can be interpreted in various ways, such as a hand of horror or still piece.,15,340,20","0"
"14409","","survey-text","51","441757","0.0-51.0-0.0","A2V66KLFVJTLKC","","","","{""Q0"":""nice little trees""}","","","","","","","","","","","","","","","","","","","","","","",""
"3380.5","","image-slider-response","52","445148","0.0-52.0","A2V66KLFVJTLKC","","","","","12","","","","","","","","","","","","","","","","","","","","","",""
"null","","image-button-response","53","450161","0.0-53.0","A2V66KLFVJTLKC","img_art/26.jpg","null","","","","","","","","","","","","","","","","","","","","","","","","",""
"1154","","image-button-response","54","451326","0.0-54.0","A2V66KLFVJTLKC","img_art/26.jpg","5","","","","","","","","","","","","","","","","","","","","","","","","",""
"18257","","image-button-response","55","469595","0.0-55.0-0.0","A2V66KLFVJTLKC","img_art/26.jpg","4","","","","","","","","","","","","","","","","","","","","","","","","",""
"1129","","image-button-response","56","470737","0.0-56.0-0.0","A2V66KLFVJTLKC","img_art/26.jpg","3","","","","","","","","","","","","","","","","","","","","","","","","",""
"null","","html-keyboard-response","57","471241","0.0-57.0","A2V66KLFVJTLKC","<p style=""font-size: 48px;"">+</p>","","","","","null","allTrialResponses","500","1","2","img_art/26.jpg","12","nice little trees","Bailey,Lauren,Mikayla,Miranda,Kristen,Lindsey","Too blocky and unfocused. It's like the inside of a house, and the outside.,-24,360,20","The piece doesn't really invoke anything for me.,0,340,20","Love the colors in this one.,22,300,20","This seems pretty and sweet, it's something I would like to actually see.,31,320,20","happy, park, childhood,9,280,20","I see a suburban neighborhood with townhouses and trees. Not a fan of the colors or style.,-16,400,20","Lindsey","I see a suburban neighborhood with townhouses and trees. Not a fan of the colors or style.,-16,400,20","Kristen","happy, park, childhood,9,280,20","Miranda","This seems pretty and sweet, it's something I would like to actually see.,31,320,20","0"
"14168","","survey-text","58","485446","0.0-58.0-0.0","A2V66KLFVJTLKC","","","","{""Q0"":""i think i see a fish""}","","","","","","","","","","","","","","","","","","","","","","",""
"4085.199999999255","","image-slider-response","59","489541","0.0-59.0","A2V66KLFVJTLKC","","","","","-31","","","","","","","","","","","","","","","","","","","","","",""
"null","","image-button-response","60","494554","0.0-60.0","A2V66KLFVJTLKC","img_art/27.jpg","null","","","","","","","","","","","","","","","","","","","","","","","","",""
"4174","","image-button-response","61","498739","0.0-61.0","A2V66KLFVJTLKC","img_art/27.jpg","2","","","","","","","","","","","","","","","","","","","","","","","","",""
"3204","","image-button-response","62","501958","0.0-62.0-0.0","A2V66KLFVJTLKC","img_art/27.jpg","5","","","","","","","","","","","","","","","","","","","","","","","","",""
"3326","","image-button-response","63","505299","0.0-63.0-0.0","A2V66KLFVJTLKC","img_art/27.jpg","4","","","","","","","","","","","","","","","","","","","","","","","","",""
"null","","html-keyboard-response","64","506806","0.0-64.0","A2V66KLFVJTLKC","<p style=""font-size: 48px;"">+</p>","","","","","null","allTrialResponses","1500","1","3","img_art/27.jpg","-31","i think i see a fish","Jenna,Elizabeth,Autumn,Miranda,Kristen,Lindsey","the green & white scribbles feel childlike. perhaps the quality of the photo, but the colors are gloomy.,-13,360,20","Like the abstractness of this picture,20,20,20","Adult contemporary painting with child.,-33,340,20","I'm not a fan. It looks like something my nephews (1 and 2) would make,-8,320,20","makes me think of fume clouds, low visibility,-28,280,20","Looks like my niece's doodles.,-50,400,20","Autumn","Adult contemporary painting with child.,-33,340,20","Lindsey","Looks like my niece's doodles.,-50,400,20","Kristen","makes me think of fume clouds, low visibility,-28,280,20","0"
"15430","","survey-text","65","522263","0.0-65.0-0.0","A2V66KLFVJTLKC","","","","{""Q0"":""stained glass""}","","","","","","","","","","","","","","","","","","","","","","",""
"5021.5","","image-slider-response","66","527295","0.0-66.0","A2V66KLFVJTLKC","","","","","22","","","","","","","","","","","","","","","","","","","","","",""
"null","","image-button-response","67","532310","0.0-67.0","A2V66KLFVJTLKC","img_art/13.jpg","null","","","","","","","","","","","","","","","","","","","","","","","","",""
"11319","","image-button-response","68","543642","0.0-68.0","A2V66KLFVJTLKC","img_art/13.jpg","0","","","","","","","","","","","","","","","","","","","","","","","","",""
"4455","","image-button-response","69","548137","0.0-69.0-0.0","A2V66KLFVJTLKC","img_art/13.jpg","3","","","","","","","","","","","","","","","","","","","","","","","","",""
"4384","","image-button-response","70","552532","0.0-70.0-0.0","A2V66KLFVJTLKC","img_art/13.jpg","4","","","","","","","","","","","","","","","","","","","","","","","","",""
"null","","html-keyboard-response","71","553538","0.0-71.0","A2V66KLFVJTLKC","<p style=""font-size: 48px;"">+</p>","","","","","null","allTrialResponses","1000","1","4","img_art/13.jpg","22","stained glass","Alexa,Margaret,Autumn,Alexandria,Kristen,Lindsey","This looks like a staple bedroom or bathroom piece,41,40,20","i like the splatters and the colors,21,100,20","Nice color abstractions.,21,340,20","the monochrome of blue with splatters makes me excited and happy,36,80,20","happy, serenity,30,280,20","I find this oddly pleasant, but I object to this style. It's just a background with splatters. How is that art?,-5,400,20","Alexa","This looks like a staple bedroom or bathroom piece,41,40,20","Alexandria","the monochrome of blue with splatters makes me excited and happy,36,80,20","Kristen","happy, serenity,30,280,20","0"
"12861","","survey-text","72","566416","0.0-72.0-0.0","A2V66KLFVJTLKC","","","","{""Q0"":""very angry""}","","","","","","","","","","","","","","","","","","","","","","",""
"12989.699999999255","","image-slider-response","73","579414","0.0-73.0","A2V66KLFVJTLKC","","","","","5","","","","","","","","","","","","","","","","","","","","","",""
"null","","image-button-response","74","584427","0.0-74.0","A2V66KLFVJTLKC","img_art/3.jpg","null","","","","","","","","","","","","","","","","","","","","","","","","",""
"10649","","image-button-response","75","595088","0.0-75.0","A2V66KLFVJTLKC","img_art/3.jpg","4","","","","","","","","","","","","","","","","","","","","","","","","",""
"3175","","image-button-response","76","598277","0.0-76.0-0.0","A2V66KLFVJTLKC","img_art/3.jpg","5","","","","","","","","","","","","","","","","","","","","","","","","",""
"1629","","image-button-response","77","599919","0.0-77.0-0.0","A2V66KLFVJTLKC","img_art/3.jpg","3","","","","","","","","","","","","","","","","","","","","","","","","",""
"null","","html-keyboard-response","78","600426","0.0-78.0","A2V66KLFVJTLKC","<p style=""font-size: 48px;"">+</p>","","","","","null","allTrialResponses","500","1","5","img_art/3.jpg","5","very angry","Alexa,Andrea,Madison,Alexandria,Kristen,Danielle","Looks messy and too much for my eyes,-35,40,20","I don't feel anything, it seems childish.,-25,240,20","This doesn't grab me. Perhaps the red is meant to be provocative; I find it gimmicky.,-9,60,20","it makes me feel really angry,-20,80,20","anger, blood, death,-24,280,20","Looks like it was painted with blood, which I'm aware is an art style, but it just looks messy.,-20,340,20","Kristen","anger, blood, death,-24,280,20","Danielle","Looks like it was painted with blood, which I'm aware is an art style, but it just looks messy.,-20,340,20","Alexandria","it makes me feel really angry,-20,80,20","0"
"6620","","survey-text","79","607103","0.0-79.0-0.0","A2V66KLFVJTLKC","","","","{""Q0"":""sky""}","","","","","","","","","","","","","","","","","","","","","","",""
"43987","","survey-text","80","651099","0.0-80.0-0.0","A2V66KLFVJTLKC","","","","{""Q0"":""a mexican villa""}","","","","","","","","","","","","","","","","","","","","","","",""
"3918.699999999255","","image-slider-response","81","655027","0.0-81.0","A2V66KLFVJTLKC","","","","","27","","","","","","","","","","","","","","","","","","","","","",""
"null","","image-button-response","82","660039","0.0-82.0","A2V66KLFVJTLKC","img_art/8.jpg","null","","","","","","","","","","","","","","","","","","","","","","","","",""
"109085","","image-button-response","83","769136","0.0-83.0","A2V66KLFVJTLKC","img_art/8.jpg","2","","","","","","","","","","","","","","","","","","","","","","","","",""
"12179","","image-button-response","84","781331","0.0-84.0-0.0","A2V66KLFVJTLKC","img_art/8.jpg","5","","","","","","","","","","","","","","","","","","","","","","","","",""
"976","","image-button-response","85","782323","0.0-85.0-0.0","A2V66KLFVJTLKC","img_art/8.jpg","4","","","","","","","","","","","","","","","","","","","","","","","","",""
"null","","html-keyboard-response","86","783331","0.0-86.0","A2V66KLFVJTLKC","<p style=""font-size: 48px;"">+</p>","","","","","null","allTrialResponses","1000","1","6","img_art/8.jpg","27","a mexican villa","Erica,Monica,Alexis,Alexandria,Kristen,Danielle","Very busy, I want to look at it and investigate,23,80,20","The faces in the upper left show agony and contrast with the geometric shapes too much,-31,360,20","Reminds me of old 80s fantasy book covers. Nostalgic,23,100,20","It is very colorful with a deeper meaning,25,80,20","mothe nature/godess, watching over you,21,280,20","Enjoy this, it looks like a rushing water pool, surrounded by mountains and buildings, hiding details such as faces.,30,340,20","Alexis","Reminds me of old 80s fantasy book covers. Nostalgic,23,100,20","Danielle","Enjoy this, it looks like a rushing water pool, surrounded by mountains and buildings, hiding details such as faces.,30,340,20","Kristen","mothe nature/godess, watching over you,21,280,20","0"
"15912","","survey-text","87","799264","0.0-87.0-0.0","A2V66KLFVJTLKC","","","","{""Q0"":""i see trees""}","","","","","","","","","","","","","","","","","","","","","","",""
"4673.39999999851","","image-slider-response","88","803946","0.0-88.0","A2V66KLFVJTLKC","","","","","-11","","","","","","","","","","","","","","","","","","","","","",""
"null","","image-button-response","89","808959","0.0-89.0","A2V66KLFVJTLKC","img_art/17.jpg","null","","","","","","","","","","","","","","","","","","","","","","","","",""
"9268","","image-button-response","90","818233","0.0-90.0","A2V66KLFVJTLKC","img_art/17.jpg","5","","","","","","","","","","","","","","","","","","","","","","","","",""
"1397","","image-button-response","91","819639","0.0-91.0-0.0","A2V66KLFVJTLKC","img_art/17.jpg","4","","","","","","","","","","","","","","","","","","","","","","","","",""
"595","","image-button-response","92","820247","0.0-92.0-0.0","A2V66KLFVJTLKC","img_art/17.jpg","3","","","","","","","","","","","","","","","","","","","","","","","","",""
"null","","html-keyboard-response","93","821754","0.0-93.0","A2V66KLFVJTLKC","<p style=""font-size: 48px;"">+</p>","","","","","null","allTrialResponses","1500","1","7","img_art/17.jpg","-11","i see trees","Savannah,Katelyn,Alexis,Gabrielle,Kristen,Danielle","Not even abstract to me, very clear meaning.,44,200,20","Doesnt completely turn me off but wouldnt look twice,-3,100,20","Love the color and nature motif,36,100,20","nice composition and colors, fairy land,28,160,20","calm, tranquil, happy,50,280,20","It's alright, nothing I particularly like but it's just fine,-10,340,20","Danielle","It's alright, nothing I particularly like but it's just fine,-10,340,20","Kristen","calm, tranquil, happy,50,280,20","Gabrielle","nice composition and colors, fairy land,28,160,20","0"
"35721","","survey-text","94","857498","0.0-94.0-0.0","A2V66KLFVJTLKC","","","","{""Q0"":""nature""}","","","","","","","","","","","","","","","","","","","","","","",""
"3709.7000000029802","","image-slider-response","95","861217","0.0-95.0","A2V66KLFVJTLKC","","","","","4","","","","","","","","","","","","","","","","","","","","","",""
"3454","","image-button-response","96","866231","0.0-96.0","A2V66KLFVJTLKC","img_art/24.jpg","5","","","","","","","","","","","","","","","","","","","","","","","","",""
"430","","image-button-response","97","866674","0.0-97.0","A2V66KLFVJTLKC","img_art/24.jpg","5","","","","","","","","","","","","","","","","","","","","","","","","",""
"988","","image-button-response","98","867676","0.0-98.0-0.0","A2V66KLFVJTLKC","img_art/24.jpg","4","","","","","","","","","","","","","","","","","","","","","","","","",""
"2065","","image-button-response","99","869757","0.0-99.0-0.0","A2V66KLFVJTLKC","img_art/24.jpg","2","","","","","","","","","","","","","","","","","","","","","","","","",""
"null","","html-keyboard-response","100","870266","0.0-100.0","A2V66KLFVJTLKC","<p style=""font-size: 48px;"">+</p>","","","","","null","allTrialResponses","500","1","8","img_art/24.jpg","4","nature","Brittany,Angela,Sydney,Gabrielle,Kristen,Danielle","Nice colors, but doesn't do much for me.,1,40,20","Love the colors in this work, and the sense of motion in the water,36,260,20","I'm reminded of a waterfall, but I feel like it could've been better portrayed.,5,320,20","flowing water part is good, some of the rest is ok but dark,14,160,20","calm, nature, safe, happy place,,50,280,20","Looks like a mystical type of forest/waterfall. Love it,40,340,20","Danielle","Looks like a mystical type of forest/waterfall. Love it,40,340,20","Kristen","calm, nature, safe, happy place,,50,280,20","Sydney","I'm reminded of a waterfall, but I feel like it could've been better portrayed.,5,320,20","0"
"14890","","survey-text","101","885177","0.0-101.0-0.0","A2V66KLFVJTLKC","","","","{""Q0"":""i see a bird""}","","","","","","","","","","","","","","","","","","","","","","",""
"4369.800000000745","","image-slider-response","102","889557","0.0-102.0","A2V66KLFVJTLKC","","","","","-12","","","","","","","","","","","","","","","","","","","","","",""
"null","","image-button-response","103","894573","0.0-103.0","A2V66KLFVJTLKC","img_art/6.jpg","null","","","","","","","","","","","","","","","","","","","","","","","","",""
"6133","","image-button-response","104","900717","0.0-104.0","A2V66KLFVJTLKC","img_art/6.jpg","4","","","","","","","","","","","","","","","","","","","","","","","","",""
"2576","","image-button-response","105","903304","0.0-105.0-0.0","A2V66KLFVJTLKC","img_art/6.jpg","1","","","","","","","","","","","","","","","","","","","","","","","","",""
"2021","","image-button-response","106","905345","0.0-106.0-0.0","A2V66KLFVJTLKC","img_art/6.jpg","0","","","","","","","","","","","","","","","","","","","","","","","","",""
"null","","html-keyboard-response","107","905850","0.0-107.0","A2V66KLFVJTLKC","<p style=""font-size: 48px;"">+</p>","","","","","null","allTrialResponses","500","1","9","img_art/6.jpg","-12","i see a bird","Sierra,Kayla,Sydney,Katie,Kristen,Danielle","simplistic. i love orange and green and i love the subject,50,260,20","Little birdie in a desert. Seeking better frontiers.,13,180,20","This piece reminds me of the lorax.,5,320,20","I like the warmth of the orange. But, I feel like it's a partial view. I'm frustrated I can't see the entirety.,-20,160,20","loneliness, fragile, forever alone, a girl who's been there for eternity, only think tracking time is the length of her hair,9,280,20","Not a fan of anything in this,-43,340,20","Kristen","loneliness, fragile, forever alone, a girl who's been there for eternity, only think tracking time is the length of her hair,9,280,20","Kayla","Little birdie in a desert. Seeking better frontiers.,13,180,20","Sierra","simplistic. i love orange and green and i love the subject,50,260,20","0"
"27044","","survey-text","108","932920","0.0-108.0-0.0","A2V66KLFVJTLKC","","","","{""Q0"":""superman ice cream""}","","","","","","","","","","","","","","","","","","","","","","",""
"5575.70000000298","","image-slider-response","109","938504","0.0-109.0","A2V66KLFVJTLKC","","","","","50","","","","","","","","","","","","","","","","","","","","","",""
"null","","image-button-response","110","943515","0.0-110.0","A2V66KLFVJTLKC","img_art/22.jpg","null","","","","","","","","","","","","","","","","","","","","","","","","",""
"8349","","image-button-response","111","951876","0.0-111.0","A2V66KLFVJTLKC","img_art/22.jpg","3","","","","","","","","","","","","","","","","","","","","","","","","",""
"3232","","image-button-response","112","955122","0.0-112.0-0.0","A2V66KLFVJTLKC","img_art/22.jpg","4","","","","","","","","","","","","","","","","","","","","","","","","",""
"8267","","image-button-response","113","963405","0.0-113.0-0.0","A2V66KLFVJTLKC","img_art/22.jpg","1","","","","","","","","","","","","","","","","","","","","","","","","",""
"null","","html-keyboard-response","114","963913","0.0-114.0","A2V66KLFVJTLKC","<p style=""font-size: 48px;"">+</p>","","","","","null","allTrialResponses","500","1","10","img_art/22.jpg","50","superman ice cream","Sierra,Kayla,Haley,Michelle,Kristen,Jasmine","colorful. but not much happening,1,260,20","I don't like that it looks like a person is there upside down.,-16,180,20","Beautiful. I love the color contrast and gradients.,50,220,20","Not a huge fan of the blocks, also very abstract, I have no idea what it is,8,280,20","fire, danger, resentful,-17,280,20","I appreciate the artistic effort but it's not for me,0,340,20","Michelle","Not a huge fan of the blocks, also very abstract, I have no idea what it is,8,280,20","Kristen","fire, danger, resentful,-17,280,20","Kayla","I don't like that it looks like a person is there upside down.,-16,180,20","0"
"5319","","survey-text","115","969270","0.0-115.0-0.0","A2V66KLFVJTLKC","","","","{""Q0"":""our""}","","","","","","","","","","","","","","","","","","","","","","",""
"16839","","survey-text","116","986118","0.0-116.0-0.0","A2V66KLFVJTLKC","","","","{""Q0"":""early 90's""}","","","","","","","","","","","","","","","","","","","","","","",""
"18875","","image-slider-response","117","1005003","0.0-117.0","A2V66KLFVJTLKC","","","","","-12","","","","","","","","","","","","","","","","","","","","","",""
"null","","image-button-response","118","1010015","0.0-118.0","A2V66KLFVJTLKC","img_art/12.jpg","null","","","","","","","","","","","","","","","","","","","","","","","","",""
"1264","","image-button-response","119","1011288","0.0-119.0","A2V66KLFVJTLKC","img_art/12.jpg","1","","","","","","","","","","","","","","","","","","","","","","","","",""
"7347","","image-button-response","120","1018646","0.0-120.0-0.0","A2V66KLFVJTLKC","img_art/12.jpg","0","","","","","","","","","","","","","","","","","","","","","","","","",""
"2790","","image-button-response","121","1021450","0.0-121.0-0.0","A2V66KLFVJTLKC","img_art/12.jpg","4","","","","","","","","","","","","","","","","","","","","","","","","",""
"null","","html-keyboard-response","122","1022956","0.0-122.0","A2V66KLFVJTLKC","<p style=""font-size: 48px;"">+</p>","","","","","null","allTrialResponses","1500","1","11","img_art/12.jpg","-12","early 90's","Katherine,Kayla,Caitlin,Michelle,Kristen,Olivia","Not sure why but this is my favorite. I'd put it on my wall,50,120,20","Yay! Lots of people, lots of lives.,25,180,20","Just wish it was more colorful.,20,80,20","eww hate everything about this, looks like it belongs in a dentist's office,-14,280,20","stressful, upsetting,-10,280,20","feels cluttered,-11,40,20","Kayla","Yay! Lots of people, lots of lives.,25,180,20","Katherine","Not sure why but this is my favorite. I'd put it on my wall,50,120,20","Kristen","stressful, upsetting,-10,280,20","0"
"17028","","survey-text","123","1040042","0.0-123.0-0.0","A2V66KLFVJTLKC","","","","{""Q0"":""a tree that fell over""}","","","","","","","","","","","","","","","","","","","","","","",""
"6892.099999997765","","image-slider-response","124","1046945","0.0-124.0","A2V66KLFVJTLKC","","","","","-13","","","","","","","","","","","","","","","","","","","","","",""
"4586","","image-button-response","125","1051957","0.0-125.0","A2V66KLFVJTLKC","img_art/14.jpg","4","","","","","","","","","","","","","","","","","","","","","","","","",""
"6702","","image-button-response","126","1058671","0.0-126.0","A2V66KLFVJTLKC","img_art/14.jpg","1","","","","","","","","","","","","","","","","","","","","","","","","",""
"5309","","image-button-response","127","1063992","0.0-127.0-0.0","A2V66KLFVJTLKC","img_art/14.jpg","0","","","","","","","","","","","","","","","","","","","","","","","","",""
"4504","","image-button-response","128","1068512","0.0-128.0-0.0","A2V66KLFVJTLKC","img_art/14.jpg","4","","","","","","","","","","","","","","","","","","","","","","","","",""
"null","","html-keyboard-response","129","1069021","0.0-129.0","A2V66KLFVJTLKC","<p style=""font-size: 48px;"">+</p>","","","","","null","allTrialResponses","500","1","12","img_art/14.jpg","-13","a tree that fell over","Katherine,Kayla,Alicia,Alexandra,Kristen,Amanda","I don't like the color red,30,120,20","I like that it looks like plants on a table, which reminds me of life.,4,180,20","ok, gloomy though.,12,120,20","Pretty, dainty, unique,22,60,20","somewhat stressful, crazy,-3,280,20","Gorgeous use of water color,50,180,20","Kayla","I like that it looks like plants on a table, which reminds me of life.,4,180,20","Katherine","I don't like the color red,30,120,20","Kristen","somewhat stressful, crazy,-3,280,20","0"
"21893","","survey-text","130","1090937","0.0-130.0-0.0","A2V66KLFVJTLKC","","","","{""Q0"":""pretty pastels""}","","","","","","","","","","","","","","","","","","","","","","",""
"10517.800000000745","","image-slider-response","131","1101462","0.0-131.0","A2V66KLFVJTLKC","","","","","43","","","","","","","","","","","","","","","","","","","","","",""
"4938","","image-button-response","132","1106477","0.0-132.0","A2V66KLFVJTLKC","img_art/21.jpg","1","","","","","","","","","","","","","","","","","","","","","","","","",""
"1902","","image-button-response","133","1108392","0.0-133.0","A2V66KLFVJTLKC","img_art/21.jpg","1","","","","","","","","","","","","","","","","","","","","","","","","",""
"5889","","image-button-response","134","1114292","0.0-134.0-0.0","A2V66KLFVJTLKC","img_art/21.jpg","2","","","","","","","","","","","","","","","","","","","","","","","","",""
"6162","","image-button-response","135","1120468","0.0-135.0-0.0","A2V66KLFVJTLKC","img_art/21.jpg","0","","","","","","","","","","","","","","","","","","","","","","","","",""
"null","","html-keyboard-response","136","1121475","0.0-136.0","A2V66KLFVJTLKC","<p style=""font-size: 48px;"">+</p>","","","","","null","allTrialResponses","1000","1","13","img_art/21.jpg","43","pretty pastels","Katherine,Kayla,Leslie,Vanessa,Kristen,Destiny","I can't explain why this struck me as absolutely gorgeous. Like the clashing between 2 different worlds,43,120,20","I like that it reminds me of an abstract version of a Bob Ross painting.,36,180,20","The colors make me think of a perilous scene at sea, and are pretty interesting.,15,380,20","The colors and softness work together to make something that's lovely.,42,380,20","calm, ship at sea, sunset,16,280,20","Pink is my favorite, against blue it looks like sunset. Seems like a boat burning down, so don't absolutely love it,23,360,20","Kayla","I like that it reminds me of an abstract version of a Bob Ross painting.,36,180,20","Leslie","The colors make me think of a perilous scene at sea, and are pretty interesting.,15,380,20","Katherine","I can't explain why this struck me as absolutely gorgeous. Like the clashing between 2 different worlds,43,120,20","0"
"40452","","survey-text","137","1161968","0.0-137.0-0.0","A2V66KLFVJTLKC","","","","{""Q0"":""an old man holding a sheep""}","","","","","","","","","","","","","","","","","","","","","","",""
"3421.599999997765","","image-slider-response","138","1165400","0.0-138.0","A2V66KLFVJTLKC","","","","","13","","","","","","","","","","","","","","","","","","","","","",""
"3071","","image-button-response","139","1170413","0.0-139.0","A2V66KLFVJTLKC","img_art/16.jpg","4","","","","","","","","","","","","","","","","","","","","","","","","",""
"726","","image-button-response","140","1171150","0.0-140.0","A2V66KLFVJTLKC","img_art/16.jpg","4","","","","","","","","","","","","","","","","","","","","","","","","",""
"9073","","image-button-response","141","1180234","0.0-141.0-0.0","A2V66KLFVJTLKC","img_art/16.jpg","1","","","","","","","","","","","","","","","","","","","","","","","","",""
"2977","","image-button-response","142","1183224","0.0-142.0-0.0","A2V66KLFVJTLKC","img_art/16.jpg","0","","","","","","","","","","","","","","","","","","","","","","","","",""
"null","","html-keyboard-response","143","1184231","0.0-143.0","A2V66KLFVJTLKC","<p style=""font-size: 48px;"">+</p>","","","","","null","allTrialResponses","1000","1","14","img_art/16.jpg","13","an old man holding a sheep","Katherine,Kayla,Leslie,Emily,Molly,Stephanie","Super weird. Id like to know more about it,24,120,20","Looks upsetting. Like it's actually graphic violence but you can't tell.,-24,180,20","This is making me feel nervous in an enjoyable way.,20,380,20","Looks like a kid did itt and ti looks disturbing.,-45,40,20","It's frightening.,30,340,20","It looks violent.,-30,300,20","Molly","It's frightening.,30,340,20","Kayla","Looks upsetting. Like it's actually graphic violence but you can't tell.,-24,180,20","Katherine","Super weird. Id like to know more about it,24,120,20","0"
"20742","","survey-text","144","1205011","0.0-144.0-0.0","A2V66KLFVJTLKC","","","","{""Q0"":""busy kitchen""}","","","","","","","","","","","","","","","","","","","","","","",""
"3650.89999999851","","image-slider-response","145","1208674","0.0-145.0","A2V66KLFVJTLKC","","","","","16","","","","","","","","","","","","","","","","","","","","","",""
"null","","image-button-response","146","1213687","0.0-146.0","A2V66KLFVJTLKC","img_art/19.jpg","null","","","","","","","","","","","","","","","","","","","","","","","","",""
"1620","","image-button-response","147","1215319","0.0-147.0","A2V66KLFVJTLKC","img_art/19.jpg","1","","","","","","","","","","","","","","","","","","","","","","","","",""
"16677","","image-button-response","148","1232012","0.0-148.0-0.0","A2V66KLFVJTLKC","img_art/19.jpg","4","","","","","","","","","","","","","","","","","","","","","","","","",""
"3422","","image-button-response","149","1235452","0.0-149.0-0.0","A2V66KLFVJTLKC","img_art/19.jpg","3","","","","","","","","","","","","","","","","","","","","","","","","",""
"null","","html-keyboard-response","150","1236460","0.0-150.0","A2V66KLFVJTLKC","<p style=""font-size: 48px;"">+</p>","","","","","null","allTrialResponses","1000","1","15","img_art/19.jpg","16","busy kitchen","Katherine,Kayla,Kaitlyn,Catherine,Molly,Nicole","I dig the not being able to tell what anything is but knowing everything is supposed to be something,46,120,20","Too messy and busy. Too much going on there for me.,-12,180,20","The picture contains a lot of brown and weird drips,-4,80,20","Higher power looking down at its creation with a half smile and some hurt.,45,160,20","I can see kind of beach and sea full of people and buildings.,25,340,20","Feels like something I would hang in my dining room,42,20,20","Kayla","Too messy and busy. Too much going on there for me.,-12,180,20","Molly","I can see kind of beach and sea full of people and buildings.,25,340,20","Catherine","Higher power looking down at its creation with a half smile and some hurt.,45,160,20","0"
"7304","","survey-text","151","1243821","0.0-151.0-0.0","A2V66KLFVJTLKC","","","","{""Q0"":""course""}","","","","","","","","","","","","","","","","","","","","","","",""
"13656","","survey-text","152","1257485","0.0-152.0-0.0","A2V66KLFVJTLKC","","","","{""Q0"":""ship lost at sea""}","","","","","","","","","","","","","","","","","","","","","","",""
"7400.099999997765","","image-slider-response","153","1264896","0.0-153.0","A2V66KLFVJTLKC","","","","","-7","","","","","","","","","","","","","","","","","","","","","",""
"null","","image-button-response","154","1269910","0.0-154.0","A2V66KLFVJTLKC","img_art/18.jpg","null","","","","","","","","","","","","","","","","","","","","","","","","",""
"1142","","image-button-response","155","1271063","0.0-155.0","A2V66KLFVJTLKC","img_art/18.jpg","1","","","","","","","","","","","","","","","","","","","","","","","","",""
"9867","","image-button-response","156","1280942","0.0-156.0-0.0","A2V66KLFVJTLKC","img_art/18.jpg","5","","","","","","","","","","","","","","","","","","","","","","","","",""
"4711","","image-button-response","157","1285669","0.0-157.0-0.0","A2V66KLFVJTLKC","img_art/18.jpg","3","","","","","","","","","","","","","","","","","","","","","","","","",""
"null","","html-keyboard-response","158","1287177","0.0-158.0","A2V66KLFVJTLKC","<p style=""font-size: 48px;"">+</p>","","","","","null","allTrialResponses","1500","1","16","img_art/18.jpg","-7","ship lost at sea","Jennifer,Kayla,Cassidy,Catherine,Molly,Dominique","I have no strong feelings about this image,1,380,20","It's like a ship, but a freaky ship.,-11,180,20","nice balance of color. The different sizes and types of strokes give a lot to look at,18,140,20","Karma. being ruthless and all the time knowing the shit is gonna catch up with you.,10,160,20","White and yellow look awesome and the picture's dynamics are wonderful.,30,340,20","Very conversational and can see many different looks and feels from this .,34,400,20","Kayla","It's like a ship, but a freaky ship.,-11,180,20","Dominique","Very conversational and can see many different looks and feels from this .,34,400,20","Catherine","Karma. being ruthless and all the time knowing the shit is gonna catch up with you.,10,160,20","0"
"20323","","survey-text","159","1307544","0.0-159.0-0.0","A2V66KLFVJTLKC","","","","{""Q0"":""can't figure it out""}","","","","","","","","","","","","","","","","","","","","","","",""
"5319.10000000149","","image-slider-response","160","1312873","0.0-160.0","A2V66KLFVJTLKC","","","","","1","","","","","","","","","","","","","","","","","","","","","",""
"null","","image-button-response","161","1317887","0.0-161.0","A2V66KLFVJTLKC","img_art/5.jpg","null","","","","","","","","","","","","","","","","","","","","","","","","",""
"3617","","image-button-response","162","1321514","0.0-162.0","A2V66KLFVJTLKC","img_art/5.jpg","1","","","","","","","","","","","","","","","","","","","","","","","","",""
"6945","","image-button-response","163","1328470","0.0-163.0-0.0","A2V66KLFVJTLKC","img_art/5.jpg","0","","","","","","","","","","","","","","","","","","","","","","","","",""
"12624","","image-button-response","164","1341104","0.0-164.0-0.0","A2V66KLFVJTLKC","img_art/5.jpg","3","","","","","","","","","","","","","","","","","","","","","","","","",""
"null","","html-keyboard-response","165","1342109","0.0-165.0","A2V66KLFVJTLKC","<p style=""font-size: 48px;"">+</p>","","","","","null","allTrialResponses","1000","1","17","img_art/5.jpg","1","can't figure it out","Jamie,Kayla,Sara,Catherine,Madeline,Dominique","Don't really see it and yellow/pink don't go well together,-35,320,20","I like that the pyramid is putting off a beacon of light.,11,180,20","It looks random,-10,160,20","Building remnants in the sand.,1,160,20","A bit too messy in my eyes,-4,40,20","It speaks volumes to some. It's also a conversational piece. And very different ideas,34,400,20","Kayla","I like that the pyramid is putting off a beacon of light.,11,180,20","Jamie","Don't really see it and yellow/pink don't go well together,-35,320,20","Catherine","Building remnants in the sand.,1,160,20","0"
"22458","","survey-text","166","1364594","0.0-166.0-0.0","A2V66KLFVJTLKC","","","","{""Q0"":""idiotic""}","","","","","","","","","","","","","","","","","","","","","","",""
"5188.5","","image-slider-response","167","1369792","0.0-167.0","A2V66KLFVJTLKC","","","","","-35","","","","","","","","","","","","","","","","","","","","","",""
"null","","image-button-response","168","1374805","0.0-168.0","A2V66KLFVJTLKC","img_art/2.jpg","null","","","","","","","","","","","","","","","","","","","","","","","","",""
"8652","","image-button-response","169","1383467","0.0-169.0","A2V66KLFVJTLKC","img_art/2.jpg","0","","","","","","","","","","","","","","","","","","","","","","","","",""
"5553","","image-button-response","170","1389033","0.0-170.0-0.0","A2V66KLFVJTLKC","img_art/2.jpg","3","","","","","","","","","","","","","","","","","","","","","","","","",""
"4641","","image-button-response","171","1393687","0.0-171.0-0.0","A2V66KLFVJTLKC","img_art/2.jpg","1","","","","","","","","","","","","","","","","","","","","","","","","",""
"null","","html-keyboard-response","172","1395197","0.0-172.0","A2V66KLFVJTLKC","<p style=""font-size: 48px;"">+</p>","","","","","null","allTrialResponses","1500","1","18","img_art/2.jpg","-35","idiotic","Jamie,Kayla,Kelly,Catherine,Gabriela,Courtney","Awful color coordination and design,-35,320,20","Different cultures. I like that it brings differences together.,4,180,20","I cant tell whats happening here and that shade of green is just not my thing.,-17,220,20","Dependence. Things relying on each other. Caring,-4,160,20","The people look blurred together,-21,140,20","That looks look a cartoon character of some kind.,11,280,20","Jamie","Awful color coordination and design,-35,320,20","Catherine","Dependence. Things relying on each other. Caring,-4,160,20","Kayla","Different cultures. I like that it brings differences together.,4,180,20","0"
"38605","","survey-text","173","1433834","0.0-173.0-0.0","A2V66KLFVJTLKC","","","","{""Q0"":""i see a pig and an alien""}","","","","","","","","","","","","","","","","","","","","","","",""
"6320.599999997765","","image-slider-response","174","1440165","0.0-174.0","A2V66KLFVJTLKC","","","","","10","","","","","","","","","","","","","","","","","","","","","",""
"null","","image-button-response","175","1445179","0.0-175.0","A2V66KLFVJTLKC","img_art/28.jpg","null","","","","","","","","","","","","","","","","","","","","","","","","",""
"6441","","image-button-response","176","1451632","0.0-176.0","A2V66KLFVJTLKC","img_art/28.jpg","3","","","","","","","","","","","","","","","","","","","","","","","","",""
"4071","","image-button-response","177","1455719","0.0-177.0-0.0","A2V66KLFVJTLKC","img_art/28.jpg","4","","","","","","","","","","","","","","","","","","","","","","","","",""
"865","","image-button-response","178","1456601","0.0-178.0-0.0","A2V66KLFVJTLKC","img_art/28.jpg","5","","","","","","","","","","","","","","","","","","","","","","","","",""
"null","","html-keyboard-response","179","1457109","0.0-179.0","A2V66KLFVJTLKC","<p style=""font-size: 48px;"">+</p>","","","","","null","allTrialResponses","500","1","19","img_art/28.jpg","10","i see a pig and an alien","Jamie,Kayla,Breanna,Catherine,Julia,Shelby","Gloomy colors and picture,5,320,20","Don't love it, don't hate it. It's just there.,1,180,20","The colors are depressing,-5,380,20","A mom protecting her child because something scary, (perhaps imaginary) wants to take the child.,-10,160,20","the people kind of scare me in this one,-15,40,20","This one gives me an uneasy feeling,-10,240,20","Catherine","A mom protecting her child because something scary, (perhaps imaginary) wants to take the child.,-10,160,20","Julia","the people kind of scare me in this one,-15,40,20","Shelby","This one gives me an uneasy feeling,-10,240,20","0"
"20769","","survey-text","180","1477910","0.0-180.0-0.0","A2V66KLFVJTLKC","","","","{""Q0"":""alien at the pyramids""}","","","","","","","","","","","","","","","","","","","","","","",""
"5479","","image-slider-response","181","1483398","0.0-181.0","A2V66KLFVJTLKC","","","","","50","","","","","","","","","","","","","","","","","","","","","",""
"null","","image-button-response","182","1488411","0.0-182.0","A2V66KLFVJTLKC","img_art/25.jpg","null","","","","","","","","","","","","","","","","","","","","","","","","",""
"1021","","image-button-response","183","1489441","0.0-183.0","A2V66KLFVJTLKC","img_art/25.jpg","1","","","","","","","","","","","","","","","","","","","","","","","","",""
"1513","","image-button-response","184","1490964","0.0-184.0-0.0","A2V66KLFVJTLKC","img_art/25.jpg","2","","","","","","","","","","","","","","","","","","","","","","","","",""
"3801","","image-button-response","185","1494775","0.0-185.0-0.0","A2V66KLFVJTLKC","img_art/25.jpg","0","","","","","","","","","","","","","","","","","","","","","","","","",""
"null","","html-keyboard-response","186","1495780","0.0-186.0","A2V66KLFVJTLKC","<p style=""font-size: 48px;"">+</p>","","","","","null","allTrialResponses","1000","1","20","img_art/25.jpg","50","alien at the pyramids","Victoria,Meghan,Makayla,Catherine,Julia,Shelby","makes me think of a scary movie,-20,400,20","reminds me of a zombie,-36,220,20","It's very mystical.,5,80,20","culture, tradition. Village people with an honored elder.,40,160,20","the color is pleasing and draws out the contrast of the lines,10,40,20","This makes me feel uneasy,-20,240,20","Meghan","reminds me of a zombie,-36,220,20","Makayla","It's very mystical.,5,80,20","Victoria","makes me think of a scary movie,-20,400,20","0"
"11459","","survey-text","187","1507275","0.0-187.0-0.0","A2V66KLFVJTLKC","","","","{""Q0"":""we""}","","","","","","","","","","","","","","","","","","","","","","",""
"13304","","survey-text","188","1520588","0.0-188.0-0.0","A2V66KLFVJTLKC","","","","{""Q0"":""ants in the sand""}","","","","","","","","","","","","","","","","","","","","","","",""
"14417.800000000745","","image-slider-response","189","1535016","0.0-189.0","A2V66KLFVJTLKC","","","","","14","","","","","","","","","","","","","","","","","","","","","",""
"null","","image-button-response","190","1540030","0.0-190.0","A2V66KLFVJTLKC","img_art/7.jpg","null","","","","","","","","","","","","","","","","","","","","","","","","",""
"2900","","image-button-response","191","1542937","0.0-191.0","A2V66KLFVJTLKC","img_art/7.jpg","2","","","","","","","","","","","","","","","","","","","","","","","","",""
"5908","","image-button-response","192","1548860","0.0-192.0-0.0","A2V66KLFVJTLKC","img_art/7.jpg","5","","","","","","","","","","","","","","","","","","","","","","","","",""
"3591","","image-button-response","193","1552478","0.0-193.0-0.0","A2V66KLFVJTLKC","img_art/7.jpg","3","","","","","","","","","","","","","","","","","","","","","","","","",""
"null","","html-keyboard-response","194","1553996","0.0-194.0","A2V66KLFVJTLKC","<p style=""font-size: 48px;"">+</p>","","","","","null","allTrialResponses","1500","1","21","img_art/7.jpg","14","ants in the sand","Victoria,Meghan,Makayla,Jessica,Kelsey,Rachel","looks like a photograph,-4,400,20","I don't like the texture,-49,220,20","It's just like sand from the beach,2,80,20","Looks like a natural texture, reminds me of rocks.,0,400,20","its like oatmeal with granola,-47,240,20","Looks like a desert or another planet. While the color choices are narrow, it's still interesting because it is very natural.,12,80,20","Makayla","It's just like sand from the beach,2,80,20","Rachel","Looks like a desert or another planet. While the color choices are narrow, it's still interesting because it is very natural.,12,80,20","Jessica","Looks like a natural texture, reminds me of rocks.,0,400,20","0"
"62587","","survey-text","195","1616608","0.0-195.0-0.0","A2V66KLFVJTLKC","","","","{""Q0"":""explosion of color""}","","","","","","","","","","","","","","","","","","","","","","",""
"5001","","image-slider-response","196","1621619","0.0-196.0","A2V66KLFVJTLKC","","","","","15","","","","","","","","","","","","","","","","","","","","","",""
"null","","image-button-response","197","1626632","0.0-197.0","A2V66KLFVJTLKC","img_art/23.jpg","null","","","","","","","","","","","","","","","","","","","","","","","","",""
"195","","image-button-response","198","1626836","0.0-198.0","A2V66KLFVJTLKC","img_art/23.jpg","2","","","","","","","","","","","","","","","","","","","","","","","","",""
"1575","","image-button-response","199","1628422","0.0-199.0-0.0","A2V66KLFVJTLKC","img_art/23.jpg","0","","","","","","","","","","","","","","","","","","","","","","","","",""
"12820","","image-button-response","200","1641255","0.0-200.0-0.0","A2V66KLFVJTLKC","img_art/23.jpg","5","","","","","","","","","","","","","","","","","","","","","","","","",""
"null","","html-keyboard-response","201","1641763","0.0-201.0","A2V66KLFVJTLKC","<p style=""font-size: 48px;"">+</p>","","","","","null","allTrialResponses","500","1","22","img_art/23.jpg","15","explosion of color","Brianna,Caroline,Makayla,Jessica,Mary,Rachel","I love the rainbow!,12,20,20","Like the colors and made me feel happy,23,100,20","Reminds me of disco/70's, not my favorite design,-12,80,20","This is very cool!,24,400,20","The colors are ugly. I don't like the white. It doesn't compliment the piece at all.,-44,180,20","Vivid colors and the white in the middle looks like people dancing.,31,80,20","Makayla","Reminds me of disco/70's, not my favorite design,-12,80,20","Brianna","I love the rainbow!,12,20,20","Rachel","Vivid colors and the white in the middle looks like people dancing.,31,80,20","0"
"24312","","survey-text","202","1666100","0.0-202.0-0.0","A2V66KLFVJTLKC","","","","{""Q0"":""deep space and the black hole""}","","","","","","","","","","","","","","","","","","","","","","",""
"2819.300000000745","","image-slider-response","203","1668928","0.0-203.0","A2V66KLFVJTLKC","","","","","10","","","","","","","","","","","","","","","","","","","","","",""
"null","","image-button-response","204","1673938","0.0-204.0","A2V66KLFVJTLKC","img_art/29.jpg","null","","","","","","","","","","","","","","","","","","","","","","","","",""
"11534","","image-button-response","205","1685482","0.0-205.0","A2V66KLFVJTLKC","img_art/29.jpg","1","","","","","","","","","","","","","","","","","","","","","","","","",""
"2825","","image-button-response","206","1688321","0.0-206.0-0.0","A2V66KLFVJTLKC","img_art/29.jpg","2","","","","","","","","","","","","","","","","","","","","","","","","",""
"15715","","image-button-response","207","1704049","0.0-207.0-0.0","A2V66KLFVJTLKC","img_art/29.jpg","0","","","","","","","","","","","","","","","","","","","","","","","","",""
"null","","html-keyboard-response","208","1705057","0.0-208.0","A2V66KLFVJTLKC","<p style=""font-size: 48px;"">+</p>","","","","","null","allTrialResponses","1000","1","23","img_art/29.jpg","10","deep space and the black hole","Brianna,Kylie,Makayla,Christina,Sabrina,Rachel","It has a red X on there, and x's mean bad in my perspective,-29,20,20","Reminds me of graffitti gone wrong,15,300,20","Looks like a jail cell,-15,80,20","It's too on trend with the gray and doesn't look like a lasting piece,-4,240,20","I love the representation of a mess,50,120,20","It looks like someone did not like their art and drew an x over it.,-32,80,20","Kylie","Reminds me of graffitti gone wrong,15,300,20","Makayla","Looks like a jail cell,-15,80,20","Brianna","It has a red X on there, and x's mean bad in my perspective,-29,20,20","0"
"26111","","survey-text","209","1731203","0.0-209.0-0.0","A2V66KLFVJTLKC","","","","{""Q0"":""easter morning""}","","","","","","","","","","","","","","","","","","","","","","",""
"3819.89999999851","","image-slider-response","210","1735033","0.0-210.0","A2V66KLFVJTLKC","","","","","9","","","","","","","","","","","","","","","","","","","","","",""
"null","","image-button-response","211","1740047","0.0-211.0","A2V66KLFVJTLKC","img_art/1.jpg","null","","","","","","","","","","","","","","","","","","","","","","","","",""
"471","","image-button-response","212","1740529","0.0-212.0","A2V66KLFVJTLKC","img_art/1.jpg","0","","","","","","","","","","","","","","","","","","","","","","","","",""
"6286","","image-button-response","213","1746828","0.0-213.0-0.0","A2V66KLFVJTLKC","img_art/1.jpg","4","","","","","","","","","","","","","","","","","","","","","","","","",""
"2149","","image-button-response","214","1748992","0.0-214.0-0.0","A2V66KLFVJTLKC","img_art/1.jpg","3","","","","","","","","","","","","","","","","","","","","","","","","",""
"null","","html-keyboard-response","215","1750000","0.0-215.0","A2V66KLFVJTLKC","<p style=""font-size: 48px;"">+</p>","","","","","null","allTrialResponses","1000","1","24","img_art/1.jpg","9","easter morning","Brianna,Kylie,Makayla,Hannah,Cynthia,Angelica","It's very colorful, and I like it,11,20,20","I don't know how I feel about this,1,300,20","Nothing whatsoever,2,80,20","Reminds me of fall.,7,240,20","fishing on the lake surrounded by trees,42,320,20","This is ugly with bad colors.,-6,280,20","Brianna","It's very colorful, and I like it,11,20,20","Cynthia","fishing on the lake surrounded by trees,42,320,20","Hannah","Reminds me of fall.,7,240,20","0"
"19968","","survey-text","216","1770000","0.0-216.0-0.0","A2V66KLFVJTLKC","","","","{""Q0"":""looks like watercolors""}","","","","","","","","","","","","","","","","","","","","","","",""
"4099.89999999851","","image-slider-response","217","1774110","0.0-217.0","A2V66KLFVJTLKC","","","","","-6","","","","","","","","","","","","","","","","","","","","","",""
"null","","image-button-response","218","1779123","0.0-218.0","A2V66KLFVJTLKC","img_art/30.jpg","null","","","","","","","","","","","","","","","","","","","","","","","","",""
"819","","image-button-response","219","1779952","0.0-219.0","A2V66KLFVJTLKC","img_art/30.jpg","2","","","","","","","","","","","","","","","","","","","","","","","","",""
"7890","","image-button-response","220","1787852","0.0-220.0-0.0","A2V66KLFVJTLKC","img_art/30.jpg","5","","","","","","","","","","","","","","","","","","","","","","","","",""
"1884","","image-button-response","221","1789751","0.0-221.0-0.0","A2V66KLFVJTLKC","img_art/30.jpg","3","","","","","","","","","","","","","","","","","","","","","","","","",""
"null","","html-keyboard-response","222","1790258","0.0-222.0","A2V66KLFVJTLKC","<p style=""font-size: 48px;"">+</p>","","","","","null","allTrialResponses","500","1","25","img_art/30.jpg","-6","looks like watercolors","Brianna,Jacqueline,Abigail,Hannah,Cynthia,Sarah","I like the fact that it's a painting.,21,20,20","Too dark and ugly with all the black smears,-20,300,20","Combination of colors arent good,-6,20,20","It's just all right.,5,240,20","fun and imaginative,12,320,20","looks simple, I can't see a lot of care going into this,-33,180,20","Abigail","Combination of colors arent good,-6,20,20","Sarah","looks simple, I can't see a lot of care going into this,-33,180,20","Hannah","It's just all right.,5,240,20","0"
"6698","","survey-text","223","1797010","0.0-223.0-0.0","A2V66KLFVJTLKC","","","","{""Q0"":""table""}","","","","","","","","","","","","","","","","","","","","","","",""
"9996","","survey-text","224","1807015","0.0-224.0-0.0","A2V66KLFVJTLKC","","","","{""Q0"":""a sea monster""}","","","","","","","","","","","","","","","","","","","","","","",""
"3193.800000000745","","image-slider-response","225","1810219","0.0-225.0","A2V66KLFVJTLKC","","","","","14","","","","","","","","","","","","","","","","","","","","","",""
"null","","image-button-response","226","1815232","0.0-226.0","A2V66KLFVJTLKC","img_art/9.jpg","null","","","","","","","","","","","","","","","","","","","","","","","","",""
"1028","","image-button-response","227","1816271","0.0-227.0","A2V66KLFVJTLKC","img_art/9.jpg","2","","","","","","","","","","","","","","","","","","","","","","","","",""
"6717","","image-button-response","228","1823001","0.0-228.0-0.0","A2V66KLFVJTLKC","img_art/9.jpg","3","","","","","","","","","","","","","","","","","","","","","","","","",""
"3401","","image-button-response","229","1826414","0.0-229.0-0.0","A2V66KLFVJTLKC","img_art/9.jpg","0","","","","","","","","","","","","","","","","","","","","","","","","",""
"null","","html-keyboard-response","230","1827925","0.0-230.0","A2V66KLFVJTLKC","<p style=""font-size: 48px;"">+</p>","","","","","null","allTrialResponses","1500","1","26","img_art/9.jpg","14","a sea monster","Taylor,Ashley,Abigail,Hannah,Erika,Sarah","The peacock theme gives me negative connotations of my ex-sister-in-law,-10,340,20","Similar to the tohers, but not as clear.,11,320,20","Reminds me of a cave in a scary movie,-21,20,20","Someone lying in bed?  Don't care for it.,-14,240,20","Colorful and expressive,15,100,20","I really like the color balance but the image is odd,-5,180,20","Abigail","Reminds me of a cave in a scary movie,-21,20,20","Hannah","Someone lying in bed?  Don't care for it.,-14,240,20","Taylor","The peacock theme gives me negative connotations of my ex-sister-in-law,-10,340,20","0"
"8347","","survey-text","231","1836316","0.0-231.0-0.0","A2V66KLFVJTLKC","","","","{""Q0"":""ants""}","","","","","","","","","","","","","","","","","","","","","","",""
"9819","","survey-text","232","1848242","0.0-231.1-0.1","A2V66KLFVJTLKC","","","","{""Q0"":""reminds me of ants""}","","","","","","","","","","","","","","","","","","","","","","",""
"3389","","image-slider-response","233","1851640","0.0-232.0","A2V66KLFVJTLKC","","","","","-34","","","","","","","","","","","","","","","","","","","","","",""
"null","","image-button-response","234","1856653","0.0-233.0","A2V66KLFVJTLKC","img_art/15.jpg","null","","","","","","","","","","","","","","","","","","","","","","","","",""
"4275","","image-button-response","235","1860938","0.0-234.0","A2V66KLFVJTLKC","img_art/15.jpg","5","","","","","","","","","","","","","","","","","","","","","","","","",""
"916","","image-button-response","236","1861868","0.0-235.0-0.0","A2V66KLFVJTLKC","img_art/15.jpg","4","","","","","","","","","","","","","","","","","","","","","","","","",""
"678","","image-button-response","237","1862561","0.0-236.0-0.0","A2V66KLFVJTLKC","img_art/15.jpg","3","","","","","","","","","","","","","","","","","","","","","","","","",""
"null","","html-keyboard-response","238","1864067","0.0-237.0","A2V66KLFVJTLKC","<p style=""font-size: 48px;"">+</p>","","","","","null","allTrialResponses","1500","1","27","img_art/15.jpg","-34","reminds me of ants","Taylor,Kimberly,Abigail,Hannah,Kaitlin,Sophia","The blues are soothing,21,340,20","it looks like lavender,10,260,20","This also has nice contrast,34,20,20","Like this for the colors and arrangement.,11,240,20","This one seems a bit frightening,-19,60,20","I feel like there's ski jumping going on here.,2,280,20","Sophia","I feel like there's ski jumping going on here.,2,280,20","Kaitlin","This one seems a bit frightening,-19,60,20","Hannah","Like this for the colors and arrangement.,11,240,20","0"
"17938","","survey-text","239","1882042","0.0-238.0-0.0","A2V66KLFVJTLKC","","","","{""Q0"":""a car in the city""}","","","","","","","","","","","","","","","","","","","","","","",""
"3674.89999999851","","image-slider-response","240","1885726","0.0-239.0","A2V66KLFVJTLKC","","","","","-8","","","","","","","","","","","","","","","","","","","","","",""
"null","","image-button-response","241","1890743","0.0-240.0","A2V66KLFVJTLKC","img_art/20.jpg","null","","","","","","","","","","","","","","","","","","","","","","","","",""
"5496","","image-button-response","242","1896252","0.0-241.0","A2V66KLFVJTLKC","img_art/20.jpg","3","","","","","","","","","","","","","","","","","","","","","","","","",""
"2404","","image-button-response","243","1898672","0.0-242.0-0.0","A2V66KLFVJTLKC","img_art/20.jpg","4","","","","","","","","","","","","","","","","","","","","","","","","",""
"3936","","image-button-response","244","1902623","0.0-243.0-0.0","A2V66KLFVJTLKC","img_art/20.jpg","5","","","","","","","","","","","","","","","","","","","","","","","","",""
"null","","html-keyboard-response","245","1903632","0.0-244.0","A2V66KLFVJTLKC","<p style=""font-size: 48px;"">+</p>","","","","","null","allTrialResponses","1000","1","28","img_art/20.jpg","-8","a car in the city","Mackenzie,Cassandra,Maria,Hannah,Kaitlin,Sophia","Shapes are fun to interpret,21,20,20","I liked this...I liked the blue and the black and I liked the smoothness to it.,31,120,20","just feels generic,-18,120,20","Reminds me of the Southwest; i.e. New Mexico or Arizona. It's interesting.,12,240,20","i can feel the intensity in this,11,60,20","A truck rolled over?  I do like the pictures and the technique though.,25,280,20","Hannah","Reminds me of the Southwest; i.e. New Mexico or Arizona. It's interesting.,12,240,20","Kaitlin","i can feel the intensity in this,11,60,20","Sophia","A truck rolled over?  I do like the pictures and the technique though.,25,280,20","0"
"32008","","survey-text","246","1935680","0.0-245.0-0.0","A2V66KLFVJTLKC","","","","{""Q0"":""a highway passing through the city on a rainy day""}","","","","","","","","","","","","","","","","","","","","","","",""
"7742.60000000149","","image-slider-response","247","1943432","0.0-246.0","A2V66KLFVJTLKC","","","","","13","","","","","","","","","","","","","","","","","","","","","",""
"null","","image-button-response","248","1948445","0.0-247.0","A2V66KLFVJTLKC","img_art/11.jpg","null","","","","","","","","","","","","","","","","","","","","","","","","",""
"1001","","image-button-response","249","1949455","0.0-248.0","A2V66KLFVJTLKC","img_art/11.jpg","1","","","","","","","","","","","","","","","","","","","","","","","","",""
"10792","","image-button-response","250","1960258","0.0-249.0-0.0","A2V66KLFVJTLKC","img_art/11.jpg","5","","","","","","","","","","","","","","","","","","","","","","","","",""
"867","","image-button-response","251","1961139","0.0-250.0-0.0","A2V66KLFVJTLKC","img_art/11.jpg","3","","","","","","","","","","","","","","","","","","","","","","","","",""
"null","","html-keyboard-response","252","1962646","0.0-251.0","A2V66KLFVJTLKC","<p style=""font-size: 48px;"">+</p>","","","","","null","allTrialResponses","1500","1","29","img_art/11.jpg","13","a highway passing through the city on a rainy day","Natalie,Michaela,Claire,Hannah,Kaitlin,Sophia","pic looks alright,8,400,20","Reminds me of a city and how chaotic it can be,22,260,20","the wavy lines are nice and pleasing,13,260,20","Is interesting. Wouldn't bother me to have this hanging where I'd see it every day.,11,240,20","a beautiful piece of art,33,60,20","WOW!  I love how the ships and the seas become one in this piece.,50,280,20","Michaela","Reminds me of a city and how chaotic it can be,22,260,20","Sophia","WOW!  I love how the ships and the seas become one in this piece.,50,280,20","Hannah","Is interesting. Wouldn't bother me to have this hanging where I'd see it every day.,11,240,20","0"
"11332","","survey-text","253","1974016","0.0-252.0-0.0","A2V66KLFVJTLKC","","","","{""Q0"":""a guitar""}","","","","","","","","","","","","","","","","","","","","","","",""
"4943.099999997765","","image-slider-response","254","1978969","0.0-253.0","A2V66KLFVJTLKC","","","","","-13","","","","","","","","","","","","","","","","","","","","","",""
"null","","image-button-response","255","1983982","0.0-254.0","A2V66KLFVJTLKC","img_art/10.jpg","null","","","","","","","","","","","","","","","","","","","","","","","","",""
"2288","","image-button-response","256","1986280","0.0-255.0","A2V66KLFVJTLKC","img_art/10.jpg","1","","","","","","","","","","","","","","","","","","","","","","","","",""
"4040","","image-button-response","257","1990335","0.0-256.0-0.0","A2V66KLFVJTLKC","img_art/10.jpg","4","","","","","","","","","","","","","","","","","","","","","","","","",""
"6193","","image-button-response","258","1996544","0.0-257.0-0.0","A2V66KLFVJTLKC","img_art/10.jpg","0","","","","","","","","","","","","","","","","","","","","","","","","",""
"null","","html-keyboard-response","259","1998052","0.0-258.0","A2V66KLFVJTLKC","<p style=""font-size: 48px;"">+</p>","","","","","null","allTrialResponses","1500","1","30","img_art/10.jpg","-13","a guitar","Tiffany,Michaela,Amber,Hannah,Erin,Sophia","I feel little to no emotion looking at this painting.,0,360,20","It looks like it's sinking but it could also be a view from above,40,260,20","This picture just seems depressing.,-26,200,20","This one is interesting. I like it.,11,240,20","Cello music instrument,11,120,20","This piece is very intriguing to me.,3,280,20","Michaela","It looks like it's sinking but it could also be a view from above,40,260,20","Erin","Cello music instrument,11,120,20","Tiffany","I feel little to no emotion looking at this painting.,0,360,20","0"
"4854","","image-button-response_instructions","260","2002942","0.0-259.0","A2V66KLFVJTLKC","","0","instructions","","","","","","","","","","","","","","","","","","","","","","","",""
"2740","","image-button-response","261","2005714","0.0-260.0","A2V66KLFVJTLKC","","0","","","","","","","","","","","","","","","","","","","","","","","","",""
