"rt","url","trial_type","trial_index","time_elapsed","internal_node_id","participant_id","stimulus","button_pressed","Name","responses","response","key_press","variableName","fixationTime","condition","trial","photo","subjectRating","subjectResponse","agentsNames","agent_1_Response","agent_2_Response","agent_3_Response","agent_4_Response","agent_5_Response","agent_6_Response","kept_1_name","kept_1_response","kept_2_name","kept_2_response","kept_3_name","kept_3_response","errorCounter"
"5471","external_page_harvard.html","external-html","0","5560","0.0-0.0","A2WNW8A4MOR7T7","","","","","","","","","","","","","","","","","","","","","","","","","","",""
"1987","","image-button-response","1","7550","0.0-1.0","A2WNW8A4MOR7T7","","0","","","","","","","","","","","","","","","","","","","","","","","","",""
"45222","","image-button-response","2","52781","0.0-2.0-0.0","A2WNW8A4MOR7T7","","1","phone","","","","","","","","","","","","","","","","","","","","","","","",""
"7110","","survey-text","3","59893","0.0-3.0-0.0","A2WNW8A4MOR7T7","","","","{""Q0"":""A2WNW8A4MOR7T7""}","","","","","","","","","","","","","","","","","","","","","","",""
"17301","","image-button-response_instructions","4","77197","0.0-4.0","A2WNW8A4MOR7T7","","0","instructions","","","","","","","","","","","","","","","","","","","","","","","",""
"101054","","image-button-response_instructions","5","178253","0.0-5.0","A2WNW8A4MOR7T7","img_art/ins/popularity/ins1.png","0","instructions","","","","","","","","","","","","","","","","","","","","","","","",""
"6023","","image-button-response_instructions","6","184278","0.0-6.0","A2WNW8A4MOR7T7","img_art/ins/popularity/ins2.png","0","instructions","","","","","","","","","","","","","","","","","","","","","","","",""
"6262","","image-button-response_instructions","7","190541","0.0-7.0","A2WNW8A4MOR7T7","img_art/ins/popularity/ins2Extreme.png","0","instructions","","","","","","","","","","","","","","","","","","","","","","","",""
"9837","","image-button-response_instructions","8","200381","0.0-8.0","A2WNW8A4MOR7T7","img_art/ins/popularity/ins3KEEPpop.PNG","0","instructions","","","","","","","","","","","","","","","","","","","","","","","",""
"5462","","image-button-response_instructions","9","205845","0.0-9.0","A2WNW8A4MOR7T7","img_art/ins/popularity/ins3ANamepop.PNG","0","instructions","","","","","","","","","","","","","","","","","","","","","","","",""
"5399","","image-button-response_instructions","10","211245","0.0-10.0","A2WNW8A4MOR7T7","img_art/ins/popularity/ins3ARatingpop.png","0","instructions","","","","","","","","","","","","","","","","","","","","","","","",""
"2453","","image-button-response_instructions","11","213701","0.0-11.0","A2WNW8A4MOR7T7","img_art/ins/popularity/ins3ATextpop.png","0","instructions","","","","","","","","","","","","","","","","","","","","","","","",""
"8109","","image-button-response_instructions","12","221813","0.0-12.0","A2WNW8A4MOR7T7","img_art/ins/popularity/ins3ALikespop.png","0","instructions","","","","","","","","","","","","","","","","","","","","","","","",""
"16397","","image-button-response_instructions","13","238213","0.0-13.0","A2WNW8A4MOR7T7","img_art/ins/popularity/ins3KEEPpop.PNG","0","instructions","","","","","","","","","","","","","","","","","","","","","","","",""
"5365","","image-button-response_instructions","14","243581","0.0-14.0","A2WNW8A4MOR7T7","img_art/ins/popularity/ins3_5RED.png","0","instructions","","","","","","","","","","","","","","","","","","","","","","","",""
"7189","","image-button-response_instructions","15","250773","0.0-15.0","A2WNW8A4MOR7T7","img_art/ins/popularity/ins3KEEPpop.PNG","0","instructions","","","","","","","","","","","","","","","","","","","","","","","",""
"7974","","image-button-response_instructions","16","258749","0.0-16.0","A2WNW8A4MOR7T7","img_art/ins/popularity/ins4KEEPpop.PNG","0","instructions","","","","","","","","","","","","","","","","","","","","","","","",""
"4630","","image-button-response_instructions","17","263381","0.0-17.0","A2WNW8A4MOR7T7","img_art/ins/popularity/ins5KEEPpop.PNG","0","instructions","","","","","","","","","","","","","","","","","","","","","","","",""
"2439","","image-button-response_instructions","18","265821","0.0-18.0","A2WNW8A4MOR7T7","","0","instructions","","","","","","","","","","","","","","","","","","","","","","","",""
"12416","","survey-text","19","278269","0.0-19.0-0.0","A2WNW8A4MOR7T7","","","","{""Q0"":""but""}","","","","","","","","","","","","","","","","","","","","","","",""
"16557","","survey-text","20","294829","0.0-20.0-0.0","A2WNW8A4MOR7T7","","","","{""Q0"":""mixed up and confusing""}","","","","","","","","","","","","","","","","","","","","","","",""
"4132.600000023842","","image-slider-response","21","298965","0.0-21.0","A2WNW8A4MOR7T7","","","","","8","","","","","","","","","","","","","","","","","","","","","",""
"null","","image-button-response","22","303970","0.0-22.0","A2WNW8A4MOR7T7","img_art/ins/1.jpg","null","","","","","","","","","","","","","","","","","","","","","","","","",""
"600","","image-button-response","23","304573","0.0-23.0","A2WNW8A4MOR7T7","img_art/ins/1.jpg","3","","","","","","","","","","","","","","","","","","","","","","","","",""
"2021","","image-button-response","24","306597","0.0-24.0-0.0","A2WNW8A4MOR7T7","img_art/ins/1.jpg","5","","","","","","","","","","","","","","","","","","","","","","","","",""
"2428","","image-button-response","25","309029","0.0-25.0-0.0","A2WNW8A4MOR7T7","img_art/ins/1.jpg","1","","","","","","","","","","","","","","","","","","","","","","","","",""
"null","","html-keyboard-response","26","310539","0.0-26.0","A2WNW8A4MOR7T7","<p style=""font-size: 48px;"">+</p>","","","","","null","allTrialResponses","1500","1","-2","img_art/ins/1.jpg","8","mixed up and confusing","Adam,Alex,Ben,Carl,Daniel,Jack","Seems like doodles,-20,20,20","very creative work.,36,40,20","This color reminds me of poo,-46,60,20","very calming artwork,42,80,20","It looks like a murder scene.,-48,100,20","I like the sophisticated brushwork,40,120,20","Carl","very calming artwork,42,80,20","Jack","I like the sophisticated brushwork,40,120,20","Alex","very creative work.,36,40,20","0"
"18028","","survey-text","27","328573","0.0-27.0-0.0","A2WNW8A4MOR7T7","","","","{""Q0"":""looks bloody and depressing""}","","","","","","","","","","","","","","","","","","","","","","",""
"5141.199999988079","","image-slider-response","28","333716","0.0-28.0","A2WNW8A4MOR7T7","","","","","12","","","","","","","","","","","","","","","","","","","","","",""
"2358","","image-button-response","29","338720","0.0-29.0","A2WNW8A4MOR7T7","img_art/ins/2.jpg","0","","","","","","","","","","","","","","","","","","","","","","","","",""
"7186","","image-button-response","30","345909","0.0-30.0","A2WNW8A4MOR7T7","img_art/ins/2.jpg","1","","","","","","","","","","","","","","","","","","","","","","","","",""
"2109","","image-button-response","31","348021","0.0-31.0-0.0","A2WNW8A4MOR7T7","img_art/ins/2.jpg","3","","","","","","","","","","","","","","","","","","","","","","","","",""
"2381","","image-button-response","32","350405","0.0-32.0-0.0","A2WNW8A4MOR7T7","img_art/ins/2.jpg","4","","","","","","","","","","","","","","","","","","","","","","","","",""
"null","","html-keyboard-response","33","351916","0.0-33.0","A2WNW8A4MOR7T7","<p style=""font-size: 48px;"">+</p>","","","","","null","allTrialResponses","1500","1","-1","img_art/ins/2.jpg","12","looks bloody and depressing","James,Alex,Kyle,Carl,John,Jack","looks too angry,-50,140,20","I like the blocks of color arrangements,30,40,20","Idk, it is just annoying,-32,180,20","I can feel the artist's passion in it,45,80,20","love the texture of paint,48,160,20","I would never be able to compose a sophisticated pallete like this,48,120,20","Alex","I like the blocks of color arrangements,30,40,20","Carl","I can feel the artist's passion in it,45,80,20","John","love the texture of paint,48,160,20","0"
"20971","","survey-text","34","372894","0.0-34.0-0.0","A2WNW8A4MOR7T7","","","","{""Q0"":""simple calming feel relaxed""}","","","","","","","","","","","","","","","","","","","","","","",""
"2972.699999988079","","image-slider-response","35","375869","0.0-35.0","A2WNW8A4MOR7T7","","","","","22","","","","","","","","","","","","","","","","","","","","","",""
"1661","","image-button-response","36","380880","0.0-36.0","A2WNW8A4MOR7T7","img_art/ins/3.jpg","4","","","","","","","","","","","","","","","","","","","","","","","","",""
"3395","","image-button-response","37","384278","0.0-37.0","A2WNW8A4MOR7T7","img_art/ins/3.jpg","1","","","","","","","","","","","","","","","","","","","","","","","","",""
"2860","","image-button-response","38","387141","0.0-38.0-0.0","A2WNW8A4MOR7T7","img_art/ins/3.jpg","4","","","","","","","","","","","","","","","","","","","","","","","","",""
"1532","","image-button-response","39","388678","0.0-39.0-0.0","A2WNW8A4MOR7T7","img_art/ins/3.jpg","5","","","","","","","","","","","","","","","","","","","","","","","","",""
"null","","html-keyboard-response","40","389685","0.0-40.0","A2WNW8A4MOR7T7","<p style=""font-size: 48px;"">+</p>","","","","","null","allTrialResponses","1000","1","0","img_art/ins/3.jpg","22","simple calming feel relaxed","Mike,Alex,Ron,Carl,John,Sam","enjoy the different shades of blue,22,200,20","calming blue is very nice,36,40,20","It looks depressing,-26,220,20","It's an alright work,15,80,20","I like the overlapping of brushes,41,160,20","I can feel a rainy day from this painting,18,240,20","Alex","calming blue is very nice,36,40,20","John","I like the overlapping of brushes,41,160,20","Sam","I can feel a rainy day from this painting,18,240,20","0"
"5810","","image-button-response_instructions","41","395501","0.0-41.0","A2WNW8A4MOR7T7","","0","instructions","","","","","","","","","","","","","","","","","","","","","","","",""
"17678","","survey-likert","42","413181","0.0-42.0-0.0","A2WNW8A4MOR7T7","","","","{""Q0"":"""",""Q1"":0,""Q2"":1}","","","","","","","","","","","","","","","","","","","","","","",""
"6647","","survey-text","43","419836","0.0-43.0-0.0","A2WNW8A4MOR7T7","","","","{""Q0"":""rock""}","","","","","","","","","","","","","","","","","","","","","","",""
"26038","","survey-text","44","445877","0.0-44.0-0.0","A2WNW8A4MOR7T7","","","","{""Q0"":""mixed up and confused not appealing""}","","","","","","","","","","","","","","","","","","","","","","",""
"3508.2000000476837","","image-slider-response","45","449388","0.0-45.0","A2WNW8A4MOR7T7","","","","","-15","","","","","","","","","","","","","","","","","","","","","",""
"4164","","image-button-response","46","454432","0.0-46.0","A2WNW8A4MOR7T7","img_art/3.jpg","0","","","","","","","","","","","","","","","","","","","","","","","","",""
"1793","","image-button-response","47","456228","0.0-47.0","A2WNW8A4MOR7T7","img_art/3.jpg","0","","","","","","","","","","","","","","","","","","","","","","","","",""
"2181","","image-button-response","48","458412","0.0-48.0-0.0","A2WNW8A4MOR7T7","img_art/3.jpg","0","","","","","","","","","","","","","","","","","","","","","","","","",""
"2486","","image-button-response","49","464204","0.0-48.1-0.1","A2WNW8A4MOR7T7","img_art/3.jpg","5","","","","","","","","","","","","","","","","","","","","","","","","",""
"4500","","image-button-response","50","468709","0.0-49.0-0.0","A2WNW8A4MOR7T7","img_art/3.jpg","4","","","","","","","","","","","","","","","","","","","","","","","","",""
"null","","html-keyboard-response","51","469713","0.0-50.0","A2WNW8A4MOR7T7","<p style=""font-size: 48px;"">+</p>","","","","","null","allTrialResponses","1000","1","1","img_art/3.jpg","-15","mixed up and confused not appealing","Evan,Vincent,Joseph,Eric,Aaron,Mitchell","It feels like a half assed and failed imitation of Japanese signatures on old paintings,-22,140,20","Iike this one it's a piece that I need to spend more time with to understand how i feel about it,20,360,20","Really have no idea what I'm looking at.,1,220,20","This piece makes me think it has a backstory or a reason which I like.,5,100,20","Definition of mediocre abstract art,-12,20,20","Anger, like something a serial killer may paint.,-30,180,20","Evan","It feels like a half assed and failed imitation of Japanese signatures on old paintings,-22,140,20","Mitchell","Anger, like something a serial killer may paint.,-30,180,20","Aaron","Definition of mediocre abstract art,-12,20,20","2"
"18774","","survey-text","52","488493","0.0-51.0-0.0","A2WNW8A4MOR7T7","","","","{""Q0"":""kinda weird dull colors just not me""}","","","","","","","","","","","","","","","","","","","","","","",""
"2212.300000011921","","image-slider-response","53","490708","0.0-52.0","A2WNW8A4MOR7T7","","","","","-32","","","","","","","","","","","","","","","","","","","","","",""
"null","","image-button-response","54","495715","0.0-53.0","A2WNW8A4MOR7T7","img_art/27.jpg","null","","","","","","","","","","","","","","","","","","","","","","","","",""
"1400","","image-button-response","55","497117","0.0-54.0","A2WNW8A4MOR7T7","img_art/27.jpg","0","","","","","","","","","","","","","","","","","","","","","","","","",""
"2846","","image-button-response","56","499965","0.0-55.0-0.0","A2WNW8A4MOR7T7","img_art/27.jpg","2","","","","","","","","","","","","","","","","","","","","","","","","",""
"3237","","image-button-response","57","503205","0.0-56.0-0.0","A2WNW8A4MOR7T7","img_art/27.jpg","4","","","","","","","","","","","","","","","","","","","","","","","","",""
"null","","html-keyboard-response","58","503717","0.0-57.0","A2WNW8A4MOR7T7","<p style=""font-size: 48px;"">+</p>","","","","","null","allTrialResponses","500","1","2","img_art/27.jpg","-32","kinda weird dull colors just not me","Evan,Richard,Ian,Mason,Aaron,Mitchell","I am bothered by the green doodles,-20,140,20","like the patterns and colors all but the orange blob on the right,32,340,20","I'm not a fan. It looks like something my nephews (1 and 2) would make,-8,260,20","dont like it, don't hate it, meh.,2,100,20","It looks like when my little sister took magic markers to the wall.,-11,20,20","Angelic, childlike. happiness but also with sadness.,40,180,20","Evan","I am bothered by the green doodles,-20,140,20","Ian","I'm not a fan. It looks like something my nephews (1 and 2) would make,-8,260,20","Aaron","It looks like when my little sister took magic markers to the wall.,-11,20,20","2"
"19369","","survey-text","59","523093","0.0-58.0-0.0","A2WNW8A4MOR7T7","","","","{""Q0"":""dreamy reminds me of a dream ""}","","","","","","","","","","","","","","","","","","","","","","",""
"1924.800000011921","","image-slider-response","60","525020","0.0-59.0","A2WNW8A4MOR7T7","","","","","13","","","","","","","","","","","","","","","","","","","","","",""
"null","","image-button-response","61","530023","0.0-60.0","A2WNW8A4MOR7T7","img_art/10.jpg","null","","","","","","","","","","","","","","","","","","","","","","","","",""
"515","","image-button-response","62","530541","0.0-61.0","A2WNW8A4MOR7T7","img_art/10.jpg","3","","","","","","","","","","","","","","","","","","","","","","","","",""
"2652","","image-button-response","63","533197","0.0-62.0-0.0","A2WNW8A4MOR7T7","img_art/10.jpg","5","","","","","","","","","","","","","","","","","","","","","","","","",""
"2789","","image-button-response","64","535989","0.0-63.0-0.0","A2WNW8A4MOR7T7","img_art/10.jpg","1","","","","","","","","","","","","","","","","","","","","","","","","",""
"null","","html-keyboard-response","65","536493","0.0-64.0","A2WNW8A4MOR7T7","<p style=""font-size: 48px;"">+</p>","","","","","null","allTrialResponses","500","1","3","img_art/10.jpg","13","dreamy reminds me of a dream ","Evan,Noah,Ian,Mark,Aaron,Seth","My immediate thought is WTF is this,-20,140,20","not sure what to make of this one,0,260,20","It reminds me of how my dog has to run all over the place just to poop in one specific location.,-20,260,20","Kraken, and I love it.,39,80,20","I like how simple but intricate it is.,30,20,20","It reminds me of the ocean. Almost like a battlefield, but on the water.,19,60,20","Mark","Kraken, and I love it.,39,80,20","Seth","It reminds me of the ocean. Almost like a battlefield, but on the water.,19,60,20","Noah","not sure what to make of this one,0,260,20","2"
"24195","","survey-text","66","560693","0.0-65.0-0.0","A2WNW8A4MOR7T7","","","","{""Q0"":""just stupid looks like a crow on a deers back""}","","","","","","","","","","","","","","","","","","","","","","",""
"3565","","image-slider-response","67","564260","0.0-66.0","A2WNW8A4MOR7T7","","","","","-26","","","","","","","","","","","","","","","","","","","","","",""
"2629","","image-button-response","68","569268","0.0-67.0","A2WNW8A4MOR7T7","img_art/6.jpg","0","","","","","","","","","","","","","","","","","","","","","","","","",""
"1637","","image-button-response","69","570909","0.0-68.0","A2WNW8A4MOR7T7","img_art/6.jpg","0","","","","","","","","","","","","","","","","","","","","","","","","",""
"3205","","image-button-response","70","574117","0.0-69.0-0.0","A2WNW8A4MOR7T7","img_art/6.jpg","4","","","","","","","","","","","","","","","","","","","","","","","","",""
"2613","","image-button-response","71","576732","0.0-70.0-0.0","A2WNW8A4MOR7T7","img_art/6.jpg","2","","","","","","","","","","","","","","","","","","","","","","","","",""
"null","","html-keyboard-response","72","577735","0.0-71.0","A2WNW8A4MOR7T7","<p style=""font-size: 48px;"">+</p>","","","","","null","allTrialResponses","1000","1","4","img_art/6.jpg","-26","just stupid looks like a crow on a deers back","Devin,Noah,Dakota,Mark,Benjamin,Seth","Looks a bit like a pickle or something?,-16,380,20","intrigues me - not sure what I'm seeing, but I like combination of colour and texture,21,260,20","graceful and light,35,280,20","So forlorn, and beauty amid desolation.,25,80,20","Something very simplistic about it. The colors mesh well.,10,260,20","I love it. It reminds me of a bird sitting on a wall.,26,60,20","Devin","Looks a bit like a pickle or something?,-16,380,20","Benjamin","Something very simplistic about it. The colors mesh well.,10,260,20","Dakota","graceful and light,35,280,20","2"
"21255","","survey-text","73","598996","0.0-72.0-0.0","A2WNW8A4MOR7T7","","","","{""Q0"":""yuck smushed ants not appealing""}","","","","","","","","","","","","","","","","","","","","","","",""
"2869.5","","image-slider-response","74","601868","0.0-73.0","A2WNW8A4MOR7T7","","","","","-31","","","","","","","","","","","","","","","","","","","","","",""
"4526","","image-button-response","75","606886","0.0-74.0","A2WNW8A4MOR7T7","img_art/7.jpg","0","","","","","","","","","","","","","","","","","","","","","","","","",""
"3069","","image-button-response","76","609957","0.0-75.0","A2WNW8A4MOR7T7","img_art/7.jpg","0","","","","","","","","","","","","","","","","","","","","","","","","",""
"942","","image-button-response","77","610901","0.0-76.0-0.0","A2WNW8A4MOR7T7","img_art/7.jpg","4","","","","","","","","","","","","","","","","","","","","","","","","",""
"2940","","image-button-response","78","613844","0.0-77.0-0.0","A2WNW8A4MOR7T7","img_art/7.jpg","1","","","","","","","","","","","","","","","","","","","","","","","","",""
"null","","html-keyboard-response","79","615353","0.0-78.0","A2WNW8A4MOR7T7","<p style=""font-size: 48px;"">+</p>","","","","","null","allTrialResponses","1500","1","5","img_art/7.jpg","-31","yuck smushed ants not appealing","Devin,Kenneth,Dakota,Victor,Benjamin,Nathaniel","Not very big on the sameness here,-20,380,20","My firs thought was ""gross""...not sure what this is and I dont think i want to know.,-19,300,20","I feel thirsty - reminds me of desert sand,11,280,20","I like the texture,12,340,20","Dull and confusing,-24,260,20","It gives off an alien-like vastness of space vibe which I like,9,220,20","Devin","Not very big on the sameness here,-20,380,20","Benjamin","Dull and confusing,-24,260,20","Kenneth","My firs thought was ""gross""...not sure what this is and I dont think i want to know.,-19,300,20","2"
"6365","","survey-text","80","621732","0.0-79.0-0.0","A2WNW8A4MOR7T7","","","","{""Q0"":""sky""}","","","","","","","","","","","","","","","","","","","","","","",""
"19214","","survey-text","81","640948","0.0-80.0-0.0","A2WNW8A4MOR7T7","","","","{""Q0"":""makes me feel happy a little colorful""}","","","","","","","","","","","","","","","","","","","","","","",""
"2413.5","","image-slider-response","82","643365","0.0-81.0","A2WNW8A4MOR7T7","","","","","16","","","","","","","","","","","","","","","","","","","","","",""
"4428","","image-button-response","83","648380","0.0-82.0","A2WNW8A4MOR7T7","img_art/2.jpg","4","","","","","","","","","","","","","","","","","","","","","","","","",""
"942","","image-button-response","84","649325","0.0-83.0","A2WNW8A4MOR7T7","img_art/2.jpg","4","","","","","","","","","","","","","","","","","","","","","","","","",""
"3813","","image-button-response","85","653140","0.0-84.0-0.0","A2WNW8A4MOR7T7","img_art/2.jpg","0","","","","","","","","","","","","","","","","","","","","","","","","",""
"2955","","image-button-response","86","656100","0.0-85.0-0.0","A2WNW8A4MOR7T7","img_art/2.jpg","5","","","","","","","","","","","","","","","","","","","","","","","","",""
"null","","html-keyboard-response","87","657604","0.0-86.0","A2WNW8A4MOR7T7","<p style=""font-size: 48px;"">+</p>","","","","","null","allTrialResponses","1500","1","6","img_art/2.jpg","16","makes me feel happy a little colorful","Devin,Kenneth,Juan,Malik,Benjamin,Luis","I don't really like this style,-5,380,20","I cant tell whats happening here and that shade of green is just not my thing.,-17,300,20","I don't like the abstract nature of this painting or the colors used.,-50,260,20","Indistinct and too bright,-21,40,20","bright and happy,20,260,20","I dont like the expression of this,-19,400,20","Benjamin","bright and happy,20,260,20","Devin","I don't really like this style,-5,380,20","Luis","I dont like the expression of this,-19,400,20","2"
"14378","","survey-text","88","671988","0.0-87.0-0.0","A2WNW8A4MOR7T7","","","","{""Q0"":""not sure what to think""}","","","","","","","","","","","","","","","","","","","","","","",""
"2221.5","","image-slider-response","89","674212","0.0-88.0","A2WNW8A4MOR7T7","","","","","-8","","","","","","","","","","","","","","","","","","","","","",""
"4998","","image-button-response","90","679215","0.0-89.0","A2WNW8A4MOR7T7","img_art/15.jpg","5","","","","","","","","","","","","","","","","","","","","","","","","",""
"1179","","image-button-response","91","680396","0.0-90.0","A2WNW8A4MOR7T7","img_art/15.jpg","5","","","","","","","","","","","","","","","","","","","","","","","","",""
"3765","","image-button-response","92","684164","0.0-91.0-0.0","A2WNW8A4MOR7T7","img_art/15.jpg","3","","","","","","","","","","","","","","","","","","","","","","","","",""
"3309","","image-button-response","93","687476","0.0-92.0-0.0","A2WNW8A4MOR7T7","img_art/15.jpg","2","","","","","","","","","","","","","","","","","","","","","","","","",""
"null","","html-keyboard-response","94","687986","0.0-93.0","A2WNW8A4MOR7T7","<p style=""font-size: 48px;"">+</p>","","","","","null","allTrialResponses","500","1","7","img_art/15.jpg","-8","not sure what to think","Devin,Jason,Bradley,Adrian,Benjamin,Luis","Simple but needs some more detail somehow,-3,380,20","Simplicity of colors is nice,11,20,20","I feel like there's ski jumping going on here.,2,300,20","Not a fan. This piece would only go with very specific decor in a modern home.,-35,60,20","Reminds me of blueberry bushes.,7,260,20","Extreme darkness and sadness,-30,400,20","Luis","Extreme darkness and sadness,-30,400,20","Adrian","Not a fan. This piece would only go with very specific decor in a modern home.,-35,60,20","Bradley","I feel like there's ski jumping going on here.,2,300,20","2"
"18156","","survey-text","95","706147","0.0-94.0-0.0","A2WNW8A4MOR7T7","","","","{""Q0"":""weird and colors with white stars ""}","","","","","","","","","","","","","","","","","","","","","","",""
"3109.399999976158","","image-slider-response","96","709260","0.0-95.0","A2WNW8A4MOR7T7","","","","","20","","","","","","","","","","","","","","","","","","","","","",""
"null","","image-button-response","97","714264","0.0-96.0","A2WNW8A4MOR7T7","img_art/23.jpg","null","","","","","","","","","","","","","","","","","","","","","","","","",""
"419","","image-button-response","98","714685","0.0-97.0","A2WNW8A4MOR7T7","img_art/23.jpg","1","","","","","","","","","","","","","","","","","","","","","","","","",""
"1452","","image-button-response","99","716141","0.0-98.0-0.0","A2WNW8A4MOR7T7","img_art/23.jpg","2","","","","","","","","","","","","","","","","","","","","","","","","",""
"916","","image-button-response","100","717061","0.0-99.0-0.0","A2WNW8A4MOR7T7","img_art/23.jpg","4","","","","","","","","","","","","","","","","","","","","","","","","",""
"null","","html-keyboard-response","101","718563","0.0-100.0","A2WNW8A4MOR7T7","<p style=""font-size: 48px;"">+</p>","","","","","null","allTrialResponses","1500","1","8","img_art/23.jpg","20","weird and colors with white stars ","Daniel,Robert,Bradley,Adrian,Elijah,Luis","Too busy with color with warrior lineup,0,320,20","This makes me think of an orchestra playing a forth of july song,12,360,20","I like the contrast and the bright colors in this one.,6,300,20","Too much contrasting colors together. I hate it.,-50,60,20","Makes me worried,10,80,20","I dont like the chaos of this,-20,400,20","Robert","This makes me think of an orchestra playing a forth of july song,12,360,20","Bradley","I like the contrast and the bright colors in this one.,6,300,20","Elijah","Makes me worried,10,80,20","2"
"24948","","survey-text","102","743516","0.0-101.0-0.0","A2WNW8A4MOR7T7","","","","{""Q0"":""abstract feels weird but nice weird""}","","","","","","","","","","","","","","","","","","","","","","",""
"2837.400000035763","","image-slider-response","103","746356","0.0-102.0","A2WNW8A4MOR7T7","","","","","21","","","","","","","","","","","","","","","","","","","","","",""
"4709","","image-button-response","104","751360","0.0-103.0","A2WNW8A4MOR7T7","img_art/19.jpg","4","","","","","","","","","","","","","","","","","","","","","","","","",""
"649","","image-button-response","105","752013","0.0-104.0","A2WNW8A4MOR7T7","img_art/19.jpg","4","","","","","","","","","","","","","","","","","","","","","","","","",""
"2628","","image-button-response","106","754644","0.0-105.0-0.0","A2WNW8A4MOR7T7","img_art/19.jpg","0","","","","","","","","","","","","","","","","","","","","","","","","",""
"1942","","image-button-response","107","756589","0.0-106.0-0.0","A2WNW8A4MOR7T7","img_art/19.jpg","3","","","","","","","","","","","","","","","","","","","","","","","","",""
"null","","html-keyboard-response","108","757091","0.0-107.0","A2WNW8A4MOR7T7","<p style=""font-size: 48px;"">+</p>","","","","","null","allTrialResponses","500","1","9","img_art/19.jpg","21","abstract feels weird but nice weird","Steven,Robert,Bradley,Alejandro,Elijah,Scott","I like it, I see someone walking his dog in the early morning time,23,160,20","A dreary town in the fall.,-4,360,20","This looks like a child's piece. I appreciate the artistic value, but not for me.,-20,300,20","It is an interesting piece but there are too many muted tones,22,80,20","The details are amazing,36,80,20","looks like a shopping center,20,20,20","Elijah","The details are amazing,36,80,20","Steven","I like it, I see someone walking his dog in the early morning time,23,160,20","Alejandro","It is an interesting piece but there are too many muted tones,22,80,20","2"
"17346","","survey-text","109","774443","0.0-108.0-0.0","A2WNW8A4MOR7T7","","","","{""Q0"":""nothing just a weird thing but stupid""}","","","","","","","","","","","","","","","","","","","","","","",""
"2853.800000011921","","image-slider-response","110","777299","0.0-109.0","A2WNW8A4MOR7T7","","","","","-25","","","","","","","","","","","","","","","","","","","","","",""
"3310","","image-button-response","111","782303","0.0-110.0","A2WNW8A4MOR7T7","img_art/4.jpg","0","","","","","","","","","","","","","","","","","","","","","","","","",""
"1282","","image-button-response","112","783588","0.0-111.0","A2WNW8A4MOR7T7","img_art/4.jpg","0","","","","","","","","","","","","","","","","","","","","","","","","",""
"5310","","image-button-response","113","788900","0.0-112.0-0.0","A2WNW8A4MOR7T7","img_art/4.jpg","1","","","","","","","","","","","","","","","","","","","","","","","","",""
"3221","","image-button-response","114","792124","0.0-113.0-0.0","A2WNW8A4MOR7T7","img_art/4.jpg","2","","","","","","","","","","","","","","","","","","","","","","","","",""
"null","","html-keyboard-response","115","792637","0.0-114.0","A2WNW8A4MOR7T7","<p style=""font-size: 48px;"">+</p>","","","","","null","allTrialResponses","500","1","10","img_art/4.jpg","-25","nothing just a weird thing but stupid","Steven,Zachary,Angel,Alejandro,Elijah,William","The colors remind me of mcdonalds,-33,160,20","Not a huge fan of the color story, but it reminds me of a child finger-painting.,12,400,20","I feel kind of guilty looking at this, like I'm receiving a reward I don't I deserve.,-10,180,20","Looks like finger nails from the Guinness world record book.,-30,80,20","Looks like a hand, not very impressed,-22,80,20","dont like the colors,-31,380,20","Steven","The colors remind me of mcdonalds,-33,160,20","Zachary","Not a huge fan of the color story, but it reminds me of a child finger-painting.,12,400,20","Angel","I feel kind of guilty looking at this, like I'm receiving a reward I don't I deserve.,-10,180,20","2"
"4755","","survey-text","116","797404","0.0-115.0-0.0","A2WNW8A4MOR7T7","","","","{""Q0"":""our""}","","","","","","","","","","","","","","","","","","","","","","",""
"24534","","survey-text","117","821939","0.0-116.0-0.0","A2WNW8A4MOR7T7","","","","{""Q0"":""dark and dreary but actually good to look at""}","","","","","","","","","","","","","","","","","","","","","","",""
"4076.7000000476837","","image-slider-response","118","826020","0.0-117.0","A2WNW8A4MOR7T7","","","","","14","","","","","","","","","","","","","","","","","","","","","",""
"null","","image-button-response","119","831037","0.0-118.0","A2WNW8A4MOR7T7","img_art/20.jpg","null","","","","","","","","","","","","","","","","","","","","","","","","",""
"882","","image-button-response","120","831924","0.0-119.0","A2WNW8A4MOR7T7","img_art/20.jpg","3","","","","","","","","","","","","","","","","","","","","","","","","",""
"2077","","image-button-response","121","834004","0.0-120.0-0.0","A2WNW8A4MOR7T7","img_art/20.jpg","4","","","","","","","","","","","","","","","","","","","","","","","","",""
"2573","","image-button-response","122","836580","0.0-121.0-0.0","A2WNW8A4MOR7T7","img_art/20.jpg","5","","","","","","","","","","","","","","","","","","","","","","","","",""
"null","","html-keyboard-response","123","838083","0.0-122.0","A2WNW8A4MOR7T7","<p style=""font-size: 48px;"">+</p>","","","","","null","allTrialResponses","1500","1","11","img_art/20.jpg","14","dark and dreary but actually good to look at","Steven,Zachary,Angel,Austin,Marcus,Gregory","It's okay, I see what looks like a truck laying on it's side. Meh,10,160,20","While interesting in technique.. It looks like a blurry car wreck. Does not evoke great emotions.,-20,400,20","This looks like a ruin of what was once a thriving city.,-9,180,20","This painting would make a great display art,50,240,20","I like the blues, and the sense of foreboding it makes me feel.,20,60,20","Looks like some type of future dystopian civilization,35,220,20","Austin","This painting would make a great display art,50,240,20","Marcus","I like the blues, and the sense of foreboding it makes me feel.,20,60,20","Gregory","Looks like some type of future dystopian civilization,35,220,20","2"
"15282","","survey-text","124","853372","0.0-123.0-0.0","A2WNW8A4MOR7T7","","","","{""Q0"":""color makes feel happy""}","","","","","","","","","","","","","","","","","","","","","","",""
"3365.600000023842","","image-slider-response","125","856740","0.0-124.0","A2WNW8A4MOR7T7","","","","","21","","","","","","","","","","","","","","","","","","","","","",""
"4092","","image-button-response","126","861747","0.0-125.0","A2WNW8A4MOR7T7","img_art/22.jpg","3","","","","","","","","","","","","","","","","","","","","","","","","",""
"558","","image-button-response","127","862308","0.0-126.0","A2WNW8A4MOR7T7","img_art/22.jpg","3","","","","","","","","","","","","","","","","","","","","","","","","",""
"3965","","image-button-response","128","866276","0.0-127.0-0.0","A2WNW8A4MOR7T7","img_art/22.jpg","1","","","","","","","","","","","","","","","","","","","","","","","","",""
"524","","image-button-response","129","866804","0.0-128.0-0.0","A2WNW8A4MOR7T7","img_art/22.jpg","0","","","","","","","","","","","","","","","","","","","","","","","","",""
"null","","html-keyboard-response","130","867307","0.0-129.0","A2WNW8A4MOR7T7","<p style=""font-size: 48px;"">+</p>","","","","","null","allTrialResponses","500","1","12","img_art/22.jpg","21","color makes feel happy","Thomas,Luke,Cole,Austin,Marcus,Gregory","Beautiful. I love the color contrast and gradients.,50,220,20","the colors and shapes makes me want to keep looking at it,22,20,20","Bright colors feel warm,22,200,20","Great color palette,29,240,20","Like the colors. I enjoy looking at this one.,15,60,20","Like the mix of warm and cool colors,15,220,20","Austin","Great color palette,29,240,20","Luke","the colors and shapes makes me want to keep looking at it,22,20,20","Thomas","Beautiful. I love the color contrast and gradients.,50,220,20","2"
"19626","","survey-text","131","886940","0.0-130.0-0.0","A2WNW8A4MOR7T7","","","","{""Q0"":""wind swept streets just mediocre""}","","","","","","","","","","","","","","","","","","","","","","",""
"3597.600000023842","","image-slider-response","132","890540","0.0-131.0","A2WNW8A4MOR7T7","","","","","2","","","","","","","","","","","","","","","","","","","","","",""
"4589","","image-button-response","133","895546","0.0-132.0","A2WNW8A4MOR7T7","img_art/26.jpg","0","","","","","","","","","","","","","","","","","","","","","","","","",""
"567","","image-button-response","134","896115","0.0-133.0","A2WNW8A4MOR7T7","img_art/26.jpg","0","","","","","","","","","","","","","","","","","","","","","","","","",""
"2358","","image-button-response","135","898476","0.0-134.0-0.0","A2WNW8A4MOR7T7","img_art/26.jpg","4","","","","","","","","","","","","","","","","","","","","","","","","",""
"1085","","image-button-response","136","899564","0.0-135.0-0.0","A2WNW8A4MOR7T7","img_art/26.jpg","5","","","","","","","","","","","","","","","","","","","","","","","","",""
"null","","html-keyboard-response","137","901066","0.0-136.0","A2WNW8A4MOR7T7","<p style=""font-size: 48px;"">+</p>","","","","","null","allTrialResponses","1500","1","13","img_art/26.jpg","2","wind swept streets just mediocre","Thomas,Luke,Brett,Austin,Andrew,Charles","It feels almost unfinished, but I like the color palette,9,220,20","makes me happy and reminds me of a paris courtyard,29,20,20","Picturesque little town,45,360,20","Like the soft blend of colors,26,240,20","Makes me want to walk down a cool street,20,160,20","It looks like I'm staring out of the window of a nice house, but the house is mine,20,100,20","Thomas","It feels almost unfinished, but I like the color palette,9,220,20","Andrew","Makes me want to walk down a cool street,20,160,20","Charles","It looks like I'm staring out of the window of a nice house, but the house is mine,20,100,20","2"
"15435","","survey-text","138","916507","0.0-137.0-0.0","A2WNW8A4MOR7T7","","","","{""Q0"":""great design looks woodsy""}","","","","","","","","","","","","","","","","","","","","","","",""
"1908.9000000357628","","image-slider-response","139","918419","0.0-138.0","A2WNW8A4MOR7T7","","","","","12","","","","","","","","","","","","","","","","","","","","","",""
"null","","image-button-response","140","923432","0.0-139.0","A2WNW8A4MOR7T7","img_art/18.jpg","null","","","","","","","","","","","","","","","","","","","","","","","","",""
"530","","image-button-response","141","923963","0.0-140.0","A2WNW8A4MOR7T7","img_art/18.jpg","0","","","","","","","","","","","","","","","","","","","","","","","","",""
"1390","","image-button-response","142","925355","0.0-141.0-0.0","A2WNW8A4MOR7T7","img_art/18.jpg","1","","","","","","","","","","","","","","","","","","","","","","","","",""
"789","","image-button-response","143","926147","0.0-142.0-0.0","A2WNW8A4MOR7T7","img_art/18.jpg","2","","","","","","","","","","","","","","","","","","","","","","","","",""
"null","","html-keyboard-response","144","926650","0.0-143.0","A2WNW8A4MOR7T7","<p style=""font-size: 48px;"">+</p>","","","","","null","allTrialResponses","500","1","14","img_art/18.jpg","12","great design looks woodsy","Thomas,Antonio,Brandon,Corey,Andrew,Charles","I could stare at this for long stretches of time and still find new details. I love it.,40,220,20","I think of the ocean and a boat tossed about on the waves. In the upper left is a figure. It is pleasant,30,220,20","Crusade-feel, but a little too abstract for my taste,23,320,20","reminds me of dying at sea in the 1700s,-8,260,20","Another ominous painting,-10,160,20","I enjoy the detailed line work in this one,21,100,20","Thomas","I could stare at this for long stretches of time and still find new details. I love it.,40,220,20","Antonio","I think of the ocean and a boat tossed about on the waves. In the upper left is a figure. It is pleasant,30,220,20","Brandon","Crusade-feel, but a little too abstract for my taste,23,320,20","2"
"15027","","survey-text","145","941683","0.0-144.0-0.0","A2WNW8A4MOR7T7","","","","{""Q0"":""strange wonder what it is""}","","","","","","","","","","","","","","","","","","","","","","",""
"2765.399999976158","","image-slider-response","146","944451","0.0-145.0","A2WNW8A4MOR7T7","","","","","-12","","","","","","","","","","","","","","","","","","","","","",""
"4326","","image-button-response","147","949453","0.0-146.0","A2WNW8A4MOR7T7","img_art/25.jpg","1","","","","","","","","","","","","","","","","","","","","","","","","",""
"563","","image-button-response","148","950019","0.0-147.0","A2WNW8A4MOR7T7","img_art/25.jpg","1","","","","","","","","","","","","","","","","","","","","","","","","",""
"789","","image-button-response","149","950811","0.0-148.0-0.0","A2WNW8A4MOR7T7","img_art/25.jpg","0","","","","","","","","","","","","","","","","","","","","","","","","",""
"2349","","image-button-response","150","953164","0.0-149.0-0.0","A2WNW8A4MOR7T7","img_art/25.jpg","4","","","","","","","","","","","","","","","","","","","","","","","","",""
"null","","html-keyboard-response","151","953668","0.0-150.0","A2WNW8A4MOR7T7","<p style=""font-size: 48px;"">+</p>","","","","","null","allTrialResponses","500","1","15","img_art/25.jpg","-12","strange wonder what it is","Thomas,Antonio,Brandon,Colton,Connor,Jared","I like the design but the brightness of the color feels almost blinding to me.,-3,220,20","Makes me think of Baphomet, As above so below and is scary,-50,220,20","Reminds me of cave drawings,21,320,20","the colors are pretty,11,220,20","Looks like glow in the dark halloween decoration,-38,240,20","the green is serene. the figure is scare crow like,7,400,20","Antonio","Makes me think of Baphomet, As above so below and is scary,-50,220,20","Thomas","I like the design but the brightness of the color feels almost blinding to me.,-3,220,20","Connor","Looks like glow in the dark halloween decoration,-38,240,20","2"
"9676","","survey-text","152","963355","0.0-151.0-0.0","A2WNW8A4MOR7T7","","","","{""Q0"":""course""}","","","","","","","","","","","","","","","","","","","","","","",""
"48022","","survey-text","153","1011379","0.0-152.0-0.0","A2WNW8A4MOR7T7","","","","{""Q0"":""nice calming stream in the woods""}","","","","","","","","","","","","","","","","","","","","","","",""
"3133.399999976158","","image-slider-response","154","1014515","0.0-153.0","A2WNW8A4MOR7T7","","","","","21","","","","","","","","","","","","","","","","","","","","","",""
"null","","image-button-response","155","1019519","0.0-154.0","A2WNW8A4MOR7T7","img_art/24.jpg","null","","","","","","","","","","","","","","","","","","","","","","","","",""
"643","","image-button-response","156","1020163","0.0-155.0","A2WNW8A4MOR7T7","img_art/24.jpg","1","","","","","","","","","","","","","","","","","","","","","","","","",""
"741","","image-button-response","157","1020907","0.0-156.0-0.0","A2WNW8A4MOR7T7","img_art/24.jpg","0","","","","","","","","","","","","","","","","","","","","","","","","",""
"1069","","image-button-response","158","1021979","0.0-157.0-0.0","A2WNW8A4MOR7T7","img_art/24.jpg","2","","","","","","","","","","","","","","","","","","","","","","","","",""
"null","","html-keyboard-response","159","1022482","0.0-158.0","A2WNW8A4MOR7T7","<p style=""font-size: 48px;"">+</p>","","","","","null","allTrialResponses","500","1","16","img_art/24.jpg","21","nice calming stream in the woods","Thomas,Antonio,Spencer,Christopher,Connor,Jeffrey","Beautiful colors and texture,20,220,20","Waterfalls and spring and gives me a sense of renewal,34,220,20","Happy, the forest as I would love to see it,50,120,20","it's fine, the colors are pleasing, but not my taste,9,160,20","Too literal, not abstract,-29,240,20","Very refreshing and vigorous,19,40,20","Antonio","Waterfalls and spring and gives me a sense of renewal,34,220,20","Thomas","Beautiful colors and texture,20,220,20","Spencer","Happy, the forest as I would love to see it,50,120,20","2"
"17090","","survey-text","160","1039579","0.0-159.0-0.0","A2WNW8A4MOR7T7","","","","{""Q0"":""wispy nostalgic feels calm""}","","","","","","","","","","","","","","","","","","","","","","",""
"2837.199999988079","","image-slider-response","161","1042419","0.0-160.0","A2WNW8A4MOR7T7","","","","","22","","","","","","","","","","","","","","","","","","","","","",""
"null","","image-button-response","162","1047422","0.0-161.0","A2WNW8A4MOR7T7","img_art/17.jpg","null","","","","","","","","","","","","","","","","","","","","","","","","",""
"4370","","image-button-response","163","1051795","0.0-162.0","A2WNW8A4MOR7T7","img_art/17.jpg","0","","","","","","","","","","","","","","","","","","","","","","","","",""
"1293","","image-button-response","164","1053092","0.0-163.0-0.0","A2WNW8A4MOR7T7","img_art/17.jpg","1","","","","","","","","","","","","","","","","","","","","","","","","",""
"1876","","image-button-response","165","1054971","0.0-164.0-0.0","A2WNW8A4MOR7T7","img_art/17.jpg","2","","","","","","","","","","","","","","","","","","","","","","","","",""
"null","","html-keyboard-response","166","1056474","0.0-165.0","A2WNW8A4MOR7T7","<p style=""font-size: 48px;"">+</p>","","","","","null","allTrialResponses","1500","1","17","img_art/17.jpg","22","wispy nostalgic feels calm","Thomas,Antonio,Spencer,Travis,Grant,Timothy","Colors and composition are beautiful. I would hang this in my home.,50,220,20","Beautiful colors. Made me feel soft and feminine,50,220,20","Love the colors, the flow, like a strange storm or tree off the balcony,50,120,20","Very pretty...the colors and good and flow well.,33,260,20","This makes me feel trapped.,5,200,20","This feels like creativity and limitlessness,30,240,20","Thomas","Colors and composition are beautiful. I would hang this in my home.,50,220,20","Antonio","Beautiful colors. Made me feel soft and feminine,50,220,20","Spencer","Love the colors, the flow, like a strange storm or tree off the balcony,50,120,20","2"
"18756","","survey-text","167","1075235","0.0-166.0-0.0","A2WNW8A4MOR7T7","","","","{""Q0"":""snakes bold feel scared""}","","","","","","","","","","","","","","","","","","","","","","",""
"2909.5","","image-slider-response","168","1078147","0.0-167.0","A2WNW8A4MOR7T7","","","","","-8","","","","","","","","","","","","","","","","","","","","","",""
"4989","","image-button-response","169","1083150","0.0-168.0","A2WNW8A4MOR7T7","img_art/30.jpg","4","","","","","","","","","","","","","","","","","","","","","","","","",""
"659","","image-button-response","170","1083812","0.0-169.0","A2WNW8A4MOR7T7","img_art/30.jpg","4","","","","","","","","","","","","","","","","","","","","","","","","",""
"668","","image-button-response","171","1084484","0.0-170.0-0.0","A2WNW8A4MOR7T7","img_art/30.jpg","5","","","","","","","","","","","","","","","","","","","","","","","","",""
"2093","","image-button-response","172","1086579","0.0-171.0-0.0","A2WNW8A4MOR7T7","img_art/30.jpg","0","","","","","","","","","","","","","","","","","","","","","","","","",""
"null","","html-keyboard-response","173","1087082","0.0-172.0","A2WNW8A4MOR7T7","<p style=""font-size: 48px;"">+</p>","","","","","null","allTrialResponses","500","1","18","img_art/30.jpg","-8","snakes bold feel scared","Thomas,Antonio,Spencer,Dustin,Nicholas,Michael","I like the colors,18,220,20","Fear. It looks like snakes in the picture,13,220,20","Interesting, almost an underworld of plant life,11,120,20","Soothing color palette, but doesn't look like anything. All I see are random brush strokes.,1,20,20","Too much like childrens finger paint. I dont like the smear of blended colors,-50,240,20","It looks like a child did it. There is nothing talented or special about it.,-16,140,20","Nicholas","Too much like childrens finger paint. I dont like the smear of blended colors,-50,240,20","Michael","It looks like a child did it. There is nothing talented or special about it.,-16,140,20","Thomas","I like the colors,18,220,20","2"
"14426","","survey-text","174","1101515","0.0-173.0-0.0","A2WNW8A4MOR7T7","","","","{""Q0"":""just to strange for me""}","","","","","","","","","","","","","","","","","","","","","","",""
"2173.300000011921","","image-slider-response","175","1103692","0.0-174.0","A2WNW8A4MOR7T7","","","","","-25","","","","","","","","","","","","","","","","","","","","","",""
"4541","","image-button-response","176","1108695","0.0-175.0","A2WNW8A4MOR7T7","img_art/9.jpg","0","","","","","","","","","","","","","","","","","","","","","","","","",""
"587","","image-button-response","177","1109283","0.0-176.0","A2WNW8A4MOR7T7","img_art/9.jpg","0","","","","","","","","","","","","","","","","","","","","","","","","",""
"2110","","image-button-response","178","1111396","0.0-177.0-0.0","A2WNW8A4MOR7T7","img_art/9.jpg","5","","","","","","","","","","","","","","","","","","","","","","","","",""
"1692","","image-button-response","179","1113092","0.0-178.0-0.0","A2WNW8A4MOR7T7","img_art/9.jpg","3","","","","","","","","","","","","","","","","","","","","","","","","",""
"null","","html-keyboard-response","180","1114594","0.0-179.0","A2WNW8A4MOR7T7","<p style=""font-size: 48px;"">+</p>","","","","","null","allTrialResponses","1500","1","19","img_art/9.jpg","-25","just to strange for me","Thomas,Samuel,Dalton,Jordan,Nicholas,Michael","I don't like the picture, but it wouldn't surprise me if someone did,-20,220,20","what a wild ride,11,400,20","a mother in bed surrounded by emotions,1,300,20","Reminds me of a cave in a scary movie,-21,160,20","Some nice colors but i do not like it,-18,240,20","Looks like a young child drew it.,-45,140,20","Thomas","I don't like the picture, but it wouldn't surprise me if someone did,-20,220,20","Michael","Looks like a young child drew it.,-45,140,20","Jordan","Reminds me of a cave in a scary movie,-21,160,20","2"
"9348","","survey-text","181","1123947","0.0-180.0-0.0","A2WNW8A4MOR7T7","","","","{""Q0"":""wispy average""}","","","","","","","","","","","","","","","","","","","","","","",""
"2501.800000011921","","image-slider-response","182","1126451","0.0-181.0","A2WNW8A4MOR7T7","","","","","3","","","","","","","","","","","","","","","","","","","","","",""
"4637","","image-button-response","183","1131455","0.0-182.0","A2WNW8A4MOR7T7","img_art/14.jpg","3","","","","","","","","","","","","","","","","","","","","","","","","",""
"345","","image-button-response","184","1131803","0.0-183.0","A2WNW8A4MOR7T7","img_art/14.jpg","3","","","","","","","","","","","","","","","","","","","","","","","","",""
"725","","image-button-response","185","1132531","0.0-184.0-0.0","A2WNW8A4MOR7T7","img_art/14.jpg","4","","","","","","","","","","","","","","","","","","","","","","","","",""
"1372","","image-button-response","186","1133907","0.0-185.0-0.0","A2WNW8A4MOR7T7","img_art/14.jpg","1","","","","","","","","","","","","","","","","","","","","","","","","",""
"null","","html-keyboard-response","187","1135411","0.0-186.0","A2WNW8A4MOR7T7","<p style=""font-size: 48px;"">+</p>","","","","","null","allTrialResponses","1500","1","20","img_art/14.jpg","3","wispy average","Thomas,Dylan,Jesus,Jordan,Kyle,Michael","I like the colors in the background, but not the bottom/center. It almost looks sloppy.,-20,220,20","Pretty, dainty, unique,22,40,20","I like the combination of colors and textures.,35,100,20","Reminds me of art class,22,160,20","The colors are nice and it reminds me of a shrub or tree,10,340,20","Looks like there is some skill but also at the same time parts look unskilled.,-16,140,20","Jordan","Reminds me of art class,22,160,20","Kyle","The colors are nice and it reminds me of a shrub or tree,10,340,20","Dylan","Pretty, dainty, unique,22,40,20","2"
"3596","","survey-text","188","1139019","0.0-187.0-0.0","A2WNW8A4MOR7T7","","","","{""Q0"":""we""}","","","","","","","","","","","","","","","","","","","","","","",""
"19669","","survey-text","189","1158692","0.0-188.0-0.0","A2WNW8A4MOR7T7","","","","{""Q0"":""dark and mysterious night""}","","","","","","","","","","","","","","","","","","","","","","",""
"3628.800000011921","","image-slider-response","190","1162323","0.0-189.0","A2WNW8A4MOR7T7","","","","","10","","","","","","","","","","","","","","","","","","","","","",""
"4084","","image-button-response","191","1167328","0.0-190.0","A2WNW8A4MOR7T7","img_art/21.jpg","5","","","","","","","","","","","","","","","","","","","","","","","","",""
"329","","image-button-response","192","1167659","0.0-191.0","A2WNW8A4MOR7T7","img_art/21.jpg","5","","","","","","","","","","","","","","","","","","","","","","","","",""
"1501","","image-button-response","193","1169163","0.0-192.0-0.0","A2WNW8A4MOR7T7","img_art/21.jpg","1","","","","","","","","","","","","","","","","","","","","","","","","",""
"925","","image-button-response","194","1170092","0.0-193.0-0.0","A2WNW8A4MOR7T7","img_art/21.jpg","0","","","","","","","","","","","","","","","","","","","","","","","","",""
"null","","html-keyboard-response","195","1171094","0.0-194.0","A2WNW8A4MOR7T7","<p style=""font-size: 48px;"">+</p>","","","","","null","allTrialResponses","1000","1","21","img_art/21.jpg","10","dark and mysterious night","Isaac,Dylan,Stephen,Jordan,Kyle,Caleb","I like the colors. It looks dramatic.,5,280,20","This one is nice, it reminds me of the sky,42,40,20","Don't see anything special about it,-21,140,20","Beautiful colors, remind me of my yoga studio,50,160,20","The blues make me feel sadder as my mood is already not the best right now,-10,340,20","Almost appears like the background of an old renaissance painting.,40,40,20","Caleb","Almost appears like the background of an old renaissance painting.,40,40,20","Dylan","This one is nice, it reminds me of the sky,42,40,20","Isaac","I like the colors. It looks dramatic.,5,280,20","2"
"19552","","survey-text","196","1190659","0.0-195.0-0.0","A2WNW8A4MOR7T7","","","","{""Q0"":""block and weird not good""}","","","","","","","","","","","","","","","","","","","","","","",""
"2765.600000023842","","image-slider-response","197","1193427","0.0-196.0","A2WNW8A4MOR7T7","","","","","-22","","","","","","","","","","","","","","","","","","","","","",""
"null","","image-button-response","198","1198430","0.0-197.0","A2WNW8A4MOR7T7","img_art/8.jpg","null","","","","","","","","","","","","","","","","","","","","","","","","",""
"1147","","image-button-response","199","1199579","0.0-198.0","A2WNW8A4MOR7T7","img_art/8.jpg","1","","","","","","","","","","","","","","","","","","","","","","","","",""
"7477","","image-button-response","200","1207059","0.0-199.0-0.0","A2WNW8A4MOR7T7","img_art/8.jpg","3","","","","","","","","","","","","","","","","","","","","","","","","",""
"2060","","image-button-response","201","1209123","0.0-200.0-0.0","A2WNW8A4MOR7T7","img_art/8.jpg","5","","","","","","","","","","","","","","","","","","","","","","","","",""
"null","","html-keyboard-response","202","1210128","0.0-201.0","A2WNW8A4MOR7T7","<p style=""font-size: 48px;"">+</p>","","","","","null","allTrialResponses","1000","1","22","img_art/8.jpg","-22","block and weird not good","Isaac,Dylan,Jose,Alexander,Cody,Caleb","It looks like it took a lot of time to complete.,34,280,20","The colors are nice but the big face in the sky is creepy,-11,40,20","This is really cool, I love the fragments of faces,38,200,20","Falling into a city's heart.,10,120,20","Love the colors & block-style,50,180,20","Despite the detail, this picture is very abstract!,31,40,20","Dylan","The colors are nice but the big face in the sky is creepy,-11,40,20","Alexander","Falling into a city's heart.,10,120,20","Caleb","Despite the detail, this picture is very abstract!,31,40,20","2"
"36035","","survey-text","203","1246171","0.0-202.0-0.0","A2WNW8A4MOR7T7","","","","{""Q0"":""looks like rain on a window nice feeling""}","","","","","","","","","","","","","","","","","","","","","","",""
"5405.199999988079","","image-slider-response","204","1251579","0.0-203.0","A2WNW8A4MOR7T7","","","","","17","","","","","","","","","","","","","","","","","","","","","",""
"4430","","image-button-response","205","1256584","0.0-204.0","A2WNW8A4MOR7T7","img_art/13.jpg","3","","","","","","","","","","","","","","","","","","","","","","","","",""
"170","","image-button-response","206","1256756","0.0-205.0","A2WNW8A4MOR7T7","img_art/13.jpg","3","","","","","","","","","","","","","","","","","","","","","","","","",""
"1469","","image-button-response","207","1258228","0.0-206.0-0.0","A2WNW8A4MOR7T7","img_art/13.jpg","4","","","","","","","","","","","","","","","","","","","","","","","","",""
"2045","","image-button-response","208","1260276","0.0-207.0-0.0","A2WNW8A4MOR7T7","img_art/13.jpg","0","","","","","","","","","","","","","","","","","","","","","","","","",""
"null","","html-keyboard-response","209","1260778","0.0-208.0","A2WNW8A4MOR7T7","<p style=""font-size: 48px;"">+</p>","","","","","null","allTrialResponses","500","1","23","img_art/13.jpg","17","looks like rain on a window nice feeling","Tyler,Dylan,Tanner,Alexander,John,Caleb","Pollock? Love the juxtaposition of colors. Soothing and stirring, a beautiful inexplicable paradox.,50,320,20","I do like the blue colors in this.,12,40,20","happy, serenity,30,180,20","Seeing the world through different lenses.,15,120,20","Pretty and it reminds me of rain droplets running down a window on a rainy day.,40,120,20","Lots of depth and character.,30,40,20","Alexander","Seeing the world through different lenses.,15,120,20","John","Pretty and it reminds me of rain droplets running down a window on a rainy day.,40,120,20","Tyler","Pollock? Love the juxtaposition of colors. Soothing and stirring, a beautiful inexplicable paradox.,50,320,20","2"
"10114","","survey-text","210","1270899","0.0-209.0-0.0","A2WNW8A4MOR7T7","","","","{""Q0"":""just weird to choppy""}","","","","","","","","","","","","","","","","","","","","","","",""
"3957.100000023842","","image-slider-response","211","1274859","0.0-210.0","A2WNW8A4MOR7T7","","","","","-14","","","","","","","","","","","","","","","","","","","","","",""
"null","","image-button-response","212","1279863","0.0-211.0","A2WNW8A4MOR7T7","img_art/12.jpg","null","","","","","","","","","","","","","","","","","","","","","","","","",""
"6451","","image-button-response","213","1286315","0.0-212.0","A2WNW8A4MOR7T7","img_art/12.jpg","0","","","","","","","","","","","","","","","","","","","","","","","","",""
"2798","","image-button-response","214","1289116","0.0-213.0-0.0","A2WNW8A4MOR7T7","img_art/12.jpg","3","","","","","","","","","","","","","","","","","","","","","","","","",""
"1517","","image-button-response","215","1290636","0.0-214.0-0.0","A2WNW8A4MOR7T7","img_art/12.jpg","5","","","","","","","","","","","","","","","","","","","","","","","","",""
"null","","html-keyboard-response","216","1291639","0.0-215.0","A2WNW8A4MOR7T7","<p style=""font-size: 48px;"">+</p>","","","","","null","allTrialResponses","1000","1","24","img_art/12.jpg","-14","just weird to choppy","Tyler,Bryan,Matthew,Alexander,John,Kevin","Different enough to be memorable. The gradient of hues is appealing and appeasing.,32,320,20","Love the colors & the abstractness.,31,400,20","It's boxy, cubist immpressionism? Very ncie.,32,120,20","Ugly color combinations, no focus.,-25,120,20","Its cool,reminiscent of Andy Warhol type of style,10,120,20","That is a warn quilt grama made.,11,320,20","Tyler","Different enough to be memorable. The gradient of hues is appealing and appeasing.,32,320,20","Alexander","Ugly color combinations, no focus.,-25,120,20","Kevin","That is a warn quilt grama made.,11,320,20","2"
"11718","","survey-text","217","1303363","0.0-216.0-0.0","A2WNW8A4MOR7T7","","","","{""Q0"":""strange makes me worried""}","","","","","","","","","","","","","","","","","","","","","","",""
"2605.800000011921","","image-slider-response","218","1305971","0.0-217.0","A2WNW8A4MOR7T7","","","","","-22","","","","","","","","","","","","","","","","","","","","","",""
"4078","","image-button-response","219","1310975","0.0-218.0","A2WNW8A4MOR7T7","img_art/16.jpg","3","","","","","","","","","","","","","","","","","","","","","","","","",""
"554","","image-button-response","220","1311532","0.0-219.0","A2WNW8A4MOR7T7","img_art/16.jpg","3","","","","","","","","","","","","","","","","","","","","","","","","",""
"1765","","image-button-response","221","1313300","0.0-220.0-0.0","A2WNW8A4MOR7T7","img_art/16.jpg","0","","","","","","","","","","","","","","","","","","","","","","","","",""
"581","","image-button-response","222","1313884","0.0-221.0-0.0","A2WNW8A4MOR7T7","img_art/16.jpg","1","","","","","","","","","","","","","","","","","","","","","","","","",""
"null","","html-keyboard-response","223","1314385","0.0-222.0","A2WNW8A4MOR7T7","<p style=""font-size: 48px;"">+</p>","","","","","null","allTrialResponses","500","1","25","img_art/16.jpg","-22","strange makes me worried","Tyler,Isaiah,Garrett,Alexander,Blake,Kevin","Pop art, Tate Modern horse dung.,-50,320,20","I feel irked, like somehow the items in this painting just happened to fall on the page together.,-44,300,20","I think this picture is weird and the colors are very boring.,-50,180,20","Strange and bleak.,-20,120,20","cute and warm. i like the bear,15,280,20","Hmm i don't know what going on here.,1,320,20","Alexander","Strange and bleak.,-20,120,20","Tyler","Pop art, Tate Modern horse dung.,-50,320,20","Isaiah","I feel irked, like somehow the items in this painting just happened to fall on the page together.,-44,300,20","2"
"5554","","survey-text","224","1319954","0.0-223.0-0.0","A2WNW8A4MOR7T7","","","","{""Q0"":""table""}","","","","","","","","","","","","","","","","","","","","","","",""
"24830","","survey-text","225","1344786","0.0-224.0-0.0","A2WNW8A4MOR7T7","","","","{""Q0"":""tar looking ugh not appealing""}","","","","","","","","","","","","","","","","","","","","","","",""
"2085.5","","image-slider-response","226","1346875","0.0-225.0","A2WNW8A4MOR7T7","","","","","-33","","","","","","","","","","","","","","","","","","","","","",""
"4533","","image-button-response","227","1351893","0.0-226.0","A2WNW8A4MOR7T7","img_art/29.jpg","1","","","","","","","","","","","","","","","","","","","","","","","","",""
"370","","image-button-response","228","1352267","0.0-227.0","A2WNW8A4MOR7T7","img_art/29.jpg","1","","","","","","","","","","","","","","","","","","","","","","","","",""
"1069","","image-button-response","229","1353339","0.0-228.0-0.0","A2WNW8A4MOR7T7","img_art/29.jpg","0","","","","","","","","","","","","","","","","","","","","","","","","",""
"1164","","image-button-response","230","1354507","0.0-229.0-0.0","A2WNW8A4MOR7T7","img_art/29.jpg","4","","","","","","","","","","","","","","","","","","","","","","","","",""
"null","","html-keyboard-response","231","1355009","0.0-230.0","A2WNW8A4MOR7T7","<p style=""font-size: 48px;"">+</p>","","","","","null","allTrialResponses","500","1","26","img_art/29.jpg","-33","tar looking ugh not appealing","Tyler,Isaiah,Jorge,Alexander,Hunter,Gabriel","Well if the artist themself is crossing it out, why should I pay any mind?,-30,320,20","I feel a little disgust. There is something off-putting about the smooth shapes and dark colors.,-43,300,20","makes me feel busy and unorganized,4,180,20","Tested and failed a lot of ideas.,-20,120,20","abrasive and grotesque textures,-36,240,20","dont like this one,-20,160,20","Isaiah","I feel a little disgust. There is something off-putting about the smooth shapes and dark colors.,-43,300,20","Tyler","Well if the artist themself is crossing it out, why should I pay any mind?,-30,320,20","Hunter","abrasive and grotesque textures,-36,240,20","2"
"12379","","survey-text","232","1367402","0.0-231.0-0.0","A2WNW8A4MOR7T7","","","","{""Q0"":""trash bag look stupid""}","","","","","","","","","","","","","","","","","","","","","","",""
"2854.400000035763","","image-slider-response","233","1370259","0.0-232.0","A2WNW8A4MOR7T7","","","","","-27","","","","","","","","","","","","","","","","","","","","","",""
"4949","","image-button-response","234","1375275","0.0-233.0","A2WNW8A4MOR7T7","img_art/5.jpg","3","","","","","","","","","","","","","","","","","","","","","","","","",""
"493","","image-button-response","235","1375771","0.0-234.0","A2WNW8A4MOR7T7","img_art/5.jpg","3","","","","","","","","","","","","","","","","","","","","","","","","",""
"2437","","image-button-response","236","1378211","0.0-235.0-0.0","A2WNW8A4MOR7T7","img_art/5.jpg","1","","","","","","","","","","","","","","","","","","","","","","","","",""
"500","","image-button-response","237","1378715","0.0-236.0-0.0","A2WNW8A4MOR7T7","img_art/5.jpg","2","","","","","","","","","","","","","","","","","","","","","","","","",""
"null","","html-keyboard-response","238","1379718","0.0-237.0","A2WNW8A4MOR7T7","<p style=""font-size: 48px;"">+</p>","","","","","null","allTrialResponses","1000","1","27","img_art/5.jpg","-27","trash bag look stupid","Tyler,Isaiah,Justin,Cameron,Hunter,Sean","Bright and luminous,31,320,20","I feel nothing looking at this.,-5,300,20","Although it's very simple, there's something about the colors that really draws the eye.,11,280,20","No. What even is this? A mop?,-35,60,20","strong appeal in contrast,27,240,20","the picture looks ok,8,40,20","Cameron","No. What even is this? A mop?,-35,60,20","Isaiah","I feel nothing looking at this.,-5,300,20","Justin","Although it's very simple, there's something about the colors that really draws the eye.,11,280,20","2"
"11693","","survey-text","239","1391419","0.0-238.0-0.0","A2WNW8A4MOR7T7","","","","{""Q0"":""dark to dark not like""}","","","","","","","","","","","","","","","","","","","","","","",""
"1612.8999999761581","","image-slider-response","240","1393035","0.0-239.0","A2WNW8A4MOR7T7","","","","","-23","","","","","","","","","","","","","","","","","","","","","",""
"null","","image-button-response","241","1398049","0.0-240.0","A2WNW8A4MOR7T7","img_art/11.jpg","null","","","","","","","","","","","","","","","","","","","","","","","","",""
"2270","","image-button-response","242","1400323","0.0-241.0","A2WNW8A4MOR7T7","img_art/11.jpg","2","","","","","","","","","","","","","","","","","","","","","","","","",""
"1276","","image-button-response","243","1401603","0.0-242.0-0.0","A2WNW8A4MOR7T7","img_art/11.jpg","5","","","","","","","","","","","","","","","","","","","","","","","","",""
"621","","image-button-response","244","1402227","0.0-243.0-0.0","A2WNW8A4MOR7T7","img_art/11.jpg","4","","","","","","","","","","","","","","","","","","","","","","","","",""
"null","","html-keyboard-response","245","1402730","0.0-244.0","A2WNW8A4MOR7T7","<p style=""font-size: 48px;"">+</p>","","","","","null","allTrialResponses","500","1","28","img_art/11.jpg","-23","dark to dark not like","Christian,Isaiah,Justin,Cameron,David,Derek","to me, perfect reflection of the modern commute,32,140,20","I feel excited, like I'm in the middle of a bustling city.,26,300,20","It reminds me of telephone wires.,1,280,20","futuristic arching railways,25,60,20","I like how this piece can be interpreted in different ways, such as a village on hilly terrain.,10,340,20","There's a lot going on in this painting but it is pleasing and neat looking,31,360,20","Justin","It reminds me of telephone wires.,1,280,20","Derek","There's a lot going on in this painting but it is pleasing and neat looking,31,360,20","David","I like how this piece can be interpreted in different ways, such as a village on hilly terrain.,10,340,20","2"
"12816","","survey-text","246","1415555","0.0-245.0-0.0","A2WNW8A4MOR7T7","","","","{""Q0"":""looks like bird but weird ""}","","","","","","","","","","","","","","","","","","","","","","",""
"2685.2000000476837","","image-slider-response","247","1418242","0.0-246.0","A2WNW8A4MOR7T7","","","","","-14","","","","","","","","","","","","","","","","","","","","","",""
"4342","","image-button-response","248","1423260","0.0-247.0","A2WNW8A4MOR7T7","img_art/28.jpg","0","","","","","","","","","","","","","","","","","","","","","","","","",""
"684","","image-button-response","249","1423947","0.0-248.0","A2WNW8A4MOR7T7","img_art/28.jpg","0","","","","","","","","","","","","","","","","","","","","","","","","",""
"1422","","image-button-response","250","1425371","0.0-249.0-0.0","A2WNW8A4MOR7T7","img_art/28.jpg","1","","","","","","","","","","","","","","","","","","","","","","","","",""
"1717","","image-button-response","251","1427092","0.0-250.0-0.0","A2WNW8A4MOR7T7","img_art/28.jpg","2","","","","","","","","","","","","","","","","","","","","","","","","",""
"null","","html-keyboard-response","252","1428106","0.0-251.0","A2WNW8A4MOR7T7","<p style=""font-size: 48px;"">+</p>","","","","","null","allTrialResponses","1000","1","29","img_art/28.jpg","-14","looks like bird but weird ","Taylor,James,Justin,Adam,David,Derek","Bug meets bug in a dark alley.,-20,200,20","My grandparents would like this, maybe my great grandparents. It's not my style.,-30,380,20","I don't like the colors or the design.,-20,280,20","Dislike the colors.,-20,40,20","I feel that the image is invoking a sense of negativity.,-15,340,20","The colors are dull but there's some kind of nostalgic essence of this painting,15,360,20","Taylor","Bug meets bug in a dark alley.,-20,200,20","James","My grandparents would like this, maybe my great grandparents. It's not my style.,-30,380,20","Justin","I don't like the colors or the design.,-20,280,20","2"
"16177","","survey-text","253","1444291","0.0-252.0-0.0","A2WNW8A4MOR7T7","","","","{""Q0"":""b right like the colors feels sun shiny""}","","","","","","","","","","","","","","","","","","","","","","",""
"2364.699999988079","","image-slider-response","254","1446659","0.0-253.0","A2WNW8A4MOR7T7","","","","","30","","","","","","","","","","","","","","","","","","","","","",""
"4805","","image-button-response","255","1451663","0.0-254.0","A2WNW8A4MOR7T7","img_art/1.jpg","2","","","","","","","","","","","","","","","","","","","","","","","","",""
"522","","image-button-response","256","1452187","0.0-255.0","A2WNW8A4MOR7T7","img_art/1.jpg","2","","","","","","","","","","","","","","","","","","","","","","","","",""
"2277","","image-button-response","257","1454467","0.0-256.0-0.0","A2WNW8A4MOR7T7","img_art/1.jpg","1","","","","","","","","","","","","","","","","","","","","","","","","",""
"2813","","image-button-response","258","1457283","0.0-257.0-0.0","A2WNW8A4MOR7T7","img_art/1.jpg","3","","","","","","","","","","","","","","","","","","","","","","","","",""
"null","","html-keyboard-response","259","1458285","0.0-258.0","A2WNW8A4MOR7T7","<p style=""font-size: 48px;"">+</p>","","","","","null","allTrialResponses","1000","1","30","img_art/1.jpg","30","b right like the colors feels sun shiny","Taylor,James,Justin,Lucas,Brian,Patrick","Deja vu. Haven't I seen this one before? Not bad for those living in the backwoods.,10,200,20","It's very colorful, and I like it,11,380,20","It reminds me of a sunset I once saw.,16,280,20","The colors match and create a nice artistic disorder.,20,380,20","I don't feel like much is happening in this painting,-25,380,20","I feel uneasy looking at this,-41,280,20","Justin","It reminds me of a sunset I once saw.,16,280,20","James","It's very colorful, and I like it,11,380,20","Lucas","The colors match and create a nice artistic disorder.,20,380,20","2"
"5966","","image-button-response_instructions","260","1464259","0.0-259.0","A2WNW8A4MOR7T7","","0","instructions","","","","","","","","","","","","","","","","","","","","","","","",""
"1784","","image-button-response","261","1466051","0.0-260.0","A2WNW8A4MOR7T7","","0","","","","","","","","","","","","","","","","","","","","","","","","",""
