"rt","url","trial_type","trial_index","time_elapsed","internal_node_id","participant_id","stimulus","button_pressed","Name","responses","response","key_press","variableName","fixationTime","condition","trial","photo","subjectRating","subjectResponse","agentsNames","agent_1_Response","agent_2_Response","agent_3_Response","agent_4_Response","agent_5_Response","agent_6_Response","kept_1_name","kept_1_response","kept_2_name","kept_2_response","kept_3_name","kept_3_response","errorCounter"
"4609","external_page_harvard.html","external-html","0","4614","0.0-0.0","A2X823PACMMOKP","","","","","","","","","","","","","","","","","","","","","","","","","","",""
"2493","","image-button-response","1","7109","0.0-1.0","A2X823PACMMOKP","","1","","","","","","","","","","","","","","","","","","","","","","","","",""
"1636","","image-button-response","2","8748","0.0-2.0-0.0","A2X823PACMMOKP","","1","phone","","","","","","","","","","","","","","","","","","","","","","","",""
"3335","","survey-text","3","12084","0.0-3.0-0.0","A2X823PACMMOKP","","","","{""Q0"":""A2X823PACMMOKP""}","","","","","","","","","","","","","","","","","","","","","","",""
"2374","","image-button-response_instructions","4","14460","0.0-4.0","A2X823PACMMOKP","","0","instructions","","","","","","","","","","","","","","","","","","","","","","","",""
"3631","","image-button-response_instructions","5","18092","0.0-5.0","A2X823PACMMOKP","img_art/ins/popularity/ins1.png","0","instructions","","","","","","","","","","","","","","","","","","","","","","","",""
"4407","","image-button-response_instructions","6","22500","0.0-6.0","A2X823PACMMOKP","img_art/ins/popularity/ins2.png","0","instructions","","","","","","","","","","","","","","","","","","","","","","","",""
"14247","","image-button-response_instructions","7","36748","0.0-7.0","A2X823PACMMOKP","img_art/ins/popularity/ins2Extreme.png","0","instructions","","","","","","","","","","","","","","","","","","","","","","","",""
"33526","","image-button-response_instructions","8","70275","0.0-8.0","A2X823PACMMOKP","img_art/ins/popularity/ins3KEEPpop.PNG","0","instructions","","","","","","","","","","","","","","","","","","","","","","","",""
"9055","","image-button-response_instructions","9","79331","0.0-9.0","A2X823PACMMOKP","img_art/ins/popularity/ins3ANamepop.PNG","0","instructions","","","","","","","","","","","","","","","","","","","","","","","",""
"3943","","image-button-response_instructions","10","83276","0.0-10.0","A2X823PACMMOKP","img_art/ins/popularity/ins3ARatingpop.png","0","instructions","","","","","","","","","","","","","","","","","","","","","","","",""
"3175","","image-button-response_instructions","11","86451","0.0-11.0","A2X823PACMMOKP","img_art/ins/popularity/ins3ATextpop.png","0","instructions","","","","","","","","","","","","","","","","","","","","","","","",""
"4662","","image-button-response_instructions","12","91115","0.0-12.0","A2X823PACMMOKP","img_art/ins/popularity/ins3ALikespop.png","0","instructions","","","","","","","","","","","","","","","","","","","","","","","",""
"4679","","image-button-response_instructions","13","95795","0.0-13.0","A2X823PACMMOKP","img_art/ins/popularity/ins3KEEPpop.PNG","0","instructions","","","","","","","","","","","","","","","","","","","","","","","",""
"16198","","image-button-response_instructions","14","111995","0.0-14.0","A2X823PACMMOKP","img_art/ins/popularity/ins3_5RED.png","0","instructions","","","","","","","","","","","","","","","","","","","","","","","",""
"13654","","image-button-response_instructions","15","125650","0.0-15.0","A2X823PACMMOKP","img_art/ins/popularity/ins3KEEPpop.PNG","0","instructions","","","","","","","","","","","","","","","","","","","","","","","",""
"8951","","image-button-response_instructions","16","134602","0.0-16.0","A2X823PACMMOKP","img_art/ins/popularity/ins4KEEPpop.PNG","0","instructions","","","","","","","","","","","","","","","","","","","","","","","",""
"8679","","image-button-response_instructions","17","143282","0.0-17.0","A2X823PACMMOKP","img_art/ins/popularity/ins5KEEPpop.PNG","0","instructions","","","","","","","","","","","","","","","","","","","","","","","",""
"3031","","image-button-response_instructions","18","146314","0.0-18.0","A2X823PACMMOKP","","0","instructions","","","","","","","","","","","","","","","","","","","","","","","",""
"13265","","survey-text","19","159602","0.0-19.0-0.0","A2X823PACMMOKP","","","","{""Q0"":""but""}","","","","","","","","","","","","","","","","","","","","","","",""
"89565","","survey-text","20","249169","0.0-20.0-0.0","A2X823PACMMOKP","","","","{""Q0"":""water stream down in the Fall with colorful leaves mixed with sunrays. ""}","","","","","","","","","","","","","","","","","","","","","","",""
"4781.5","","image-slider-response","21","253953","0.0-21.0","A2X823PACMMOKP","","","","","50","","","","","","","","","","","","","","","","","","","","","",""
"null","","image-button-response","22","258956","0.0-22.0","A2X823PACMMOKP","img_art/ins/1.jpg","null","","","","","","","","","","","","","","","","","","","","","","","","",""
"15891","","image-button-response","23","274849","0.0-23.0","A2X823PACMMOKP","img_art/ins/1.jpg","3","","","","","","","","","","","","","","","","","","","","","","","","",""
"7621","","image-button-response","24","282473","0.0-24.0-0.0","A2X823PACMMOKP","img_art/ins/1.jpg","2","","","","","","","","","","","","","","","","","","","","","","","","",""
"15134","","image-button-response","25","297609","0.0-25.0-0.0","A2X823PACMMOKP","img_art/ins/1.jpg","5","","","","","","","","","","","","","","","","","","","","","","","","",""
"null","","html-keyboard-response","26","298112","0.0-26.0","A2X823PACMMOKP","<p style=""font-size: 48px;"">+</p>","","","","","null","allTrialResponses","500","1","-2","img_art/ins/1.jpg","50","water stream down in the Fall with colorful leaves mixed with sunrays. ","Allison,Ashley,Beth,Dora,Erika,Jen","looks like a lot of things going on in the mist,20,20,20","I just don't get why these type of art would be popular,-32,40,20","This color reminds me of poo,-46,60,20","looks like what my niece in 3rd grade did this afternoon,-50,80,20","I like the sophisticated brushwork,40,100,20","It reminds me of a candy land dream I had,36,120,20","Dora","looks like what my niece in 3rd grade did this afternoon,-50,80,20","Beth","This color reminds me of poo,-46,60,20","Jen","It reminds me of a candy land dream I had,36,120,20","0"
"60571","","survey-text","27","358688","0.0-27.0-0.0","A2X823PACMMOKP","","","","{""Q0"":""Busy night in New York City. ""}","","","","","","","","","","","","","","","","","","","","","","",""
"4150.299999713898","","image-slider-response","28","362840","0.0-28.0","A2X823PACMMOKP","","","","","-32","","","","","","","","","","","","","","","","","","","","","",""
"null","","image-button-response","29","367843","0.0-29.0","A2X823PACMMOKP","img_art/ins/2.jpg","null","","","","","","","","","","","","","","","","","","","","","","","","",""
"2891","","image-button-response","30","370736","0.0-30.0","A2X823PACMMOKP","img_art/ins/2.jpg","4","","","","","","","","","","","","","","","","","","","","","","","","",""
"3935","","image-button-response","31","374673","0.0-31.0-0.0","A2X823PACMMOKP","img_art/ins/2.jpg","1","","","","","","","","","","","","","","","","","","","","","","","","",""
"3198","","image-button-response","32","377873","0.0-32.0-0.0","A2X823PACMMOKP","img_art/ins/2.jpg","3","","","","","","","","","","","","","","","","","","","","","","","","",""
"null","","html-keyboard-response","33","378874","0.0-33.0","A2X823PACMMOKP","<p style=""font-size: 48px;"">+</p>","","","","","null","allTrialResponses","1000","1","-1","img_art/ins/2.jpg","-32","Busy night in New York City. ","Katie,Jenna,Beth,Dora,Kara,Jen","too much color!,-28,180,20","One of my pet peevs,-48,140,20","meaningless painting,-45,60,20","looks too angry,-50,80,20","I like the blocks of color arrangements,30,160,20","It reminds me of a fireplace,36,120,20","Kara","I like the blocks of color arrangements,30,160,20","Jenna","One of my pet peevs,-48,140,20","Dora","looks too angry,-50,80,20","0"
"65065","","survey-text","34","443943","0.0-34.0-0.0","A2X823PACMMOKP","","","","{""Q0"":""Blue in someone's head. ""}","","","","","","","","","","","","","","","","","","","","","","",""
"5102.099999904633","","image-slider-response","35","449047","0.0-35.0","A2X823PACMMOKP","","","","","-17","","","","","","","","","","","","","","","","","","","","","",""
"3982","","image-button-response","36","454049","0.0-36.0","A2X823PACMMOKP","img_art/ins/3.jpg","4","","","","","","","","","","","","","","","","","","","","","","","","",""
"2044","","image-button-response","37","456095","0.0-37.0","A2X823PACMMOKP","img_art/ins/3.jpg","5","","","","","","","","","","","","","","","","","","","","","","","","",""
"5966","","image-button-response","38","462063","0.0-38.0-0.0","A2X823PACMMOKP","img_art/ins/3.jpg","0","","","","","","","","","","","","","","","","","","","","","","","","",""
"2662","","image-button-response","39","464727","0.0-39.0-0.0","A2X823PACMMOKP","img_art/ins/3.jpg","4","","","","","","","","","","","","","","","","","","","","","","","","",""
"null","","html-keyboard-response","40","466228","0.0-40.0","A2X823PACMMOKP","<p style=""font-size: 48px;"">+</p>","","","","","null","allTrialResponses","1500","1","0","img_art/ins/3.jpg","-17","Blue in someone's head. ","Leslie,Jenna,Mary,Dora,Kara,Rose","It's an alright work,15,200,20","looks like a murder room,-35,140,20","I like the overlapping of brushes,41,220,20","My worst nightmare,-42,80,20","calming blue is very nice,36,160,20","My daily routine, it's depressing,-20,240,20","Rose","My daily routine, it's depressing,-20,240,20","Leslie","It's an alright work,15,200,20","Kara","calming blue is very nice,36,160,20","0"
"5798","","image-button-response_instructions","41","472030","0.0-41.0","A2X823PACMMOKP","","0","instructions","","","","","","","","","","","","","","","","","","","","","","","",""
"41662","","survey-likert","42","513695","0.0-42.0-0.0","A2X823PACMMOKP","","","","{""Q0"":"""",""Q1"":0,""Q2"":1}","","","","","","","","","","","","","","","","","","","","","","",""
"6723","","survey-text","43","520422","0.0-43.0-0.0","A2X823PACMMOKP","","","","{""Q0"":""rock""}","","","","","","","","","","","","","","","","","","","","","","",""
"70846","","survey-text","44","591269","0.0-44.0-0.0","A2X823PACMMOKP","","","","{""Q0"":""Evening view of the town after a few drinks. ""}","","","","","","","","","","","","","","","","","","","","","","",""
"3950.300000190735","","image-slider-response","45","595221","0.0-45.0","A2X823PACMMOKP","","","","","-22","","","","","","","","","","","","","","","","","","","","","",""
"null","","image-button-response","46","600245","0.0-46.0","A2X823PACMMOKP","img_art/20.jpg","null","","","","","","","","","","","","","","","","","","","","","","","","",""
"1256","","image-button-response","47","601501","0.0-47.0","A2X823PACMMOKP","img_art/20.jpg","0","","","","","","","","","","","","","","","","","","","","","","","","",""
"1438","","image-button-response","48","602941","0.0-48.0-0.0","A2X823PACMMOKP","img_art/20.jpg","1","","","","","","","","","","","","","","","","","","","","","","","","",""
"2647","","image-button-response","49","605590","0.0-49.0-0.0","A2X823PACMMOKP","img_art/20.jpg","5","","","","","","","","","","","","","","","","","","","","","","","","",""
"null","","html-keyboard-response","50","607356","0.0-50.0","A2X823PACMMOKP","<p style=""font-size: 48px;"">+</p>","","","","","null","allTrialResponses","1500","1","1","img_art/20.jpg","-22","Evening view of the town after a few drinks. ","Chloe,Monica,Caitlin,Alexandria,Madison,Leah","Mood setting if a little dreary,20,220,20","It looks like a junkyard and isn't appealing,-22,360,20","Not bad for all the southwestern people.,15,80,20","it looks like a car crash which is depressing,-19,80,20","This is not abstract art, it is representative.,0,60,20","A sad past town, pollution, guess I like happier scenes,-30,360,20","Chloe","Mood setting if a little dreary,20,220,20","Monica","It looks like a junkyard and isn't appealing,-22,360,20","Leah","A sad past town, pollution, guess I like happier scenes,-30,360,20","0"
"47437","","survey-text","51","654797","0.0-51.0-0.0","A2X823PACMMOKP","","","","{""Q0"":""Too many things in the mind.""}","","","","","","","","","","","","","","","","","","","","","","",""
"3678.199999809265","","image-slider-response","52","658477","0.0-52.0","A2X823PACMMOKP","","","","","-17","","","","","","","","","","","","","","","","","","","","","",""
"2174","","image-button-response","53","663479","0.0-53.0","A2X823PACMMOKP","img_art/30.jpg","0","","","","","","","","","","","","","","","","","","","","","","","","",""
"2076","","image-button-response","54","665557","0.0-54.0","A2X823PACMMOKP","img_art/30.jpg","5","","","","","","","","","","","","","","","","","","","","","","","","",""
"3526","","image-button-response","55","669084","0.0-55.0-0.0","A2X823PACMMOKP","img_art/30.jpg","2","","","","","","","","","","","","","","","","","","","","","","","","",""
"1238","","image-button-response","56","670324","0.0-56.0-0.0","A2X823PACMMOKP","img_art/30.jpg","1","","","","","","","","","","","","","","","","","","","","","","","","",""
"null","","html-keyboard-response","57","671826","0.0-57.0","A2X823PACMMOKP","<p style=""font-size: 48px;"">+</p>","","","","","null","allTrialResponses","1500","1","2","img_art/30.jpg","-17","Too many things in the mind.","Chloe,Monica,Kimberly,Kelly,Sarah,Leah","Muddy, sloppy, unprofessional,-44,220,20","It looked like a random scribble but I can see a person's face in it now and I think it's clever,13,360,20","looks like eels,-20,260,20","The red helps it to pop.,13,220,20","looks simple, I can't see a lot of care going into this,-33,180,20","Interesting, almost an underworld of plant life,11,360,20","Leah","Interesting, almost an underworld of plant life,11,360,20","Kimberly","looks like eels,-20,260,20","Monica","It looked like a random scribble but I can see a person's face in it now and I think it's clever,13,360,20","0"
"49382","","survey-text","58","721212","0.0-58.0-0.0","A2X823PACMMOKP","","","","{""Q0"":""Burst of pink and black colors from bright yellow.""}","","","","","","","","","","","","","","","","","","","","","","",""
"4062.5","","image-slider-response","59","725276","0.0-59.0","A2X823PACMMOKP","","","","","-15","","","","","","","","","","","","","","","","","","","","","",""
"3782","","image-button-response","60","730278","0.0-60.0","A2X823PACMMOKP","img_art/5.jpg","0","","","","","","","","","","","","","","","","","","","","","","","","",""
"820","","image-button-response","61","731100","0.0-61.0","A2X823PACMMOKP","img_art/5.jpg","3","","","","","","","","","","","","","","","","","","","","","","","","",""
"1743","","image-button-response","62","732844","0.0-62.0-0.0","A2X823PACMMOKP","img_art/5.jpg","4","","","","","","","","","","","","","","","","","","","","","","","","",""
"1853","","image-button-response","63","734700","0.0-63.0-0.0","A2X823PACMMOKP","img_art/5.jpg","2","","","","","","","","","","","","","","","","","","","","","","","","",""
"null","","html-keyboard-response","64","736202","0.0-64.0","A2X823PACMMOKP","<p style=""font-size: 48px;"">+</p>","","","","","null","allTrialResponses","1500","1","3","img_art/5.jpg","-15","Burst of pink and black colors from bright yellow.","Erika,Monica,Kimberly,Kaylee,Bailey,Leah","Not sure what I'm looking at,-16,100,20","I like how simple it is and the pink brushstrokes are nice,27,360,20","It feels positive and kind of uplifting,24,260,20","a volcano erruption,21,200,20","Not sure what that even is. Looks like a 2-year old drawing,-40,360,20","Boring, no flow except the pink feathery band,-42,360,20","Kaylee","a volcano erruption,21,200,20","Bailey","Not sure what that even is. Looks like a 2-year old drawing,-40,360,20","Kimberly","It feels positive and kind of uplifting,24,260,20","0"
"48310","","survey-text","65","784515","0.0-65.0-0.0","A2X823PACMMOKP","","","","{""Q0"":""street fish market""}","","","","","","","","","","","","","","","","","","","","","","",""
"3070","","image-slider-response","66","787587","0.0-66.0","A2X823PACMMOKP","","","","","24","","","","","","","","","","","","","","","","","","","","","",""
"1839","","image-button-response","67","792589","0.0-67.0","A2X823PACMMOKP","img_art/26.jpg","3","","","","","","","","","","","","","","","","","","","","","","","","",""
"1780","","image-button-response","68","794371","0.0-68.0","A2X823PACMMOKP","img_art/26.jpg","1","","","","","","","","","","","","","","","","","","","","","","","","",""
"3495","","image-button-response","69","797868","0.0-69.0-0.0","A2X823PACMMOKP","img_art/26.jpg","4","","","","","","","","","","","","","","","","","","","","","","","","",""
"1182","","image-button-response","70","799052","0.0-70.0-0.0","A2X823PACMMOKP","img_art/26.jpg","5","","","","","","","","","","","","","","","","","","","","","","","","",""
"null","","html-keyboard-response","71","799553","0.0-71.0","A2X823PACMMOKP","<p style=""font-size: 48px;"">+</p>","","","","","null","allTrialResponses","500","1","4","img_art/26.jpg","24","street fish market","Kylie,Angelica,Kimberly,Kaylee,Bailey,Margaret","Picturesque little town,45,300,20","It's not ugly but not beautiful at all.,-3,280,20","It looks like I'm staring out of the window of a nice house, but the house is mine,20,260,20","cool cozy town vibes,50,200,20","Too blocky and unfocused. It's like the inside of a house, and the outside.,-24,360,20","its boring and i dont like the color palette,3,100,20","Angelica","It's not ugly but not beautiful at all.,-3,280,20","Bailey","Too blocky and unfocused. It's like the inside of a house, and the outside.,-24,360,20","Margaret","its boring and i dont like the color palette,3,100,20","0"
"50621","","survey-text","72","850179","0.0-72.0-0.0","A2X823PACMMOKP","","","","{""Q0"":""city sucks all lives into cement blocks. ""}","","","","","","","","","","","","","","","","","","","","","","",""
"4830.5","","image-slider-response","73","855011","0.0-73.0","A2X823PACMMOKP","","","","","-20","","","","","","","","","","","","","","","","","","","","","",""
"2014","","image-button-response","74","860014","0.0-74.0","A2X823PACMMOKP","img_art/8.jpg","1","","","","","","","","","","","","","","","","","","","","","","","","",""
"1131","","image-button-response","75","861147","0.0-75.0","A2X823PACMMOKP","img_art/8.jpg","4","","","","","","","","","","","","","","","","","","","","","","","","",""
"2678","","image-button-response","76","863827","0.0-76.0-0.0","A2X823PACMMOKP","img_art/8.jpg","3","","","","","","","","","","","","","","","","","","","","","","","","",""
"1726","","image-button-response","77","865555","0.0-77.0-0.0","A2X823PACMMOKP","img_art/8.jpg","1","","","","","","","","","","","","","","","","","","","","","","","","",""
"null","","html-keyboard-response","78","867057","0.0-78.0","A2X823PACMMOKP","<p style=""font-size: 48px;"">+</p>","","","","","null","allTrialResponses","1500","1","5","img_art/8.jpg","-20","city sucks all lives into cement blocks. ","Samantha,Angelica,Katelyn,Danielle,Bailey,Margaret","The face bothers me,-25,140,20","It's a poor rendition of an MC Escher inspired piece.,-25,280,20","I like the definition and the strong lines. It makes me think of someone watching over the world,24,100,20","Enjoy this, it looks like a rushing water pool, surrounded by mountains and buildings, hiding details such as faces.,30,340,20","Not a fan of abstract looking pieces with too many focal points. The tunnel and face, for example,-31,360,20","its pretty exciting to look at, there is alot going on,15,100,20","Bailey","Not a fan of abstract looking pieces with too many focal points. The tunnel and face, for example,-31,360,20","Danielle","Enjoy this, it looks like a rushing water pool, surrounded by mountains and buildings, hiding details such as faces.,30,340,20","Angelica","It's a poor rendition of an MC Escher inspired piece.,-25,280,20","0"
"4700","","survey-text","79","871763","0.0-79.0-0.0","A2X823PACMMOKP","","","","{""Q0"":""sky""}","","","","","","","","","","","","","","","","","","","","","","",""
"65583","","survey-text","80","937346","0.0-80.0-0.0","A2X823PACMMOKP","","","","{""Q0"":""monster in the crowd picks anyone he likes. ""}","","","","","","","","","","","","","","","","","","","","","","",""
"3318.4000000953674","","image-slider-response","81","940666","0.0-81.0","A2X823PACMMOKP","","","","","-15","","","","","","","","","","","","","","","","","","","","","",""
"2342","","image-button-response","82","945668","0.0-82.0","A2X823PACMMOKP","img_art/25.jpg","4","","","","","","","","","","","","","","","","","","","","","","","","",""
"2547","","image-button-response","83","948218","0.0-83.0","A2X823PACMMOKP","img_art/25.jpg","4","","","","","","","","","","","","","","","","","","","","","","","","",""
"1934","","image-button-response","84","950154","0.0-84.0-0.0","A2X823PACMMOKP","img_art/25.jpg","1","","","","","","","","","","","","","","","","","","","","","","","","",""
"862","","image-button-response","85","951018","0.0-85.0-0.0","A2X823PACMMOKP","img_art/25.jpg","2","","","","","","","","","","","","","","","","","","","","","","","","",""
"null","","html-keyboard-response","86","951520","0.0-86.0","A2X823PACMMOKP","<p style=""font-size: 48px;"">+</p>","","","","","null","allTrialResponses","500","1","6","img_art/25.jpg","-15","monster in the crowd picks anyone he likes. ","Olivia,Angelica,Jasmine,Danielle,Bailey,Amy","reminds me of burning man,18,40,20","This is strange and poorly done.,-2,280,20","I liked it as it seems unique in a way,21,340,20","I like it, a bit cryptic and obscene, I enjoy that,30,340,20","I love the background color and it's creepy...but cool.,30,360,20","The limited palette make this figure mysterious and interpret-able.,20,220,20","Bailey","I love the background color and it's creepy...but cool.,30,360,20","Angelica","This is strange and poorly done.,-2,280,20","Jasmine","I liked it as it seems unique in a way,21,340,20","0"
"28629","","survey-text","87","980153","0.0-87.0-0.0","A2X823PACMMOKP","","","","{""Q0"":""human flash replaced by robots. ""}","","","","","","","","","","","","","","","","","","","","","","",""
"2902.5","","image-slider-response","88","983057","0.0-88.0","A2X823PACMMOKP","","","","","-21","","","","","","","","","","","","","","","","","","","","","",""
"1590","","image-button-response","89","988060","0.0-89.0","A2X823PACMMOKP","img_art/28.jpg","0","","","","","","","","","","","","","","","","","","","","","","","","",""
"1491","","image-button-response","90","989553","0.0-90.0","A2X823PACMMOKP","img_art/28.jpg","0","","","","","","","","","","","","","","","","","","","","","","","","",""
"2590","","image-button-response","91","992145","0.0-91.0-0.0","A2X823PACMMOKP","img_art/28.jpg","4","","","","","","","","","","","","","","","","","","","","","","","","",""
"2006","","image-button-response","92","994153","0.0-92.0-0.0","A2X823PACMMOKP","img_art/28.jpg","2","","","","","","","","","","","","","","","","","","","","","","","","",""
"null","","html-keyboard-response","93","995156","0.0-93.0","A2X823PACMMOKP","<p style=""font-size: 48px;"">+</p>","","","","","null","allTrialResponses","1000","1","7","img_art/28.jpg","-21","human flash replaced by robots. ","Briana,Angelica,Jasmine,Destiny,Bailey,Maria","Is this anything?,-20,400,20","This is very ugly with poor colors.,-23,280,20","Colors too dull for me,-10,340,20","I wish I knew why I liked it, maybes its the pinky tones,36,360,20","Has an air of darkness to it, but no real substance besides the mouse-like thing.,-38,360,20","I want to like it, but I'm not really sure what to make of it,2,120,20","Briana","Is this anything?,-20,400,20","Bailey","Has an air of darkness to it, but no real substance besides the mouse-like thing.,-38,360,20","Jasmine","Colors too dull for me,-10,340,20","0"
"64968","","survey-text","94","1060128","0.0-94.0-0.0","A2X823PACMMOKP","","","","{""Q0"":""Angels gather at haven gate.""}","","","","","","","","","","","","","","","","","","","","","","",""
"2966.199999809265","","image-slider-response","95","1063096","0.0-95.0","A2X823PACMMOKP","","","","","12","","","","","","","","","","","","","","","","","","","","","",""
"3654","","image-button-response","96","1068099","0.0-96.0","A2X823PACMMOKP","img_art/23.jpg","1","","","","","","","","","","","","","","","","","","","","","","","","",""
"1995","","image-button-response","97","1070096","0.0-97.0","A2X823PACMMOKP","img_art/23.jpg","0","","","","","","","","","","","","","","","","","","","","","","","","",""
"2014","","image-button-response","98","1072112","0.0-98.0-0.0","A2X823PACMMOKP","img_art/23.jpg","2","","","","","","","","","","","","","","","","","","","","","","","","",""
"1438","","image-button-response","99","1073552","0.0-99.0-0.0","A2X823PACMMOKP","img_art/23.jpg","3","","","","","","","","","","","","","","","","","","","","","","","","",""
"null","","html-keyboard-response","100","1074055","0.0-100.0","A2X823PACMMOKP","<p style=""font-size: 48px;"">+</p>","","","","","null","allTrialResponses","500","1","8","img_art/23.jpg","12","Angels gather at haven gate.","Briana,Megan,Jasmine,Alexandra,Bailey,Mackenzie","White in the middle look like people dancing naked,19,400,20","Too busy with color with warrior lineup,0,200,20","Mostly neutral but a bit too guady with the brash colors,-6,340,20","This is my favorite of them all. I love the colors.,41,60,20","Not a fan of these dot pieces. They hurt my eyes.,-25,360,20","The usage of color is great, but not my style.,-15,20,20","Briana","White in the middle look like people dancing naked,19,400,20","Jasmine","Mostly neutral but a bit too guady with the brash colors,-6,340,20","Alexandra","This is my favorite of them all. I love the colors.,41,60,20","0"
"17189","","survey-text","101","1091248","0.0-101.0-0.0","A2X823PACMMOKP","","","","{""Q0"":""ET lost in the space.""}","","","","","","","","","","","","","","","","","","","","","","",""
"3070.5999999046326","","image-slider-response","102","1094320","0.0-102.0","A2X823PACMMOKP","","","","","24","","","","","","","","","","","","","","","","","","","","","",""
"2582","","image-button-response","103","1099323","0.0-103.0","A2X823PACMMOKP","img_art/22.jpg","0","","","","","","","","","","","","","","","","","","","","","","","","",""
"722","","image-button-response","104","1100048","0.0-104.0","A2X823PACMMOKP","img_art/22.jpg","0","","","","","","","","","","","","","","","","","","","","","","","","",""
"1694","","image-button-response","105","1101744","0.0-105.0-0.0","A2X823PACMMOKP","img_art/22.jpg","3","","","","","","","","","","","","","","","","","","","","","","","","",""
"1334","","image-button-response","106","1103080","0.0-106.0-0.0","A2X823PACMMOKP","img_art/22.jpg","2","","","","","","","","","","","","","","","","","","","","","","","","",""
"null","","html-keyboard-response","107","1104582","0.0-107.0","A2X823PACMMOKP","<p style=""font-size: 48px;"">+</p>","","","","","null","allTrialResponses","1500","1","9","img_art/22.jpg","24","ET lost in the space.","Briana,Sara,Jasmine,Alexandra,Courtney,Morgan","Bright colors feel warm,22,400,20","Looks like a warm sunset to me i like it,42,160,20","I appreciate the artistic effort but it's not for me,0,340,20","The colors in this picture are nice.,32,60,20","Looks hot where ever that is.,-8,280,20","Glowing city of many emotions.,10,380,20","Briana","Bright colors feel warm,22,400,20","Alexandra","The colors in this picture are nice.,32,60,20","Jasmine","I appreciate the artistic effort but it's not for me,0,340,20","0"
"38670","","survey-text","108","1143255","0.0-108.0-0.0","A2X823PACMMOKP","","","","{""Q0"":""late Fall at the pond.""}","","","","","","","","","","","","","","","","","","","","","","",""
"2854.4000000953674","","image-slider-response","109","1146111","0.0-109.0","A2X823PACMMOKP","","","","","22","","","","","","","","","","","","","","","","","","","","","",""
"null","","image-button-response","110","1151113","0.0-110.0","A2X823PACMMOKP","img_art/14.jpg","null","","","","","","","","","","","","","","","","","","","","","","","","",""
"1173","","image-button-response","111","1152287","0.0-111.0","A2X823PACMMOKP","img_art/14.jpg","0","","","","","","","","","","","","","","","","","","","","","","","","",""
"1607","","image-button-response","112","1153895","0.0-112.0-0.0","A2X823PACMMOKP","img_art/14.jpg","1","","","","","","","","","","","","","","","","","","","","","","","","",""
"2599","","image-button-response","113","1156495","0.0-113.0-0.0","A2X823PACMMOKP","img_art/14.jpg","2","","","","","","","","","","","","","","","","","","","","","","","","",""
"null","","html-keyboard-response","114","1157997","0.0-114.0","A2X823PACMMOKP","<p style=""font-size: 48px;"">+</p>","","","","","null","allTrialResponses","1500","1","10","img_art/14.jpg","22","late Fall at the pond.","Briana,Dominique,Jasmine,Alexandra,Sierra,Caroline","Simplistic. Looks like a child did it,14,400,20","Reminds me of the old days with my family and my grandma,41,400,20","The colors are nice and it reminds me of a shrub or tree,10,340,20","Pretty, dainty, unique,22,60,20","it put me on edge.,-11,260,20","Makes me think of trees and spring. A good feeling,26,100,20","Briana","Simplistic. Looks like a child did it,14,400,20","Dominique","Reminds me of the old days with my family and my grandma,41,400,20","Jasmine","The colors are nice and it reminds me of a shrub or tree,10,340,20","0"
"4492","","survey-text","115","1162495","0.0-115.0-0.0","A2X823PACMMOKP","","","","{""Q0"":""our""}","","","","","","","","","","","","","","","","","","","","","","",""
"31207","","survey-text","116","1193703","0.0-116.0-0.0","A2X823PACMMOKP","","","","{""Q0"":""crime scene""}","","","","","","","","","","","","","","","","","","","","","","",""
"3110.2999997138977","","image-slider-response","117","1196815","0.0-117.0","A2X823PACMMOKP","","","","","-15","","","","","","","","","","","","","","","","","","","","","",""
"null","","image-button-response","118","1201818","0.0-118.0","A2X823PACMMOKP","img_art/29.jpg","null","","","","","","","","","","","","","","","","","","","","","","","","",""
"635","","image-button-response","119","1202455","0.0-119.0","A2X823PACMMOKP","img_art/29.jpg","0","","","","","","","","","","","","","","","","","","","","","","","","",""
"2990","","image-button-response","120","1205447","0.0-120.0-0.0","A2X823PACMMOKP","img_art/29.jpg","1","","","","","","","","","","","","","","","","","","","","","","","","",""
"1838","","image-button-response","121","1207287","0.0-121.0-0.0","A2X823PACMMOKP","img_art/29.jpg","5","","","","","","","","","","","","","","","","","","","","","","","","",""
"null","","html-keyboard-response","122","1208289","0.0-122.0","A2X823PACMMOKP","<p style=""font-size: 48px;"">+</p>","","","","","null","allTrialResponses","1000","1","11","img_art/29.jpg","-15","crime scene","Briana,Dominique,Jasmine,Katherine,Jordan,Tiffany","Looks like someone trying to make something they dont understand,-36,400,20","Another great work of art and very conversational piece,33,400,20","I like the usage of blacks and greys in this,8,340,20","I think the grey and red inspire negative feelings but it's not the worst thing.,13,120,20","Yeah, I don't know. It's clearly a situation where art is the reject of something more,-27,20,20","I feel a little disgust. There is something off-putting about the smooth shapes and dark colors.,-43,360,20","Briana","Looks like someone trying to make something they dont understand,-36,400,20","Dominique","Another great work of art and very conversational piece,33,400,20","Tiffany","I feel a little disgust. There is something off-putting about the smooth shapes and dark colors.,-43,360,20","0"
"48385","","survey-text","123","1256678","0.0-123.0-0.0","A2X823PACMMOKP","","","","{""Q0"":""high-rise apartments in Brookline NY   ""}","","","","","","","","","","","","","","","","","","","","","","",""
"3022.4000000953674","","image-slider-response","124","1259702","0.0-124.0","A2X823PACMMOKP","","","","","-18","","","","","","","","","","","","","","","","","","","","","",""
"1366","","image-button-response","125","1264705","0.0-125.0","A2X823PACMMOKP","img_art/12.jpg","0","","","","","","","","","","","","","","","","","","","","","","","","",""
"803","","image-button-response","126","1265510","0.0-126.0","A2X823PACMMOKP","img_art/12.jpg","0","","","","","","","","","","","","","","","","","","","","","","","","",""
"1478","","image-button-response","127","1266990","0.0-127.0-0.0","A2X823PACMMOKP","img_art/12.jpg","1","","","","","","","","","","","","","","","","","","","","","","","","",""
"1958","","image-button-response","128","1268950","0.0-128.0-0.0","A2X823PACMMOKP","img_art/12.jpg","2","","","","","","","","","","","","","","","","","","","","","","","","",""
"null","","html-keyboard-response","129","1269452","0.0-129.0","A2X823PACMMOKP","<p style=""font-size: 48px;"">+</p>","","","","","null","allTrialResponses","500","1","12","img_art/12.jpg","-18","high-rise apartments in Brookline NY   ","Briana,Dominique,Ashley,Madeline,Brittany,Tiffany","Interesting colors. I really dont like modern art though,24,400,20","I have seen some like this before very popular and full of life,42,400,20","It's boxy, cubist immpressionism? Very ncie.,32,320,20","Love the shapes here,12,40,20","Too blocky and not interesting enough.,-15,40,20","The painting makes me uncomfortable. The smears in the boxes feel like a giant mess.,-16,360,20","Briana","Interesting colors. I really dont like modern art though,24,400,20","Dominique","I have seen some like this before very popular and full of life,42,400,20","Ashley","It's boxy, cubist immpressionism? Very ncie.,32,320,20","0"
"34781","","survey-text","130","1304237","0.0-130.0-0.0","A2X823PACMMOKP","","","","{""Q0"":""go fishing in the Fall.""}","","","","","","","","","","","","","","","","","","","","","","",""
"2942.300000190735","","image-slider-response","131","1307181","0.0-131.0","A2X823PACMMOKP","","","","","34","","","","","","","","","","","","","","","","","","","","","",""
"3999","","image-button-response","132","1312185","0.0-132.0","A2X823PACMMOKP","img_art/1.jpg","0","","","","","","","","","","","","","","","","","","","","","","","","",""
"835","","image-button-response","133","1313021","0.0-133.0","A2X823PACMMOKP","img_art/1.jpg","0","","","","","","","","","","","","","","","","","","","","","","","","",""
"1439","","image-button-response","134","1314461","0.0-134.0-0.0","A2X823PACMMOKP","img_art/1.jpg","1","","","","","","","","","","","","","","","","","","","","","","","","",""
"2038","","image-button-response","135","1316501","0.0-135.0-0.0","A2X823PACMMOKP","img_art/1.jpg","3","","","","","","","","","","","","","","","","","","","","","","","","",""
"null","","html-keyboard-response","136","1318003","0.0-136.0","A2X823PACMMOKP","<p style=""font-size: 48px;"">+</p>","","","","","null","allTrialResponses","1500","1","13","img_art/1.jpg","34","go fishing in the Fall.","Briana,Dominique,Ashley,Claire,Kaitlyn,Erica","I like the colors. But it doesnt look like anything,27,400,20","I love the detail and colors like a beautiful autumn day,35,400,20","More passable, colorful, abstract.,13,320,20","the colors are nice,8,260,20","Interesting blend of colors,9,80,20","Makes me warm and relaxed,38,80,20","Briana","I like the colors. But it doesnt look like anything,27,400,20","Dominique","I love the detail and colors like a beautiful autumn day,35,400,20","Claire","the colors are nice,8,260,20","0"
"90461","","survey-text","137","1408468","0.0-137.0-0.0","A2X823PACMMOKP","","","","{""Q0"":""Blue Jays are having a party in the wood. ""}","","","","","","","","","","","","","","","","","","","","","","",""
"3182.1000003814697","","image-slider-response","138","1411652","0.0-138.0","A2X823PACMMOKP","","","","","27","","","","","","","","","","","","","","","","","","","","","",""
"null","","image-button-response","139","1416655","0.0-139.0","A2X823PACMMOKP","img_art/15.jpg","null","","","","","","","","","","","","","","","","","","","","","","","","",""
"1108","","image-button-response","140","1417764","0.0-140.0","A2X823PACMMOKP","img_art/15.jpg","0","","","","","","","","","","","","","","","","","","","","","","","","",""
"1743","","image-button-response","141","1419508","0.0-141.0-0.0","A2X823PACMMOKP","img_art/15.jpg","2","","","","","","","","","","","","","","","","","","","","","","","","",""
"1271","","image-button-response","142","1420781","0.0-142.0-0.0","A2X823PACMMOKP","img_art/15.jpg","4","","","","","","","","","","","","","","","","","","","","","","","","",""
"null","","html-keyboard-response","143","1421783","0.0-143.0","A2X823PACMMOKP","<p style=""font-size: 48px;"">+</p>","","","","","null","allTrialResponses","1000","1","14","img_art/15.jpg","27","Blue Jays are having a party in the wood. ","Briana,Dominique,Breanna,Claire,Alexis,Jenna","It reminds me of when you look up into a tree,21,400,20","I like the colors and the different style This brings,7,400,20","Makes me feel weird,-16,380,20","it's alright but a little cluttered,14,260,20","Not a fan of abstract, but the black is very striking,10,100,20","interesting technique. the blue is very pretty,18,360,20","Briana","It reminds me of when you look up into a tree,21,400,20","Breanna","Makes me feel weird,-16,380,20","Alexis","Not a fan of abstract, but the black is very striking,10,100,20","0"
"18135","","survey-text","144","1439924","0.0-144.0-0.0","A2X823PACMMOKP","","","","{""Q0"":""woman in labor.""}","","","","","","","","","","","","","","","","","","","","","","",""
"3406.2000002861023","","image-slider-response","145","1443332","0.0-145.0","A2X823PACMMOKP","","","","","24","","","","","","","","","","","","","","","","","","","","","",""
"null","","image-button-response","146","1448335","0.0-146.0","A2X823PACMMOKP","img_art/9.jpg","null","","","","","","","","","","","","","","","","","","","","","","","","",""
"1291","","image-button-response","147","1449628","0.0-147.0","A2X823PACMMOKP","img_art/9.jpg","0","","","","","","","","","","","","","","","","","","","","","","","","",""
"1342","","image-button-response","148","1450972","0.0-148.0-0.0","A2X823PACMMOKP","img_art/9.jpg","1","","","","","","","","","","","","","","","","","","","","","","","","",""
"734","","image-button-response","149","1451708","0.0-149.0-0.0","A2X823PACMMOKP","img_art/9.jpg","2","","","","","","","","","","","","","","","","","","","","","","","","",""
"null","","html-keyboard-response","150","1453210","0.0-150.0","A2X823PACMMOKP","<p style=""font-size: 48px;"">+</p>","","","","","null","allTrialResponses","1500","1","15","img_art/9.jpg","24","woman in labor.","Briana,Jamie,Breanna,Kathryn,Alexis,Katie","I see a foot. Idk colors are pleasant,12,400,20","Mash up of colors and designs don't really go together,-5,320,20","It's a mix of paint splash and scribbling,-33,380,20","This feels dreamy. Like I'm seeing inside someone's head while they're sleeping.,20,140,20","I like the sense of forboding, the green creates a claustrophobic feeling,10,100,20","I like the blues and pinks. The woman lying down communicates relaxation. It is a serene, calming scene,30,160,20","Briana","I see a foot. Idk colors are pleasant,12,400,20","Jamie","Mash up of colors and designs don't really go together,-5,320,20","Breanna","It's a mix of paint splash and scribbling,-33,380,20","0"
"9610","","survey-text","151","1462827","0.0-151.0-0.0","A2X823PACMMOKP","","","","{""Q0"":""course""}","","","","","","","","","","","","","","","","","","","","","","",""
"28070","","survey-text","152","1490899","0.0-152.0-0.0","A2X823PACMMOKP","","","","{""Q0"":""spring flowers blooming by the stream.""}","","","","","","","","","","","","","","","","","","","","","","",""
"2750.300000190735","","image-slider-response","153","1493651","0.0-153.0","A2X823PACMMOKP","","","","","31","","","","","","","","","","","","","","","","","","","","","",""
"null","","image-button-response","154","1498653","0.0-154.0","A2X823PACMMOKP","img_art/24.jpg","null","","","","","","","","","","","","","","","","","","","","","","","","",""
"8340","","image-button-response","155","1506995","0.0-155.0","A2X823PACMMOKP","img_art/24.jpg","0","","","","","","","","","","","","","","","","","","","","","","","","",""
"1446","","image-button-response","156","1508443","0.0-156.0-0.0","A2X823PACMMOKP","img_art/24.jpg","1","","","","","","","","","","","","","","","","","","","","","","","","",""
"614","","image-button-response","157","1509059","0.0-157.0-0.0","A2X823PACMMOKP","img_art/24.jpg","2","","","","","","","","","","","","","","","","","","","","","","","","",""
"null","","html-keyboard-response","158","1510061","0.0-158.0","A2X823PACMMOKP","<p style=""font-size: 48px;"">+</p>","","","","","null","allTrialResponses","1000","1","16","img_art/24.jpg","31","spring flowers blooming by the stream.","Briana,Jamie,Breanna,Allison,Alyssa,Cheyenne","Abstract waterfall landscape. Confusing,-13,400,20","Beautiful waterfall with nice colors,40,320,20","Like it, nice attention to details,31,380,20","I appreciate the earth tones. Soothing.,5,140,20","Beautiful.Nice use of colors and invokes feelings of serene and peace,40,160,20","I like how the colors mix in this one.,20,200,20","Briana","Abstract waterfall landscape. Confusing,-13,400,20","Jamie","Beautiful waterfall with nice colors,40,320,20","Breanna","Like it, nice attention to details,31,380,20","0"
"39433","","survey-text","159","1549498","0.0-159.0-0.0","A2X823PACMMOKP","","","","{""Q0"":""Messed up with colors""}","","","","","","","","","","","","","","","","","","","","","","",""
"2678.3999996185303","","image-slider-response","160","1552178","0.0-160.0","A2X823PACMMOKP","","","","","-27","","","","","","","","","","","","","","","","","","","","","",""
"null","","image-button-response","161","1557181","0.0-161.0","A2X823PACMMOKP","img_art/27.jpg","null","","","","","","","","","","","","","","","","","","","","","","","","",""
"1516","","image-button-response","162","1558698","0.0-162.0","A2X823PACMMOKP","img_art/27.jpg","0","","","","","","","","","","","","","","","","","","","","","","","","",""
"2294","","image-button-response","163","1560994","0.0-163.0-0.0","A2X823PACMMOKP","img_art/27.jpg","2","","","","","","","","","","","","","","","","","","","","","","","","",""
"1406","","image-button-response","164","1562403","0.0-164.0-0.0","A2X823PACMMOKP","img_art/27.jpg","3","","","","","","","","","","","","","","","","","","","","","","","","",""
"null","","html-keyboard-response","165","1563905","0.0-165.0","A2X823PACMMOKP","<p style=""font-size: 48px;"">+</p>","","","","","null","allTrialResponses","1500","1","17","img_art/27.jpg","-27","Messed up with colors","Briana,Jamie,Breanna,Lindsey,Marissa,Vanessa","Unfinished something?,-30,400,20","Don't like the mix of green with the warmer colors,-15,320,20","Not too impressed with the work,6,380,20","Looks like my niece's doodles.,-50,400,20","I am bothered by the green doodles,-20,160,20","Colors make me think of fall, but I don't like how the picture was done or the weird lines across the background,6,380,20","Briana","Unfinished something?,-30,400,20","Breanna","Not too impressed with the work,6,380,20","Lindsey","Looks like my niece's doodles.,-50,400,20","0"
"40085","","survey-text","166","1603994","0.0-166.0-0.0","A2X823PACMMOKP","","","","{""Q0"":""The gold metal is for the last place.""}","","","","","","","","","","","","","","","","","","","","","","",""
"3334.0999999046326","","image-slider-response","167","1607330","0.0-167.0","A2X823PACMMOKP","","","","","32","","","","","","","","","","","","","","","","","","","","","",""
"null","","image-button-response","168","1612333","0.0-168.0","A2X823PACMMOKP","img_art/4.jpg","null","","","","","","","","","","","","","","","","","","","","","","","","",""
"1163","","image-button-response","169","1613498","0.0-169.0","A2X823PACMMOKP","img_art/4.jpg","0","","","","","","","","","","","","","","","","","","","","","","","","",""
"3630","","image-button-response","170","1617130","0.0-170.0-0.0","A2X823PACMMOKP","img_art/4.jpg","5","","","","","","","","","","","","","","","","","","","","","","","","",""
"1294","","image-button-response","171","1618426","0.0-171.0-0.0","A2X823PACMMOKP","img_art/4.jpg","3","","","","","","","","","","","","","","","","","","","","","","","","",""
"null","","html-keyboard-response","172","1619428","0.0-172.0","A2X823PACMMOKP","<p style=""font-size: 48px;"">+</p>","","","","","null","allTrialResponses","1000","1","18","img_art/4.jpg","32","The gold metal is for the last place.","Briana,Shelby,Breanna,Lindsey,Victoria,Melissa","Fingerpaint of a hand?,-30,400,20","The colors feel a bit off to me,-10,240,20","Looks like a hand, not very impressed,-22,380,20","Looks like feces smeared on the canvas. I hate it.,-50,400,20","dont like the colors,-31,400,20","appealing warm palette,6,240,20","Briana","Fingerpaint of a hand?,-30,400,20","Melissa","appealing warm palette,6,240,20","Lindsey","Looks like feces smeared on the canvas. I hate it.,-50,400,20","0"
"30241","","survey-text","173","1649673","0.0-173.0-0.0","A2X823PACMMOKP","","","","{""Q0"":""Red curtain ""}","","","","","","","","","","","","","","","","","","","","","","",""
"4878.299999713898","","image-slider-response","174","1654553","0.0-174.0","A2X823PACMMOKP","","","","","10","","","","","","","","","","","","","","","","","","","","","",""
"null","","image-button-response","175","1659556","0.0-175.0","A2X823PACMMOKP","img_art/3.jpg","null","","","","","","","","","","","","","","","","","","","","","","","","",""
"1692","","image-button-response","176","1661249","0.0-176.0","A2X823PACMMOKP","img_art/3.jpg","0","","","","","","","","","","","","","","","","","","","","","","","","",""
"1295","","image-button-response","177","1662545","0.0-177.0-0.0","A2X823PACMMOKP","img_art/3.jpg","1","","","","","","","","","","","","","","","","","","","","","","","","",""
"2487","","image-button-response","178","1665033","0.0-178.0-0.0","A2X823PACMMOKP","img_art/3.jpg","5","","","","","","","","","","","","","","","","","","","","","","","","",""
"null","","html-keyboard-response","179","1665535","0.0-179.0","A2X823PACMMOKP","<p style=""font-size: 48px;"">+</p>","","","","","null","allTrialResponses","500","1","19","img_art/3.jpg","10","Red curtain ","Briana,Julia,Kelsey,Lindsey,Sophia,Melissa","Sharp peaks look like sharp teeth,-37,400,20","this is a very nice emotion,27,40,20","just scribbles, not pleasing,-30,240,20","Angry red crayons, like a child throwing a tantrum. No thanks.,-10,400,20","Marker gone wild?  Not sure what's going on here.,-21,280,20","strong color, interesting negative shapes,21,240,20","Briana","Sharp peaks look like sharp teeth,-37,400,20","Julia","this is a very nice emotion,27,40,20","Melissa","strong color, interesting negative shapes,21,240,20","0"
"41405","","survey-text","180","1706945","0.0-180.0-0.0","A2X823PACMMOKP","","","","{""Q0"":""a kid is killed by a gun""}","","","","","","","","","","","","","","","","","","","","","","",""
"3102.4000000953674","","image-slider-response","181","1710049","0.0-181.0","A2X823PACMMOKP","","","","","-24","","","","","","","","","","","","","","","","","","","","","",""
"null","","image-button-response","182","1715052","0.0-182.0","A2X823PACMMOKP","img_art/16.jpg","null","","","","","","","","","","","","","","","","","","","","","","","","",""
"1795","","image-button-response","183","1716849","0.0-183.0","A2X823PACMMOKP","img_art/16.jpg","0","","","","","","","","","","","","","","","","","","","","","","","","",""
"1334","","image-button-response","184","1718185","0.0-184.0-0.0","A2X823PACMMOKP","img_art/16.jpg","1","","","","","","","","","","","","","","","","","","","","","","","","",""
"630","","image-button-response","185","1718817","0.0-185.0-0.0","A2X823PACMMOKP","img_art/16.jpg","2","","","","","","","","","","","","","","","","","","","","","","","","",""
"null","","html-keyboard-response","186","1720319","0.0-186.0","A2X823PACMMOKP","<p style=""font-size: 48px;"">+</p>","","","","","null","allTrialResponses","1500","1","20","img_art/16.jpg","-24","a kid is killed by a gun","Briana,Julia,Alexa,Emily,Amanda,Melissa","Weird mixed media piece,-50,400,20","I love the teddy bear,50,40,20","I can't figure out the meaning of this painting but it is pleasant to look at,40,40,20","Looks like a kid did itt and ti looks disturbing.,-45,40,20","Very modern, reminds me of bansky,43,180,20","so close to feeling intentional,-4,240,20","Briana","Weird mixed media piece,-50,400,20","Julia","I love the teddy bear,50,40,20","Alexa","I can't figure out the meaning of this painting but it is pleasant to look at,40,40,20","0"
"3537","","survey-text","187","1723864","0.0-187.0-0.0","A2X823PACMMOKP","","","","{""Q0"":""we""}","","","","","","","","","","","","","","","","","","","","","","",""
"13862","","survey-text","188","1737728","0.0-188.0-0.0","A2X823PACMMOKP","","","","{""Q0"":""it is cold outside.""}","","","","","","","","","","","","","","","","","","","","","","",""
"2742.2999997138977","","image-slider-response","189","1740472","0.0-189.0","A2X823PACMMOKP","","","","","23","","","","","","","","","","","","","","","","","","","","","",""
"null","","image-button-response","190","1745474","0.0-190.0","A2X823PACMMOKP","img_art/13.jpg","null","","","","","","","","","","","","","","","","","","","","","","","","",""
"845","","image-button-response","191","1746321","0.0-191.0","A2X823PACMMOKP","img_art/13.jpg","5","","","","","","","","","","","","","","","","","","","","","","","","",""
"798","","image-button-response","192","1747120","0.0-192.0-0.0","A2X823PACMMOKP","img_art/13.jpg","0","","","","","","","","","","","","","","","","","","","","","","","","",""
"639","","image-button-response","193","1747761","0.0-193.0-0.0","A2X823PACMMOKP","img_art/13.jpg","1","","","","","","","","","","","","","","","","","","","","","","","","",""
"null","","html-keyboard-response","194","1748262","0.0-194.0","A2X823PACMMOKP","<p style=""font-size: 48px;"">+</p>","","","","","null","allTrialResponses","500","1","21","img_art/13.jpg","23","it is cold outside.","Briana,Julia,Alexa,Stephanie,Kaitlin,Rachel","The blue colors are very calming. Reminds me of water,33,400,20","I don't really care for splatter paintings; the spectral colors underneath are nice.,-18,40,20","This looks like a staple bedroom or bathroom piece,41,40,20","Raindrops splashing on the window.,50,300,20","I like this picture. The choice of colors are good,31,60,20","Peaceful colors.,20,80,20","Rachel","Peaceful colors.,20,80,20","Briana","The blue colors are very calming. Reminds me of water,33,400,20","Julia","I don't really care for splatter paintings; the spectral colors underneath are nice.,-18,40,20","0"
"22398","","survey-text","195","1770664","0.0-195.0-0.0","A2X823PACMMOKP","","","","{""Q0"":""California fire""}","","","","","","","","","","","","","","","","","","","","","","",""
"2462.4000000953674","","image-slider-response","196","1773128","0.0-196.0","A2X823PACMMOKP","","","","","-22","","","","","","","","","","","","","","","","","","","","","",""
"null","","image-button-response","197","1778131","0.0-197.0","A2X823PACMMOKP","img_art/21.jpg","null","","","","","","","","","","","","","","","","","","","","","","","","",""
"1115","","image-button-response","198","1779248","0.0-198.0","A2X823PACMMOKP","img_art/21.jpg","0","","","","","","","","","","","","","","","","","","","","","","","","",""
"886","","image-button-response","199","1780136","0.0-199.0-0.0","A2X823PACMMOKP","img_art/21.jpg","1","","","","","","","","","","","","","","","","","","","","","","","","",""
"582","","image-button-response","200","1780720","0.0-200.0-0.0","A2X823PACMMOKP","img_art/21.jpg","2","","","","","","","","","","","","","","","","","","","","","","","","",""
"null","","html-keyboard-response","201","1781223","0.0-201.0","A2X823PACMMOKP","<p style=""font-size: 48px;"">+</p>","","","","","null","allTrialResponses","500","1","22","img_art/21.jpg","-22","California fire","Briana,Julia,Paige,Shannon,Angela,Rachel","Unfinished. Confusing to look at,-12,400,20","there's not enough fine detail in this one,-27,40,20","the picture is boring,1,60,20","I like the sky a little bit the way the colors look for the sky, the cliff side looks a little weird though.,10,220,20","I feel like I'm looking at two different paintings mashed together in the middle.,20,260,20","Looks like a body of water during a sunset. I like this piece.,21,80,20","Briana","Unfinished. Confusing to look at,-12,400,20","Julia","there's not enough fine detail in this one,-27,40,20","Paige","the picture is boring,1,60,20","0"
"77621","","survey-text","202","1858848","0.0-202.0-0.0","A2X823PACMMOKP","","","","{""Q0"":""Philadelphia mine field.""}","","","","","","","","","","","","","","","","","","","","","","",""
"2606.1000003814697","","image-slider-response","203","1861456","0.0-203.0","A2X823PACMMOKP","","","","","6","","","","","","","","","","","","","","","","","","","","","",""
"null","","image-button-response","204","1866458","0.0-204.0","A2X823PACMMOKP","img_art/11.jpg","null","","","","","","","","","","","","","","","","","","","","","","","","",""
"1788","","image-button-response","205","1868248","0.0-205.0","A2X823PACMMOKP","img_art/11.jpg","0","","","","","","","","","","","","","","","","","","","","","","","","",""
"814","","image-button-response","206","1869064","0.0-206.0-0.0","A2X823PACMMOKP","img_art/11.jpg","1","","","","","","","","","","","","","","","","","","","","","","","","",""
"646","","image-button-response","207","1869712","0.0-207.0-0.0","A2X823PACMMOKP","img_art/11.jpg","2","","","","","","","","","","","","","","","","","","","","","","","","",""
"null","","html-keyboard-response","208","1870213","0.0-208.0","A2X823PACMMOKP","<p style=""font-size: 48px;"">+</p>","","","","","null","allTrialResponses","500","1","23","img_art/11.jpg","6","Philadelphia mine field.","Briana,Julia,Paige,Chelsea,Rebecca,Cassidy","Grays arent my thing,-25,400,20","this looks like a beautiful rainy day in a hellish urban mountain city,14,40,20","gave me a sense of gloom,-21,60,20","I like the harsh black lines against a soft background.,27,180,20","to me, perfect reflection of the modern commute,32,100,20","Love the colors against the black and gray. The lines are calming.,22,140,20","Briana","Grays arent my thing,-25,400,20","Julia","this looks like a beautiful rainy day in a hellish urban mountain city,14,40,20","Paige","gave me a sense of gloom,-21,60,20","0"
"29428","","survey-text","209","1899647","0.0-209.0-0.0","A2X823PACMMOKP","","","","{""Q0"":""Mexico street festival ""}","","","","","","","","","","","","","","","","","","","","","","",""
"2846.1000003814697","","image-slider-response","210","1902495","0.0-210.0","A2X823PACMMOKP","","","","","26","","","","","","","","","","","","","","","","","","","","","",""
"null","","image-button-response","211","1907497","0.0-211.0","A2X823PACMMOKP","img_art/2.jpg","null","","","","","","","","","","","","","","","","","","","","","","","","",""
"572","","image-button-response","212","1908071","0.0-212.0","A2X823PACMMOKP","img_art/2.jpg","0","","","","","","","","","","","","","","","","","","","","","","","","",""
"534","","image-button-response","213","1908607","0.0-213.0-0.0","A2X823PACMMOKP","img_art/2.jpg","1","","","","","","","","","","","","","","","","","","","","","","","","",""
"446","","image-button-response","214","1909055","0.0-214.0-0.0","A2X823PACMMOKP","img_art/2.jpg","2","","","","","","","","","","","","","","","","","","","","","","","","",""
"null","","html-keyboard-response","215","1909557","0.0-215.0","A2X823PACMMOKP","<p style=""font-size: 48px;"">+</p>","","","","","null","allTrialResponses","500","1","24","img_art/2.jpg","26","Mexico street festival ","Briana,Julia,Paige,Brianna,Erin,Jessica","Childish smiley face,-19,400,20","I like how it looks like a cute smiling face,43,40,20","Unhappy. I do not like it,-5,60,20","The only parts I like is the light blue, red and black. The green color isn't very flattering.,11,20,20","There is an odd face here that is creepy,-4,120,20","I don't get the meaning of this piece either.,-13,400,20","Briana","Childish smiley face,-19,400,20","Julia","I like how it looks like a cute smiling face,43,40,20","Paige","Unhappy. I do not like it,-5,60,20","0"
"12644","","survey-text","216","1922206","0.0-216.0-0.0","A2X823PACMMOKP","","","","{""Q0"":""lonely bird""}","","","","","","","","","","","","","","","","","","","","","","",""
"2998.5999999046326","","image-slider-response","217","1925206","0.0-217.0","A2X823PACMMOKP","","","","","7","","","","","","","","","","","","","","","","","","","","","",""
"null","","image-button-response","218","1930208","0.0-218.0","A2X823PACMMOKP","img_art/6.jpg","null","","","","","","","","","","","","","","","","","","","","","","","","",""
"709","","image-button-response","219","1930918","0.0-219.0","A2X823PACMMOKP","img_art/6.jpg","0","","","","","","","","","","","","","","","","","","","","","","","","",""
"439","","image-button-response","220","1931358","0.0-220.0-0.0","A2X823PACMMOKP","img_art/6.jpg","1","","","","","","","","","","","","","","","","","","","","","","","","",""
"423","","image-button-response","221","1931782","0.0-221.0-0.0","A2X823PACMMOKP","img_art/6.jpg","2","","","","","","","","","","","","","","","","","","","","","","","","",""
"null","","html-keyboard-response","222","1932784","0.0-222.0","A2X823PACMMOKP","<p style=""font-size: 48px;"">+</p>","","","","","null","allTrialResponses","1000","1","25","img_art/6.jpg","7","lonely bird","Briana,Julia,Paige,Gabrielle,Gabriela,Grace","Close up peach? Hate it,-16,400,20","this is too simple for me,-34,40,20","Kind of boring. I don't care for many abstracts,1,60,20","simplistic but reminds me of a crow in a field,-10,160,20","This looks like a crow, sort of bleak,-26,140,20","Growth in the desert?  Don't care for it very much.,-26,180,20","Briana","Close up peach? Hate it,-16,400,20","Julia","this is too simple for me,-34,40,20","Paige","Kind of boring. I don't care for many abstracts,1,60,20","0"
"4693","","survey-text","223","1937486","0.0-223.0-0.0","A2X823PACMMOKP","","","","{""Q0"":""table""}","","","","","","","","","","","","","","","","","","","","","","",""
"245997","","survey-text","224","2183484","0.0-224.0-0.0","A2X823PACMMOKP","","","","{""Q0"":""a violinist's view of the world.""}","","","","","","","","","","","","","","","","","","","","","","",""
"3206.2999997138977","","image-slider-response","225","2186692","0.0-225.0","A2X823PACMMOKP","","","","","35","","","","","","","","","","","","","","","","","","","","","",""
"null","","image-button-response","226","2191695","0.0-226.0","A2X823PACMMOKP","img_art/10.jpg","null","","","","","","","","","","","","","","","","","","","","","","","","",""
"4100","","image-button-response","227","2195796","0.0-227.0","A2X823PACMMOKP","img_art/10.jpg","0","","","","","","","","","","","","","","","","","","","","","","","","",""
"1735","","image-button-response","228","2197532","0.0-228.0-0.0","A2X823PACMMOKP","img_art/10.jpg","5","","","","","","","","","","","","","","","","","","","","","","","","",""
"406","","image-button-response","229","2197940","0.0-229.0-0.0","A2X823PACMMOKP","img_art/10.jpg","4","","","","","","","","","","","","","","","","","","","","","","","","",""
"null","","html-keyboard-response","230","2199442","0.0-230.0","A2X823PACMMOKP","<p style=""font-size: 48px;"">+</p>","","","","","null","allTrialResponses","1500","1","26","img_art/10.jpg","35","a violinist's view of the world.","Briana,Julia,Paige,Alicia,Amber,Emma","It confuses me. I dont know whats going on,14,400,20","this is a good painting, but feels musical in a way that I don't connect with.,-14,40,20","kind of happy. it is intriguing,23,60,20","It's art. (for some),7,120,20","This picture just seems depressing.,-26,200,20","Feels musical .....,40,60,20","Briana","It confuses me. I dont know whats going on,14,400,20","Emma","Feels musical .....,40,60,20","Amber","This picture just seems depressing.,-26,200,20","0"
"33028","","survey-text","231","2232475","0.0-231.0-0.0","A2X823PACMMOKP","","","","{""Q0"":""artists street fair""}","","","","","","","","","","","","","","","","","","","","","","",""
"4214.200000286102","","image-slider-response","232","2236691","0.0-232.0","A2X823PACMMOKP","","","","","23","","","","","","","","","","","","","","","","","","","","","",""
"null","","image-button-response","233","2241694","0.0-233.0","A2X823PACMMOKP","img_art/19.jpg","null","","","","","","","","","","","","","","","","","","","","","","","","",""
"932","","image-button-response","234","2242627","0.0-234.0","A2X823PACMMOKP","img_art/19.jpg","0","","","","","","","","","","","","","","","","","","","","","","","","",""
"511","","image-button-response","235","2243139","0.0-235.0-0.0","A2X823PACMMOKP","img_art/19.jpg","1","","","","","","","","","","","","","","","","","","","","","","","","",""
"526","","image-button-response","236","2243667","0.0-236.0-0.0","A2X823PACMMOKP","img_art/19.jpg","2","","","","","","","","","","","","","","","","","","","","","","","","",""
"null","","html-keyboard-response","237","2244670","0.0-237.0","A2X823PACMMOKP","<p style=""font-size: 48px;"">+</p>","","","","","null","allTrialResponses","1000","1","27","img_art/19.jpg","23","artists street fair","Briana,Christina,Savannah,Mikayla,Amber,Emma","Its simple and the colors i like. It reminds me of chagall,34,400,20","i like the colors and the way it looks like an actual scene,18,240,20","Watercolor abstract? Strange.,1,200,20","Very pretty and colorful.,23,300,20","Reminds me of a busy village.,16,200,20","Interesting, leaves you wondering what it is,40,60,20","Briana","Its simple and the colors i like. It reminds me of chagall,34,400,20","Christina","i like the colors and the way it looks like an actual scene,18,240,20","Savannah","Watercolor abstract? Strange.,1,200,20","0"
"43984","","survey-text","238","2288659","0.0-238.0-0.0","A2X823PACMMOKP","","","","{""Q0"":""seaweeds washed up the beach. ""}","","","","","","","","","","","","","","","","","","","","","","",""
"2558.5","","image-slider-response","239","2291219","0.0-239.0","A2X823PACMMOKP","","","","","22","","","","","","","","","","","","","","","","","","","","","",""
"null","","image-button-response","240","2296221","0.0-240.0","A2X823PACMMOKP","img_art/7.jpg","null","","","","","","","","","","","","","","","","","","","","","","","","",""
"860","","image-button-response","241","2297083","0.0-241.0","A2X823PACMMOKP","img_art/7.jpg","0","","","","","","","","","","","","","","","","","","","","","","","","",""
"558","","image-button-response","242","2297643","0.0-242.0-0.0","A2X823PACMMOKP","img_art/7.jpg","1","","","","","","","","","","","","","","","","","","","","","","","","",""
"510","","image-button-response","243","2298155","0.0-243.0-0.0","A2X823PACMMOKP","img_art/7.jpg","2","","","","","","","","","","","","","","","","","","","","","","","","",""
"null","","html-keyboard-response","244","2300355","0.0-244.0","A2X823PACMMOKP","<p style=""font-size: 48px;"">+</p>","","","","","null","allTrialResponses","1500","1","28","img_art/7.jpg","22","seaweeds washed up the beach. ","Briana,Christina,Savannah,Leslie,Isabella,Abigail","Are these ancient cave paintings?,-7,400,20","looks like the surface of the moon,-28,240,20","More saturated color, even more interpretations to have.,44,200,20","This elicits no reaction in me.,0,380,20","Dessert like almost like dry land,4,280,20","Looks like a skin disease,-31,20,20","Briana","Are these ancient cave paintings?,-7,400,20","Christina","looks like the surface of the moon,-28,240,20","Savannah","More saturated color, even more interpretations to have.,44,200,20","0"
"26281","","survey-text","245","2326642","0.0-245.0-0.0","A2X823PACMMOKP","","","","{""Q0"":""pirates in the sea""}","","","","","","","","","","","","","","","","","","","","","","",""
"3022.300000190735","","image-slider-response","246","2329666","0.0-246.0","A2X823PACMMOKP","","","","","25","","","","","","","","","","","","","","","","","","","","","",""
"null","","image-button-response","247","2334669","0.0-247.0","A2X823PACMMOKP","img_art/18.jpg","null","","","","","","","","","","","","","","","","","","","","","","","","",""
"1484","","image-button-response","248","2336154","0.0-248.0","A2X823PACMMOKP","img_art/18.jpg","0","","","","","","","","","","","","","","","","","","","","","","","","",""
"543","","image-button-response","249","2336698","0.0-249.0-0.0","A2X823PACMMOKP","img_art/18.jpg","1","","","","","","","","","","","","","","","","","","","","","","","","",""
"599","","image-button-response","250","2337298","0.0-250.0-0.0","A2X823PACMMOKP","img_art/18.jpg","2","","","","","","","","","","","","","","","","","","","","","","","","",""
"null","","html-keyboard-response","251","2338300","0.0-251.0","A2X823PACMMOKP","<p style=""font-size: 48px;"">+</p>","","","","","null","allTrialResponses","1000","1","29","img_art/18.jpg","25","pirates in the sea","Briana,Christina,Savannah,Sydney,Michaela,Mariah","Two people fighting with one watching,17,400,20","it looks dreary and not uplifting,-10,240,20","Accents make this piece.,21,200,20","I like the colors being used, but I don't like the chaos in the middle of it.,20,320,20","Reminds me of the four horsemen of the apocalypse,29,260,20","It is too busy, but the colors are pleasant.,15,140,20","Briana","Two people fighting with one watching,17,400,20","Christina","it looks dreary and not uplifting,-10,240,20","Savannah","Accents make this piece.,21,200,20","0"
"24929","","survey-text","252","2363234","0.0-252.0-0.0","A2X823PACMMOKP","","","","{""Q0"":""internal springs""}","","","","","","","","","","","","","","","","","","","","","","",""
"2318.199999809265","","image-slider-response","253","2365554","0.0-253.0","A2X823PACMMOKP","","","","","26","","","","","","","","","","","","","","","","","","","","","",""
"null","","image-button-response","254","2370557","0.0-254.0","A2X823PACMMOKP","img_art/17.jpg","null","","","","","","","","","","","","","","","","","","","","","","","","",""
"611","","image-button-response","255","2371170","0.0-255.0","A2X823PACMMOKP","img_art/17.jpg","0","","","","","","","","","","","","","","","","","","","","","","","","",""
"542","","image-button-response","256","2371714","0.0-256.0-0.0","A2X823PACMMOKP","img_art/17.jpg","1","","","","","","","","","","","","","","","","","","","","","","","","",""
"470","","image-button-response","257","2372186","0.0-257.0-0.0","A2X823PACMMOKP","img_art/17.jpg","2","","","","","","","","","","","","","","","","","","","","","","","","",""
"null","","html-keyboard-response","258","2372688","0.0-258.0","A2X823PACMMOKP","<p style=""font-size: 48px;"">+</p>","","","","","null","allTrialResponses","500","1","30","img_art/17.jpg","26","internal springs","Briana,Christina,Savannah,Diana,Laura,Mary","It looks unfinished,-7,400,20","I like how it looks like a tree. The colors are too muted though,12,240,20","Not even abstract to me, very clear meaning.,44,200,20","I really enjoyed this piece, it's a play on bringing the outside indoors.,32,380,20","home - reminds me of fond memories of the Barnes Museum courtyard (looks just like it),30,320,20","The colors are nice and soft but not very complimentary.,7,180,20","Briana","It looks unfinished,-7,400,20","Christina","I like how it looks like a tree. The colors are too muted though,12,240,20","Savannah","Not even abstract to me, very clear meaning.,44,200,20","0"
"9412","","image-button-response_instructions","259","2382106","0.0-259.0","A2X823PACMMOKP","","0","instructions","","","","","","","","","","","","","","","","","","","","","","","",""
"14331","","image-button-response","260","2396442","0.0-260.0","A2X823PACMMOKP","","0","","","","","","","","","","","","","","","","","","","","","","","","",""
